rt,stimulus,button_pressed,trial_type,trial_index,time_elapsed,internal_node_id,subject,list,ppt_race,ppt_gender,url,first_guess,correct,key_press,responses,image_type,phrase_type,test_part,response,stimulus1,stimulus2,question_type,survey_item
2501.2,Welcome to the experiment. Press Continue to begin.,0,html-button-response,0,2508,0.0-0.0,18730,List1B,white,woman,,,,,,,,,,,,,
57613.8,,,external-html,1,61307,0.0-1.0,18730,List1B,white,woman,consent.html,,,,,,,,,,,,
14355.4,"<p>On the next page, you will see portraits of 8 people and their names.</p><p>Your first task is to take a few minutes to memorise the names of these people.</p><p>You will have to recall their names during the rest of the experiment, so it is</p><p>essential that you try to memorise these people and their names as best as you can.</p><br><p><strong>You will then be tested on your memory of these names and portraits.</strong></p><br><p>The experiment will start after you have completed this memory test.</p><br><p>Ready?</p>",0,html-button-response,2,75667,0.0-2.0,18730,List1B,white,woman,,,,,,,,,,,,,
36211.8,"<img src='img/portrait_matrix_list1.jpg' style='width:900px;height:500px;''></img><p>If you have memorised all the portraits and names and are ready to start, press Continue.</p><p><strong>Please note: Your memory of these faces will be tested 4 times during this experiment.</strong></p>",0,html-button-response,3,112884,0.0-3.0-0.0,18730,List1B,white,woman,,,,,,,,,,,,,
2904,"<img src=""portrait/BM1.jpg""style=""height:400px;""></img>",4,html-button-response,4,116793,0.0-3.0-1.0,18730,List1B,white,woman,,TRUE,4,,,,,,,,,,
null,CORRECT,,html-keyboard-response,5,118301,0.0-3.0-2.0-0.0,18730,List1B,white,woman,,,,null,,,,,,,,,
4127.5,"<img src=""portrait/WM1.jpg""style=""height:400px;""></img>",6,html-button-response,6,122434,0.0-3.0-4.0,18730,List1B,white,woman,,TRUE,6,,,,,,,,,,
null,CORRECT,,html-keyboard-response,7,123941,0.0-3.0-5.0-0.0,18730,List1B,white,woman,,,,null,,,,,,,,,
4552.5,"<img src=""portrait/WW1.jpg""style=""height:400px;""></img>",1,html-button-response,8,128497,0.0-3.0-7.0,18730,List1B,white,woman,,TRUE,1,,,,,,,,,,
null,CORRECT,,html-keyboard-response,9,129999,0.0-3.0-8.0-0.0,18730,List1B,white,woman,,,,null,,,,,,,,,
2286.5,"<img src=""portrait/WW2.jpg""style=""height:400px;""></img>",3,html-button-response,10,132288,0.0-3.0-10.0,18730,List1B,white,woman,,TRUE,3,,,,,,,,,,
null,CORRECT,,html-keyboard-response,11,133792,0.0-3.0-11.0-0.0,18730,List1B,white,woman,,,,null,,,,,,,,,
5501.3,"<img src=""portrait/BW2.jpg""style=""height:400px;""></img>",2,html-button-response,12,139297,0.0-3.0-13.0,18730,List1B,white,woman,,TRUE,2,,,,,,,,,,
null,CORRECT,,html-keyboard-response,13,140801,0.0-3.0-14.0-0.0,18730,List1B,white,woman,,,,null,,,,,,,,,
2387.1,"<img src=""portrait/BW1.jpg""style=""height:400px;""></img>",0,html-button-response,14,143192,0.0-3.0-16.0,18730,List1B,white,woman,,TRUE,0,,,,,,,,,,
null,CORRECT,,html-keyboard-response,15,144695,0.0-3.0-17.0-0.0,18730,List1B,white,woman,,,,null,,,,,,,,,
6172.5,"<img src=""portrait/WM2.jpg""style=""height:400px;""></img>",7,html-button-response,16,150872,0.0-3.0-19.0,18730,List1B,white,woman,,TRUE,7,,,,,,,,,,
null,CORRECT,,html-keyboard-response,17,152375,0.0-3.0-20.0-0.0,18730,List1B,white,woman,,,,null,,,,,,,,,
3940.1,"<img src=""portrait/BM2.jpg""style=""height:400px;""></img>",5,html-button-response,18,156320,0.0-3.0-22.0,18730,List1B,white,woman,,TRUE,5,,,,,,,,,,
null,CORRECT,,html-keyboard-response,19,157823,0.0-3.0-23.0-0.0,18730,List1B,white,woman,,,,null,,,,,,,,,
1995,<p>You got 8 out of 8 right first time. Press Continue.</p>,0,html-button-response,20,159823,0.0-3.0-25.0,18730,List1B,white,woman,,,,,,,,,,,,,
44464.1,"<p>In this experiment, you will view photographs of the people from the memory game interacting.</p><p>By using the <strong>exact</strong> phrase given <i>after</i> the photograph appears and recalling the correct names of the people in the photographs, form a sentence describing the interaction. You do not need to capitalise names.</p><p>Type your answer in the space provided. Please complete every sentence before moving onto the next trial.</p><p>You will only have a few seconds to memorise each given photograph and phrase before you can respond, so try your best to focus.</p><p>An example is given below. Press 'Continue' when you are ready.</p><img src='img/speaking_example.jpg' style='width:800px;height:460px;''></img>",0,html-button-response,21,205292,0.0-4.0,18730,List1B,white,woman,,,,,,,,,,,,,
3781,"<p>Before the experiment starts, you will watch two example trials. Press 'Continue'.</p>",0,html-button-response,22,210076,0.0-5.0,18730,List1B,white,woman,,,,,,,,,,,,,
null,<img src='img/play_eg.gif' style='height:400px;''></img>,,html-keyboard-response,23,213082,0.0-6.0,18730,List1B,white,woman,,,,null,,,,,,,,,
null,<p>is playing with</p>,,html-keyboard-response,24,215085,0.0-7.0,18730,List1B,white,woman,,,,null,,,,,,,,,
5567.3,<p><b>Answer:</b> kate is playing with beth</p>,0,html-button-response,25,220654,0.0-8.0,18730,List1B,white,woman,,,,,,,,,,,,,
null,<img src='img/dance_eg.gif' style='height:400px;''></img>,,html-keyboard-response,26,223658,0.0-9.0,18730,List1B,white,woman,,,,null,,,,,,,,,
null,<p>is being entertained by</p>,,html-keyboard-response,27,225661,0.0-10.0,18730,List1B,white,woman,,,,null,,,,,,,,,
5053.7,<p><b>Answer:</b> luke is being entertained by dave</p>,0,html-button-response,28,230717,0.0-11.0,18730,List1B,white,woman,,,,,,,,,,,,,
13092.3,"<p>Ready to start the experiment?</p><br><p><strong>Remember to describe the picture using a full sentence,</strong></p><p><strong>that combines the names of the people with the <i>exact</i> phrase given.</strong></p><p><strong>To receive full payment you must do this correctly.</strong></p><p><strong> You do not need to capitalise names or use punctuation.</strong></p><br><p>Press 'Continue' to begin.</p>",0,html-button-response,29,244812,0.0-12.0,18730,List1B,white,woman,,,,,,,,,,,,,
null,"<div style=""font-size:60px;"">+</div>",,html-keyboard-response,30,246316,0.0-13.0-0.0,18730,List1B,white,woman,,,,null,,,,,,,,,
null,"<img src=""stim_listB/touch4.gif""style=""height:400px;""></stim_listB>",,html-keyboard-response,31,248322,0.0-13.0-1.0,18730,List1B,white,woman,,,,null,,,,,,,,,
null,is being touched by,,html-keyboard-response,32,250325,0.0-13.0-2.0,18730,List1B,white,woman,,,,null,,,,,,,,,
11012.3,,,survey-text,33,261349,0.0-13.0-3.0,18730,List1B,white,woman,,,,,"{""Q0"":""luke is being touched by ruth""}","<img src=""stim_listB/touch4.gif""style=""height:400px;""></stim_listB>",is being touched by,,,,,,
null,"<div style=""font-size:60px;"">+</div>",,html-keyboard-response,34,261852,0.0-13.0-0.1,18730,List1B,white,woman,,,,null,,,,,,,,,
null,"<img src=""stim_listB/shout3.gif""style=""height:400px;""></stim_listB>",,html-keyboard-response,35,263854,0.0-13.0-1.1,18730,List1B,white,woman,,,,null,,,,,,,,,
null,is shouting at,,html-keyboard-response,36,265858,0.0-13.0-2.1,18730,List1B,white,woman,,,,null,,,,,,,,,
11981.9,,,survey-text,37,277847,0.0-13.0-3.1,18730,List1B,white,woman,,,,,"{""Q0"":""ruth is shouting at luke""}","<img src=""stim_listB/shout3.gif""style=""height:400px;""></stim_listB>",is shouting at,,,,,,
null,"<div style=""font-size:60px;"">+</div>",,html-keyboard-response,38,278350,0.0-13.0-0.2,18730,List1B,white,woman,,,,null,,,,,,,,,
null,"<img src=""stim_listB/copy1.gif""style=""height:400px;""></stim_listB>",,html-keyboard-response,39,280354,0.0-13.0-1.2,18730,List1B,white,woman,,,,null,,,,,,,,,
null,is copying,,html-keyboard-response,40,282357,0.0-13.0-2.2,18730,List1B,white,woman,,,,null,,,,,,,,,
8812.3,,,survey-text,41,291175,0.0-13.0-3.2,18730,List1B,white,woman,,,,,"{""Q0"":""beth is copying mike""}","<img src=""stim_listB/copy1.gif""style=""height:400px;""></stim_listB>",is copying,,,,,,
null,"<div style=""font-size:60px;"">+</div>",,html-keyboard-response,42,291678,0.0-13.0-0.3,18730,List1B,white,woman,,,,null,,,,,,,,,
null,"<img src=""stim_listB/greet3.gif""style=""height:400px;""></stim_listB>",,html-keyboard-response,43,293683,0.0-13.0-1.3,18730,List1B,white,woman,,,,null,,,,,,,,,
null,is greeting,,html-keyboard-response,44,295686,0.0-13.0-2.3,18730,List1B,white,woman,,,,null,,,,,,,,,
6071.4,,,survey-text,45,301765,0.0-13.0-3.3,18730,List1B,white,woman,,,,,"{""Q0"":""dave is greeting ruth""}","<img src=""stim_listB/greet3.gif""style=""height:400px;""></stim_listB>",is greeting,,,,,,
null,"<div style=""font-size:60px;"">+</div>",,html-keyboard-response,46,302268,0.0-13.0-0.4,18730,List1B,white,woman,,,,null,,,,,,,,,
null,"<img src=""stim_listB/oppose4.gif""style=""height:400px;""></stim_listB>",,html-keyboard-response,47,304271,0.0-13.0-1.4,18730,List1B,white,woman,,,,null,,,,,,,,,
null,is being opposed by,,html-keyboard-response,48,306273,0.0-13.0-2.4,18730,List1B,white,woman,,,,null,,,,,,,,,
10335.7,,,survey-text,49,316619,0.0-13.0-3.4,18730,List1B,white,woman,,,,,"{""Q0"":""luke is being opposed by ruth""}","<img src=""stim_listB/oppose4.gif""style=""height:400px;""></stim_listB>",is being opposed by,,,,,,
null,"<div style=""font-size:60px;"">+</div>",,html-keyboard-response,50,317121,0.0-13.0-0.5,18730,List1B,white,woman,,,,null,,,,,,,,,
null,"<img src=""stim_listB/oppose2.gif""style=""height:400px;""></stim_listB>",,html-keyboard-response,51,319127,0.0-13.0-1.5,18730,List1B,white,woman,,,,null,,,,,,,,,
null,is being opposed by,,html-keyboard-response,52,321129,0.0-13.0-2.5,18730,List1B,white,woman,,,,null,,,,,,,,,
12777.7,,,survey-text,53,333915,0.0-13.0-3.5,18730,List1B,white,woman,,,,,"{""Q0"":""fred is being opposed by beth""}","<img src=""stim_listB/oppose2.gif""style=""height:400px;""></stim_listB>",is being opposed by,,,,,,
null,"<div style=""font-size:60px;"">+</div>",,html-keyboard-response,54,334417,0.0-13.0-0.6,18730,List1B,white,woman,,,,null,,,,,,,,,
null,"<img src=""stim_listB/oppose5.gif""style=""height:400px;""></stim_listB>",,html-keyboard-response,55,336421,0.0-13.0-1.6,18730,List1B,white,woman,,,,null,,,,,,,,,
null,is opposing,,html-keyboard-response,56,338425,0.0-13.0-2.6,18730,List1B,white,woman,,,,null,,,,,,,,,
11567.8,,,survey-text,57,349999,0.0-13.0-3.6,18730,List1B,white,woman,,,,,"{""Q0"":""dave is opposing mike""}","<img src=""stim_listB/oppose5.gif""style=""height:400px;""></stim_listB>",is opposing,,,,,,
null,"<div style=""font-size:60px;"">+</div>",,html-keyboard-response,58,350503,0.0-13.0-0.7,18730,List1B,white,woman,,,,null,,,,,,,,,
null,"<img src=""stim_listB/copy8.gif""style=""height:400px;""></stim_listB>",,html-keyboard-response,59,352509,0.0-13.0-1.7,18730,List1B,white,woman,,,,null,,,,,,,,,
null,is being copied by,,html-keyboard-response,60,354515,0.0-13.0-2.7,18730,List1B,white,woman,,,,null,,,,,,,,,
8613.7,,,survey-text,61,363141,0.0-13.0-3.7,18730,List1B,white,woman,,,,,"{""Q0"":""beth is being copied by jane""}","<img src=""stim_listB/copy8.gif""style=""height:400px;""></stim_listB>",is being copied by,,,,,,
null,"<div style=""font-size:60px;"">+</div>",,html-keyboard-response,62,363645,0.0-13.0-0.8,18730,List1B,white,woman,,,,null,,,,,,,,,
null,"<img src=""stim_listB/hug2.gif""style=""height:400px;""></stim_listB>",,html-keyboard-response,63,365650,0.0-13.0-1.8,18730,List1B,white,woman,,,,null,,,,,,,,,
null,is being hugged by,,html-keyboard-response,64,367654,0.0-13.0-2.8,18730,List1B,white,woman,,,,null,,,,,,,,,
11041.7,,,survey-text,65,378703,0.0-13.0-3.8,18730,List1B,white,woman,,,,,"{""Q0"":""kate is being hugged by mike""}","<img src=""stim_listB/hug2.gif""style=""height:400px;""></stim_listB>",is being hugged by,,,,,,
null,"<div style=""font-size:60px;"">+</div>",,html-keyboard-response,66,379206,0.0-13.0-0.9,18730,List1B,white,woman,,,,null,,,,,,,,,
null,"<img src=""stim_listB/kiss4.gif""style=""height:400px;""></stim_listB>",,html-keyboard-response,67,381210,0.0-13.0-1.9,18730,List1B,white,woman,,,,null,,,,,,,,,
null,is being kissed by,,html-keyboard-response,68,383219,0.0-13.0-2.9,18730,List1B,white,woman,,,,null,,,,,,,,,
17069.7,,,survey-text,69,400294,0.0-13.0-3.9,18730,List1B,white,woman,,,,,"{""Q0"":""jane is being kissed by dave""}","<img src=""stim_listB/kiss4.gif""style=""height:400px;""></stim_listB>",is being kissed by,,,,,,
null,"<div style=""font-size:60px;"">+</div>",,html-keyboard-response,70,400797,0.0-13.0-0.10,18730,List1B,white,woman,,,,null,,,,,,,,,
null,"<img src=""stim_listB/hug5.gif""style=""height:400px;""></stim_listB>",,html-keyboard-response,71,402804,0.0-13.0-1.10,18730,List1B,white,woman,,,,null,,,,,,,,,
null,is hugging,,html-keyboard-response,72,404808,0.0-13.0-2.10,18730,List1B,white,woman,,,,null,,,,,,,,,
5361.6,,,survey-text,73,410178,0.0-13.0-3.10,18730,List1B,white,woman,,,,,"{""Q0"":""fred is hugging luke""}","<img src=""stim_listB/hug5.gif""style=""height:400px;""></stim_listB>",is hugging,,,,,,
null,"<div style=""font-size:60px;"">+</div>",,html-keyboard-response,74,410682,0.0-13.0-0.11,18730,List1B,white,woman,,,,null,,,,,,,,,
null,"<img src=""stim_listB/copy7.gif""style=""height:400px;""></stim_listB>",,html-keyboard-response,75,412687,0.0-13.0-1.11,18730,List1B,white,woman,,,,null,,,,,,,,,
null,is copying,,html-keyboard-response,76,414692,0.0-13.0-2.11,18730,List1B,white,woman,,,,null,,,,,,,,,
11306.3,,,survey-text,77,426008,0.0-13.0-3.11,18730,List1B,white,woman,,,,,"{""Q0"":""ruth is copying kate""}","<img src=""stim_listB/copy7.gif""style=""height:400px;""></stim_listB>",is copying,,,,,,
null,"<div style=""font-size:60px;"">+</div>",,html-keyboard-response,78,426511,0.0-13.0-0.12,18730,List1B,white,woman,,,,null,,,,,,,,,
null,"<img src=""stim_listB/touch5.gif""style=""height:400px;""></stim_listB>",,html-keyboard-response,79,428516,0.0-13.0-1.12,18730,List1B,white,woman,,,,null,,,,,,,,,
null,is touching,,html-keyboard-response,80,430520,0.0-13.0-2.12,18730,List1B,white,woman,,,,null,,,,,,,,,
8620,,,survey-text,81,439148,0.0-13.0-3.12,18730,List1B,white,woman,,,,,"{""Q0"":"" dave is touching mike""}","<img src=""stim_listB/touch5.gif""style=""height:400px;""></stim_listB>",is touching,,,,,,
null,"<div style=""font-size:60px;"">+</div>",,html-keyboard-response,82,439653,0.0-13.0-0.13,18730,List1B,white,woman,,,,null,,,,,,,,,
null,"<img src=""stim_listB/oppose8.gif""style=""height:400px;""></stim_listB>",,html-keyboard-response,83,441659,0.0-13.0-1.13,18730,List1B,white,woman,,,,null,,,,,,,,,
null,is being opposed by,,html-keyboard-response,84,443662,0.0-13.0-2.13,18730,List1B,white,woman,,,,null,,,,,,,,,
9975.8,,,survey-text,85,453647,0.0-13.0-3.13,18730,List1B,white,woman,,,,,"{""Q0"":""beth is being opposed by ruth""}","<img src=""stim_listB/oppose8.gif""style=""height:400px;""></stim_listB>",is being opposed by,,,,,,
null,"<div style=""font-size:60px;"">+</div>",,html-keyboard-response,86,454151,0.0-13.0-0.14,18730,List1B,white,woman,,,,null,,,,,,,,,
null,"<img src=""stim_listB/oppose7.gif""style=""height:400px;""></stim_listB>",,html-keyboard-response,87,456158,0.0-13.0-1.14,18730,List1B,white,woman,,,,null,,,,,,,,,
null,is opposing,,html-keyboard-response,88,458161,0.0-13.0-2.14,18730,List1B,white,woman,,,,null,,,,,,,,,
6161,,,survey-text,89,464331,0.0-13.0-3.14,18730,List1B,white,woman,,,,,"{""Q0"":"" jane is opposing kate""}","<img src=""stim_listB/oppose7.gif""style=""height:400px;""></stim_listB>",is opposing,,,,,,
null,"<div style=""font-size:60px;"">+</div>",,html-keyboard-response,90,464836,0.0-13.0-0.15,18730,List1B,white,woman,,,,null,,,,,,,,,
null,"<img src=""stim_listB/greet4.gif""style=""height:400px;""></stim_listB>",,html-keyboard-response,91,466842,0.0-13.0-1.15,18730,List1B,white,woman,,,,null,,,,,,,,,
null,is being greeted by,,html-keyboard-response,92,468845,0.0-13.0-2.15,18730,List1B,white,woman,,,,null,,,,,,,,,
8588.5,,,survey-text,93,477440,0.0-13.0-3.15,18730,List1B,white,woman,,,,,"{""Q0"":""jane is being greeted by luke""}","<img src=""stim_listB/greet4.gif""style=""height:400px;""></stim_listB>",is being greeted by,,,,,,
null,"<div style=""font-size:60px;"">+</div>",,html-keyboard-response,94,477945,0.0-13.0-0.16,18730,List1B,white,woman,,,,null,,,,,,,,,
null,"<img src=""stim_listB/touch6.gif""style=""height:400px;""></stim_listB>",,html-keyboard-response,95,479952,0.0-13.0-1.16,18730,List1B,white,woman,,,,null,,,,,,,,,
null,is being touched by,,html-keyboard-response,96,481957,0.0-13.0-2.16,18730,List1B,white,woman,,,,null,,,,,,,,,
9703.2,,,survey-text,97,491671,0.0-13.0-3.16,18730,List1B,white,woman,,,,,"{""Q0"":""fred is being touched by luke""}","<img src=""stim_listB/touch6.gif""style=""height:400px;""></stim_listB>",is being touched by,,,,,,
null,"<div style=""font-size:60px;"">+</div>",,html-keyboard-response,98,492175,0.0-13.0-0.17,18730,List1B,white,woman,,,,null,,,,,,,,,
null,"<img src=""stim_listB/seduce7.gif""style=""height:400px;""></stim_listB>",,html-keyboard-response,99,494182,0.0-13.0-1.17,18730,List1B,white,woman,,,,null,,,,,,,,,
null,is seducing,,html-keyboard-response,100,496186,0.0-13.0-2.17,18730,List1B,white,woman,,,,null,,,,,,,,,
11102.1,,,survey-text,101,507303,0.0-13.0-3.17,18730,List1B,white,woman,,,,,"{""Q0"":""beth is seducing jane""}","<img src=""stim_listB/seduce7.gif""style=""height:400px;""></stim_listB>",is seducing,,,,,,
null,"<div style=""font-size:60px;"">+</div>",,html-keyboard-response,102,507808,0.0-13.0-0.18,18730,List1B,white,woman,,,,null,,,,,,,,,
null,"<img src=""stim_listB/challenge4.gif""style=""height:400px;""></stim_listB>",,html-keyboard-response,103,509815,0.0-13.0-1.18,18730,List1B,white,woman,,,,null,,,,,,,,,
null,is being challenged by,,html-keyboard-response,104,511821,0.0-13.0-2.18,18730,List1B,white,woman,,,,null,,,,,,,,,
11019,,,survey-text,105,522857,0.0-13.0-3.18,18730,List1B,white,woman,,,,,"{""Q0"":""jane is being challenged by luke""}","<img src=""stim_listB/challenge4.gif""style=""height:400px;""></stim_listB>",is being challenged by,,,,,,
null,"<div style=""font-size:60px;"">+</div>",,html-keyboard-response,106,523362,0.0-13.0-0.19,18730,List1B,white,woman,,,,null,,,,,,,,,
null,"<img src=""stim_listB/challenge5.gif""style=""height:400px;""></stim_listB>",,html-keyboard-response,107,525367,0.0-13.0-1.19,18730,List1B,white,woman,,,,null,,,,,,,,,
null,is challenging,,html-keyboard-response,108,527370,0.0-13.0-2.19,18730,List1B,white,woman,,,,null,,,,,,,,,
7758.9,,,survey-text,109,535135,0.0-13.0-3.19,18730,List1B,white,woman,,,,,"{""Q0"":""luke is challenging mike""}","<img src=""stim_listB/challenge5.gif""style=""height:400px;""></stim_listB>",is challenging,,,,,,
14146.2,"<img src='img/portrait_matrix_list1.jpg' style='width:900px;height:500px;''></img><p>If you have memorised all the portraits and names and are ready to start, press Continue.</p><p><strong>Please note: Your memory of these faces will be tested 4 times during this experiment.</strong></p>",0,html-button-response,110,549284,0.0-14.0-0.0,18730,List1B,white,woman,,,,,,,,,,,,,
3433.5,"<img src=""portrait/BM1.jpg""style=""height:400px;""></img>",4,html-button-response,111,553721,0.0-14.0-1.0,18730,List1B,white,woman,,TRUE,4,,,,,,,,,,
null,CORRECT,,html-keyboard-response,112,555227,0.0-14.0-2.0-0.0,18730,List1B,white,woman,,,,null,,,,,,,,,
1583.4,"<img src=""portrait/WM2.jpg""style=""height:400px;""></img>",7,html-button-response,113,556814,0.0-14.0-4.0,18730,List1B,white,woman,,TRUE,7,,,,,,,,,,
null,CORRECT,,html-keyboard-response,114,558317,0.0-14.0-5.0-0.0,18730,List1B,white,woman,,,,null,,,,,,,,,
2423.2,"<img src=""portrait/BW1.jpg""style=""height:400px;""></img>",0,html-button-response,115,560745,0.0-14.0-7.0,18730,List1B,white,woman,,TRUE,0,,,,,,,,,,
null,CORRECT,,html-keyboard-response,116,562249,0.0-14.0-8.0-0.0,18730,List1B,white,woman,,,,null,,,,,,,,,
2889.4,"<img src=""portrait/WM1.jpg""style=""height:400px;""></img>",6,html-button-response,117,565143,0.0-14.0-10.0,18730,List1B,white,woman,,TRUE,6,,,,,,,,,,
null,CORRECT,,html-keyboard-response,118,566649,0.0-14.0-11.0-0.0,18730,List1B,white,woman,,,,null,,,,,,,,,
2001.4,"<img src=""portrait/BM2.jpg""style=""height:400px;""></img>",5,html-button-response,119,568655,0.0-14.0-13.0,18730,List1B,white,woman,,TRUE,5,,,,,,,,,,
null,CORRECT,,html-keyboard-response,120,570158,0.0-14.0-14.0-0.0,18730,List1B,white,woman,,,,null,,,,,,,,,
2422.1,"<img src=""portrait/WW1.jpg""style=""height:400px;""></img>",1,html-button-response,121,572585,0.0-14.0-16.0,18730,List1B,white,woman,,TRUE,1,,,,,,,,,,
null,CORRECT,,html-keyboard-response,122,574089,0.0-14.0-17.0-0.0,18730,List1B,white,woman,,,,null,,,,,,,,,
2181.4,"<img src=""portrait/BW2.jpg""style=""height:400px;""></img>",2,html-button-response,123,576275,0.0-14.0-19.0,18730,List1B,white,woman,,TRUE,2,,,,,,,,,,
null,CORRECT,,html-keyboard-response,124,577779,0.0-14.0-20.0-0.0,18730,List1B,white,woman,,,,null,,,,,,,,,
2001.8,"<img src=""portrait/WW2.jpg""style=""height:400px;""></img>",3,html-button-response,125,579786,0.0-14.0-22.0,18730,List1B,white,woman,,TRUE,3,,,,,,,,,,
null,CORRECT,,html-keyboard-response,126,581292,0.0-14.0-23.0-0.0,18730,List1B,white,woman,,,,null,,,,,,,,,
2459.5,<p>You got 8 out of 8 right first time. Press Continue.</p>,0,html-button-response,127,583756,0.0-14.0-25.0,18730,List1B,white,woman,,,,,,,,,,,,,
null,"<div style=""font-size:60px;"">+</div>",,html-keyboard-response,128,585261,0.0-15.0-0.0,18730,List1B,white,woman,,,,null,,,,,,,,,
null,"<img src=""stim_listB/kiss2.gif""style=""height:400px;""></stim_listB>",,html-keyboard-response,129,587266,0.0-15.0-1.0,18730,List1B,white,woman,,,,null,,,,,,,,,
null,is being kissed by,,html-keyboard-response,130,589269,0.0-15.0-2.0,18730,List1B,white,woman,,,,null,,,,,,,,,
8439,,,survey-text,131,597719,0.0-15.0-3.0,18730,List1B,white,woman,,,,,"{""Q0"":""mike is being kissed by kate""}","<img src=""stim_listB/kiss2.gif""style=""height:400px;""></stim_listB>",is being kissed by,,,,,,
null,"<div style=""font-size:60px;"">+</div>",,html-keyboard-response,132,598222,0.0-15.0-0.1,18730,List1B,white,woman,,,,null,,,,,,,,,
null,"<img src=""stim_listB/kiss3.gif""style=""height:400px;""></stim_listB>",,html-keyboard-response,133,600226,0.0-15.0-1.1,18730,List1B,white,woman,,,,null,,,,,,,,,
null,is kissing,,html-keyboard-response,134,602229,0.0-15.0-2.1,18730,List1B,white,woman,,,,null,,,,,,,,,
6328.3,,,survey-text,135,608568,0.0-15.0-3.1,18730,List1B,white,woman,,,,,"{""Q0"":""ruth is kissing luke""}","<img src=""stim_listB/kiss3.gif""style=""height:400px;""></stim_listB>",is kissing,,,,,,
null,"<div style=""font-size:60px;"">+</div>",,html-keyboard-response,136,609074,0.0-15.0-0.2,18730,List1B,white,woman,,,,null,,,,,,,,,
null,"<img src=""stim_listB/challenge1.gif""style=""height:400px;""></stim_listB>",,html-keyboard-response,137,611080,0.0-15.0-1.2,18730,List1B,white,woman,,,,null,,,,,,,,,
null,is challenging,,html-keyboard-response,138,613084,0.0-15.0-2.2,18730,List1B,white,woman,,,,null,,,,,,,,,
6244.4,,,survey-text,139,619339,0.0-15.0-3.2,18730,List1B,white,woman,,,,,"{""Q0"":""beth is challenging mike""}","<img src=""stim_listB/challenge1.gif""style=""height:400px;""></stim_listB>",is challenging,,,,,,
null,"<div style=""font-size:60px;"">+</div>",,html-keyboard-response,140,619843,0.0-15.0-0.3,18730,List1B,white,woman,,,,null,,,,,,,,,
null,"<img src=""stim_listB/look8.gif""style=""height:400px;""></stim_listB>",,html-keyboard-response,141,621849,0.0-15.0-1.3,18730,List1B,white,woman,,,,null,,,,,,,,,
null,is being looked at by,,html-keyboard-response,142,623852,0.0-15.0-2.3,18730,List1B,white,woman,,,,null,,,,,,,,,
8493.5,,,survey-text,143,632353,0.0-15.0-3.3,18730,List1B,white,woman,,,,,"{""Q0"":""kate is being looked at by jane""}","<img src=""stim_listB/look8.gif""style=""height:400px;""></stim_listB>",is being looked at by,,,,,,
null,"<div style=""font-size:60px;"">+</div>",,html-keyboard-response,144,632856,0.0-15.0-0.4,18730,List1B,white,woman,,,,null,,,,,,,,,
null,"<img src=""stim_listB/copy5.gif""style=""height:400px;""></stim_listB>",,html-keyboard-response,145,634862,0.0-15.0-1.4,18730,List1B,white,woman,,,,null,,,,,,,,,
null,is copying,,html-keyboard-response,146,636866,0.0-15.0-2.4,18730,List1B,white,woman,,,,null,,,,,,,,,
5454.5,,,survey-text,147,642329,0.0-15.0-3.4,18730,List1B,white,woman,,,,,"{""Q0"":""mike is copying luke""}","<img src=""stim_listB/copy5.gif""style=""height:400px;""></stim_listB>",is copying,,,,,,
null,"<div style=""font-size:60px;"">+</div>",,html-keyboard-response,148,642833,0.0-15.0-0.5,18730,List1B,white,woman,,,,null,,,,,,,,,
null,"<img src=""stim_listB/seduce5.gif""style=""height:400px;""></stim_listB>",,html-keyboard-response,149,644838,0.0-15.0-1.5,18730,List1B,white,woman,,,,null,,,,,,,,,
null,is seducing,,html-keyboard-response,150,646842,0.0-15.0-2.5,18730,List1B,white,woman,,,,null,,,,,,,,,
6261.8,,,survey-text,151,653114,0.0-15.0-3.5,18730,List1B,white,woman,,,,,"{""Q0"":""dave is seducing fred""}","<img src=""stim_listB/seduce5.gif""style=""height:400px;""></stim_listB>",is seducing,,,,,,
null,"<div style=""font-size:60px;"">+</div>",,html-keyboard-response,152,653619,0.0-15.0-0.6,18730,List1B,white,woman,,,,null,,,,,,,,,
null,"<img src=""stim_listB/hug1.gif""style=""height:400px;""></stim_listB>",,html-keyboard-response,153,655625,0.0-15.0-1.6,18730,List1B,white,woman,,,,null,,,,,,,,,
null,is hugging,,html-keyboard-response,154,657627,0.0-15.0-2.6,18730,List1B,white,woman,,,,null,,,,,,,,,
5346.6,,,survey-text,155,662983,0.0-15.0-3.6,18730,List1B,white,woman,,,,,"{""Q0"":""beth is hugging fred""}","<img src=""stim_listB/hug1.gif""style=""height:400px;""></stim_listB>",is hugging,,,,,,
null,"<div style=""font-size:60px;"">+</div>",,html-keyboard-response,156,663487,0.0-15.0-0.7,18730,List1B,white,woman,,,,null,,,,,,,,,
null,"<img src=""stim_listB/oppose1.gif""style=""height:400px;""></stim_listB>",,html-keyboard-response,157,665492,0.0-15.0-1.7,18730,List1B,white,woman,,,,null,,,,,,,,,
null,is opposing,,html-keyboard-response,158,667495,0.0-15.0-2.7,18730,List1B,white,woman,,,,null,,,,,,,,,
6381.8,,,survey-text,159,673889,0.0-15.0-3.7,18730,List1B,white,woman,,,,,"{""Q0"":""kate is opposing mike""}","<img src=""stim_listB/oppose1.gif""style=""height:400px;""></stim_listB>",is opposing,,,,,,
null,"<div style=""font-size:60px;"">+</div>",,html-keyboard-response,160,674397,0.0-15.0-0.8,18730,List1B,white,woman,,,,null,,,,,,,,,
null,"<img src=""stim_listB/look2.gif""style=""height:400px;""></stim_listB>",,html-keyboard-response,161,676403,0.0-15.0-1.8,18730,List1B,white,woman,,,,null,,,,,,,,,
null,is being looked at by,,html-keyboard-response,162,678407,0.0-15.0-2.8,18730,List1B,white,woman,,,,null,,,,,,,,,
8527.4,,,survey-text,163,686945,0.0-15.0-3.8,18730,List1B,white,woman,,,,,"{""Q0"":""kate is being looked at by mike""}","<img src=""stim_listB/look2.gif""style=""height:400px;""></stim_listB>",is being looked at by,,,,,,
null,"<div style=""font-size:60px;"">+</div>",,html-keyboard-response,164,687448,0.0-15.0-0.9,18730,List1B,white,woman,,,,null,,,,,,,,,
null,"<img src=""stim_listB/touch3.gif""style=""height:400px;""></stim_listB>",,html-keyboard-response,165,689455,0.0-15.0-1.9,18730,List1B,white,woman,,,,null,,,,,,,,,
null,is touching,,html-keyboard-response,166,691458,0.0-15.0-2.9,18730,List1B,white,woman,,,,null,,,,,,,,,
5907.5,,,survey-text,167,697378,0.0-15.0-3.9,18730,List1B,white,woman,,,,,"{""Q0"":""jane is touching dave""}","<img src=""stim_listB/touch3.gif""style=""height:400px;""></stim_listB>",is touching,,,,,,
null,"<div style=""font-size:60px;"">+</div>",,html-keyboard-response,168,697883,0.0-15.0-0.10,18730,List1B,white,woman,,,,null,,,,,,,,,
null,"<img src=""stim_listB/hug8.gif""style=""height:400px;""></stim_listB>",,html-keyboard-response,169,699890,0.0-15.0-1.10,18730,List1B,white,woman,,,,null,,,,,,,,,
null,is being hugged by,,html-keyboard-response,170,701893,0.0-15.0-2.10,18730,List1B,white,woman,,,,null,,,,,,,,,
6100.7,,,survey-text,171,708003,0.0-15.0-3.10,18730,List1B,white,woman,,,,,"{""Q0"":""beth is being hugged by jane""}","<img src=""stim_listB/hug8.gif""style=""height:400px;""></stim_listB>",is being hugged by,,,,,,
null,"<div style=""font-size:60px;"">+</div>",,html-keyboard-response,172,708507,0.0-15.0-0.11,18730,List1B,white,woman,,,,null,,,,,,,,,
null,"<img src=""stim_listB/look4.gif""style=""height:400px;""></stim_listB>",,html-keyboard-response,173,710514,0.0-15.0-1.11,18730,List1B,white,woman,,,,null,,,,,,,,,
null,is being looked at by,,html-keyboard-response,174,712518,0.0-15.0-2.11,18730,List1B,white,woman,,,,null,,,,,,,,,
11052.6,,,survey-text,175,723582,0.0-15.0-3.11,18730,List1B,white,woman,,,,,"{""Q0"":""jane is being looked at by dave""}","<img src=""stim_listB/look4.gif""style=""height:400px;""></stim_listB>",is being looked at by,,,,,,
null,"<div style=""font-size:60px;"">+</div>",,html-keyboard-response,176,724086,0.0-15.0-0.12,18730,List1B,white,woman,,,,null,,,,,,,,,
null,"<img src=""stim_listB/greet2.gif""style=""height:400px;""></stim_listB>",,html-keyboard-response,177,726090,0.0-15.0-1.12,18730,List1B,white,woman,,,,null,,,,,,,,,
null,is being greeted by,,html-keyboard-response,178,728094,0.0-15.0-2.12,18730,List1B,white,woman,,,,null,,,,,,,,,
7423.2,,,survey-text,179,735527,0.0-15.0-3.12,18730,List1B,white,woman,,,,,"{""Q0"":""fred is being greeted by kate""}","<img src=""stim_listB/greet2.gif""style=""height:400px;""></stim_listB>",is being greeted by,,,,,,
null,"<div style=""font-size:60px;"">+</div>",,html-keyboard-response,180,736031,0.0-15.0-0.13,18730,List1B,white,woman,,,,null,,,,,,,,,
null,"<img src=""stim_listB/challenge2.gif""style=""height:400px;""></stim_listB>",,html-keyboard-response,181,738038,0.0-15.0-1.13,18730,List1B,white,woman,,,,null,,,,,,,,,
null,is being challenged by,,html-keyboard-response,182,740043,0.0-15.0-2.13,18730,List1B,white,woman,,,,null,,,,,,,,,
7486.8,,,survey-text,183,747541,0.0-15.0-3.13,18730,List1B,white,woman,,,,,"{""Q0"":""kate is being challenged by fred""}","<img src=""stim_listB/challenge2.gif""style=""height:400px;""></stim_listB>",is being challenged by,,,,,,
null,"<div style=""font-size:60px;"">+</div>",,html-keyboard-response,184,748045,0.0-15.0-0.14,18730,List1B,white,woman,,,,null,,,,,,,,,
null,"<img src=""stim_listB/greet6.gif""style=""height:400px;""></stim_listB>",,html-keyboard-response,185,750053,0.0-15.0-1.14,18730,List1B,white,woman,,,,null,,,,,,,,,
null,is being greeted by,,html-keyboard-response,186,752058,0.0-15.0-2.14,18730,List1B,white,woman,,,,null,,,,,,,,,
7230.9,,,survey-text,187,759303,0.0-15.0-3.14,18730,List1B,white,woman,,,,,"{""Q0"":""fred is being greeted by dave""}","<img src=""stim_listB/greet6.gif""style=""height:400px;""></stim_listB>",is being greeted by,,,,,,
null,"<div style=""font-size:60px;"">+</div>",,html-keyboard-response,188,759808,0.0-15.0-0.15,18730,List1B,white,woman,,,,null,,,,,,,,,
null,"<img src=""stim_listB/shout7.gif""style=""height:400px;""></stim_listB>",,html-keyboard-response,189,761814,0.0-15.0-1.15,18730,List1B,white,woman,,,,null,,,,,,,,,
null,is shouting at,,html-keyboard-response,190,763818,0.0-15.0-2.15,18730,List1B,white,woman,,,,null,,,,,,,,,
10920.4,,,survey-text,191,774750,0.0-15.0-3.15,18730,List1B,white,woman,,,,,"{""Q0"":""ruth is shouting at  beth""}","<img src=""stim_listB/shout7.gif""style=""height:400px;""></stim_listB>",is shouting at,,,,,,
null,"<div style=""font-size:60px;"">+</div>",,html-keyboard-response,192,775255,0.0-15.0-0.16,18730,List1B,white,woman,,,,null,,,,,,,,,
null,"<img src=""stim_listB/challenge6.gif""style=""height:400px;""></stim_listB>",,html-keyboard-response,193,777263,0.0-15.0-1.16,18730,List1B,white,woman,,,,null,,,,,,,,,
null,is being challenged by,,html-keyboard-response,194,779269,0.0-15.0-2.16,18730,List1B,white,woman,,,,null,,,,,,,,,
7442.4,,,survey-text,195,786723,0.0-15.0-3.16,18730,List1B,white,woman,,,,,"{""Q0"":""fred is being challeneged by dave""}","<img src=""stim_listB/challenge6.gif""style=""height:400px;""></stim_listB>",is being challenged by,,,,,,
null,"<div style=""font-size:60px;"">+</div>",,html-keyboard-response,196,787228,0.0-15.0-0.17,18730,List1B,white,woman,,,,null,,,,,,,,,
null,"<img src=""stim_listB/look5.gif""style=""height:400px;""></stim_listB>",,html-keyboard-response,197,789234,0.0-15.0-1.17,18730,List1B,white,woman,,,,null,,,,,,,,,
null,is looking at,,html-keyboard-response,198,791239,0.0-15.0-2.17,18730,List1B,white,woman,,,,null,,,,,,,,,
9037.6,,,survey-text,199,800289,0.0-15.0-3.17,18730,List1B,white,woman,,,,,"{""Q0"":""fred is looking at luke""}","<img src=""stim_listB/look5.gif""style=""height:400px;""></stim_listB>",is looking at,,,,,,
null,"<div style=""font-size:60px;"">+</div>",,html-keyboard-response,200,800793,0.0-15.0-0.18,18730,List1B,white,woman,,,,null,,,,,,,,,
null,"<img src=""stim_listB/seduce3.gif""style=""height:400px;""></stim_listB>",,html-keyboard-response,201,802800,0.0-15.0-1.18,18730,List1B,white,woman,,,,null,,,,,,,,,
null,is seducing,,html-keyboard-response,202,804804,0.0-15.0-2.18,18730,List1B,white,woman,,,,null,,,,,,,,,
5443.1,,,survey-text,203,810253,0.0-15.0-3.18,18730,List1B,white,woman,,,,,"{""Q0"":""jane is seducing luke""}","<img src=""stim_listB/seduce3.gif""style=""height:400px;""></stim_listB>",is seducing,,,,,,
null,"<div style=""font-size:60px;"">+</div>",,html-keyboard-response,204,810758,0.0-15.0-0.19,18730,List1B,white,woman,,,,null,,,,,,,,,
null,"<img src=""stim_listB/touch1.gif""style=""height:400px;""></stim_listB>",,html-keyboard-response,205,812764,0.0-15.0-1.19,18730,List1B,white,woman,,,,null,,,,,,,,,
null,is touching,,html-keyboard-response,206,814768,0.0-15.0-2.19,18730,List1B,white,woman,,,,null,,,,,,,,,
5250.9,,,survey-text,207,820029,0.0-15.0-3.19,18730,List1B,white,woman,,,,,"{""Q0"":""kate is touching mike""}","<img src=""stim_listB/touch1.gif""style=""height:400px;""></stim_listB>",is touching,,,,,,
6562.2,"<img src='img/portrait_matrix_list1.jpg' style='width:900px;height:500px;''></img><p>If you have memorised all the portraits and names and are ready to start, press Continue.</p><p><strong>Please note: Your memory of these faces will be tested 4 times during this experiment.</strong></p>",0,html-button-response,208,826596,0.0-16.0-0.0,18730,List1B,white,woman,,,,,,,,,,,,,
3584.3,"<img src=""portrait/WM2.jpg""style=""height:400px;""></img>",7,html-button-response,209,831187,0.0-16.0-1.0,18730,List1B,white,woman,,TRUE,7,,,,,,,,,,
null,CORRECT,,html-keyboard-response,210,832694,0.0-16.0-2.0-0.0,18730,List1B,white,woman,,,,null,,,,,,,,,
6347.1,"<img src=""portrait/BW2.jpg""style=""height:400px;""></img>",2,html-button-response,211,839048,0.0-16.0-4.0,18730,List1B,white,woman,,TRUE,2,,,,,,,,,,
null,CORRECT,,html-keyboard-response,212,840550,0.0-16.0-5.0-0.0,18730,List1B,white,woman,,,,null,,,,,,,,,
1802.8,"<img src=""portrait/WW1.jpg""style=""height:400px;""></img>",1,html-button-response,213,842357,0.0-16.0-7.0,18730,List1B,white,woman,,TRUE,1,,,,,,,,,,
null,CORRECT,,html-keyboard-response,214,843861,0.0-16.0-8.0-0.0,18730,List1B,white,woman,,,,null,,,,,,,,,
1856.1,"<img src=""portrait/BW1.jpg""style=""height:400px;""></img>",0,html-button-response,215,845721,0.0-16.0-10.0,18730,List1B,white,woman,,TRUE,0,,,,,,,,,,
null,CORRECT,,html-keyboard-response,216,847225,0.0-16.0-11.0-0.0,18730,List1B,white,woman,,,,null,,,,,,,,,
2649.4,"<img src=""portrait/WM1.jpg""style=""height:400px;""></img>",6,html-button-response,217,849879,0.0-16.0-13.0,18730,List1B,white,woman,,TRUE,6,,,,,,,,,,
null,CORRECT,,html-keyboard-response,218,851384,0.0-16.0-14.0-0.0,18730,List1B,white,woman,,,,null,,,,,,,,,
2288.8,"<img src=""portrait/BM2.jpg""style=""height:400px;""></img>",5,html-button-response,219,853677,0.0-16.0-16.0,18730,List1B,white,woman,,TRUE,5,,,,,,,,,,
null,CORRECT,,html-keyboard-response,220,855182,0.0-16.0-17.0-0.0,18730,List1B,white,woman,,,,null,,,,,,,,,
1707.3,"<img src=""portrait/WW2.jpg""style=""height:400px;""></img>",3,html-button-response,221,856893,0.0-16.0-19.0,18730,List1B,white,woman,,TRUE,3,,,,,,,,,,
null,CORRECT,,html-keyboard-response,222,858397,0.0-16.0-20.0-0.0,18730,List1B,white,woman,,,,null,,,,,,,,,
3868.3,"<img src=""portrait/BM1.jpg""style=""height:400px;""></img>",4,html-button-response,223,862269,0.0-16.0-22.0,18730,List1B,white,woman,,TRUE,4,,,,,,,,,,
null,CORRECT,,html-keyboard-response,224,863773,0.0-16.0-23.0-0.0,18730,List1B,white,woman,,,,null,,,,,,,,,
1467.9,<p>You got 8 out of 8 right first time. Press Continue.</p>,0,html-button-response,225,865245,0.0-16.0-25.0,18730,List1B,white,woman,,,,,,,,,,,,,
null,"<div style=""font-size:60px;"">+</div>",,html-keyboard-response,226,866750,0.0-17.0-0.0,18730,List1B,white,woman,,,,null,,,,,,,,,
null,"<img src=""stim_listB/seduce4.gif""style=""height:400px;""></stim_listB>",,html-keyboard-response,227,868753,0.0-17.0-1.0,18730,List1B,white,woman,,,,null,,,,,,,,,
null,is being seduced by,,html-keyboard-response,228,870755,0.0-17.0-2.0,18730,List1B,white,woman,,,,null,,,,,,,,,
6614.4,,,survey-text,229,877378,0.0-17.0-3.0,18730,List1B,white,woman,,,,,"{""Q0"":""ruth is being seduced by dave""}","<img src=""stim_listB/seduce4.gif""style=""height:400px;""></stim_listB>",is being seduced by,,,,,,
null,"<div style=""font-size:60px;"">+</div>",,html-keyboard-response,230,877881,0.0-17.0-0.1,18730,List1B,white,woman,,,,null,,,,,,,,,
null,"<img src=""stim_listB/copy6.gif""style=""height:400px;""></stim_listB>",,html-keyboard-response,231,879886,0.0-17.0-1.1,18730,List1B,white,woman,,,,null,,,,,,,,,
null,is being copied by,,html-keyboard-response,232,881889,0.0-17.0-2.1,18730,List1B,white,woman,,,,null,,,,,,,,,
6838.2,,,survey-text,233,888735,0.0-17.0-3.1,18730,List1B,white,woman,,,,,"{""Q0"":""dave is being copied by fred""}","<img src=""stim_listB/copy6.gif""style=""height:400px;""></stim_listB>",is being copied by,,,,,,
null,"<div style=""font-size:60px;"">+</div>",,html-keyboard-response,234,889237,0.0-17.0-0.2,18730,List1B,white,woman,,,,null,,,,,,,,,
null,"<img src=""stim_listB/greet7.gif""style=""height:400px;""></stim_listB>",,html-keyboard-response,235,891241,0.0-17.0-1.2,18730,List1B,white,woman,,,,null,,,,,,,,,
null,is greeting,,html-keyboard-response,236,893244,0.0-17.0-2.2,18730,List1B,white,woman,,,,null,,,,,,,,,
4789.6,,,survey-text,237,898042,0.0-17.0-3.2,18730,List1B,white,woman,,,,,"{""Q0"":""kate is greeting ruth""}","<img src=""stim_listB/greet7.gif""style=""height:400px;""></stim_listB>",is greeting,,,,,,
null,"<div style=""font-size:60px;"">+</div>",,html-keyboard-response,238,898548,0.0-17.0-0.3,18730,List1B,white,woman,,,,null,,,,,,,,,
null,"<img src=""stim_listB/shout1.gif""style=""height:400px;""></stim_listB>",,html-keyboard-response,239,900553,0.0-17.0-1.3,18730,List1B,white,woman,,,,null,,,,,,,,,
null,is shouting at,,html-keyboard-response,240,902557,0.0-17.0-2.3,18730,List1B,white,woman,,,,null,,,,,,,,,
6450.5,,,survey-text,241,909020,0.0-17.0-3.3,18730,List1B,white,woman,,,,,"{""Q0"":""beth is shouting at dave""}","<img src=""stim_listB/shout1.gif""style=""height:400px;""></stim_listB>",is shouting at,,,,,,
null,"<div style=""font-size:60px;"">+</div>",,html-keyboard-response,242,909524,0.0-17.0-0.4,18730,List1B,white,woman,,,,null,,,,,,,,,
null,"<img src=""stim_listB/challenge7.gif""style=""height:400px;""></stim_listB>",,html-keyboard-response,243,911530,0.0-17.0-1.4,18730,List1B,white,woman,,,,null,,,,,,,,,
null,is challenging,,html-keyboard-response,244,913533,0.0-17.0-2.4,18730,List1B,white,woman,,,,null,,,,,,,,,
6354.8,,,survey-text,245,919898,0.0-17.0-3.4,18730,List1B,white,woman,,,,,"{""Q0"":""ruth is challenging kate""}","<img src=""stim_listB/challenge7.gif""style=""height:400px;""></stim_listB>",is challenging,,,,,,
null,"<div style=""font-size:60px;"">+</div>",,html-keyboard-response,246,920402,0.0-17.0-0.5,18730,List1B,white,woman,,,,null,,,,,,,,,
null,"<img src=""stim_listB/kiss8.gif""style=""height:400px;""></stim_listB>",,html-keyboard-response,247,922408,0.0-17.0-1.5,18730,List1B,white,woman,,,,null,,,,,,,,,
null,is being kissed by,,html-keyboard-response,248,924411,0.0-17.0-2.5,18730,List1B,white,woman,,,,null,,,,,,,,,
6509.8,,,survey-text,249,930931,0.0-17.0-3.5,18730,List1B,white,woman,,,,,"{""Q0"":""kate is being kissed by jane""}","<img src=""stim_listB/kiss8.gif""style=""height:400px;""></stim_listB>",is being kissed by,,,,,,
null,"<div style=""font-size:60px;"">+</div>",,html-keyboard-response,250,931434,0.0-17.0-0.6,18730,List1B,white,woman,,,,null,,,,,,,,,
null,"<img src=""stim_listB/copy2.gif""style=""height:400px;""></stim_listB>",,html-keyboard-response,251,933440,0.0-17.0-1.6,18730,List1B,white,woman,,,,null,,,,,,,,,
null,is being copied by,,html-keyboard-response,252,935443,0.0-17.0-2.6,18730,List1B,white,woman,,,,null,,,,,,,,,
6717.1,,,survey-text,253,942169,0.0-17.0-3.6,18730,List1B,white,woman,,,,,"{""Q0"":""fred is being copied by kate""}","<img src=""stim_listB/copy2.gif""style=""height:400px;""></stim_listB>",is being copied by,,,,,,
null,"<div style=""font-size:60px;"">+</div>",,html-keyboard-response,254,942672,0.0-17.0-0.7,18730,List1B,white,woman,,,,null,,,,,,,,,
null,"<img src=""stim_listB/shout6.gif""style=""height:400px;""></stim_listB>",,html-keyboard-response,255,944678,0.0-17.0-1.7,18730,List1B,white,woman,,,,null,,,,,,,,,
null,is being shouted at by,,html-keyboard-response,256,946681,0.0-17.0-2.7,18730,List1B,white,woman,,,,null,,,,,,,,,
7140.9,,,survey-text,257,953830,0.0-17.0-3.7,18730,List1B,white,woman,,,,,"{""Q0"":""mike is being shouted at by dave""}","<img src=""stim_listB/shout6.gif""style=""height:400px;""></stim_listB>",is being shouted at by,,,,,,
null,"<div style=""font-size:60px;"">+</div>",,html-keyboard-response,258,954333,0.0-17.0-0.8,18730,List1B,white,woman,,,,null,,,,,,,,,
null,"<img src=""stim_listB/shout8.gif""style=""height:400px;""></stim_listB>",,html-keyboard-response,259,956339,0.0-17.0-1.8,18730,List1B,white,woman,,,,null,,,,,,,,,
null,is being shouted at by,,html-keyboard-response,260,958343,0.0-17.0-2.8,18730,List1B,white,woman,,,,null,,,,,,,,,
7645.6,,,survey-text,261,965999,0.0-17.0-3.8,18730,List1B,white,woman,,,,,"{""Q0"":""jane is being shouted at by kate""}","<img src=""stim_listB/shout8.gif""style=""height:400px;""></stim_listB>",is being shouted at by,,,,,,
null,"<div style=""font-size:60px;"">+</div>",,html-keyboard-response,262,966503,0.0-17.0-0.9,18730,List1B,white,woman,,,,null,,,,,,,,,
null,"<img src=""stim_listB/copy3.gif""style=""height:400px;""></stim_listB>",,html-keyboard-response,263,968510,0.0-17.0-1.9,18730,List1B,white,woman,,,,null,,,,,,,,,
null,is copying,,html-keyboard-response,264,970513,0.0-17.0-2.9,18730,List1B,white,woman,,,,null,,,,,,,,,
5894.2,,,survey-text,265,976416,0.0-17.0-3.9,18730,List1B,white,woman,,,,,"{""Q0"":""ruth is copying dave""}","<img src=""stim_listB/copy3.gif""style=""height:400px;""></stim_listB>",is copying,,,,,,
null,"<div style=""font-size:60px;"">+</div>",,html-keyboard-response,266,976920,0.0-17.0-0.10,18730,List1B,white,woman,,,,null,,,,,,,,,
null,"<img src=""stim_listB/touch2.gif""style=""height:400px;""></stim_listB>",,html-keyboard-response,267,978925,0.0-17.0-1.10,18730,List1B,white,woman,,,,null,,,,,,,,,
null,is being touched by,,html-keyboard-response,268,980930,0.0-17.0-2.10,18730,List1B,white,woman,,,,null,,,,,,,,,
8839.3,,,survey-text,269,989778,0.0-17.0-3.10,18730,List1B,white,woman,,,,,"{""Q0"":""fred is being touched by beth""}","<img src=""stim_listB/touch2.gif""style=""height:400px;""></stim_listB>",is being touched by,,,,,,
null,"<div style=""font-size:60px;"">+</div>",,html-keyboard-response,270,990281,0.0-17.0-0.11,18730,List1B,white,woman,,,,null,,,,,,,,,
null,"<img src=""stim_listB/shout2.gif""style=""height:400px;""></stim_listB>",,html-keyboard-response,271,992284,0.0-17.0-1.11,18730,List1B,white,woman,,,,null,,,,,,,,,
null,is being shouted at by,,html-keyboard-response,272,994288,0.0-17.0-2.11,18730,List1B,white,woman,,,,null,,,,,,,,,
6878.9,,,survey-text,273,1001181,0.0-17.0-3.11,18730,List1B,white,woman,,,,,"{""Q0"":""mike is being shouted at by kate""}","<img src=""stim_listB/shout2.gif""style=""height:400px;""></stim_listB>",is being shouted at by,,,,,,
null,"<div style=""font-size:60px;"">+</div>",,html-keyboard-response,274,1001685,0.0-17.0-0.12,18730,List1B,white,woman,,,,null,,,,,,,,,
null,"<img src=""stim_listB/seduce1.gif""style=""height:400px;""></stim_listB>",,html-keyboard-response,275,1003691,0.0-17.0-1.12,18730,List1B,white,woman,,,,null,,,,,,,,,
null,is seducing,,html-keyboard-response,276,1005694,0.0-17.0-2.12,18730,List1B,white,woman,,,,null,,,,,,,,,
7209.9,,,survey-text,277,1012914,0.0-17.0-3.12,18730,List1B,white,woman,,,,,"{""Q0"":""kate is seducing fred""}","<img src=""stim_listB/seduce1.gif""style=""height:400px;""></stim_listB>",is seducing,,,,,,
null,"<div style=""font-size:60px;"">+</div>",,html-keyboard-response,278,1013418,0.0-17.0-0.13,18730,List1B,white,woman,,,,null,,,,,,,,,
null,"<img src=""stim_listB/touch7.gif""style=""height:400px;""></stim_listB>",,html-keyboard-response,279,1015424,0.0-17.0-1.13,18730,List1B,white,woman,,,,null,,,,,,,,,
null,is touching,,html-keyboard-response,280,1017428,0.0-17.0-2.13,18730,List1B,white,woman,,,,null,,,,,,,,,
4842.8,,,survey-text,281,1022279,0.0-17.0-3.13,18730,List1B,white,woman,,,,,"{""Q0"":""jane is touching kate""}","<img src=""stim_listB/touch7.gif""style=""height:400px;""></stim_listB>",is touching,,,,,,
null,"<div style=""font-size:60px;"">+</div>",,html-keyboard-response,282,1022782,0.0-17.0-0.14,18730,List1B,white,woman,,,,null,,,,,,,,,
null,"<img src=""stim_listB/kiss6.gif""style=""height:400px;""></stim_listB>",,html-keyboard-response,283,1024789,0.0-17.0-1.14,18730,List1B,white,woman,,,,null,,,,,,,,,
null,is being kissed by,,html-keyboard-response,284,1026792,0.0-17.0-2.14,18730,List1B,white,woman,,,,null,,,,,,,,,
9661.3,,,survey-text,285,1036463,0.0-17.0-3.14,18730,List1B,white,woman,,,,,"{""Q0"":""mike is being kissed by dave""}","<img src=""stim_listB/kiss6.gif""style=""height:400px;""></stim_listB>",is being kissed by,,,,,,
null,"<div style=""font-size:60px;"">+</div>",,html-keyboard-response,286,1036966,0.0-17.0-0.15,18730,List1B,white,woman,,,,null,,,,,,,,,
null,"<img src=""stim_listB/greet1.gif""style=""height:400px;""></stim_listB>",,html-keyboard-response,287,1038972,0.0-17.0-1.15,18730,List1B,white,woman,,,,null,,,,,,,,,
null,is greeting,,html-keyboard-response,288,1040978,0.0-17.0-2.15,18730,List1B,white,woman,,,,null,,,,,,,,,
5396.5,,,survey-text,289,1046390,0.0-17.0-3.15,18730,List1B,white,woman,,,,,"{""Q0"":""mike is greeted by beth""}","<img src=""stim_listB/greet1.gif""style=""height:400px;""></stim_listB>",is greeting,,,,,,
null,"<div style=""font-size:60px;"">+</div>",,html-keyboard-response,290,1046895,0.0-17.0-0.16,18730,List1B,white,woman,,,,null,,,,,,,,,
null,"<img src=""stim_listB/greet5.gif""style=""height:400px;""></stim_listB>",,html-keyboard-response,291,1048901,0.0-17.0-1.16,18730,List1B,white,woman,,,,null,,,,,,,,,
null,is greeting,,html-keyboard-response,292,1050904,0.0-17.0-2.16,18730,List1B,white,woman,,,,null,,,,,,,,,
4521.5,,,survey-text,293,1055436,0.0-17.0-3.16,18730,List1B,white,woman,,,,,"{""Q0"":""luke is greeting mike""}","<img src=""stim_listB/greet5.gif""style=""height:400px;""></stim_listB>",is greeting,,,,,,
null,"<div style=""font-size:60px;"">+</div>",,html-keyboard-response,294,1055941,0.0-17.0-0.17,18730,List1B,white,woman,,,,null,,,,,,,,,
null,"<img src=""stim_listB/greet8.gif""style=""height:400px;""></stim_listB>",,html-keyboard-response,295,1057947,0.0-17.0-1.17,18730,List1B,white,woman,,,,null,,,,,,,,,
null,is being greeted by,,html-keyboard-response,296,1059952,0.0-17.0-2.17,18730,List1B,white,woman,,,,null,,,,,,,,,
6087.7,,,survey-text,297,1066052,0.0-17.0-3.17,18730,List1B,white,woman,,,,,"{""Q0"":""jane is being greeted by beth""}","<img src=""stim_listB/greet8.gif""style=""height:400px;""></stim_listB>",is being greeted by,,,,,,
null,"<div style=""font-size:60px;"">+</div>",,html-keyboard-response,298,1066556,0.0-17.0-0.18,18730,List1B,white,woman,,,,null,,,,,,,,,
null,"<img src=""stim_listB/challenge3.gif""style=""height:400px;""></stim_listB>",,html-keyboard-response,299,1068562,0.0-17.0-1.18,18730,List1B,white,woman,,,,null,,,,,,,,,
null,is challenging,,html-keyboard-response,300,1070566,0.0-17.0-2.18,18730,List1B,white,woman,,,,null,,,,,,,,,
5741.1,,,survey-text,301,1076317,0.0-17.0-3.18,18730,List1B,white,woman,,,,,"{""Q0"":""ruth is challenging dave""}","<img src=""stim_listB/challenge3.gif""style=""height:400px;""></stim_listB>",is challenging,,,,,,
null,"<div style=""font-size:60px;"">+</div>",,html-keyboard-response,302,1076821,0.0-17.0-0.19,18730,List1B,white,woman,,,,null,,,,,,,,,
null,"<img src=""stim_listB/look1.gif""style=""height:400px;""></stim_listB>",,html-keyboard-response,303,1078828,0.0-17.0-1.19,18730,List1B,white,woman,,,,null,,,,,,,,,
null,is looking at,,html-keyboard-response,304,1080832,0.0-17.0-2.19,18730,List1B,white,woman,,,,null,,,,,,,,,
5253.5,,,survey-text,305,1086095,0.0-17.0-3.19,18730,List1B,white,woman,,,,,"{""Q0"":""fred is looking at beth""}","<img src=""stim_listB/look1.gif""style=""height:400px;""></stim_listB>",is looking at,,,,,,
2691.3,"<img src='img/portrait_matrix_list1.jpg' style='width:900px;height:500px;''></img><p>If you have memorised all the portraits and names and are ready to start, press Continue.</p><p><strong>Please note: Your memory of these faces will be tested 4 times during this experiment.</strong></p>",0,html-button-response,306,1088790,0.0-18.0-0.0,18730,List1B,white,woman,,,,,,,,,,,,,
2046.7,"<img src=""portrait/WW2.jpg""style=""height:400px;""></img>",3,html-button-response,307,1091844,0.0-18.0-1.0,18730,List1B,white,woman,,TRUE,3,,,,,,,,,,
null,CORRECT,,html-keyboard-response,308,1093350,0.0-18.0-2.0-0.0,18730,List1B,white,woman,,,,null,,,,,,,,,
1750,"<img src=""portrait/WW1.jpg""style=""height:400px;""></img>",1,html-button-response,309,1095106,0.0-18.0-4.0,18730,List1B,white,woman,,TRUE,1,,,,,,,,,,
null,CORRECT,,html-keyboard-response,310,1096611,0.0-18.0-5.0-0.0,18730,List1B,white,woman,,,,null,,,,,,,,,
1215.5,"<img src=""portrait/BW1.jpg""style=""height:400px;""></img>",0,html-button-response,311,1097833,0.0-18.0-7.0,18730,List1B,white,woman,,TRUE,0,,,,,,,,,,
null,CORRECT,,html-keyboard-response,312,1099340,0.0-18.0-8.0-0.0,18730,List1B,white,woman,,,,null,,,,,,,,,
2151,"<img src=""portrait/BM2.jpg""style=""height:400px;""></img>",5,html-button-response,313,1101498,0.0-18.0-10.0,18730,List1B,white,woman,,TRUE,5,,,,,,,,,,
null,CORRECT,,html-keyboard-response,314,1103003,0.0-18.0-11.0-0.0,18730,List1B,white,woman,,,,null,,,,,,,,,
2131.4,"<img src=""portrait/BM1.jpg""style=""height:400px;""></img>",4,html-button-response,315,1105142,0.0-18.0-13.0,18730,List1B,white,woman,,TRUE,4,,,,,,,,,,
null,CORRECT,,html-keyboard-response,316,1106649,0.0-18.0-14.0-0.0,18730,List1B,white,woman,,,,null,,,,,,,,,
2828,"<img src=""portrait/WM2.jpg""style=""height:400px;""></img>",7,html-button-response,317,1109485,0.0-18.0-16.0,18730,List1B,white,woman,,TRUE,7,,,,,,,,,,
null,CORRECT,,html-keyboard-response,318,1110993,0.0-18.0-17.0-0.0,18730,List1B,white,woman,,,,null,,,,,,,,,
1551.3,"<img src=""portrait/WM1.jpg""style=""height:400px;""></img>",6,html-button-response,319,1112551,0.0-18.0-19.0,18730,List1B,white,woman,,TRUE,6,,,,,,,,,,
null,CORRECT,,html-keyboard-response,320,1114058,0.0-18.0-20.0-0.0,18730,List1B,white,woman,,,,null,,,,,,,,,
1887.6,"<img src=""portrait/BW2.jpg""style=""height:400px;""></img>",2,html-button-response,321,1115953,0.0-18.0-22.0,18730,List1B,white,woman,,TRUE,2,,,,,,,,,,
null,CORRECT,,html-keyboard-response,322,1117457,0.0-18.0-23.0-0.0,18730,List1B,white,woman,,,,null,,,,,,,,,
1852.9,<p>You got 8 out of 8 right first time. Press Continue.</p>,0,html-button-response,323,1119317,0.0-18.0-25.0,18730,List1B,white,woman,,,,,,,,,,,,,
null,"<div style=""font-size:60px;"">+</div>",,html-keyboard-response,324,1120820,0.0-19.0-0.0,18730,List1B,white,woman,,,,null,,,,,,,,,
null,"<img src=""stim_listB/shout4.gif""style=""height:400px;""></stim_listB>",,html-keyboard-response,325,1122824,0.0-19.0-1.0,18730,List1B,white,woman,,,,null,,,,,,,,,
null,is being shouted at by,,html-keyboard-response,326,1124826,0.0-19.0-2.0,18730,List1B,white,woman,,,,null,,,,,,,,,
7752.9,,,survey-text,327,1132592,0.0-19.0-3.0,18730,List1B,white,woman,,,,,"{""Q0"":""dave is being shouted at by jane""}","<img src=""stim_listB/shout4.gif""style=""height:400px;""></stim_listB>",is being shouted at by,,,,,,
null,"<div style=""font-size:60px;"">+</div>",,html-keyboard-response,328,1133095,0.0-19.0-0.1,18730,List1B,white,woman,,,,null,,,,,,,,,
null,"<img src=""stim_listB/hug3.gif""style=""height:400px;""></stim_listB>",,html-keyboard-response,329,1135099,0.0-19.0-1.1,18730,List1B,white,woman,,,,null,,,,,,,,,
null,is hugging,,html-keyboard-response,330,1137101,0.0-19.0-2.1,18730,List1B,white,woman,,,,null,,,,,,,,,
4527.3,,,survey-text,331,1141634,0.0-19.0-3.1,18730,List1B,white,woman,,,,,"{""Q0"":""ruth is hugging luke""}","<img src=""stim_listB/hug3.gif""style=""height:400px;""></stim_listB>",is hugging,,,,,,
null,"<div style=""font-size:60px;"">+</div>",,html-keyboard-response,332,1142137,0.0-19.0-0.2,18730,List1B,white,woman,,,,null,,,,,,,,,
null,"<img src=""stim_listB/seduce8.gif""style=""height:400px;""></stim_listB>",,html-keyboard-response,333,1144142,0.0-19.0-1.2,18730,List1B,white,woman,,,,null,,,,,,,,,
null,is being seduced by,,html-keyboard-response,334,1146144,0.0-19.0-2.2,18730,List1B,white,woman,,,,null,,,,,,,,,
6758.1,,,survey-text,335,1152911,0.0-19.0-3.2,18730,List1B,white,woman,,,,,"{""Q0"":""kate is being seduced by ruth""}","<img src=""stim_listB/seduce8.gif""style=""height:400px;""></stim_listB>",is being seduced by,,,,,,
null,"<div style=""font-size:60px;"">+</div>",,html-keyboard-response,336,1153414,0.0-19.0-0.3,18730,List1B,white,woman,,,,null,,,,,,,,,
null,"<img src=""stim_listB/oppose6.gif""style=""height:400px;""></stim_listB>",,html-keyboard-response,337,1155419,0.0-19.0-1.3,18730,List1B,white,woman,,,,null,,,,,,,,,
null,is being opposed by,,html-keyboard-response,338,1157422,0.0-19.0-2.3,18730,List1B,white,woman,,,,null,,,,,,,,,
7195.7,,,survey-text,339,1164625,0.0-19.0-3.3,18730,List1B,white,woman,,,,,"{""Q0"":""fred is being opposed by luke""}","<img src=""stim_listB/oppose6.gif""style=""height:400px;""></stim_listB>",is being opposed by,,,,,,
null,"<div style=""font-size:60px;"">+</div>",,html-keyboard-response,340,1165128,0.0-19.0-0.4,18730,List1B,white,woman,,,,null,,,,,,,,,
null,"<img src=""stim_listB/seduce6.gif""style=""height:400px;""></stim_listB>",,html-keyboard-response,341,1167133,0.0-19.0-1.4,18730,List1B,white,woman,,,,null,,,,,,,,,
null,is being seduced by,,html-keyboard-response,342,1169136,0.0-19.0-2.4,18730,List1B,white,woman,,,,null,,,,,,,,,
7525.2,,,survey-text,343,1176668,0.0-19.0-3.4,18730,List1B,white,woman,,,,,"{""Q0"":""luke is being seduced by mike""}","<img src=""stim_listB/seduce6.gif""style=""height:400px;""></stim_listB>",is being seduced by,,,,,,
null,"<div style=""font-size:60px;"">+</div>",,html-keyboard-response,344,1177172,0.0-19.0-0.5,18730,List1B,white,woman,,,,null,,,,,,,,,
null,"<img src=""stim_listB/touch8.gif""style=""height:400px;""></stim_listB>",,html-keyboard-response,345,1179177,0.0-19.0-1.5,18730,List1B,white,woman,,,,null,,,,,,,,,
null,is being touched by,,html-keyboard-response,346,1181179,0.0-19.0-2.5,18730,List1B,white,woman,,,,null,,,,,,,,,
6041.7,,,survey-text,347,1187226,0.0-19.0-3.5,18730,List1B,white,woman,,,,,"{""Q0"":""ruth is being touched by beth""}","<img src=""stim_listB/touch8.gif""style=""height:400px;""></stim_listB>",is being touched by,,,,,,
null,"<div style=""font-size:60px;"">+</div>",,html-keyboard-response,348,1187728,0.0-19.0-0.6,18730,List1B,white,woman,,,,null,,,,,,,,,
null,"<img src=""stim_listB/seduce2.gif""style=""height:400px;""></stim_listB>",,html-keyboard-response,349,1189733,0.0-19.0-1.6,18730,List1B,white,woman,,,,null,,,,,,,,,
null,is being seduced by,,html-keyboard-response,350,1191736,0.0-19.0-2.6,18730,List1B,white,woman,,,,null,,,,,,,,,
6115.2,,,survey-text,351,1197859,0.0-19.0-3.6,18730,List1B,white,woman,,,,,"{""Q0"":""mike is being seduced by beth""}","<img src=""stim_listB/seduce2.gif""style=""height:400px;""></stim_listB>",is being seduced by,,,,,,
null,"<div style=""font-size:60px;"">+</div>",,html-keyboard-response,352,1198361,0.0-19.0-0.7,18730,List1B,white,woman,,,,null,,,,,,,,,
null,"<img src=""stim_listB/challenge8.gif""style=""height:400px;""></stim_listB>",,html-keyboard-response,353,1200365,0.0-19.0-1.7,18730,List1B,white,woman,,,,null,,,,,,,,,
null,is being challenged by,,html-keyboard-response,354,1202368,0.0-19.0-2.7,18730,List1B,white,woman,,,,null,,,,,,,,,
9154.7,,,survey-text,355,1211533,0.0-19.0-3.7,18730,List1B,white,woman,,,,,"{""Q0"":""jane is being challenged by beth""}","<img src=""stim_listB/challenge8.gif""style=""height:400px;""></stim_listB>",is being challenged by,,,,,,
null,"<div style=""font-size:60px;"">+</div>",,html-keyboard-response,356,1212036,0.0-19.0-0.8,18730,List1B,white,woman,,,,null,,,,,,,,,
null,"<img src=""stim_listB/look6.gif""style=""height:400px;""></stim_listB>",,html-keyboard-response,357,1214041,0.0-19.0-1.8,18730,List1B,white,woman,,,,null,,,,,,,,,
null,is being looked at by,,html-keyboard-response,358,1216044,0.0-19.0-2.8,18730,List1B,white,woman,,,,null,,,,,,,,,
5746.2,,,survey-text,359,1221801,0.0-19.0-3.8,18730,List1B,white,woman,,,,,"{""Q0"":""mike is being looked at by dave""}","<img src=""stim_listB/look6.gif""style=""height:400px;""></stim_listB>",is being looked at by,,,,,,
null,"<div style=""font-size:60px;"">+</div>",,html-keyboard-response,360,1222306,0.0-19.0-0.9,18730,List1B,white,woman,,,,null,,,,,,,,,
null,"<img src=""stim_listB/kiss1.gif""style=""height:400px;""></stim_listB>",,html-keyboard-response,361,1224313,0.0-19.0-1.9,18730,List1B,white,woman,,,,null,,,,,,,,,
null,is kissing,,html-keyboard-response,362,1226316,0.0-19.0-2.9,18730,List1B,white,woman,,,,null,,,,,,,,,
5117.2,,,survey-text,363,1231443,0.0-19.0-3.9,18730,List1B,white,woman,,,,,"{""Q0"":""beth is kissing fred""}","<img src=""stim_listB/kiss1.gif""style=""height:400px;""></stim_listB>",is kissing,,,,,,
null,"<div style=""font-size:60px;"">+</div>",,html-keyboard-response,364,1231946,0.0-19.0-0.10,18730,List1B,white,woman,,,,null,,,,,,,,,
null,"<img src=""stim_listB/hug7.gif""style=""height:400px;""></stim_listB>",,html-keyboard-response,365,1233951,0.0-19.0-1.10,18730,List1B,white,woman,,,,null,,,,,,,,,
null,is hugging,,html-keyboard-response,366,1235954,0.0-19.0-2.10,18730,List1B,white,woman,,,,null,,,,,,,,,
4894.9,,,survey-text,367,1240859,0.0-19.0-3.10,18730,List1B,white,woman,,,,,"{""Q0"":""beth is hugging ruth""}","<img src=""stim_listB/hug7.gif""style=""height:400px;""></stim_listB>",is hugging,,,,,,
null,"<div style=""font-size:60px;"">+</div>",,html-keyboard-response,368,1241362,0.0-19.0-0.11,18730,List1B,white,woman,,,,null,,,,,,,,,
null,"<img src=""stim_listB/copy4.gif""style=""height:400px;""></stim_listB>",,html-keyboard-response,369,1243367,0.0-19.0-1.11,18730,List1B,white,woman,,,,null,,,,,,,,,
null,is being copied by,,html-keyboard-response,370,1245369,0.0-19.0-2.11,18730,List1B,white,woman,,,,null,,,,,,,,,
6640.6,,,survey-text,371,1252017,0.0-19.0-3.11,18730,List1B,white,woman,,,,,"{""Q0"":""luke is being copied by jane""}","<img src=""stim_listB/copy4.gif""style=""height:400px;""></stim_listB>",is being copied by,,,,,,
null,"<div style=""font-size:60px;"">+</div>",,html-keyboard-response,372,1252520,0.0-19.0-0.12,18730,List1B,white,woman,,,,null,,,,,,,,,
null,"<img src=""stim_listB/look3.gif""style=""height:400px;""></stim_listB>",,html-keyboard-response,373,1254525,0.0-19.0-1.12,18730,List1B,white,woman,,,,null,,,,,,,,,
null,is looking at,,html-keyboard-response,374,1256528,0.0-19.0-2.12,18730,List1B,white,woman,,,,null,,,,,,,,,
5981.9,,,survey-text,375,1262517,0.0-19.0-3.12,18730,List1B,white,woman,,,,,"{""Q0"":""ruth is looking at luke""}","<img src=""stim_listB/look3.gif""style=""height:400px;""></stim_listB>",is looking at,,,,,,
null,"<div style=""font-size:60px;"">+</div>",,html-keyboard-response,376,1263021,0.0-19.0-0.13,18730,List1B,white,woman,,,,null,,,,,,,,,
null,"<img src=""stim_listB/hug4.gif""style=""height:400px;""></stim_listB>",,html-keyboard-response,377,1265027,0.0-19.0-1.13,18730,List1B,white,woman,,,,null,,,,,,,,,
null,is being hugged by,,html-keyboard-response,378,1267030,0.0-19.0-2.13,18730,List1B,white,woman,,,,null,,,,,,,,,
5989.8,,,survey-text,379,1273030,0.0-19.0-3.13,18730,List1B,white,woman,,,,,"{""Q0"":""jane is being hugged by dave""}","<img src=""stim_listB/hug4.gif""style=""height:400px;""></stim_listB>",is being hugged by,,,,,,
null,"<div style=""font-size:60px;"">+</div>",,html-keyboard-response,380,1273533,0.0-19.0-0.14,18730,List1B,white,woman,,,,null,,,,,,,,,
null,"<img src=""stim_listB/kiss5.gif""style=""height:400px;""></stim_listB>",,html-keyboard-response,381,1275538,0.0-19.0-1.14,18730,List1B,white,woman,,,,null,,,,,,,,,
null,is kissing,,html-keyboard-response,382,1277542,0.0-19.0-2.14,18730,List1B,white,woman,,,,null,,,,,,,,,
5847.1,,,survey-text,383,1283399,0.0-19.0-3.14,18730,List1B,white,woman,,,,,"{""Q0"":""luke is kissing fred""}","<img src=""stim_listB/kiss5.gif""style=""height:400px;""></stim_listB>",is kissing,,,,,,
null,"<div style=""font-size:60px;"">+</div>",,html-keyboard-response,384,1283902,0.0-19.0-0.15,18730,List1B,white,woman,,,,null,,,,,,,,,
null,"<img src=""stim_listB/hug6.gif""style=""height:400px;""></stim_listB>",,html-keyboard-response,385,1285908,0.0-19.0-1.15,18730,List1B,white,woman,,,,null,,,,,,,,,
null,is being hugged by,,html-keyboard-response,386,1287911,0.0-19.0-2.15,18730,List1B,white,woman,,,,null,,,,,,,,,
6057.7,,,survey-text,387,1293977,0.0-19.0-3.15,18730,List1B,white,woman,,,,,"{""Q0"":""dave is being hugged by mike""}","<img src=""stim_listB/hug6.gif""style=""height:400px;""></stim_listB>",is being hugged by,,,,,,
null,"<div style=""font-size:60px;"">+</div>",,html-keyboard-response,388,1294479,0.0-19.0-0.16,18730,List1B,white,woman,,,,null,,,,,,,,,
null,"<img src=""stim_listB/shout5.gif""style=""height:400px;""></stim_listB>",,html-keyboard-response,389,1296483,0.0-19.0-1.16,18730,List1B,white,woman,,,,null,,,,,,,,,
null,is shouting at,,html-keyboard-response,390,1298487,0.0-19.0-2.16,18730,List1B,white,woman,,,,null,,,,,,,,,
8604.6,,,survey-text,391,1307105,0.0-19.0-3.16,18730,List1B,white,woman,,,,,"{""Q0"":""fred is shouting at luke""}","<img src=""stim_listB/shout5.gif""style=""height:400px;""></stim_listB>",is shouting at,,,,,,
null,"<div style=""font-size:60px;"">+</div>",,html-keyboard-response,392,1307609,0.0-19.0-0.17,18730,List1B,white,woman,,,,null,,,,,,,,,
null,"<img src=""stim_listB/look7.gif""style=""height:400px;""></stim_listB>",,html-keyboard-response,393,1309615,0.0-19.0-1.17,18730,List1B,white,woman,,,,null,,,,,,,,,
null,is looking at,,html-keyboard-response,394,1311618,0.0-19.0-2.17,18730,List1B,white,woman,,,,null,,,,,,,,,
8186,,,survey-text,395,1319812,0.0-19.0-3.17,18730,List1B,white,woman,,,,,"{""Q0"":""beth is looking at ruth""}","<img src=""stim_listB/look7.gif""style=""height:400px;""></stim_listB>",is looking at,,,,,,
null,"<div style=""font-size:60px;"">+</div>",,html-keyboard-response,396,1320315,0.0-19.0-0.18,18730,List1B,white,woman,,,,null,,,,,,,,,
null,"<img src=""stim_listB/kiss7.gif""style=""height:400px;""></stim_listB>",,html-keyboard-response,397,1322321,0.0-19.0-1.18,18730,List1B,white,woman,,,,null,,,,,,,,,
null,is kissing,,html-keyboard-response,398,1324327,0.0-19.0-2.18,18730,List1B,white,woman,,,,null,,,,,,,,,
5409.2,,,survey-text,399,1329747,0.0-19.0-3.18,18730,List1B,white,woman,,,,,"{""Q0"":""beth is kissing ruth""}","<img src=""stim_listB/kiss7.gif""style=""height:400px;""></stim_listB>",is kissing,,,,,,
null,"<div style=""font-size:60px;"">+</div>",,html-keyboard-response,400,1330252,0.0-19.0-0.19,18730,List1B,white,woman,,,,null,,,,,,,,,
null,"<img src=""stim_listB/oppose3.gif""style=""height:400px;""></stim_listB>",,html-keyboard-response,401,1332258,0.0-19.0-1.19,18730,List1B,white,woman,,,,null,,,,,,,,,
null,is opposing,,html-keyboard-response,402,1334261,0.0-19.0-2.19,18730,List1B,white,woman,,,,null,,,,,,,,,
4945.1,,,survey-text,403,1339214,0.0-19.0-3.19,18730,List1B,white,woman,,,,,"{""Q0"":""dave is opposing jane""}","<img src=""stim_listB/oppose3.gif""style=""height:400px;""></stim_listB>",is opposing,,,,,,
3718.2,<p>Thank you for completing that task.</p><p>The final part of this session is a questionnaire that will take about 4 minutes.</p><p>Press Continue.</p>,0,html-button-response,404,1342936,0.0-20.0,18730,List1B,white,woman,,,,,,,,,,,,,
33575.9,,,survey-text,405,1377520,0.0-21.0,18730,List1B,white,woman,,,,,"{""Q0"":""38"",""Q1"":""english"",""Q2"":""english"",""Q3"":""United States"",""Q4"":""spanish"",""Q5"":""white"",""Q6"":""female""}",,,demographics,,,,,
1912.7,<p>Have you lived in the USA for the last 5 years or more?</p>,0,html-button-response,406,1379437,0.0-22.0,18730,List1B,white,woman,,,,,,,,fiveyears,,,,,
3300.9,<p>Move the slider to show the extent to which you agree with the following statements.</p>,0,html-button-response,407,1383744,0.0-23.0,18730,List1B,white,woman,,,,,,,,,,,,,
5849.5,,,html-slider-response,408,1390604,0.0-24.0-0.0-0.0,18730,List1B,white,woman,,,,,,,,survey_gender,27,,,I feel solidarity with my gender.,solidarity
5866,,,html-slider-response,409,1396476,0.0-24.0-0.0-0.1,18730,List1B,white,woman,,,,,,,,survey_gender,78,,,Being around my friends gives me a good feeling.,filler
6972,,,html-slider-response,410,1403454,0.0-24.0-0.0-0.2,18730,List1B,white,woman,,,,,,,,survey_gender,0,,,People of my gender are very similar to each other.,verysimilar
4306.1,,,html-slider-response,411,1407765,0.0-24.0-0.0-0.3,18730,List1B,white,woman,,,,,,,,survey_gender,0,,,I have a lot in common with the average person of my gender.,average
5031.3,,,html-slider-response,412,1412800,0.0-24.0-0.0-0.4,18730,List1B,white,woman,,,,,,,,survey_gender,0,,,I often think about the fact that I am my gender.,often
5683.1,,,html-slider-response,413,1418486,0.0-24.0-0.0-0.5,18730,List1B,white,woman,,,,,,,,survey_gender,25,,,People of my gender have a lot in common with each other.,common
11362.7,,,html-slider-response,414,1429852,0.0-24.0-0.0-0.6,18730,List1B,white,woman,,,,,,,,survey_gender,56,,,Routine is not important to me.,filler
4634.4,,,html-slider-response,415,1434490,0.0-24.0-0.0-0.7,18730,List1B,white,woman,,,,,,,,survey_gender,100,,,It is not always easy for people to know what I am thinking.,filler
5783.5,,,html-slider-response,416,1440278,0.0-24.0-0.0-0.8,18730,List1B,white,woman,,,,,,,,survey_gender,100,,,I consider myself a highly empathetic person.,filler
4270,,,html-slider-response,417,1444552,0.0-24.0-0.0-0.9,18730,List1B,white,woman,,,,,,,,survey_gender,27,,,My friends have a lot in common with each other.,filler
3384.1,,,html-slider-response,418,1447940,0.0-24.0-0.0-0.10,18730,List1B,white,woman,,,,,,,,survey_gender,0,,,I am similar to the average person of my gender.,similar
3512.5,,,html-slider-response,419,1451457,0.0-24.0-0.0-0.11,18730,List1B,white,woman,,,,,,,,survey_gender,0,,,I feel a bond with my gender.,bond
3524.5,,,html-slider-response,420,1454985,0.0-24.0-0.0-0.12,18730,List1B,white,woman,,,,,,,,survey_gender,69,,,I feel a bond with my friends.,filler
3461.1,,,html-slider-response,421,1458450,0.0-24.0-0.0-0.13,18730,List1B,white,woman,,,,,,,,survey_gender,100,,,I often think about my actions.,filler
3181.7,,,html-slider-response,422,1461637,0.0-24.0-0.0-0.14,18730,List1B,white,woman,,,,,,,,survey_gender,0,,,I would say I am an animal person.,filler
3388.4,,,html-slider-response,423,1465030,0.0-24.0-0.0-0.15,18730,List1B,white,woman,,,,,,,,survey_gender,100,,,I am glad to be my gender.,glad
7330.1,,,html-slider-response,424,1472366,0.0-24.0-0.0-0.16,18730,List1B,white,woman,,,,,,,,survey_gender,48,,,Being my gender is an important part of how I see myself.,important
9038,,,html-slider-response,425,1481408,0.0-24.0-0.0-0.17,18730,List1B,white,woman,,,,,,,,survey_gender,100,,,I feel committed to my gender.,committed
5190.4,,,html-slider-response,426,1486604,0.0-24.0-0.0-0.18,18730,List1B,white,woman,,,,,,,,survey_gender,82,,,Being my gender gives me a good feeling.,feeling
3019.7,,,html-slider-response,427,1489628,0.0-24.0-0.0-0.19,18730,List1B,white,woman,,,,,,,,survey_gender,0,,,My friends understand me.,filler
3436.6,,,html-slider-response,428,1493068,0.0-24.0-0.0-0.20,18730,List1B,white,woman,,,,,,,,survey_gender,63,,,I am glad to have the friends that I have.,filler
2903.4,,,html-slider-response,429,1495975,0.0-24.0-0.0-0.21,18730,List1B,white,woman,,,,,,,,survey_gender,100,,,It is pleasant to be my gender.,pleasant
2637.6,,,html-slider-response,430,1498616,0.0-24.0-0.0-0.22,18730,List1B,white,woman,,,,,,,,survey_gender,68,,,I feel solidarity with my friends.,filler
4912.4,,,html-slider-response,431,1503533,0.0-24.0-0.0-0.23,18730,List1B,white,woman,,,,,,,,survey_gender,0,,,Family is not more important to me than friendship.,filler
6103.3,,,html-slider-response,432,1509640,0.0-24.0-0.0-0.24,18730,List1B,white,woman,,,,,,,,survey_gender,0,,,I have a lot in common with my friends.,filler
4944.7,,,html-slider-response,433,1514588,0.0-24.0-0.0-0.25,18730,List1B,white,woman,,,,,,,,survey_gender,42,,,The fact that I am my gender is an important part of my identity.,identity
3570.7,,,html-slider-response,434,1518163,0.0-24.0-0.0-0.26,18730,List1B,white,woman,,,,,,,,survey_gender,0,,,Most of the friends in my life are very similar to me.,filler
3629.4,,,html-slider-response,435,1521796,0.0-24.0-0.0-0.27,18730,List1B,white,woman,,,,,,,,survey_gender,100,,,I think that my gender has a lot to be proud of.,proud
5154.3,,,html-slider-response,436,1526955,0.0-24.0-1.0-0.0,18730,List1B,white,woman,,,,,,,,survey_race,100,,,People of my race have a lot in common with each other.,common
5394.3,,,html-slider-response,437,1532354,0.0-24.0-1.0-0.1,18730,List1B,white,woman,,,,,,,,survey_race,0,,,I am similar to the average person of my race.,similar
2885.1,,,html-slider-response,438,1535243,0.0-24.0-1.0-0.2,18730,List1B,white,woman,,,,,,,,survey_race,0,,,Being my age gives me a good feeling.,filler
3516.1,,,html-slider-response,439,1538763,0.0-24.0-1.0-0.3,18730,List1B,white,woman,,,,,,,,survey_race,100,,,"The older I get, the wiser I feel.",filler
3057,,,html-slider-response,440,1541825,0.0-24.0-1.0-0.4,18730,List1B,white,woman,,,,,,,,survey_race,100,,,I consider myself an extrovert.,filler
8080.8,,,html-slider-response,441,1549912,0.0-24.0-1.0-0.5,18730,List1B,white,woman,,,,,,,,survey_race,79,,,People of my race are very similar to each other.,verysimilar
4084.3,,,html-slider-response,442,1554005,0.0-24.0-1.0-0.6,18730,List1B,white,woman,,,,,,,,survey_race,0,,,I feel solidarity with people the same age as me.,filler
3072.4,,,html-slider-response,443,1557081,0.0-24.0-1.0-0.7,18730,List1B,white,woman,,,,,,,,survey_race,19,,,I enjoy being in large groups.,filler
3002.7,,,html-slider-response,444,1560087,0.0-24.0-1.0-0.8,18730,List1B,white,woman,,,,,,,,survey_race,0,,,I feel a bond with my race.,bond
3197.5,,,html-slider-response,445,1563289,0.0-24.0-1.0-0.9,18730,List1B,white,woman,,,,,,,,survey_race,54,,,Being my race gives me a good feeling.,feeling
3678.2,,,html-slider-response,446,1566971,0.0-24.0-1.0-0.10,18730,List1B,white,woman,,,,,,,,survey_race,52,,,The fact that I am my race is an important part of my identity.,identity
3396.7,,,html-slider-response,447,1570372,0.0-24.0-1.0-0.11,18730,List1B,white,woman,,,,,,,,survey_race,52,,,I think that my race has a lot to be proud of.,proud
3742.2,,,html-slider-response,448,1574119,0.0-24.0-1.0-0.12,18730,List1B,white,woman,,,,,,,,survey_race,100,,,I often think about the fact that I am my age.,filler
5143.5,,,html-slider-response,449,1579269,0.0-24.0-1.0-0.13,18730,List1B,white,woman,,,,,,,,survey_race,0,,,I am glad to be my age.,filler
5369.3,,,html-slider-response,450,1584644,0.0-24.0-1.0-0.14,18730,List1B,white,woman,,,,,,,,survey_race,80,,,My age is not an important part of who I am.,filler
8499.2,,,html-slider-response,451,1593148,0.0-24.0-1.0-0.15,18730,List1B,white,woman,,,,,,,,survey_race,0,,,I have a lot in common with the average person of my race.,average
3243.5,,,html-slider-response,452,1596396,0.0-24.0-1.0-0.16,18730,List1B,white,woman,,,,,,,,survey_race,54,,,People my age have a lot in common with each other.,filler
2513.8,,,html-slider-response,453,1598913,0.0-24.0-1.0-0.17,18730,List1B,white,woman,,,,,,,,survey_race,0,,,I feel a bond with people the same age as me.,filler
4042.7,,,html-slider-response,454,1602959,0.0-24.0-1.0-0.18,18730,List1B,white,woman,,,,,,,,survey_race,0,,,I often think about the fact that I am my race.,often
3507.8,,,html-slider-response,455,1606471,0.0-24.0-1.0-0.19,18730,List1B,white,woman,,,,,,,,survey_race,0,,,Being my race is an important part of how I see myself.,important
3079,,,html-slider-response,456,1609554,0.0-24.0-1.0-0.20,18730,List1B,white,woman,,,,,,,,survey_race,100,,,I am glad to be my race.,glad
2628.4,,,html-slider-response,457,1612187,0.0-24.0-1.0-0.21,18730,List1B,white,woman,,,,,,,,survey_race,0,,,I am glad to be the age I am.,filler
5293.2,,,html-slider-response,458,1617485,0.0-24.0-1.0-0.22,18730,List1B,white,woman,,,,,,,,survey_race,52,,,I feel solidarity with my race.,solidarity
4219.8,,,html-slider-response,459,1621710,0.0-24.0-1.0-0.23,18730,List1B,white,woman,,,,,,,,survey_race,77,,,It is pleasant to be my race.,pleasant
4103.7,,,html-slider-response,460,1625818,0.0-24.0-1.0-0.24,18730,List1B,white,woman,,,,,,,,survey_race,0,,,I have a lot in common with people of a similar age to me.,filler
3198.4,,,html-slider-response,461,1629020,0.0-24.0-1.0-0.25,18730,List1B,white,woman,,,,,,,,survey_race,0,,,Getting older does not worry me.,filler
2697.9,,,html-slider-response,462,1631721,0.0-24.0-1.0-0.26,18730,List1B,white,woman,,,,,,,,survey_race,0,,,I feel committed to my race.,committed
2978.8,,,html-slider-response,463,1634704,0.0-24.0-1.0-0.27,18730,List1B,white,woman,,,,,,,,survey_race,0,,,I consider myself an introvert.,filler
9345.3,,,survey-text,464,1644055,0.0-25.0,18730,List1B,white,woman,,,,,"{""Q0"":""ccc""}",,,worker_id,,,,,
27915.5,,,external-html,465,1672502,0.0-26.0,18730,List1B,white,woman,debrief.html,,,,,,,,,,,,
