rt,stimulus,button_pressed,trial_type,trial_index,time_elapsed,internal_node_id,subject,list,ppt_race,ppt_gender,url,first_guess,correct,key_press,responses,image_type,phrase_type,test_part,response,stimulus1,stimulus2,question_type,survey_item
23091,Welcome to the experiment. Press Continue to begin.,0,html-button-response,0,23095,0.0-0.0,18933,List1A,white,man,,,,,,,,,,,,,
42630.2,,,external-html,1,68519,0.0-1.0,18933,List1A,white,man,consent.html,,,,,,,,,,,,
79353.8,"<p>On the next page, you will see portraits of 8 people and their names.</p><p>Your first task is to take a few minutes to memorise the names of these people.</p><p>You will have to recall their names during the rest of the experiment, so it is</p><p>essential that you try to memorise these people and their names as best as you can.</p><br><p><strong>You will then be tested on your memory of these names and portraits.</strong></p><br><p>The experiment will start after you have completed this memory test.</p><br><p>Ready?</p>",0,html-button-response,2,147875,0.0-2.0,18933,List1A,white,man,,,,,,,,,,,,,
37358.7,"<img src='img/portrait_matrix_list1.jpg' style='width:900px;height:500px;''></img><p>If you have memorised all the portraits and names and are ready to start, press Continue.</p><p><strong>Please note: Your memory of these faces will be tested 4 times during this experiment.</strong></p>",0,html-button-response,3,186252,0.0-3.0-0.0,18933,List1A,white,man,,,,,,,,,,,,,
10170.2,"<img src=""portrait/BM1.jpg""style=""height:400px;""></img>",4,html-button-response,4,197426,0.0-3.0-1.0,18933,List1A,white,man,,TRUE,4,,,,,,,,,,
null,CORRECT,,html-keyboard-response,5,198951,0.0-3.0-2.0-0.0,18933,List1A,white,man,,,,null,,,,,,,,,
6172.2,"<img src=""portrait/WM1.jpg""style=""height:400px;""></img>",6,html-button-response,6,205127,0.0-3.0-4.0,18933,List1A,white,man,,TRUE,6,,,,,,,,,,
null,CORRECT,,html-keyboard-response,7,206648,0.0-3.0-5.0-0.0,18933,List1A,white,man,,,,null,,,,,,,,,
7806.8,"<img src=""portrait/BW1.jpg""style=""height:400px;""></img>",0,html-button-response,8,214457,0.0-3.0-7.0,18933,List1A,white,man,,TRUE,0,,,,,,,,,,
null,CORRECT,,html-keyboard-response,9,215974,0.0-3.0-8.0-0.0,18933,List1A,white,man,,,,null,,,,,,,,,
9476.7,"<img src=""portrait/BW2.jpg""style=""height:400px;""></img>",2,html-button-response,10,225453,0.0-3.0-10.0,18933,List1A,white,man,,TRUE,2,,,,,,,,,,
null,CORRECT,,html-keyboard-response,11,226972,0.0-3.0-11.0-0.0,18933,List1A,white,man,,,,null,,,,,,,,,
5367.8,"<img src=""portrait/WW2.jpg""style=""height:400px;""></img>",3,html-button-response,12,232342,0.0-3.0-13.0,18933,List1A,white,man,,TRUE,3,,,,,,,,,,
null,CORRECT,,html-keyboard-response,13,233865,0.0-3.0-14.0-0.0,18933,List1A,white,man,,,,null,,,,,,,,,
6045.2,"<img src=""portrait/BM2.jpg""style=""height:400px;""></img>",5,html-button-response,14,239912,0.0-3.0-16.0,18933,List1A,white,man,,TRUE,5,,,,,,,,,,
null,CORRECT,,html-keyboard-response,15,241427,0.0-3.0-17.0-0.0,18933,List1A,white,man,,,,null,,,,,,,,,
9411.1,"<img src=""portrait/WW1.jpg""style=""height:400px;""></img>",1,html-button-response,16,250840,0.0-3.0-19.0,18933,List1A,white,man,,TRUE,1,,,,,,,,,,
null,CORRECT,,html-keyboard-response,17,252353,0.0-3.0-20.0-0.0,18933,List1A,white,man,,,,null,,,,,,,,,
9197.7,"<img src=""portrait/WM2.jpg""style=""height:400px;""></img>",7,html-button-response,18,261553,0.0-3.0-22.0,18933,List1A,white,man,,TRUE,7,,,,,,,,,,
null,CORRECT,,html-keyboard-response,19,263069,0.0-3.0-23.0-0.0,18933,List1A,white,man,,,,null,,,,,,,,,
3464.9,<p>You got 8 out of 8 right first time. Press Continue.</p>,0,html-button-response,20,266546,0.0-3.0-25.0,18933,List1A,white,man,,,,,,,,,,,,,
81735.3,"<p>In this experiment, you will view photographs of the people from the memory game interacting.</p><p>By using the <strong>exact</strong> phrase given <i>after</i> the photograph appears and recalling the correct names of the people in the photographs, form a sentence describing the interaction. You do not need to capitalise names.</p><p>Type your answer in the space provided. Please complete every sentence before moving onto the next trial.</p><p>You will only have a few seconds to memorise each given photograph and phrase before you can respond, so try your best to focus.</p><p>An example is given below. Press 'Continue' when you are ready.</p><img src='img/speaking_example.jpg' style='width:800px;height:460px;''></img>",0,html-button-response,21,349296,0.0-4.0,18933,List1A,white,man,,,,,,,,,,,,,
2983,"<p>Before the experiment starts, you will watch two example trials. Press 'Continue'.</p>",0,html-button-response,22,353282,0.0-5.0,18933,List1A,white,man,,,,,,,,,,,,,
null,<img src='img/play_eg.gif' style='height:400px;''></img>,,html-keyboard-response,23,356300,0.0-6.0,18933,List1A,white,man,,,,null,,,,,,,,,
null,<p>is playing with</p>,,html-keyboard-response,24,358315,0.0-7.0,18933,List1A,white,man,,,,null,,,,,,,,,
7659.8,<p><b>Answer:</b> kate is playing with beth</p>,0,html-button-response,25,365976,0.0-8.0,18933,List1A,white,man,,,,,,,,,,,,,
null,<img src='img/dance_eg.gif' style='height:400px;''></img>,,html-keyboard-response,26,368979,0.0-9.0,18933,List1A,white,man,,,,null,,,,,,,,,
null,<p>is being entertained by</p>,,html-keyboard-response,27,370990,0.0-10.0,18933,List1A,white,man,,,,null,,,,,,,,,
6591.6,<p><b>Answer:</b> luke is being entertained by dave</p>,0,html-button-response,28,377583,0.0-11.0,18933,List1A,white,man,,,,,,,,,,,,,
14638.6,"<p>Ready to start the experiment?</p><br><p><strong>Remember to describe the picture using a full sentence,</strong></p><p><strong>that combines the names of the people with the <i>exact</i> phrase given.</strong></p><p><strong>To receive full payment you must do this correctly.</strong></p><p><strong> You do not need to capitalise names or use punctuation.</strong></p><br><p>Press 'Continue' to begin.</p>",0,html-button-response,29,393235,0.0-12.0,18933,List1A,white,man,,,,,,,,,,,,,
null,"<div style=""font-size:60px;"">+</div>",,html-keyboard-response,30,394752,0.0-13.0-0.0,18933,List1A,white,man,,,,null,,,,,,,,,
null,"<img src=""stim_listA/shout3.gif""style=""height:400px;""></stim_listA>",,html-keyboard-response,31,396761,0.0-13.0-1.0,18933,List1A,white,man,,,,null,,,,,,,,,
null,is shouting at,,html-keyboard-response,32,398765,0.0-13.0-2.0,18933,List1A,white,man,,,,null,,,,,,,,,
14516.2,,,survey-text,33,413286,0.0-13.0-3.0,18933,List1A,white,man,,,,,"{""Q0"":""ruth is shouting at luke""}","<img src=""stim_listA/shout3.gif""style=""height:400px;""></stim_listA>",is shouting at,,,,,,
null,"<div style=""font-size:60px;"">+</div>",,html-keyboard-response,34,413801,0.0-13.0-0.1,18933,List1A,white,man,,,,null,,,,,,,,,
null,"<img src=""stim_listA/seduce2.gif""style=""height:400px;""></stim_listA>",,html-keyboard-response,35,415805,0.0-13.0-1.1,18933,List1A,white,man,,,,null,,,,,,,,,
null,is being seduced by,,html-keyboard-response,36,417806,0.0-13.0-2.1,18933,List1A,white,man,,,,null,,,,,,,,,
33225.7,,,survey-text,37,451035,0.0-13.0-3.1,18933,List1A,white,man,,,,,"{""Q0"":""fred is being seduced by kate""}","<img src=""stim_listA/seduce2.gif""style=""height:400px;""></stim_listA>",is being seduced by,,,,,,
null,"<div style=""font-size:60px;"">+</div>",,html-keyboard-response,38,451549,0.0-13.0-0.2,18933,List1A,white,man,,,,null,,,,,,,,,
null,"<img src=""stim_listA/shout1.gif""style=""height:400px;""></stim_listA>",,html-keyboard-response,39,453552,0.0-13.0-1.2,18933,List1A,white,man,,,,null,,,,,,,,,
null,is shouting at,,html-keyboard-response,40,455554,0.0-13.0-2.2,18933,List1A,white,man,,,,null,,,,,,,,,
22259.1,,,survey-text,41,477816,0.0-13.0-3.2,18933,List1A,white,man,,,,,"{""Q0"":""beth is shouting at fred""}","<img src=""stim_listA/shout1.gif""style=""height:400px;""></stim_listA>",is shouting at,,,,,,
null,"<div style=""font-size:60px;"">+</div>",,html-keyboard-response,42,478330,0.0-13.0-0.3,18933,List1A,white,man,,,,null,,,,,,,,,
null,"<img src=""stim_listA/greet1.gif""style=""height:400px;""></stim_listA>",,html-keyboard-response,43,480344,0.0-13.0-1.3,18933,List1A,white,man,,,,null,,,,,,,,,
null,is greeting,,html-keyboard-response,44,482346,0.0-13.0-2.3,18933,List1A,white,man,,,,null,,,,,,,,,
28194,,,survey-text,45,510543,0.0-13.0-3.3,18933,List1A,white,man,,,,,"{""Q0"":""kate is greeting dave""}","<img src=""stim_listA/greet1.gif""style=""height:400px;""></stim_listA>",is greeting,,,,,,
null,"<div style=""font-size:60px;"">+</div>",,html-keyboard-response,46,511055,0.0-13.0-0.4,18933,List1A,white,man,,,,null,,,,,,,,,
null,"<img src=""stim_listA/touch8.gif""style=""height:400px;""></stim_listA>",,html-keyboard-response,47,513062,0.0-13.0-1.4,18933,List1A,white,man,,,,null,,,,,,,,,
null,is being touched by,,html-keyboard-response,48,515069,0.0-13.0-2.4,18933,List1A,white,man,,,,null,,,,,,,,,
21894.7,,,survey-text,49,536967,0.0-13.0-3.4,18933,List1A,white,man,,,,,"{""Q0"":""ruth is being touched beth""}","<img src=""stim_listA/touch8.gif""style=""height:400px;""></stim_listA>",is being touched by,,,,,,
null,"<div style=""font-size:60px;"">+</div>",,html-keyboard-response,50,537474,0.0-13.0-0.5,18933,List1A,white,man,,,,null,,,,,,,,,
null,"<img src=""stim_listA/kiss7.gif""style=""height:400px;""></stim_listA>",,html-keyboard-response,51,539490,0.0-13.0-1.5,18933,List1A,white,man,,,,null,,,,,,,,,
null,is kissing,,html-keyboard-response,52,541492,0.0-13.0-2.5,18933,List1A,white,man,,,,null,,,,,,,,,
11760.5,,,survey-text,53,553256,0.0-13.0-3.5,18933,List1A,white,man,,,,,"{""Q0"":""ruth is kissing beth""}","<img src=""stim_listA/kiss7.gif""style=""height:400px;""></stim_listA>",is kissing,,,,,,
null,"<div style=""font-size:60px;"">+</div>",,html-keyboard-response,54,553764,0.0-13.0-0.6,18933,List1A,white,man,,,,null,,,,,,,,,
null,"<img src=""stim_listA/look8.gif""style=""height:400px;""></stim_listA>",,html-keyboard-response,55,555777,0.0-13.0-1.6,18933,List1A,white,man,,,,null,,,,,,,,,
null,is being looked at by,,html-keyboard-response,56,557786,0.0-13.0-2.6,18933,List1A,white,man,,,,null,,,,,,,,,
20101.4,,,survey-text,57,577894,0.0-13.0-3.6,18933,List1A,white,man,,,,,"{""Q0"":""kate is being being looked at by jane""}","<img src=""stim_listA/look8.gif""style=""height:400px;""></stim_listA>",is being looked at by,,,,,,
null,"<div style=""font-size:60px;"">+</div>",,html-keyboard-response,58,578405,0.0-13.0-0.7,18933,List1A,white,man,,,,null,,,,,,,,,
null,"<img src=""stim_listA/touch7.gif""style=""height:400px;""></stim_listA>",,html-keyboard-response,59,580414,0.0-13.0-1.7,18933,List1A,white,man,,,,null,,,,,,,,,
null,is touching,,html-keyboard-response,60,582428,0.0-13.0-2.7,18933,List1A,white,man,,,,null,,,,,,,,,
11348.9,,,survey-text,61,593781,0.0-13.0-3.7,18933,List1A,white,man,,,,,"{""Q0"":""jane is touching kate""}","<img src=""stim_listA/touch7.gif""style=""height:400px;""></stim_listA>",is touching,,,,,,
null,"<div style=""font-size:60px;"">+</div>",,html-keyboard-response,62,594290,0.0-13.0-0.8,18933,List1A,white,man,,,,null,,,,,,,,,
null,"<img src=""stim_listA/look4.gif""style=""height:400px;""></stim_listA>",,html-keyboard-response,63,596293,0.0-13.0-1.8,18933,List1A,white,man,,,,null,,,,,,,,,
null,is being looked at by,,html-keyboard-response,64,598298,0.0-13.0-2.8,18933,List1A,white,man,,,,null,,,,,,,,,
18040.2,,,survey-text,65,616341,0.0-13.0-3.8,18933,List1A,white,man,,,,,"{""Q0"":""jane is being looked at by dave""}","<img src=""stim_listA/look4.gif""style=""height:400px;""></stim_listA>",is being looked at by,,,,,,
null,"<div style=""font-size:60px;"">+</div>",,html-keyboard-response,66,616853,0.0-13.0-0.9,18933,List1A,white,man,,,,null,,,,,,,,,
null,"<img src=""stim_listA/hug4.gif""style=""height:400px;""></stim_listA>",,html-keyboard-response,67,618856,0.0-13.0-1.9,18933,List1A,white,man,,,,null,,,,,,,,,
null,is being hugged by,,html-keyboard-response,68,620870,0.0-13.0-2.9,18933,List1A,white,man,,,,null,,,,,,,,,
16864.6,,,survey-text,69,637738,0.0-13.0-3.9,18933,List1A,white,man,,,,,"{""Q0"":""jane is being hugged by dave""}","<img src=""stim_listA/hug4.gif""style=""height:400px;""></stim_listA>",is being hugged by,,,,,,
null,"<div style=""font-size:60px;"">+</div>",,html-keyboard-response,70,638252,0.0-13.0-0.10,18933,List1A,white,man,,,,null,,,,,,,,,
null,"<img src=""stim_listA/oppose4.gif""style=""height:400px;""></stim_listA>",,html-keyboard-response,71,640257,0.0-13.0-1.10,18933,List1A,white,man,,,,null,,,,,,,,,
null,is being opposed by,,html-keyboard-response,72,642272,0.0-13.0-2.10,18933,List1A,white,man,,,,null,,,,,,,,,
25586.1,,,survey-text,73,667861,0.0-13.0-3.10,18933,List1A,white,man,,,,,"{""Q0"":""Luke is being opposed by Ruth""}","<img src=""stim_listA/oppose4.gif""style=""height:400px;""></stim_listA>",is being opposed by,,,,,,
null,"<div style=""font-size:60px;"">+</div>",,html-keyboard-response,74,668370,0.0-13.0-0.11,18933,List1A,white,man,,,,null,,,,,,,,,
null,"<img src=""stim_listA/shout6.gif""style=""height:400px;""></stim_listA>",,html-keyboard-response,75,670388,0.0-13.0-1.11,18933,List1A,white,man,,,,null,,,,,,,,,
null,is being shouted at by,,html-keyboard-response,76,672397,0.0-13.0-2.11,18933,List1A,white,man,,,,null,,,,,,,,,
25598,,,survey-text,77,697999,0.0-13.0-3.11,18933,List1A,white,man,,,,,"{""Q0"":""Mike is being shouted at by Dave""}","<img src=""stim_listA/shout6.gif""style=""height:400px;""></stim_listA>",is being shouted at by,,,,,,
null,"<div style=""font-size:60px;"">+</div>",,html-keyboard-response,78,698506,0.0-13.0-0.12,18933,List1A,white,man,,,,null,,,,,,,,,
null,"<img src=""stim_listA/oppose3.gif""style=""height:400px;""></stim_listA>",,html-keyboard-response,79,700514,0.0-13.0-1.12,18933,List1A,white,man,,,,null,,,,,,,,,
null,is opposing,,html-keyboard-response,80,702528,0.0-13.0-2.12,18933,List1A,white,man,,,,null,,,,,,,,,
14693.1,,,survey-text,81,717225,0.0-13.0-3.12,18933,List1A,white,man,,,,,"{""Q0"":""Jane is opposing Dave""}","<img src=""stim_listA/oppose3.gif""style=""height:400px;""></stim_listA>",is opposing,,,,,,
null,"<div style=""font-size:60px;"">+</div>",,html-keyboard-response,82,717736,0.0-13.0-0.13,18933,List1A,white,man,,,,null,,,,,,,,,
null,"<img src=""stim_listA/greet7.gif""style=""height:400px;""></stim_listA>",,html-keyboard-response,83,719746,0.0-13.0-1.13,18933,List1A,white,man,,,,null,,,,,,,,,
null,is greeting,,html-keyboard-response,84,721760,0.0-13.0-2.13,18933,List1A,white,man,,,,null,,,,,,,,,
12592,,,survey-text,85,734355,0.0-13.0-3.13,18933,List1A,white,man,,,,,"{""Q0"":""kate is greeting ruth""}","<img src=""stim_listA/greet7.gif""style=""height:400px;""></stim_listA>",is greeting,,,,,,
null,"<div style=""font-size:60px;"">+</div>",,html-keyboard-response,86,734870,0.0-13.0-0.14,18933,List1A,white,man,,,,null,,,,,,,,,
null,"<img src=""stim_listA/touch5.gif""style=""height:400px;""></stim_listA>",,html-keyboard-response,87,736873,0.0-13.0-1.14,18933,List1A,white,man,,,,null,,,,,,,,,
null,is touching,,html-keyboard-response,88,738875,0.0-13.0-2.14,18933,List1A,white,man,,,,null,,,,,,,,,
13156,,,survey-text,89,752034,0.0-13.0-3.14,18933,List1A,white,man,,,,,"{""Q0"":""dave is touching mike""}","<img src=""stim_listA/touch5.gif""style=""height:400px;""></stim_listA>",is touching,,,,,,
null,"<div style=""font-size:60px;"">+</div>",,html-keyboard-response,90,752542,0.0-13.0-0.15,18933,List1A,white,man,,,,null,,,,,,,,,
null,"<img src=""stim_listA/copy4.gif""style=""height:400px;""></stim_listA>",,html-keyboard-response,91,754545,0.0-13.0-1.15,18933,List1A,white,man,,,,null,,,,,,,,,
null,is being copied by,,html-keyboard-response,92,756561,0.0-13.0-2.15,18933,List1A,white,man,,,,null,,,,,,,,,
14378.2,,,survey-text,93,770946,0.0-13.0-3.15,18933,List1A,white,man,,,,,"{""Q0"":""Jane is being copied by Luke""}","<img src=""stim_listA/copy4.gif""style=""height:400px;""></stim_listA>",is being copied by,,,,,,
null,"<div style=""font-size:60px;"">+</div>",,html-keyboard-response,94,771453,0.0-13.0-0.16,18933,List1A,white,man,,,,null,,,,,,,,,
null,"<img src=""stim_listA/greet5.gif""style=""height:400px;""></stim_listA>",,html-keyboard-response,95,773462,0.0-13.0-1.16,18933,List1A,white,man,,,,null,,,,,,,,,
null,is greeting,,html-keyboard-response,96,775475,0.0-13.0-2.16,18933,List1A,white,man,,,,null,,,,,,,,,
12060.8,,,survey-text,97,787539,0.0-13.0-3.16,18933,List1A,white,man,,,,,"{""Q0"":""Mike is greeting Luke""}","<img src=""stim_listA/greet5.gif""style=""height:400px;""></stim_listA>",is greeting,,,,,,
null,"<div style=""font-size:60px;"">+</div>",,html-keyboard-response,98,788043,0.0-13.0-0.17,18933,List1A,white,man,,,,null,,,,,,,,,
null,"<img src=""stim_listA/greet4.gif""style=""height:400px;""></stim_listA>",,html-keyboard-response,99,790051,0.0-13.0-1.17,18933,List1A,white,man,,,,null,,,,,,,,,
null,is being greeted by,,html-keyboard-response,100,792063,0.0-13.0-2.17,18933,List1A,white,man,,,,null,,,,,,,,,
12613.4,,,survey-text,101,804680,0.0-13.0-3.17,18933,List1A,white,man,,,,,"{""Q0"":""Jane is being greeted by Luke""}","<img src=""stim_listA/greet4.gif""style=""height:400px;""></stim_listA>",is being greeted by,,,,,,
null,"<div style=""font-size:60px;"">+</div>",,html-keyboard-response,102,805181,0.0-13.0-0.18,18933,List1A,white,man,,,,null,,,,,,,,,
null,"<img src=""stim_listA/greet2.gif""style=""height:400px;""></stim_listA>",,html-keyboard-response,103,807195,0.0-13.0-1.18,18933,List1A,white,man,,,,null,,,,,,,,,
null,is being greeted by,,html-keyboard-response,104,809208,0.0-13.0-2.18,18933,List1A,white,man,,,,null,,,,,,,,,
23092,,,survey-text,105,832303,0.0-13.0-3.18,18933,List1A,white,man,,,,,"{""Q0"":""Kate is being greeted by Fred""}","<img src=""stim_listA/greet2.gif""style=""height:400px;""></stim_listA>",is being greeted by,,,,,,
null,"<div style=""font-size:60px;"">+</div>",,html-keyboard-response,106,832806,0.0-13.0-0.19,18933,List1A,white,man,,,,null,,,,,,,,,
null,"<img src=""stim_listA/copy3.gif""style=""height:400px;""></stim_listA>",,html-keyboard-response,107,834813,0.0-13.0-1.19,18933,List1A,white,man,,,,null,,,,,,,,,
null,is copying,,html-keyboard-response,108,836826,0.0-13.0-2.19,18933,List1A,white,man,,,,null,,,,,,,,,
22023.6,,,survey-text,109,858853,0.0-13.0-3.19,18933,List1A,white,man,,,,,"{""Q0"":""Jane is being copied by Dave""}","<img src=""stim_listA/copy3.gif""style=""height:400px;""></stim_listA>",is copying,,,,,,
21465,"<img src='img/portrait_matrix_list1.jpg' style='width:900px;height:500px;''></img><p>If you have memorised all the portraits and names and are ready to start, press Continue.</p><p><strong>Please note: Your memory of these faces will be tested 4 times during this experiment.</strong></p>",0,html-button-response,110,880320,0.0-14.0-0.0,18933,List1A,white,man,,,,,,,,,,,,,
4152.9,"<img src=""portrait/BM2.jpg""style=""height:400px;""></img>",5,html-button-response,111,885480,0.0-14.0-1.0,18933,List1A,white,man,,TRUE,5,,,,,,,,,,
null,CORRECT,,html-keyboard-response,112,887006,0.0-14.0-2.0-0.0,18933,List1A,white,man,,,,null,,,,,,,,,
7126.4,"<img src=""portrait/WW2.jpg""style=""height:400px;""></img>",3,html-button-response,113,894134,0.0-14.0-4.0,18933,List1A,white,man,,TRUE,3,,,,,,,,,,
null,CORRECT,,html-keyboard-response,114,895657,0.0-14.0-5.0-0.0,18933,List1A,white,man,,,,null,,,,,,,,,
6410.4,"<img src=""portrait/WM2.jpg""style=""height:400px;""></img>",7,html-button-response,115,902070,0.0-14.0-7.0,18933,List1A,white,man,,TRUE,7,,,,,,,,,,
null,CORRECT,,html-keyboard-response,116,903586,0.0-14.0-8.0-0.0,18933,List1A,white,man,,,,null,,,,,,,,,
2412.4,"<img src=""portrait/BW2.jpg""style=""height:400px;""></img>",2,html-button-response,117,906000,0.0-14.0-10.0,18933,List1A,white,man,,TRUE,2,,,,,,,,,,
null,CORRECT,,html-keyboard-response,118,907519,0.0-14.0-11.0-0.0,18933,List1A,white,man,,,,null,,,,,,,,,
5254.4,"<img src=""portrait/WW1.jpg""style=""height:400px;""></img>",1,html-button-response,119,912776,0.0-14.0-13.0,18933,List1A,white,man,,TRUE,1,,,,,,,,,,
null,CORRECT,,html-keyboard-response,120,914290,0.0-14.0-14.0-0.0,18933,List1A,white,man,,,,null,,,,,,,,,
4418.5,"<img src=""portrait/WM1.jpg""style=""height:400px;""></img>",6,html-button-response,121,918711,0.0-14.0-16.0,18933,List1A,white,man,,TRUE,6,,,,,,,,,,
null,CORRECT,,html-keyboard-response,122,920238,0.0-14.0-17.0-0.0,18933,List1A,white,man,,,,null,,,,,,,,,
4730,"<img src=""portrait/BM1.jpg""style=""height:400px;""></img>",4,html-button-response,123,924970,0.0-14.0-19.0,18933,List1A,white,man,,TRUE,4,,,,,,,,,,
null,CORRECT,,html-keyboard-response,124,926497,0.0-14.0-20.0-0.0,18933,List1A,white,man,,,,null,,,,,,,,,
4350.3,"<img src=""portrait/BW1.jpg""style=""height:400px;""></img>",0,html-button-response,125,930850,0.0-14.0-22.0,18933,List1A,white,man,,TRUE,0,,,,,,,,,,
null,CORRECT,,html-keyboard-response,126,932365,0.0-14.0-23.0-0.0,18933,List1A,white,man,,,,null,,,,,,,,,
2105.5,<p>You got 8 out of 8 right first time. Press Continue.</p>,0,html-button-response,127,934472,0.0-14.0-25.0,18933,List1A,white,man,,,,,,,,,,,,,
null,"<div style=""font-size:60px;"">+</div>",,html-keyboard-response,128,935988,0.0-15.0-0.0,18933,List1A,white,man,,,,null,,,,,,,,,
null,"<img src=""stim_listA/shout5.gif""style=""height:400px;""></stim_listA>",,html-keyboard-response,129,937992,0.0-15.0-1.0,18933,List1A,white,man,,,,null,,,,,,,,,
null,is shouting at,,html-keyboard-response,130,939998,0.0-15.0-2.0,18933,List1A,white,man,,,,null,,,,,,,,,
16726.5,,,survey-text,131,956728,0.0-15.0-3.0,18933,List1A,white,man,,,,,"{""Q0"":""Fred is shouting at Luke""}","<img src=""stim_listA/shout5.gif""style=""height:400px;""></stim_listA>",is shouting at,,,,,,
null,"<div style=""font-size:60px;"">+</div>",,html-keyboard-response,132,957238,0.0-15.0-0.1,18933,List1A,white,man,,,,null,,,,,,,,,
null,"<img src=""stim_listA/seduce3.gif""style=""height:400px;""></stim_listA>",,html-keyboard-response,133,959248,0.0-15.0-1.1,18933,List1A,white,man,,,,null,,,,,,,,,
null,is seducing,,html-keyboard-response,134,961260,0.0-15.0-2.1,18933,List1A,white,man,,,,null,,,,,,,,,
20954.1,,,survey-text,135,982217,0.0-15.0-3.1,18933,List1A,white,man,,,,,"{""Q0"":""luke is seducing jane""}","<img src=""stim_listA/seduce3.gif""style=""height:400px;""></stim_listA>",is seducing,,,,,,
null,"<div style=""font-size:60px;"">+</div>",,html-keyboard-response,136,982734,0.0-15.0-0.2,18933,List1A,white,man,,,,null,,,,,,,,,
null,"<img src=""stim_listA/copy5.gif""style=""height:400px;""></stim_listA>",,html-keyboard-response,137,984750,0.0-15.0-1.2,18933,List1A,white,man,,,,null,,,,,,,,,
null,is copying,,html-keyboard-response,138,986763,0.0-15.0-2.2,18933,List1A,white,man,,,,null,,,,,,,,,
13711.1,,,survey-text,139,1000478,0.0-15.0-3.2,18933,List1A,white,man,,,,,"{""Q0"":""Mike is copying Luke""}","<img src=""stim_listA/copy5.gif""style=""height:400px;""></stim_listA>",is copying,,,,,,
null,"<div style=""font-size:60px;"">+</div>",,html-keyboard-response,140,1000991,0.0-15.0-0.3,18933,List1A,white,man,,,,null,,,,,,,,,
null,"<img src=""stim_listA/seduce7.gif""style=""height:400px;""></stim_listA>",,html-keyboard-response,141,1003003,0.0-15.0-1.3,18933,List1A,white,man,,,,null,,,,,,,,,
null,is seducing,,html-keyboard-response,142,1005008,0.0-15.0-2.3,18933,List1A,white,man,,,,null,,,,,,,,,
21136.4,,,survey-text,143,1026148,0.0-15.0-3.3,18933,List1A,white,man,,,,,"{""Q0"":""Beth is Seducing Jane""}","<img src=""stim_listA/seduce7.gif""style=""height:400px;""></stim_listA>",is seducing,,,,,,
null,"<div style=""font-size:60px;"">+</div>",,html-keyboard-response,144,1026653,0.0-15.0-0.4,18933,List1A,white,man,,,,null,,,,,,,,,
null,"<img src=""stim_listA/oppose7.gif""style=""height:400px;""></stim_listA>",,html-keyboard-response,145,1028657,0.0-15.0-1.4,18933,List1A,white,man,,,,null,,,,,,,,,
null,is opposing,,html-keyboard-response,146,1030666,0.0-15.0-2.4,18933,List1A,white,man,,,,null,,,,,,,,,
23328.4,,,survey-text,147,1053998,0.0-15.0-3.4,18933,List1A,white,man,,,,,"{""Q0"":""Jane is opposing Kate""}","<img src=""stim_listA/oppose7.gif""style=""height:400px;""></stim_listA>",is opposing,,,,,,
null,"<div style=""font-size:60px;"">+</div>",,html-keyboard-response,148,1054508,0.0-15.0-0.5,18933,List1A,white,man,,,,null,,,,,,,,,
null,"<img src=""stim_listA/oppose2.gif""style=""height:400px;""></stim_listA>",,html-keyboard-response,149,1056519,0.0-15.0-1.5,18933,List1A,white,man,,,,null,,,,,,,,,
null,is being opposed by,,html-keyboard-response,150,1058524,0.0-15.0-2.5,18933,List1A,white,man,,,,null,,,,,,,,,
17643.1,,,survey-text,151,1076170,0.0-15.0-3.5,18933,List1A,white,man,,,,,"{""Q0"":""Beth is being opposed by Fred""}","<img src=""stim_listA/oppose2.gif""style=""height:400px;""></stim_listA>",is being opposed by,,,,,,
null,"<div style=""font-size:60px;"">+</div>",,html-keyboard-response,152,1076677,0.0-15.0-0.6,18933,List1A,white,man,,,,null,,,,,,,,,
null,"<img src=""stim_listA/challenge7.gif""style=""height:400px;""></stim_listA>",,html-keyboard-response,153,1078680,0.0-15.0-1.6,18933,List1A,white,man,,,,null,,,,,,,,,
null,is challenging,,html-keyboard-response,154,1080693,0.0-15.0-2.6,18933,List1A,white,man,,,,null,,,,,,,,,
20828.9,,,survey-text,155,1101525,0.0-15.0-3.6,18933,List1A,white,man,,,,,"{""Q0"":""Ruth is challenging kate""}","<img src=""stim_listA/challenge7.gif""style=""height:400px;""></stim_listA>",is challenging,,,,,,
null,"<div style=""font-size:60px;"">+</div>",,html-keyboard-response,156,1102029,0.0-15.0-0.7,18933,List1A,white,man,,,,null,,,,,,,,,
null,"<img src=""stim_listA/copy7.gif""style=""height:400px;""></stim_listA>",,html-keyboard-response,157,1104032,0.0-15.0-1.7,18933,List1A,white,man,,,,null,,,,,,,,,
null,is copying,,html-keyboard-response,158,1106047,0.0-15.0-2.7,18933,List1A,white,man,,,,null,,,,,,,,,
26695.3,,,survey-text,159,1132746,0.0-15.0-3.7,18933,List1A,white,man,,,,,"{""Q0"":""kate is being copied by ruth""}","<img src=""stim_listA/copy7.gif""style=""height:400px;""></stim_listA>",is copying,,,,,,
null,"<div style=""font-size:60px;"">+</div>",,html-keyboard-response,160,1133249,0.0-15.0-0.8,18933,List1A,white,man,,,,null,,,,,,,,,
null,"<img src=""stim_listA/look3.gif""style=""height:400px;""></stim_listA>",,html-keyboard-response,161,1135260,0.0-15.0-1.8,18933,List1A,white,man,,,,null,,,,,,,,,
null,is looking at,,html-keyboard-response,162,1137265,0.0-15.0-2.8,18933,List1A,white,man,,,,null,,,,,,,,,
16588.4,,,survey-text,163,1153857,0.0-15.0-3.8,18933,List1A,white,man,,,,,"{""Q0"":""Luke is looking at Ruth""}","<img src=""stim_listA/look3.gif""style=""height:400px;""></stim_listA>",is looking at,,,,,,
null,"<div style=""font-size:60px;"">+</div>",,html-keyboard-response,164,1154361,0.0-15.0-0.9,18933,List1A,white,man,,,,null,,,,,,,,,
null,"<img src=""stim_listA/challenge2.gif""style=""height:400px;""></stim_listA>",,html-keyboard-response,165,1156374,0.0-15.0-1.9,18933,List1A,white,man,,,,null,,,,,,,,,
null,is being challenged by,,html-keyboard-response,166,1158381,0.0-15.0-2.9,18933,List1A,white,man,,,,null,,,,,,,,,
16552.6,,,survey-text,167,1174937,0.0-15.0-3.9,18933,List1A,white,man,,,,,"{""Q0"":""Kate is being challenged by Fred""}","<img src=""stim_listA/challenge2.gif""style=""height:400px;""></stim_listA>",is being challenged by,,,,,,
null,"<div style=""font-size:60px;"">+</div>",,html-keyboard-response,168,1175452,0.0-15.0-0.10,18933,List1A,white,man,,,,null,,,,,,,,,
null,"<img src=""stim_listA/look2.gif""style=""height:400px;""></stim_listA>",,html-keyboard-response,169,1177454,0.0-15.0-1.10,18933,List1A,white,man,,,,null,,,,,,,,,
null,is being looked at by,,html-keyboard-response,170,1179461,0.0-15.0-2.10,18933,List1A,white,man,,,,null,,,,,,,,,
17847.4,,,survey-text,171,1197312,0.0-15.0-3.10,18933,List1A,white,man,,,,,"{""Q0"":""Kate is being looked at by Mike""}","<img src=""stim_listA/look2.gif""style=""height:400px;""></stim_listA>",is being looked at by,,,,,,
null,"<div style=""font-size:60px;"">+</div>",,html-keyboard-response,172,1197820,0.0-15.0-0.11,18933,List1A,white,man,,,,null,,,,,,,,,
null,"<img src=""stim_listA/challenge6.gif""style=""height:400px;""></stim_listA>",,html-keyboard-response,173,1199828,0.0-15.0-1.11,18933,List1A,white,man,,,,null,,,,,,,,,
null,is being challenged by,,html-keyboard-response,174,1201831,0.0-15.0-2.11,18933,List1A,white,man,,,,null,,,,,,,,,
19607,,,survey-text,175,1221441,0.0-15.0-3.11,18933,List1A,white,man,,,,,"{""Q0"":""Dave is being challenged by Fred""}","<img src=""stim_listA/challenge6.gif""style=""height:400px;""></stim_listA>",is being challenged by,,,,,,
null,"<div style=""font-size:60px;"">+</div>",,html-keyboard-response,176,1221953,0.0-15.0-0.12,18933,List1A,white,man,,,,null,,,,,,,,,
null,"<img src=""stim_listA/oppose1.gif""style=""height:400px;""></stim_listA>",,html-keyboard-response,177,1223964,0.0-15.0-1.12,18933,List1A,white,man,,,,null,,,,,,,,,
null,is opposing,,html-keyboard-response,178,1225978,0.0-15.0-2.12,18933,List1A,white,man,,,,null,,,,,,,,,
12153.2,,,survey-text,179,1238135,0.0-15.0-3.12,18933,List1A,white,man,,,,,"{""Q0"":""Kate is opposing Mike""}","<img src=""stim_listA/oppose1.gif""style=""height:400px;""></stim_listA>",is opposing,,,,,,
null,"<div style=""font-size:60px;"">+</div>",,html-keyboard-response,180,1238646,0.0-15.0-0.13,18933,List1A,white,man,,,,null,,,,,,,,,
null,"<img src=""stim_listA/challenge1.gif""style=""height:400px;""></stim_listA>",,html-keyboard-response,181,1240649,0.0-15.0-1.13,18933,List1A,white,man,,,,null,,,,,,,,,
null,is challenging,,html-keyboard-response,182,1242651,0.0-15.0-2.13,18933,List1A,white,man,,,,null,,,,,,,,,
18678.9,,,survey-text,183,1261333,0.0-15.0-3.13,18933,List1A,white,man,,,,,"{""Q0"":""Mike is challenging Beth""}","<img src=""stim_listA/challenge1.gif""style=""height:400px;""></stim_listA>",is challenging,,,,,,
null,"<div style=""font-size:60px;"">+</div>",,html-keyboard-response,184,1261843,0.0-15.0-0.14,18933,List1A,white,man,,,,null,,,,,,,,,
null,"<img src=""stim_listA/kiss2.gif""style=""height:400px;""></stim_listA>",,html-keyboard-response,185,1263849,0.0-15.0-1.14,18933,List1A,white,man,,,,null,,,,,,,,,
null,is being kissed by,,html-keyboard-response,186,1265862,0.0-15.0-2.14,18933,List1A,white,man,,,,null,,,,,,,,,
26379.8,,,survey-text,187,1292245,0.0-15.0-3.14,18933,List1A,white,man,,,,,"{""Q0"":""Kate is being kissed by Mike""}","<img src=""stim_listA/kiss2.gif""style=""height:400px;""></stim_listA>",is being kissed by,,,,,,
null,"<div style=""font-size:60px;"">+</div>",,html-keyboard-response,188,1292757,0.0-15.0-0.15,18933,List1A,white,man,,,,null,,,,,,,,,
null,"<img src=""stim_listA/look7.gif""style=""height:400px;""></stim_listA>",,html-keyboard-response,189,1294769,0.0-15.0-1.15,18933,List1A,white,man,,,,null,,,,,,,,,
null,is looking at,,html-keyboard-response,190,1296784,0.0-15.0-2.15,18933,List1A,white,man,,,,null,,,,,,,,,
24332.3,,,survey-text,191,1321120,0.0-15.0-3.15,18933,List1A,white,man,,,,,"{""Q0"":""Ruth is looking at Kate""}","<img src=""stim_listA/look7.gif""style=""height:400px;""></stim_listA>",is looking at,,,,,,
null,"<div style=""font-size:60px;"">+</div>",,html-keyboard-response,192,1321634,0.0-15.0-0.16,18933,List1A,white,man,,,,null,,,,,,,,,
null,"<img src=""stim_listA/seduce4.gif""style=""height:400px;""></stim_listA>",,html-keyboard-response,193,1323638,0.0-15.0-1.16,18933,List1A,white,man,,,,null,,,,,,,,,
null,is being seduced by,,html-keyboard-response,194,1325651,0.0-15.0-2.16,18933,List1A,white,man,,,,null,,,,,,,,,
32661.9,,,survey-text,195,1358316,0.0-15.0-3.16,18933,List1A,white,man,,,,,"{""Q0"":""Ruth is kissing Dave""}","<img src=""stim_listA/seduce4.gif""style=""height:400px;""></stim_listA>",is being seduced by,,,,,,
null,"<div style=""font-size:60px;"">+</div>",,html-keyboard-response,196,1358823,0.0-15.0-0.17,18933,List1A,white,man,,,,null,,,,,,,,,
null,"<img src=""stim_listA/copy2.gif""style=""height:400px;""></stim_listA>",,html-keyboard-response,197,1360841,0.0-15.0-1.17,18933,List1A,white,man,,,,null,,,,,,,,,
null,is being copied by,,html-keyboard-response,198,1362842,0.0-15.0-2.17,18933,List1A,white,man,,,,null,,,,,,,,,
16807,,,survey-text,199,1379653,0.0-15.0-3.17,18933,List1A,white,man,,,,,"{""Q0"":""Kate is being copied by Fred""}","<img src=""stim_listA/copy2.gif""style=""height:400px;""></stim_listA>",is being copied by,,,,,,
null,"<div style=""font-size:60px;"">+</div>",,html-keyboard-response,200,1380164,0.0-15.0-0.18,18933,List1A,white,man,,,,null,,,,,,,,,
null,"<img src=""stim_listA/seduce8.gif""style=""height:400px;""></stim_listA>",,html-keyboard-response,201,1382184,0.0-15.0-1.18,18933,List1A,white,man,,,,null,,,,,,,,,
null,is being seduced by,,html-keyboard-response,202,1384190,0.0-15.0-2.18,18933,List1A,white,man,,,,null,,,,,,,,,
17064.1,,,survey-text,203,1401257,0.0-15.0-3.18,18933,List1A,white,man,,,,,"{""Q0"":""Kate is being seduced by Ruth""}","<img src=""stim_listA/seduce8.gif""style=""height:400px;""></stim_listA>",is being seduced by,,,,,,
null,"<div style=""font-size:60px;"">+</div>",,html-keyboard-response,204,1401764,0.0-15.0-0.19,18933,List1A,white,man,,,,null,,,,,,,,,
null,"<img src=""stim_listA/touch1.gif""style=""height:400px;""></stim_listA>",,html-keyboard-response,205,1403773,0.0-15.0-1.19,18933,List1A,white,man,,,,null,,,,,,,,,
null,is touching,,html-keyboard-response,206,1405787,0.0-15.0-2.19,18933,List1A,white,man,,,,null,,,,,,,,,
9816.5,,,survey-text,207,1415606,0.0-15.0-3.19,18933,List1A,white,man,,,,,"{""Q0"":""Kate is touching Mike""}","<img src=""stim_listA/touch1.gif""style=""height:400px;""></stim_listA>",is touching,,,,,,
81273.5,"<img src='img/portrait_matrix_list1.jpg' style='width:900px;height:500px;''></img><p>If you have memorised all the portraits and names and are ready to start, press Continue.</p><p><strong>Please note: Your memory of these faces will be tested 4 times during this experiment.</strong></p>",0,html-button-response,208,1496882,0.0-16.0-0.0,18933,List1A,white,man,,,,,,,,,,,,,
3855.4,"<img src=""portrait/WM2.jpg""style=""height:400px;""></img>",7,html-button-response,209,1501740,0.0-16.0-1.0,18933,List1A,white,man,,TRUE,7,,,,,,,,,,
null,CORRECT,,html-keyboard-response,210,1503258,0.0-16.0-2.0-0.0,18933,List1A,white,man,,,,null,,,,,,,,,
6014,"<img src=""portrait/WW1.jpg""style=""height:400px;""></img>",1,html-button-response,211,1509275,0.0-16.0-4.0,18933,List1A,white,man,,TRUE,1,,,,,,,,,,
null,CORRECT,,html-keyboard-response,212,1510790,0.0-16.0-5.0-0.0,18933,List1A,white,man,,,,null,,,,,,,,,
5459,"<img src=""portrait/BM1.jpg""style=""height:400px;""></img>",4,html-button-response,213,1516252,0.0-16.0-7.0,18933,List1A,white,man,,TRUE,4,,,,,,,,,,
null,CORRECT,,html-keyboard-response,214,1517776,0.0-16.0-8.0-0.0,18933,List1A,white,man,,,,null,,,,,,,,,
9275,"<img src=""portrait/WM1.jpg""style=""height:400px;""></img>",6,html-button-response,215,1527053,0.0-16.0-10.0,18933,List1A,white,man,,TRUE,6,,,,,,,,,,
null,CORRECT,,html-keyboard-response,216,1528574,0.0-16.0-11.0-0.0,18933,List1A,white,man,,,,null,,,,,,,,,
1866.6,"<img src=""portrait/BM2.jpg""style=""height:400px;""></img>",5,html-button-response,217,1530443,0.0-16.0-13.0,18933,List1A,white,man,,TRUE,5,,,,,,,,,,
null,CORRECT,,html-keyboard-response,218,1531970,0.0-16.0-14.0-0.0,18933,List1A,white,man,,,,null,,,,,,,,,
5486.5,"<img src=""portrait/BW1.jpg""style=""height:400px;""></img>",0,html-button-response,219,1537459,0.0-16.0-16.0,18933,List1A,white,man,,TRUE,0,,,,,,,,,,
null,CORRECT,,html-keyboard-response,220,1538972,0.0-16.0-17.0-0.0,18933,List1A,white,man,,,,null,,,,,,,,,
2755.6,"<img src=""portrait/WW2.jpg""style=""height:400px;""></img>",3,html-button-response,221,1541730,0.0-16.0-19.0,18933,List1A,white,man,,TRUE,3,,,,,,,,,,
null,CORRECT,,html-keyboard-response,222,1543248,0.0-16.0-20.0-0.0,18933,List1A,white,man,,,,null,,,,,,,,,
3507.8,"<img src=""portrait/BW2.jpg""style=""height:400px;""></img>",2,html-button-response,223,1546758,0.0-16.0-22.0,18933,List1A,white,man,,TRUE,2,,,,,,,,,,
null,CORRECT,,html-keyboard-response,224,1548271,0.0-16.0-23.0-0.0,18933,List1A,white,man,,,,null,,,,,,,,,
1758.1,<p>You got 8 out of 8 right first time. Press Continue.</p>,0,html-button-response,225,1550031,0.0-16.0-25.0,18933,List1A,white,man,,,,,,,,,,,,,
null,"<div style=""font-size:60px;"">+</div>",,html-keyboard-response,226,1551559,0.0-17.0-0.0,18933,List1A,white,man,,,,null,,,,,,,,,
null,"<img src=""stim_listA/seduce1.gif""style=""height:400px;""></stim_listA>",,html-keyboard-response,227,1553562,0.0-17.0-1.0,18933,List1A,white,man,,,,null,,,,,,,,,
null,is seducing,,html-keyboard-response,228,1555570,0.0-17.0-2.0,18933,List1A,white,man,,,,null,,,,,,,,,
14938.6,,,survey-text,229,1570512,0.0-17.0-3.0,18933,List1A,white,man,,,,,"{""Q0"":""Kate is being seduced by Fred""}","<img src=""stim_listA/seduce1.gif""style=""height:400px;""></stim_listA>",is seducing,,,,,,
null,"<div style=""font-size:60px;"">+</div>",,html-keyboard-response,230,1571018,0.0-17.0-0.1,18933,List1A,white,man,,,,null,,,,,,,,,
null,"<img src=""stim_listA/copy8.gif""style=""height:400px;""></stim_listA>",,html-keyboard-response,231,1573021,0.0-17.0-1.1,18933,List1A,white,man,,,,null,,,,,,,,,
null,is being copied by,,html-keyboard-response,232,1575030,0.0-17.0-2.1,18933,List1A,white,man,,,,null,,,,,,,,,
13724.6,,,survey-text,233,1588758,0.0-17.0-3.1,18933,List1A,white,man,,,,,"{""Q0"":""jane is being copied by beth""}","<img src=""stim_listA/copy8.gif""style=""height:400px;""></stim_listA>",is being copied by,,,,,,
null,"<div style=""font-size:60px;"">+</div>",,html-keyboard-response,234,1589263,0.0-17.0-0.2,18933,List1A,white,man,,,,null,,,,,,,,,
null,"<img src=""stim_listA/kiss6.gif""style=""height:400px;""></stim_listA>",,html-keyboard-response,235,1591272,0.0-17.0-1.2,18933,List1A,white,man,,,,null,,,,,,,,,
null,is being kissed by,,html-keyboard-response,236,1593284,0.0-17.0-2.2,18933,List1A,white,man,,,,null,,,,,,,,,
16651.7,,,survey-text,237,1609939,0.0-17.0-3.2,18933,List1A,white,man,,,,,"{""Q0"":""dave is being kissed by mike""}","<img src=""stim_listA/kiss6.gif""style=""height:400px;""></stim_listA>",is being kissed by,,,,,,
null,"<div style=""font-size:60px;"">+</div>",,html-keyboard-response,238,1610450,0.0-17.0-0.3,18933,List1A,white,man,,,,null,,,,,,,,,
null,"<img src=""stim_listA/shout2.gif""style=""height:400px;""></stim_listA>",,html-keyboard-response,239,1612458,0.0-17.0-1.3,18933,List1A,white,man,,,,null,,,,,,,,,
null,is being shouted at by,,html-keyboard-response,240,1614472,0.0-17.0-2.3,18933,List1A,white,man,,,,null,,,,,,,,,
15285.3,,,survey-text,241,1629760,0.0-17.0-3.3,18933,List1A,white,man,,,,,"{""Q0"":""kate is being shouted at by mike""}","<img src=""stim_listA/shout2.gif""style=""height:400px;""></stim_listA>",is being shouted at by,,,,,,
null,"<div style=""font-size:60px;"">+</div>",,html-keyboard-response,242,1630274,0.0-17.0-0.4,18933,List1A,white,man,,,,null,,,,,,,,,
null,"<img src=""stim_listA/challenge3.gif""style=""height:400px;""></stim_listA>",,html-keyboard-response,243,1632278,0.0-17.0-1.4,18933,List1A,white,man,,,,null,,,,,,,,,
null,is challenging,,html-keyboard-response,244,1634281,0.0-17.0-2.4,18933,List1A,white,man,,,,null,,,,,,,,,
19817.2,,,survey-text,245,1654101,0.0-17.0-3.4,18933,List1A,white,man,,,,,"{""Q0"":""dave is challenging ruth""}","<img src=""stim_listA/challenge3.gif""style=""height:400px;""></stim_listA>",is challenging,,,,,,
null,"<div style=""font-size:60px;"">+</div>",,html-keyboard-response,246,1654608,0.0-17.0-0.5,18933,List1A,white,man,,,,null,,,,,,,,,
null,"<img src=""stim_listA/greet8.gif""style=""height:400px;""></stim_listA>",,html-keyboard-response,247,1656620,0.0-17.0-1.5,18933,List1A,white,man,,,,null,,,,,,,,,
null,is being greeted by,,html-keyboard-response,248,1658635,0.0-17.0-2.5,18933,List1A,white,man,,,,null,,,,,,,,,
13389.2,,,survey-text,249,1672027,0.0-17.0-3.5,18933,List1A,white,man,,,,,"{""Q0"":""jane is being greeted by beth""}","<img src=""stim_listA/greet8.gif""style=""height:400px;""></stim_listA>",is being greeted by,,,,,,
null,"<div style=""font-size:60px;"">+</div>",,html-keyboard-response,250,1672538,0.0-17.0-0.6,18933,List1A,white,man,,,,null,,,,,,,,,
null,"<img src=""stim_listA/oppose6.gif""style=""height:400px;""></stim_listA>",,html-keyboard-response,251,1674546,0.0-17.0-1.6,18933,List1A,white,man,,,,null,,,,,,,,,
null,is being opposed by,,html-keyboard-response,252,1676557,0.0-17.0-2.6,18933,List1A,white,man,,,,null,,,,,,,,,
19816.6,,,survey-text,253,1696377,0.0-17.0-3.6,18933,List1A,white,man,,,,,"{""Q0"":""fred is being opposed by luke""}","<img src=""stim_listA/oppose6.gif""style=""height:400px;""></stim_listA>",is being opposed by,,,,,,
null,"<div style=""font-size:60px;"">+</div>",,html-keyboard-response,254,1696885,0.0-17.0-0.7,18933,List1A,white,man,,,,null,,,,,,,,,
null,"<img src=""stim_listA/oppose5.gif""style=""height:400px;""></stim_listA>",,html-keyboard-response,255,1698896,0.0-17.0-1.7,18933,List1A,white,man,,,,null,,,,,,,,,
null,is opposing,,html-keyboard-response,256,1700898,0.0-17.0-2.7,18933,List1A,white,man,,,,null,,,,,,,,,
8142.9,,,survey-text,257,1709044,0.0-17.0-3.7,18933,List1A,white,man,,,,,"{""Q0"":""dave is opposing mike""}","<img src=""stim_listA/oppose5.gif""style=""height:400px;""></stim_listA>",is opposing,,,,,,
null,"<div style=""font-size:60px;"">+</div>",,html-keyboard-response,258,1709551,0.0-17.0-0.8,18933,List1A,white,man,,,,null,,,,,,,,,
null,"<img src=""stim_listA/hug5.gif""style=""height:400px;""></stim_listA>",,html-keyboard-response,259,1711565,0.0-17.0-1.8,18933,List1A,white,man,,,,null,,,,,,,,,
null,is hugging,,html-keyboard-response,260,1713578,0.0-17.0-2.8,18933,List1A,white,man,,,,null,,,,,,,,,
12735,,,survey-text,261,1726316,0.0-17.0-3.8,18933,List1A,white,man,,,,,"{""Q0"":""luke is hugging fred""}","<img src=""stim_listA/hug5.gif""style=""height:400px;""></stim_listA>",is hugging,,,,,,
null,"<div style=""font-size:60px;"">+</div>",,html-keyboard-response,262,1726827,0.0-17.0-0.9,18933,List1A,white,man,,,,null,,,,,,,,,
null,"<img src=""stim_listA/challenge8.gif""style=""height:400px;""></stim_listA>",,html-keyboard-response,263,1728832,0.0-17.0-1.9,18933,List1A,white,man,,,,null,,,,,,,,,
null,is being challenged by,,html-keyboard-response,264,1730843,0.0-17.0-2.9,18933,List1A,white,man,,,,null,,,,,,,,,
10279.2,,,survey-text,265,1741125,0.0-17.0-3.9,18933,List1A,white,man,,,,,"{""Q0"":""jane is challenging beth""}","<img src=""stim_listA/challenge8.gif""style=""height:400px;""></stim_listA>",is being challenged by,,,,,,
null,"<div style=""font-size:60px;"">+</div>",,html-keyboard-response,266,1741631,0.0-17.0-0.10,18933,List1A,white,man,,,,null,,,,,,,,,
null,"<img src=""stim_listA/hug2.gif""style=""height:400px;""></stim_listA>",,html-keyboard-response,267,1743634,0.0-17.0-1.10,18933,List1A,white,man,,,,null,,,,,,,,,
null,is being hugged by,,html-keyboard-response,268,1745643,0.0-17.0-2.10,18933,List1A,white,man,,,,null,,,,,,,,,
9132.8,,,survey-text,269,1754779,0.0-17.0-3.10,18933,List1A,white,man,,,,,"{""Q0"":""mike is being hugged kate""}","<img src=""stim_listA/hug2.gif""style=""height:400px;""></stim_listA>",is being hugged by,,,,,,
null,"<div style=""font-size:60px;"">+</div>",,html-keyboard-response,270,1755294,0.0-17.0-0.11,18933,List1A,white,man,,,,null,,,,,,,,,
null,"<img src=""stim_listA/hug3.gif""style=""height:400px;""></stim_listA>",,html-keyboard-response,271,1757304,0.0-17.0-1.11,18933,List1A,white,man,,,,null,,,,,,,,,
null,is hugging,,html-keyboard-response,272,1759315,0.0-17.0-2.11,18933,List1A,white,man,,,,null,,,,,,,,,
11323.1,,,survey-text,273,1770641,0.0-17.0-3.11,18933,List1A,white,man,,,,,"{""Q0"":""ruth is hugging luke""}","<img src=""stim_listA/hug3.gif""style=""height:400px;""></stim_listA>",is hugging,,,,,,
null,"<div style=""font-size:60px;"">+</div>",,html-keyboard-response,274,1771143,0.0-17.0-0.12,18933,List1A,white,man,,,,null,,,,,,,,,
null,"<img src=""stim_listA/greet6.gif""style=""height:400px;""></stim_listA>",,html-keyboard-response,275,1773149,0.0-17.0-1.12,18933,List1A,white,man,,,,null,,,,,,,,,
null,is being greeted by,,html-keyboard-response,276,1775165,0.0-17.0-2.12,18933,List1A,white,man,,,,null,,,,,,,,,
16603.9,,,survey-text,277,1791773,0.0-17.0-3.12,18933,List1A,white,man,,,,,"{""Q0"":""dave is being greeted by fred""}","<img src=""stim_listA/greet6.gif""style=""height:400px;""></stim_listA>",is being greeted by,,,,,,
null,"<div style=""font-size:60px;"">+</div>",,html-keyboard-response,278,1792282,0.0-17.0-0.13,18933,List1A,white,man,,,,null,,,,,,,,,
null,"<img src=""stim_listA/touch6.gif""style=""height:400px;""></stim_listA>",,html-keyboard-response,279,1794291,0.0-17.0-1.13,18933,List1A,white,man,,,,null,,,,,,,,,
null,is being touched by,,html-keyboard-response,280,1796303,0.0-17.0-2.13,18933,List1A,white,man,,,,null,,,,,,,,,
9175.5,,,survey-text,281,1805482,0.0-17.0-3.13,18933,List1A,white,man,,,,,"{""Q0"":""luke is being touched by fred""}","<img src=""stim_listA/touch6.gif""style=""height:400px;""></stim_listA>",is being touched by,,,,,,
null,"<div style=""font-size:60px;"">+</div>",,html-keyboard-response,282,1805993,0.0-17.0-0.14,18933,List1A,white,man,,,,null,,,,,,,,,
null,"<img src=""stim_listA/oppose8.gif""style=""height:400px;""></stim_listA>",,html-keyboard-response,283,1808007,0.0-17.0-1.14,18933,List1A,white,man,,,,null,,,,,,,,,
null,is being opposed by,,html-keyboard-response,284,1810019,0.0-17.0-2.14,18933,List1A,white,man,,,,null,,,,,,,,,
13627.6,,,survey-text,285,1823650,0.0-17.0-3.14,18933,List1A,white,man,,,,,"{""Q0"":""ruth is being opposed by beth""}","<img src=""stim_listA/oppose8.gif""style=""height:400px;""></stim_listA>",is being opposed by,,,,,,
null,"<div style=""font-size:60px;"">+</div>",,html-keyboard-response,286,1824162,0.0-17.0-0.15,18933,List1A,white,man,,,,null,,,,,,,,,
null,"<img src=""stim_listA/touch3.gif""style=""height:400px;""></stim_listA>",,html-keyboard-response,287,1826172,0.0-17.0-1.15,18933,List1A,white,man,,,,null,,,,,,,,,
null,is touching,,html-keyboard-response,288,1828184,0.0-17.0-2.15,18933,List1A,white,man,,,,null,,,,,,,,,
12608.4,,,survey-text,289,1840796,0.0-17.0-3.15,18933,List1A,white,man,,,,,"{""Q0"":""dave is touching jane""}","<img src=""stim_listA/touch3.gif""style=""height:400px;""></stim_listA>",is touching,,,,,,
null,"<div style=""font-size:60px;"">+</div>",,html-keyboard-response,290,1841303,0.0-17.0-0.16,18933,List1A,white,man,,,,null,,,,,,,,,
null,"<img src=""stim_listA/kiss4.gif""style=""height:400px;""></stim_listA>",,html-keyboard-response,291,1843312,0.0-17.0-1.16,18933,List1A,white,man,,,,null,,,,,,,,,
null,is being kissed by,,html-keyboard-response,292,1845326,0.0-17.0-2.16,18933,List1A,white,man,,,,null,,,,,,,,,
11744.8,,,survey-text,293,1857075,0.0-17.0-3.16,18933,List1A,white,man,,,,,"{""Q0"":""jane is being kissed by dave""}","<img src=""stim_listA/kiss4.gif""style=""height:400px;""></stim_listA>",is being kissed by,,,,,,
null,"<div style=""font-size:60px;"">+</div>",,html-keyboard-response,294,1857585,0.0-17.0-0.17,18933,List1A,white,man,,,,null,,,,,,,,,
null,"<img src=""stim_listA/shout8.gif""style=""height:400px;""></stim_listA>",,html-keyboard-response,295,1859595,0.0-17.0-1.17,18933,List1A,white,man,,,,null,,,,,,,,,
null,is being shouted at by,,html-keyboard-response,296,1861610,0.0-17.0-2.17,18933,List1A,white,man,,,,null,,,,,,,,,
16045.3,,,survey-text,297,1877659,0.0-17.0-3.17,18933,List1A,white,man,,,,,"{""Q0"":""jane is being shouted at by kate""}","<img src=""stim_listA/shout8.gif""style=""height:400px;""></stim_listA>",is being shouted at by,,,,,,
null,"<div style=""font-size:60px;"">+</div>",,html-keyboard-response,298,1878162,0.0-17.0-0.18,18933,List1A,white,man,,,,null,,,,,,,,,
null,"<img src=""stim_listA/kiss5.gif""style=""height:400px;""></stim_listA>",,html-keyboard-response,299,1880174,0.0-17.0-1.18,18933,List1A,white,man,,,,null,,,,,,,,,
null,is kissing,,html-keyboard-response,300,1882188,0.0-17.0-2.18,18933,List1A,white,man,,,,null,,,,,,,,,
7381.3,,,survey-text,301,1889572,0.0-17.0-3.18,18933,List1A,white,man,,,,,"{""Q0"":""fred is kissing luke""}","<img src=""stim_listA/kiss5.gif""style=""height:400px;""></stim_listA>",is kissing,,,,,,
null,"<div style=""font-size:60px;"">+</div>",,html-keyboard-response,302,1890083,0.0-17.0-0.19,18933,List1A,white,man,,,,null,,,,,,,,,
null,"<img src=""stim_listA/copy1.gif""style=""height:400px;""></stim_listA>",,html-keyboard-response,303,1892087,0.0-17.0-1.19,18933,List1A,white,man,,,,null,,,,,,,,,
null,is copying,,html-keyboard-response,304,1894103,0.0-17.0-2.19,18933,List1A,white,man,,,,null,,,,,,,,,
12044,,,survey-text,305,1906150,0.0-17.0-3.19,18933,List1A,white,man,,,,,"{""Q0"":""mike is copying beth""}","<img src=""stim_listA/copy1.gif""style=""height:400px;""></stim_listA>",is copying,,,,,,
2407.1,"<img src='img/portrait_matrix_list1.jpg' style='width:900px;height:500px;''></img><p>If you have memorised all the portraits and names and are ready to start, press Continue.</p><p><strong>Please note: Your memory of these faces will be tested 4 times during this experiment.</strong></p>",0,html-button-response,306,1908559,0.0-18.0-0.0,18933,List1A,white,man,,,,,,,,,,,,,
3268.1,"<img src=""portrait/BW2.jpg""style=""height:400px;""></img>",2,html-button-response,307,1912831,0.0-18.0-1.0,18933,List1A,white,man,,TRUE,2,,,,,,,,,,
null,CORRECT,,html-keyboard-response,308,1914353,0.0-18.0-2.0-0.0,18933,List1A,white,man,,,,null,,,,,,,,,
3284.8,"<img src=""portrait/WW1.jpg""style=""height:400px;""></img>",1,html-button-response,309,1917641,0.0-18.0-4.0,18933,List1A,white,man,,TRUE,1,,,,,,,,,,
null,CORRECT,,html-keyboard-response,310,1919160,0.0-18.0-5.0-0.0,18933,List1A,white,man,,,,null,,,,,,,,,
3727.6,"<img src=""portrait/BW1.jpg""style=""height:400px;""></img>",0,html-button-response,311,1922890,0.0-18.0-7.0,18933,List1A,white,man,,TRUE,0,,,,,,,,,,
null,CORRECT,,html-keyboard-response,312,1924413,0.0-18.0-8.0-0.0,18933,List1A,white,man,,,,null,,,,,,,,,
5055.4,"<img src=""portrait/WM1.jpg""style=""height:400px;""></img>",6,html-button-response,313,1929471,0.0-18.0-10.0,18933,List1A,white,man,,TRUE,6,,,,,,,,,,
null,CORRECT,,html-keyboard-response,314,1930988,0.0-18.0-11.0-0.0,18933,List1A,white,man,,,,null,,,,,,,,,
4084.5,"<img src=""portrait/WM2.jpg""style=""height:400px;""></img>",7,html-button-response,315,1935075,0.0-18.0-13.0,18933,List1A,white,man,,TRUE,7,,,,,,,,,,
null,CORRECT,,html-keyboard-response,316,1936592,0.0-18.0-14.0-0.0,18933,List1A,white,man,,,,null,,,,,,,,,
2187.1,"<img src=""portrait/BM1.jpg""style=""height:400px;""></img>",4,html-button-response,317,1938781,0.0-18.0-16.0,18933,List1A,white,man,,TRUE,4,,,,,,,,,,
null,CORRECT,,html-keyboard-response,318,1940300,0.0-18.0-17.0-0.0,18933,List1A,white,man,,,,null,,,,,,,,,
5891,"<img src=""portrait/WW2.jpg""style=""height:400px;""></img>",3,html-button-response,319,1946193,0.0-18.0-19.0,18933,List1A,white,man,,TRUE,3,,,,,,,,,,
null,CORRECT,,html-keyboard-response,320,1947712,0.0-18.0-20.0-0.0,18933,List1A,white,man,,,,null,,,,,,,,,
4931.1,"<img src=""portrait/BM2.jpg""style=""height:400px;""></img>",5,html-button-response,321,1952645,0.0-18.0-22.0,18933,List1A,white,man,,TRUE,5,,,,,,,,,,
null,CORRECT,,html-keyboard-response,322,1954168,0.0-18.0-23.0-0.0,18933,List1A,white,man,,,,null,,,,,,,,,
1750,<p>You got 8 out of 8 right first time. Press Continue.</p>,0,html-button-response,323,1955919,0.0-18.0-25.0,18933,List1A,white,man,,,,,,,,,,,,,
null,"<div style=""font-size:60px;"">+</div>",,html-keyboard-response,324,1957446,0.0-19.0-0.0,18933,List1A,white,man,,,,null,,,,,,,,,
null,"<img src=""stim_listA/seduce6.gif""style=""height:400px;""></stim_listA>",,html-keyboard-response,325,1959449,0.0-19.0-1.0,18933,List1A,white,man,,,,null,,,,,,,,,
null,is being seduced by,,html-keyboard-response,326,1961461,0.0-19.0-2.0,18933,List1A,white,man,,,,null,,,,,,,,,
12421.5,,,survey-text,327,1973884,0.0-19.0-3.0,18933,List1A,white,man,,,,,"{""Q0"":""luke is being seduced by mike""}","<img src=""stim_listA/seduce6.gif""style=""height:400px;""></stim_listA>",is being seduced by,,,,,,
null,"<div style=""font-size:60px;"">+</div>",,html-keyboard-response,328,1974388,0.0-19.0-0.1,18933,List1A,white,man,,,,null,,,,,,,,,
null,"<img src=""stim_listA/greet3.gif""style=""height:400px;""></stim_listA>",,html-keyboard-response,329,1976391,0.0-19.0-1.1,18933,List1A,white,man,,,,null,,,,,,,,,
null,is greeting,,html-keyboard-response,330,1978403,0.0-19.0-2.1,18933,List1A,white,man,,,,null,,,,,,,,,
12858.9,,,survey-text,331,1991264,0.0-19.0-3.1,18933,List1A,white,man,,,,,"{""Q0"":""dave is greeting jane""}","<img src=""stim_listA/greet3.gif""style=""height:400px;""></stim_listA>",is greeting,,,,,,
null,"<div style=""font-size:60px;"">+</div>",,html-keyboard-response,332,1991777,0.0-19.0-0.2,18933,List1A,white,man,,,,null,,,,,,,,,
null,"<img src=""stim_listA/look5.gif""style=""height:400px;""></stim_listA>",,html-keyboard-response,333,1993791,0.0-19.0-1.2,18933,List1A,white,man,,,,null,,,,,,,,,
null,is looking at,,html-keyboard-response,334,1995801,0.0-19.0-2.2,18933,List1A,white,man,,,,null,,,,,,,,,
10297.8,,,survey-text,335,2006102,0.0-19.0-3.2,18933,List1A,white,man,,,,,"{""Q0"":""luke is looking at fred""}","<img src=""stim_listA/look5.gif""style=""height:400px;""></stim_listA>",is looking at,,,,,,
null,"<div style=""font-size:60px;"">+</div>",,html-keyboard-response,336,2006613,0.0-19.0-0.3,18933,List1A,white,man,,,,null,,,,,,,,,
null,"<img src=""stim_listA/copy6.gif""style=""height:400px;""></stim_listA>",,html-keyboard-response,337,2008616,0.0-19.0-1.3,18933,List1A,white,man,,,,null,,,,,,,,,
null,is being copied by,,html-keyboard-response,338,2010618,0.0-19.0-2.3,18933,List1A,white,man,,,,null,,,,,,,,,
12861.3,,,survey-text,339,2023483,0.0-19.0-3.3,18933,List1A,white,man,,,,,"{""Q0"":""fred is being copied by dave""}","<img src=""stim_listA/copy6.gif""style=""height:400px;""></stim_listA>",is being copied by,,,,,,
null,"<div style=""font-size:60px;"">+</div>",,html-keyboard-response,340,2023998,0.0-19.0-0.4,18933,List1A,white,man,,,,null,,,,,,,,,
null,"<img src=""stim_listA/touch2.gif""style=""height:400px;""></stim_listA>",,html-keyboard-response,341,2026006,0.0-19.0-1.4,18933,List1A,white,man,,,,null,,,,,,,,,
null,is being touched by,,html-keyboard-response,342,2028016,0.0-19.0-2.4,18933,List1A,white,man,,,,null,,,,,,,,,
15662.5,,,survey-text,343,2043683,0.0-19.0-3.4,18933,List1A,white,man,,,,,"{""Q0"":""beth is being touched by fred""}","<img src=""stim_listA/touch2.gif""style=""height:400px;""></stim_listA>",is being touched by,,,,,,
null,"<div style=""font-size:60px;"">+</div>",,html-keyboard-response,344,2044194,0.0-19.0-0.5,18933,List1A,white,man,,,,null,,,,,,,,,
null,"<img src=""stim_listA/look6.gif""style=""height:400px;""></stim_listA>",,html-keyboard-response,345,2046205,0.0-19.0-1.5,18933,List1A,white,man,,,,null,,,,,,,,,
null,is being looked at by,,html-keyboard-response,346,2048215,0.0-19.0-2.5,18933,List1A,white,man,,,,null,,,,,,,,,
16665.3,,,survey-text,347,2064884,0.0-19.0-3.5,18933,List1A,white,man,,,,,"{""Q0"":""mike is being looked at by dave""}","<img src=""stim_listA/look6.gif""style=""height:400px;""></stim_listA>",is being looked at by,,,,,,
null,"<div style=""font-size:60px;"">+</div>",,html-keyboard-response,348,2065386,0.0-19.0-0.6,18933,List1A,white,man,,,,null,,,,,,,,,
null,"<img src=""stim_listA/look1.gif""style=""height:400px;""></stim_listA>",,html-keyboard-response,349,2067399,0.0-19.0-1.6,18933,List1A,white,man,,,,null,,,,,,,,,
null,is looking at,,html-keyboard-response,350,2069409,0.0-19.0-2.6,18933,List1A,white,man,,,,null,,,,,,,,,
8823.2,,,survey-text,351,2078237,0.0-19.0-3.6,18933,List1A,white,man,,,,,"{""Q0"":""beth is looking at fred""}","<img src=""stim_listA/look1.gif""style=""height:400px;""></stim_listA>",is looking at,,,,,,
null,"<div style=""font-size:60px;"">+</div>",,html-keyboard-response,352,2078744,0.0-19.0-0.7,18933,List1A,white,man,,,,null,,,,,,,,,
null,"<img src=""stim_listA/hug8.gif""style=""height:400px;""></stim_listA>",,html-keyboard-response,353,2080756,0.0-19.0-1.7,18933,List1A,white,man,,,,null,,,,,,,,,
null,is being hugged by,,html-keyboard-response,354,2082768,0.0-19.0-2.7,18933,List1A,white,man,,,,null,,,,,,,,,
10790.1,,,survey-text,355,2093562,0.0-19.0-3.7,18933,List1A,white,man,,,,,"{""Q0"":""jane is being hugged by kate""}","<img src=""stim_listA/hug8.gif""style=""height:400px;""></stim_listA>",is being hugged by,,,,,,
null,"<div style=""font-size:60px;"">+</div>",,html-keyboard-response,356,2094078,0.0-19.0-0.8,18933,List1A,white,man,,,,null,,,,,,,,,
null,"<img src=""stim_listA/shout4.gif""style=""height:400px;""></stim_listA>",,html-keyboard-response,357,2096088,0.0-19.0-1.8,18933,List1A,white,man,,,,null,,,,,,,,,
null,is being shouted at by,,html-keyboard-response,358,2098100,0.0-19.0-2.8,18933,List1A,white,man,,,,null,,,,,,,,,
11158.7,,,survey-text,359,2109261,0.0-19.0-3.8,18933,List1A,white,man,,,,,"{""Q0"":""jane is being shouted at by Dave""}","<img src=""stim_listA/shout4.gif""style=""height:400px;""></stim_listA>",is being shouted at by,,,,,,
null,"<div style=""font-size:60px;"">+</div>",,html-keyboard-response,360,2109777,0.0-19.0-0.9,18933,List1A,white,man,,,,null,,,,,,,,,
null,"<img src=""stim_listA/seduce5.gif""style=""height:400px;""></stim_listA>",,html-keyboard-response,361,2111790,0.0-19.0-1.9,18933,List1A,white,man,,,,null,,,,,,,,,
null,is seducing,,html-keyboard-response,362,2113799,0.0-19.0-2.9,18933,List1A,white,man,,,,null,,,,,,,,,
10737.3,,,survey-text,363,2124540,0.0-19.0-3.9,18933,List1A,white,man,,,,,"{""Q0"":""dave is seducing fred""}","<img src=""stim_listA/seduce5.gif""style=""height:400px;""></stim_listA>",is seducing,,,,,,
null,"<div style=""font-size:60px;"">+</div>",,html-keyboard-response,364,2125056,0.0-19.0-0.10,18933,List1A,white,man,,,,null,,,,,,,,,
null,"<img src=""stim_listA/kiss1.gif""style=""height:400px;""></stim_listA>",,html-keyboard-response,365,2127070,0.0-19.0-1.10,18933,List1A,white,man,,,,null,,,,,,,,,
null,is kissing,,html-keyboard-response,366,2129079,0.0-19.0-2.10,18933,List1A,white,man,,,,null,,,,,,,,,
8902.7,,,survey-text,367,2137986,0.0-19.0-3.10,18933,List1A,white,man,,,,,"{""Q0"":""beth is kissing fred""}","<img src=""stim_listA/kiss1.gif""style=""height:400px;""></stim_listA>",is kissing,,,,,,
null,"<div style=""font-size:60px;"">+</div>",,html-keyboard-response,368,2138495,0.0-19.0-0.11,18933,List1A,white,man,,,,null,,,,,,,,,
null,"<img src=""stim_listA/kiss3.gif""style=""height:400px;""></stim_listA>",,html-keyboard-response,369,2140500,0.0-19.0-1.11,18933,List1A,white,man,,,,null,,,,,,,,,
null,is kissing,,html-keyboard-response,370,2142511,0.0-19.0-2.11,18933,List1A,white,man,,,,null,,,,,,,,,
10572.2,,,survey-text,371,2153087,0.0-19.0-3.11,18933,List1A,white,man,,,,,"{""Q0"":""ruth is kissing luke""}","<img src=""stim_listA/kiss3.gif""style=""height:400px;""></stim_listA>",is kissing,,,,,,
null,"<div style=""font-size:60px;"">+</div>",,html-keyboard-response,372,2153599,0.0-19.0-0.12,18933,List1A,white,man,,,,null,,,,,,,,,
null,"<img src=""stim_listA/kiss8.gif""style=""height:400px;""></stim_listA>",,html-keyboard-response,373,2155604,0.0-19.0-1.12,18933,List1A,white,man,,,,null,,,,,,,,,
null,is being kissed by,,html-keyboard-response,374,2157617,0.0-19.0-2.12,18933,List1A,white,man,,,,null,,,,,,,,,
9685.6,,,survey-text,375,2167307,0.0-19.0-3.12,18933,List1A,white,man,,,,,"{""Q0"":""jane is being kissed by kate""}","<img src=""stim_listA/kiss8.gif""style=""height:400px;""></stim_listA>",is being kissed by,,,,,,
null,"<div style=""font-size:60px;"">+</div>",,html-keyboard-response,376,2167817,0.0-19.0-0.13,18933,List1A,white,man,,,,null,,,,,,,,,
null,"<img src=""stim_listA/hug1.gif""style=""height:400px;""></stim_listA>",,html-keyboard-response,377,2169831,0.0-19.0-1.13,18933,List1A,white,man,,,,null,,,,,,,,,
null,is hugging,,html-keyboard-response,378,2171843,0.0-19.0-2.13,18933,List1A,white,man,,,,null,,,,,,,,,
12174.8,,,survey-text,379,2184021,0.0-19.0-3.13,18933,List1A,white,man,,,,,"{""Q0"":""fred is hugging beth""}","<img src=""stim_listA/hug1.gif""style=""height:400px;""></stim_listA>",is hugging,,,,,,
null,"<div style=""font-size:60px;"">+</div>",,html-keyboard-response,380,2184527,0.0-19.0-0.14,18933,List1A,white,man,,,,null,,,,,,,,,
null,"<img src=""stim_listA/hug7.gif""style=""height:400px;""></stim_listA>",,html-keyboard-response,381,2186530,0.0-19.0-1.14,18933,List1A,white,man,,,,null,,,,,,,,,
null,is hugging,,html-keyboard-response,382,2188545,0.0-19.0-2.14,18933,List1A,white,man,,,,null,,,,,,,,,
6845.5,,,survey-text,383,2195394,0.0-19.0-3.14,18933,List1A,white,man,,,,,"{""Q0"":""jane is hugging beth""}","<img src=""stim_listA/hug7.gif""style=""height:400px;""></stim_listA>",is hugging,,,,,,
null,"<div style=""font-size:60px;"">+</div>",,html-keyboard-response,384,2195895,0.0-19.0-0.15,18933,List1A,white,man,,,,null,,,,,,,,,
null,"<img src=""stim_listA/shout7.gif""style=""height:400px;""></stim_listA>",,html-keyboard-response,385,2197909,0.0-19.0-1.15,18933,List1A,white,man,,,,null,,,,,,,,,
null,is shouting at,,html-keyboard-response,386,2199916,0.0-19.0-2.15,18933,List1A,white,man,,,,null,,,,,,,,,
16100.3,,,survey-text,387,2216019,0.0-19.0-3.15,18933,List1A,white,man,,,,,"{""Q0"":""ruth is shouting at beth\\""}","<img src=""stim_listA/shout7.gif""style=""height:400px;""></stim_listA>",is shouting at,,,,,,
null,"<div style=""font-size:60px;"">+</div>",,html-keyboard-response,388,2216531,0.0-19.0-0.16,18933,List1A,white,man,,,,null,,,,,,,,,
null,"<img src=""stim_listA/touch4.gif""style=""height:400px;""></stim_listA>",,html-keyboard-response,389,2218548,0.0-19.0-1.16,18933,List1A,white,man,,,,null,,,,,,,,,
null,is being touched by,,html-keyboard-response,390,2220559,0.0-19.0-2.16,18933,List1A,white,man,,,,null,,,,,,,,,
11916.6,,,survey-text,391,2232483,0.0-19.0-3.16,18933,List1A,white,man,,,,,"{""Q0"":""jane is being touched by luke""}","<img src=""stim_listA/touch4.gif""style=""height:400px;""></stim_listA>",is being touched by,,,,,,
null,"<div style=""font-size:60px;"">+</div>",,html-keyboard-response,392,2232995,0.0-19.0-0.17,18933,List1A,white,man,,,,null,,,,,,,,,
null,"<img src=""stim_listA/challenge5.gif""style=""height:400px;""></stim_listA>",,html-keyboard-response,393,2235012,0.0-19.0-1.17,18933,List1A,white,man,,,,null,,,,,,,,,
null,is challenging,,html-keyboard-response,394,2237025,0.0-19.0-2.17,18933,List1A,white,man,,,,null,,,,,,,,,
7417,,,survey-text,395,2244445,0.0-19.0-3.17,18933,List1A,white,man,,,,,"{""Q0"":""mike is challenging luke""}","<img src=""stim_listA/challenge5.gif""style=""height:400px;""></stim_listA>",is challenging,,,,,,
null,"<div style=""font-size:60px;"">+</div>",,html-keyboard-response,396,2244952,0.0-19.0-0.18,18933,List1A,white,man,,,,null,,,,,,,,,
null,"<img src=""stim_listA/challenge4.gif""style=""height:400px;""></stim_listA>",,html-keyboard-response,397,2246956,0.0-19.0-1.18,18933,List1A,white,man,,,,null,,,,,,,,,
null,is being challenged by,,html-keyboard-response,398,2248958,0.0-19.0-2.18,18933,List1A,white,man,,,,null,,,,,,,,,
13048,,,survey-text,399,2262010,0.0-19.0-3.18,18933,List1A,white,man,,,,,"{""Q0"":""jane is being challenged by luke""}","<img src=""stim_listA/challenge4.gif""style=""height:400px;""></stim_listA>",is being challenged by,,,,,,
null,"<div style=""font-size:60px;"">+</div>",,html-keyboard-response,400,2262516,0.0-19.0-0.19,18933,List1A,white,man,,,,null,,,,,,,,,
null,"<img src=""stim_listA/hug6.gif""style=""height:400px;""></stim_listA>",,html-keyboard-response,401,2264532,0.0-19.0-1.19,18933,List1A,white,man,,,,null,,,,,,,,,
null,is being hugged by,,html-keyboard-response,402,2266544,0.0-19.0-2.19,18933,List1A,white,man,,,,null,,,,,,,,,
8630.7,,,survey-text,403,2275178,0.0-19.0-3.19,18933,List1A,white,man,,,,,"{""Q0"":""dave is being hugged by mike""}","<img src=""stim_listA/hug6.gif""style=""height:400px;""></stim_listA>",is being hugged by,,,,,,
2664.3,<p>Thank you for completing that task.</p><p>The final part of this session is a questionnaire that will take about 4 minutes.</p><p>Press Continue.</p>,0,html-button-response,404,2277844,0.0-20.0,18933,List1A,white,man,,,,,,,,,,,,,
44990.3,,,survey-text,405,2323855,0.0-21.0,18933,List1A,white,man,,,,,"{""Q0"":""27"",""Q1"":""English"",""Q2"":""English"",""Q3"":""United States of America"",""Q4"":""American"",""Q5"":""White"",""Q6"":""Male""}",,,demographics,,,,,
2575.1,<p>Have you lived in the USA for the last 5 years or more?</p>,0,html-button-response,406,2326432,0.0-22.0,18933,List1A,white,man,,,,,,,,fiveyears,,,,,
2688.3,<p>Move the slider to show the extent to which you agree with the following statements.</p>,0,html-button-response,407,2330137,0.0-23.0,18933,List1A,white,man,,,,,,,,,,,,,
12200.1,,,html-slider-response,408,2343352,0.0-24.0-0.0-0.0,18933,List1A,white,man,,,,,,,,survey_gender,92,,,I consider myself a highly empathetic person.,filler
13901.9,,,html-slider-response,409,2357257,0.0-24.0-0.0-0.1,18933,List1A,white,man,,,,,,,,survey_gender,86,,,People of my gender are very similar to each other.,verysimilar
5309.1,,,html-slider-response,410,2362568,0.0-24.0-0.0-0.2,18933,List1A,white,man,,,,,,,,survey_gender,92,,,I feel solidarity with my friends.,filler
5894.7,,,html-slider-response,411,2368465,0.0-24.0-0.0-0.3,18933,List1A,white,man,,,,,,,,survey_gender,75,,,My friends have a lot in common with each other.,filler
5548.8,,,html-slider-response,412,2374017,0.0-24.0-0.0-0.4,18933,List1A,white,man,,,,,,,,survey_gender,72,,,People of my gender have a lot in common with each other.,common
5517.7,,,html-slider-response,413,2379537,0.0-24.0-0.0-0.5,18933,List1A,white,man,,,,,,,,survey_gender,100,,,Being my gender gives me a good feeling.,feeling
4941.5,,,html-slider-response,414,2384481,0.0-24.0-0.0-0.6,18933,List1A,white,man,,,,,,,,survey_gender,74,,,Being my gender is an important part of how I see myself.,important
4337.5,,,html-slider-response,415,2388821,0.0-24.0-0.0-0.7,18933,List1A,white,man,,,,,,,,survey_gender,100,,,I am glad to be my gender.,glad
6699.8,,,html-slider-response,416,2395523,0.0-24.0-0.0-0.8,18933,List1A,white,man,,,,,,,,survey_gender,97,,,The fact that I am my gender is an important part of my identity.,identity
5200.2,,,html-slider-response,417,2400725,0.0-24.0-0.0-0.9,18933,List1A,white,man,,,,,,,,survey_gender,95,,,I feel committed to my gender.,committed
3869,,,html-slider-response,418,2404597,0.0-24.0-0.0-0.10,18933,List1A,white,man,,,,,,,,survey_gender,55,,,Routine is not important to me.,filler
10859.5,,,html-slider-response,419,2415459,0.0-24.0-0.0-0.11,18933,List1A,white,man,,,,,,,,survey_gender,82,,,It is not always easy for people to know what I am thinking.,filler
6666.6,,,html-slider-response,420,2422128,0.0-24.0-0.0-0.12,18933,List1A,white,man,,,,,,,,survey_gender,82,,,I often think about my actions.,filler
5176.3,,,html-slider-response,421,2427307,0.0-24.0-0.0-0.13,18933,List1A,white,man,,,,,,,,survey_gender,51,,,I feel a bond with my gender.,bond
4201.1,,,html-slider-response,422,2431510,0.0-24.0-0.0-0.14,18933,List1A,white,man,,,,,,,,survey_gender,84,,,My friends understand me.,filler
4374.3,,,html-slider-response,423,2435887,0.0-24.0-0.0-0.15,18933,List1A,white,man,,,,,,,,survey_gender,97,,,It is pleasant to be my gender.,pleasant
4634.4,,,html-slider-response,424,2440524,0.0-24.0-0.0-0.16,18933,List1A,white,man,,,,,,,,survey_gender,71,,,Most of the friends in my life are very similar to me.,filler
5527.7,,,html-slider-response,425,2446053,0.0-24.0-0.0-0.17,18933,List1A,white,man,,,,,,,,survey_gender,65,,,I have a lot in common with the average person of my gender.,average
5453,,,html-slider-response,426,2451508,0.0-24.0-0.0-0.18,18933,List1A,white,man,,,,,,,,survey_gender,64,,,I would say I am an animal person.,filler
4506.5,,,html-slider-response,427,2456017,0.0-24.0-0.0-0.19,18933,List1A,white,man,,,,,,,,survey_gender,45,,,I often think about the fact that I am my gender.,often
5972.7,,,html-slider-response,428,2461993,0.0-24.0-0.0-0.20,18933,List1A,white,man,,,,,,,,survey_gender,92,,,I am glad to have the friends that I have.,filler
4845.3,,,html-slider-response,429,2466840,0.0-24.0-0.0-0.21,18933,List1A,white,man,,,,,,,,survey_gender,70,,,I have a lot in common with my friends.,filler
4178.2,,,html-slider-response,430,2471021,0.0-24.0-0.0-0.22,18933,List1A,white,man,,,,,,,,survey_gender,88,,,Being around my friends gives me a good feeling.,filler
4651.5,,,html-slider-response,431,2475675,0.0-24.0-0.0-0.23,18933,List1A,white,man,,,,,,,,survey_gender,48,,,I feel a bond with my friends.,filler
4321.8,,,html-slider-response,432,2479998,0.0-24.0-0.0-0.24,18933,List1A,white,man,,,,,,,,survey_gender,75,,,I feel solidarity with my gender.,solidarity
5557.1,,,html-slider-response,433,2485558,0.0-24.0-0.0-0.25,18933,List1A,white,man,,,,,,,,survey_gender,16,,,Family is not more important to me than friendship.,filler
6406,,,html-slider-response,434,2491967,0.0-24.0-0.0-0.26,18933,List1A,white,man,,,,,,,,survey_gender,48,,,I think that my gender has a lot to be proud of.,proud
3031.6,,,html-slider-response,435,2495000,0.0-24.0-0.0-0.27,18933,List1A,white,man,,,,,,,,survey_gender,53,,,I am similar to the average person of my gender.,similar
2936.3,,,html-slider-response,436,2497938,0.0-24.0-1.0-0.0,18933,List1A,white,man,,,,,,,,survey_race,52,,,I feel solidarity with people the same age as me.,filler
3986.5,,,html-slider-response,437,2501926,0.0-24.0-1.0-0.1,18933,List1A,white,man,,,,,,,,survey_race,86,,,I am glad to be my race.,glad
3668,,,html-slider-response,438,2505596,0.0-24.0-1.0-0.2,18933,List1A,white,man,,,,,,,,survey_race,82,,,I am similar to the average person of my race.,similar
3387.7,,,html-slider-response,439,2508986,0.0-24.0-1.0-0.3,18933,List1A,white,man,,,,,,,,survey_race,86,,,I am glad to be the age I am.,filler
4360.5,,,html-slider-response,440,2513349,0.0-24.0-1.0-0.4,18933,List1A,white,man,,,,,,,,survey_race,86,,,"The older I get, the wiser I feel.",filler
7274.1,,,html-slider-response,441,2520625,0.0-24.0-1.0-0.5,18933,List1A,white,man,,,,,,,,survey_race,18,,,I consider myself an introvert.,filler
4827.8,,,html-slider-response,442,2525455,0.0-24.0-1.0-0.6,18933,List1A,white,man,,,,,,,,survey_race,48,,,People of my race have a lot in common with each other.,common
6962.5,,,html-slider-response,443,2532420,0.0-24.0-1.0-0.7,18933,List1A,white,man,,,,,,,,survey_race,49,,,I have a lot in common with people of a similar age to me.,filler
2664.9,,,html-slider-response,444,2535087,0.0-24.0-1.0-0.8,18933,List1A,white,man,,,,,,,,survey_race,51,,,I feel a bond with my race.,bond
2537.8,,,html-slider-response,445,2537627,0.0-24.0-1.0-0.9,18933,List1A,white,man,,,,,,,,survey_race,53,,,I feel a bond with people the same age as me.,filler
6943.4,,,html-slider-response,446,2544572,0.0-24.0-1.0-0.10,18933,List1A,white,man,,,,,,,,survey_race,82,,,I feel committed to my race.,committed
5533.4,,,html-slider-response,447,2550108,0.0-24.0-1.0-0.11,18933,List1A,white,man,,,,,,,,survey_race,19,,,I often think about the fact that I am my age.,filler
3244.4,,,html-slider-response,448,2553354,0.0-24.0-1.0-0.12,18933,List1A,white,man,,,,,,,,survey_race,52,,,Being my race gives me a good feeling.,feeling
5693.1,,,html-slider-response,449,2559050,0.0-24.0-1.0-0.13,18933,List1A,white,man,,,,,,,,survey_race,35,,,People of my race are very similar to each other.,verysimilar
5353.6,,,html-slider-response,450,2564405,0.0-24.0-1.0-0.14,18933,List1A,white,man,,,,,,,,survey_race,39,,,People my age have a lot in common with each other.,filler
21187.7,,,html-slider-response,451,2585594,0.0-24.0-1.0-0.15,18933,List1A,white,man,,,,,,,,survey_race,47,,,Being my race is an important part of how I see myself.,important
4441.6,,,html-slider-response,452,2590039,0.0-24.0-1.0-0.16,18933,List1A,white,man,,,,,,,,survey_race,68,,,I consider myself an extrovert.,filler
5254.6,,,html-slider-response,453,2595296,0.0-24.0-1.0-0.17,18933,List1A,white,man,,,,,,,,survey_race,28,,,I often think about the fact that I am my race.,often
3153.8,,,html-slider-response,454,2598451,0.0-24.0-1.0-0.18,18933,List1A,white,man,,,,,,,,survey_race,79,,,It is pleasant to be my race.,pleasant
2831.3,,,html-slider-response,455,2601285,0.0-24.0-1.0-0.19,18933,List1A,white,man,,,,,,,,survey_race,79,,,Being my age gives me a good feeling.,filler
5155.9,,,html-slider-response,456,2606442,0.0-24.0-1.0-0.20,18933,List1A,white,man,,,,,,,,survey_race,32,,,My age is not an important part of who I am.,filler
2858.6,,,html-slider-response,457,2609303,0.0-24.0-1.0-0.21,18933,List1A,white,man,,,,,,,,survey_race,64,,,The fact that I am my race is an important part of my identity.,identity
2674.8,,,html-slider-response,458,2611979,0.0-24.0-1.0-0.22,18933,List1A,white,man,,,,,,,,survey_race,63,,,I feel solidarity with my race.,solidarity
3330.1,,,html-slider-response,459,2615311,0.0-24.0-1.0-0.23,18933,List1A,white,man,,,,,,,,survey_race,62,,,I think that my race has a lot to be proud of.,proud
2372.3,,,html-slider-response,460,2617685,0.0-24.0-1.0-0.24,18933,List1A,white,man,,,,,,,,survey_race,53,,,I am glad to be my age.,filler
3846.4,,,html-slider-response,461,2621535,0.0-24.0-1.0-0.25,18933,List1A,white,man,,,,,,,,survey_race,58,,,Getting older does not worry me.,filler
2781.7,,,html-slider-response,462,2624318,0.0-24.0-1.0-0.26,18933,List1A,white,man,,,,,,,,survey_race,57,,,I enjoy being in large groups.,filler
2280.8,,,html-slider-response,463,2626601,0.0-24.0-1.0-0.27,18933,List1A,white,man,,,,,,,,survey_race,56,,,I have a lot in common with the average person of my race.,average
4822.6,,,survey-text,464,2631427,0.0-25.0,18933,List1A,white,man,,,,,"{""Q0"":""ccc""}",,,worker_id,,,,,
3854.1,,,external-html,465,2637183,0.0-26.0,18933,List1A,white,man,debrief.html,,,,,,,,,,,,
