"rt","stimulus","button_pressed","trial_type","trial_index","time_elapsed","internal_node_id","subject","list","ppt_race","ppt_gender","url","first_guess","correct","key_press","responses","image_type","phrase_type","test_part","response","stimulus1","stimulus2","question_type","survey_item"
"90109.70000000298","Welcome to the experiment. Press Continue to begin.","0","html-button-response","0","90136","0.0-0.0","19354","List2A","black","man","","","","","","","","","","","","",""
"491461.700000003","","","external-html","1","584146","0.0-1.0","19354","List2A","black","man","consent.html","","","","","","","","","","","",""
"23989.69999998808","<p>On the next page, you will see portraits of 8 people and their names.</p><p>Your first task is to take a few minutes to memorise the names of these people.</p><p>You will have to recall their names during the rest of the experiment, so it is</p><p>essential that you try to memorise these people and their names as best as you can.</p><br><p><strong>You will then be tested on your memory of these names and portraits.</strong></p><br><p>The experiment will start after you have completed this memory test.</p><br><p>Ready?</p>","0","html-button-response","2","608143","0.0-2.0","19354","List2A","black","man","","","","","","","","","","","","",""
"99477.59999999404","<img src='img/portrait_matrix_list2.jpg' style='width:900px;height:500px;''></img><p>If you have memorised all the portraits and names and are ready to start, press Continue.</p><p><strong>Please note: Your memory of these faces will be tested 4 times during this experiment.</strong></p>","0","html-button-response","3","708635","0.0-3.0-0.0","19354","List2A","black","man","","","","","","","","","","","","",""
"8434.70000000298","<img src=""portrait/WM1.jpg""style=""height:400px;""></img>","6","html-button-response","4","718082","0.0-3.0-1.0","19354","List2A","black","man","","true","6","","","","","","","","","",""
"null","CORRECT","","html-keyboard-response","5","719596","0.0-3.0-2.0-0.0","19354","List2A","black","man","","","","null","","","","","","","","",""
"5797.899999991059","<img src=""portrait/BW1.jpg""style=""height:400px;""></img>","0","html-button-response","6","725405","0.0-3.0-4.0","19354","List2A","black","man","","true","0","","","","","","","","","",""
"null","CORRECT","","html-keyboard-response","7","726921","0.0-3.0-5.0-0.0","19354","List2A","black","man","","","","null","","","","","","","","",""
"6093.70000000298","<img src=""portrait/BM2.jpg""style=""height:400px;""></img>","5","html-button-response","8","733024","0.0-3.0-7.0","19354","List2A","black","man","","true","5","","","","","","","","","",""
"null","CORRECT","","html-keyboard-response","9","734529","0.0-3.0-8.0-0.0","19354","List2A","black","man","","","","null","","","","","","","","",""
"4930.4000000059605","<img src=""portrait/BW2.jpg""style=""height:400px;""></img>","2","html-button-response","10","739468","0.0-3.0-10.0","19354","List2A","black","man","","true","2","","","","","","","","","",""
"null","CORRECT","","html-keyboard-response","11","740974","0.0-3.0-11.0-0.0","19354","List2A","black","man","","","","null","","","","","","","","",""
"5856.5","<img src=""portrait/WW2.jpg""style=""height:400px;""></img>","3","html-button-response","12","746839","0.0-3.0-13.0","19354","List2A","black","man","","true","3","","","","","","","","","",""
"null","CORRECT","","html-keyboard-response","13","748344","0.0-3.0-14.0-0.0","19354","List2A","black","man","","","","null","","","","","","","","",""
"5193.29999999702","<img src=""portrait/WW1.jpg""style=""height:400px;""></img>","1","html-button-response","14","753550","0.0-3.0-16.0","19354","List2A","black","man","","true","1","","","","","","","","","",""
"null","CORRECT","","html-keyboard-response","15","755055","0.0-3.0-17.0-0.0","19354","List2A","black","man","","","","null","","","","","","","","",""
"6681.5999999940395","<img src=""portrait/BM1.jpg""style=""height:400px;""></img>","4","html-button-response","16","761746","0.0-3.0-19.0","19354","List2A","black","man","","true","4","","","","","","","","","",""
"null","CORRECT","","html-keyboard-response","17","763251","0.0-3.0-20.0-0.0","19354","List2A","black","man","","","","null","","","","","","","","",""
"4619.5999999940395","<img src=""portrait/WM2.jpg""style=""height:400px;""></img>","7","html-button-response","18","767880","0.0-3.0-22.0","19354","List2A","black","man","","true","7","","","","","","","","","",""
"null","CORRECT","","html-keyboard-response","19","769386","0.0-3.0-23.0-0.0","19354","List2A","black","man","","","","null","","","","","","","","",""
"3704.5999999940395","<p>You got 8 out of 8 right first time. Press Continue.</p>","0","html-button-response","20","773100","0.0-3.0-25.0","19354","List2A","black","man","","","","","","","","","","","","",""
"70278.20000000298","<p>In this experiment, you will view photographs of the people from the memory game interacting.</p><p>By using the <strong>exact</strong> phrase given <i>after</i> the photograph appears and recalling the correct names of the people in the photographs, form a sentence describing the interaction. You do not need to capitalise names.</p><p>Type your answer in the space provided. Please complete every sentence before moving onto the next trial.</p><p>You will only have a few seconds to memorise each given photograph and phrase before you can respond, so try your best to focus.</p><p>An example is given below. Press 'Continue' when you are ready.</p><img src='img/speaking_example.jpg' style='width:800px;height:460px;''></img>","0","html-button-response","21","844395","0.0-4.0","19354","List2A","black","man","","","","","","","","","","","","",""
"4327.29999999702","<p>Before the experiment starts, you will watch two example trials. Press 'Continue'.</p>","0","html-button-response","22","849729","0.0-5.0","19354","List2A","black","man","","","","","","","","","","","","",""
"null","<img src='img/play_eg.gif' style='height:400px;''></img>","","html-keyboard-response","23","852734","0.0-6.0","19354","List2A","black","man","","","","null","","","","","","","","",""
"null","<p>is playing with</p>","","html-keyboard-response","24","854737","0.0-7.0","19354","List2A","black","man","","","","null","","","","","","","","",""
"8968","<p><b>Answer:</b> jane is playing with ruth</p>","0","html-button-response","25","863708","0.0-8.0","19354","List2A","black","man","","","","","","","","","","","","",""
"null","<img src='img/dance_eg.gif' style='height:400px;''></img>","","html-keyboard-response","26","866713","0.0-9.0","19354","List2A","black","man","","","","null","","","","","","","","",""
"null","<p>is being entertained by</p>","","html-keyboard-response","27","868716","0.0-10.0","19354","List2A","black","man","","","","null","","","","","","","","",""
"6943.199999988079","<p><b>Answer:</b> fred is being entertained by mike</p>","0","html-button-response","28","875666","0.0-11.0","19354","List2A","black","man","","","","","","","","","","","","",""
"7388.79999999702","<p>Ready to start the experiment?</p><br><p><strong>Remember to describe the picture using a full sentence,</strong></p><p><strong>that combines the names of the people with the <i>exact</i> phrase given.</strong></p><p><strong>To receive full payment you must do this correctly.</strong></p><p><strong> You do not need to capitalise names or use punctuation.</strong></p><br><p>Press 'Continue' to begin.</p>","0","html-button-response","29","884061","0.0-12.0","19354","List2A","black","man","","","","","","","","","","","","",""
"null","<div style=""font-size:60px;"">+</div>","","html-keyboard-response","30","885564","0.0-13.0-0.0","19354","List2A","black","man","","","","null","","","","","","","","",""
"null","<img src=""stim_listA/seduce5.gif""style=""height:400px;""></stim_listA>","","html-keyboard-response","31","887573","0.0-13.0-1.0","19354","List2A","black","man","","","","null","","","","","","","","",""
"null","is seducing","","html-keyboard-response","32","889576","0.0-13.0-2.0","19354","List2A","black","man","","","","null","","","","","","","","",""
"17557.39999999106","","","survey-text","33","907149","0.0-13.0-3.0","19354","List2A","black","man","","","","","{""Q0"":""Luke is seducing Fred""}","<img src=""stim_listA/seduce5.gif""style=""height:400px;""></stim_listA>","is seducing","","","","","",""
"null","<div style=""font-size:60px;"">+</div>","","html-keyboard-response","34","907658","0.0-13.0-0.1","19354","List2A","black","man","","","","null","","","","","","","","",""
"null","<img src=""stim_listA/hug6.gif""style=""height:400px;""></stim_listA>","","html-keyboard-response","35","909663","0.0-13.0-1.1","19354","List2A","black","man","","","","null","","","","","","","","",""
"null","is being hugged by","","html-keyboard-response","36","911666","0.0-13.0-2.1","19354","List2A","black","man","","","","null","","","","","","","","",""
"17229.80000001192","","","survey-text","37","928907","0.0-13.0-3.1","19354","List2A","black","man","","","","","{""Q0"":""mike is hugging dave""}","<img src=""stim_listA/hug6.gif""style=""height:400px;""></stim_listA>","is being hugged by","","","","","",""
"null","<div style=""font-size:60px;"">+</div>","","html-keyboard-response","38","929411","0.0-13.0-0.2","19354","List2A","black","man","","","","null","","","","","","","","",""
"null","<img src=""stim_listA/oppose2.gif""style=""height:400px;""></stim_listA>","","html-keyboard-response","39","931422","0.0-13.0-1.2","19354","List2A","black","man","","","","null","","","","","","","","",""
"null","is being opposed by","","html-keyboard-response","40","933425","0.0-13.0-2.2","19354","List2A","black","man","","","","null","","","","","","","","",""
"18903.70000000298","","","survey-text","41","952345","0.0-13.0-3.2","19354","List2A","black","man","","","","","{""Q0"":""luke is being opposed by ruth""}","<img src=""stim_listA/oppose2.gif""style=""height:400px;""></stim_listA>","is being opposed by","","","","","",""
"null","<div style=""font-size:60px;"">+</div>","","html-keyboard-response","42","952849","0.0-13.0-0.3","19354","List2A","black","man","","","","null","","","","","","","","",""
"null","<img src=""stim_listA/greet8.gif""style=""height:400px;""></stim_listA>","","html-keyboard-response","43","954856","0.0-13.0-1.3","19354","List2A","black","man","","","","null","","","","","","","","",""
"null","is being greeted by","","html-keyboard-response","44","956860","0.0-13.0-2.3","19354","List2A","black","man","","","","null","","","","","","","","",""
"21723.90000000596","","","survey-text","45","978594","0.0-13.0-3.3","19354","List2A","black","man","","","","","{""Q0"":""ruth is greeted by kate""}","<img src=""stim_listA/greet8.gif""style=""height:400px;""></stim_listA>","is being greeted by","","","","","",""
"null","<div style=""font-size:60px;"">+</div>","","html-keyboard-response","46","979099","0.0-13.0-0.4","19354","List2A","black","man","","","","null","","","","","","","","",""
"null","<img src=""stim_listA/copy4.gif""style=""height:400px;""></stim_listA>","","html-keyboard-response","47","981106","0.0-13.0-1.4","19354","List2A","black","man","","","","null","","","","","","","","",""
"null","is being copied by","","html-keyboard-response","48","983110","0.0-13.0-2.4","19354","List2A","black","man","","","","null","","","","","","","","",""
"15747.29999999702","","","survey-text","49","998872","0.0-13.0-3.4","19354","List2A","black","man","","","","","{""Q0"":""fred is being copied by kate""}","<img src=""stim_listA/copy4.gif""style=""height:400px;""></stim_listA>","is being copied by","","","","","",""
"null","<div style=""font-size:60px;"">+</div>","","html-keyboard-response","50","999376","0.0-13.0-0.5","19354","List2A","black","man","","","","null","","","","","","","","",""
"null","<img src=""stim_listA/hug5.gif""style=""height:400px;""></stim_listA>","","html-keyboard-response","51","1001384","0.0-13.0-1.5","19354","List2A","black","man","","","","null","","","","","","","","",""
"null","is hugging","","html-keyboard-response","52","1003388","0.0-13.0-2.5","19354","List2A","black","man","","","","null","","","","","","","","",""
"10738.70000000298","","","survey-text","53","1014138","0.0-13.0-3.5","19354","List2A","black","man","","","","","{""Q0"":""luke is hugging fred""}","<img src=""stim_listA/hug5.gif""style=""height:400px;""></stim_listA>","is hugging","","","","","",""
"null","<div style=""font-size:60px;"">+</div>","","html-keyboard-response","54","1014643","0.0-13.0-0.6","19354","List2A","black","man","","","","null","","","","","","","","",""
"null","<img src=""stim_listA/touch2.gif""style=""height:400px;""></stim_listA>","","html-keyboard-response","55","1016651","0.0-13.0-1.6","19354","List2A","black","man","","","","null","","","","","","","","",""
"null","is being touched by","","html-keyboard-response","56","1018655","0.0-13.0-2.6","19354","List2A","black","man","","","","null","","","","","","","","",""
"17370.90000000596","","","survey-text","57","1036038","0.0-13.0-3.6","19354","List2A","black","man","","","","","{""Q0"":""ruth is being touched by luke""}","<img src=""stim_listA/touch2.gif""style=""height:400px;""></stim_listA>","is being touched by","","","","","",""
"null","<div style=""font-size:60px;"">+</div>","","html-keyboard-response","58","1036543","0.0-13.0-0.7","19354","List2A","black","man","","","","null","","","","","","","","",""
"null","<img src=""stim_listA/hug2.gif""style=""height:400px;""></stim_listA>","","html-keyboard-response","59","1038551","0.0-13.0-1.7","19354","List2A","black","man","","","","null","","","","","","","","",""
"null","is being hugged by","","html-keyboard-response","60","1040554","0.0-13.0-2.7","19354","List2A","black","man","","","","null","","","","","","","","",""
"16280.20000000298","","","survey-text","61","1056851","0.0-13.0-3.7","19354","List2A","black","man","","","","","{""Q0"":""jane is hugged by dave""}","<img src=""stim_listA/hug2.gif""style=""height:400px;""></stim_listA>","is being hugged by","","","","","",""
"null","<div style=""font-size:60px;"">+</div>","","html-keyboard-response","62","1057356","0.0-13.0-0.8","19354","List2A","black","man","","","","null","","","","","","","","",""
"null","<img src=""stim_listA/touch6.gif""style=""height:400px;""></stim_listA>","","html-keyboard-response","63","1059366","0.0-13.0-1.8","19354","List2A","black","man","","","","null","","","","","","","","",""
"null","is being touched by","","html-keyboard-response","64","1061371","0.0-13.0-2.8","19354","List2A","black","man","","","","null","","","","","","","","",""
"16129.800000011921","","","survey-text","65","1077513","0.0-13.0-3.8","19354","List2A","black","man","","","","","{""Q0"":""luke is being touched by fred""}","<img src=""stim_listA/touch6.gif""style=""height:400px;""></stim_listA>","is being touched by","","","","","",""
"null","<div style=""font-size:60px;"">+</div>","","html-keyboard-response","66","1078019","0.0-13.0-0.9","19354","List2A","black","man","","","","null","","","","","","","","",""
"null","<img src=""stim_listA/touch4.gif""style=""height:400px;""></stim_listA>","","html-keyboard-response","67","1080027","0.0-13.0-1.9","19354","List2A","black","man","","","","null","","","","","","","","",""
"null","is being touched by","","html-keyboard-response","68","1082045","0.0-13.0-2.9","19354","List2A","black","man","","","","null","","","","","","","","",""
"30557.40000000596","","","survey-text","69","1112614","0.0-13.0-3.9","19354","List2A","black","man","","","","","{""Q0"":""beth is being touched by fred""}","<img src=""stim_listA/touch4.gif""style=""height:400px;""></stim_listA>","is being touched by","","","","","",""
"null","<div style=""font-size:60px;"">+</div>","","html-keyboard-response","70","1113119","0.0-13.0-0.10","19354","List2A","black","man","","","","null","","","","","","","","",""
"null","<img src=""stim_listA/seduce7.gif""style=""height:400px;""></stim_listA>","","html-keyboard-response","71","1115127","0.0-13.0-1.10","19354","List2A","black","man","","","","null","","","","","","","","",""
"null","is seducing","","html-keyboard-response","72","1117135","0.0-13.0-2.10","19354","List2A","black","man","","","","null","","","","","","","","",""
"44166.29999999702","","","survey-text","73","1161312","0.0-13.0-3.10","19354","List2A","black","man","","","","","{""Q0"":""ruth is seducing kate""}","<img src=""stim_listA/seduce7.gif""style=""height:400px;""></stim_listA>","is seducing","","","","","",""
"null","<div style=""font-size:60px;"">+</div>","","html-keyboard-response","74","1161816","0.0-13.0-0.11","19354","List2A","black","man","","","","null","","","","","","","","",""
"null","<img src=""stim_listA/touch7.gif""style=""height:400px;""></stim_listA>","","html-keyboard-response","75","1163823","0.0-13.0-1.11","19354","List2A","black","man","","","","null","","","","","","","","",""
"null","is touching","","html-keyboard-response","76","1165826","0.0-13.0-2.11","19354","List2A","black","man","","","","null","","","","","","","","",""
"10715.20000000298","","","survey-text","77","1176551","0.0-13.0-3.11","19354","List2A","black","man","","","","","{""Q0"":""jane is touching kate""}","<img src=""stim_listA/touch7.gif""style=""height:400px;""></stim_listA>","is touching","","","","","",""
"null","<div style=""font-size:60px;"">+</div>","","html-keyboard-response","78","1177055","0.0-13.0-0.12","19354","List2A","black","man","","","","null","","","","","","","","",""
"null","<img src=""stim_listA/kiss1.gif""style=""height:400px;""></stim_listA>","","html-keyboard-response","79","1179066","0.0-13.0-1.12","19354","List2A","black","man","","","","null","","","","","","","","",""
"null","is kissing","","html-keyboard-response","80","1181069","0.0-13.0-2.12","19354","List2A","black","man","","","","null","","","","","","","","",""
"12801.70000000298","","","survey-text","81","1193880","0.0-13.0-3.12","19354","List2A","black","man","","","","","{""Q0"":""luke is kissing ruth""}","<img src=""stim_listA/kiss1.gif""style=""height:400px;""></stim_listA>","is kissing","","","","","",""
"null","<div style=""font-size:60px;"">+</div>","","html-keyboard-response","82","1194384","0.0-13.0-0.13","19354","List2A","black","man","","","","null","","","","","","","","",""
"null","<img src=""stim_listA/oppose4.gif""style=""height:400px;""></stim_listA>","","html-keyboard-response","83","1196391","0.0-13.0-1.13","19354","List2A","black","man","","","","null","","","","","","","","",""
"null","is being opposed by","","html-keyboard-response","84","1198394","0.0-13.0-2.13","19354","List2A","black","man","","","","null","","","","","","","","",""
"33687.29999999702","","","survey-text","85","1232091","0.0-13.0-3.13","19354","List2A","black","man","","","","","{""Q0"":""beth is being opposed by fred""}","<img src=""stim_listA/oppose4.gif""style=""height:400px;""></stim_listA>","is being opposed by","","","","","",""
"null","<div style=""font-size:60px;"">+</div>","","html-keyboard-response","86","1232595","0.0-13.0-0.14","19354","List2A","black","man","","","","null","","","","","","","","",""
"null","<img src=""stim_listA/copy1.gif""style=""height:400px;""></stim_listA>","","html-keyboard-response","87","1234602","0.0-13.0-1.14","19354","List2A","black","man","","","","null","","","","","","","","",""
"null","is copying","","html-keyboard-response","88","1236605","0.0-13.0-2.14","19354","List2A","black","man","","","","null","","","","","","","","",""
"48589.79999999702","","","survey-text","89","1285208","0.0-13.0-3.14","19354","List2A","black","man","","","","","{""Q0"":""luke greeted by ruth""}","<img src=""stim_listA/copy1.gif""style=""height:400px;""></stim_listA>","is copying","","","","","",""
"null","<div style=""font-size:60px;"">+</div>","","html-keyboard-response","90","1285712","0.0-13.0-0.15","19354","List2A","black","man","","","","null","","","","","","","","",""
"null","<img src=""stim_listA/shout1.gif""style=""height:400px;""></stim_listA>","","html-keyboard-response","91","1287719","0.0-13.0-1.15","19354","List2A","black","man","","","","null","","","","","","","","",""
"null","is shouting at","","html-keyboard-response","92","1289723","0.0-13.0-2.15","19354","List2A","black","man","","","","null","","","","","","","","",""
"16488","","","survey-text","93","1306225","0.0-13.0-3.15","19354","List2A","black","man","","","","","{""Q0"":""luke is shouting at ruth""}","<img src=""stim_listA/shout1.gif""style=""height:400px;""></stim_listA>","is shouting at","","","","","",""
"null","<div style=""font-size:60px;"">+</div>","","html-keyboard-response","94","1306729","0.0-13.0-0.16","19354","List2A","black","man","","","","null","","","","","","","","",""
"null","<img src=""stim_listA/shout7.gif""style=""height:400px;""></stim_listA>","","html-keyboard-response","95","1308736","0.0-13.0-1.16","19354","List2A","black","man","","","","null","","","","","","","","",""
"null","is shouting at","","html-keyboard-response","96","1310740","0.0-13.0-2.16","19354","List2A","black","man","","","","null","","","","","","","","",""
"14593.199999988079","","","survey-text","97","1325344","0.0-13.0-3.16","19354","List2A","black","man","","","","","{""Q0"":""ruth is shouting at beth""}","<img src=""stim_listA/shout7.gif""style=""height:400px;""></stim_listA>","is shouting at","","","","","",""
"null","<div style=""font-size:60px;"">+</div>","","html-keyboard-response","98","1325848","0.0-13.0-0.17","19354","List2A","black","man","","","","null","","","","","","","","",""
"null","<img src=""stim_listA/shout5.gif""style=""height:400px;""></stim_listA>","","html-keyboard-response","99","1327856","0.0-13.0-1.17","19354","List2A","black","man","","","","null","","","","","","","","",""
"null","is shouting at","","html-keyboard-response","100","1329860","0.0-13.0-2.17","19354","List2A","black","man","","","","null","","","","","","","","",""
"12571.300000011921","","","survey-text","101","1342443","0.0-13.0-3.17","19354","List2A","black","man","","","","","{""Q0"":""fred is shouting at luke""}","<img src=""stim_listA/shout5.gif""style=""height:400px;""></stim_listA>","is shouting at","","","","","",""
"null","<div style=""font-size:60px;"">+</div>","","html-keyboard-response","102","1342948","0.0-13.0-0.18","19354","List2A","black","man","","","","null","","","","","","","","",""
"null","<img src=""stim_listA/touch1.gif""style=""height:400px;""></stim_listA>","","html-keyboard-response","103","1344956","0.0-13.0-1.18","19354","List2A","black","man","","","","null","","","","","","","","",""
"null","is touching","","html-keyboard-response","104","1346960","0.0-13.0-2.18","19354","List2A","black","man","","","","null","","","","","","","","",""
"19746.29999999702","","","survey-text","105","1366722","0.0-13.0-3.18","19354","List2A","black","man","","","","","{""Q0"":""dave is touching jane ""}","<img src=""stim_listA/touch1.gif""style=""height:400px;""></stim_listA>","is touching","","","","","",""
"null","<div style=""font-size:60px;"">+</div>","","html-keyboard-response","106","1367227","0.0-13.0-0.19","19354","List2A","black","man","","","","null","","","","","","","","",""
"null","<img src=""stim_listA/oppose1.gif""style=""height:400px;""></stim_listA>","","html-keyboard-response","107","1369235","0.0-13.0-1.19","19354","List2A","black","man","","","","null","","","","","","","","",""
"null","is opposing","","html-keyboard-response","108","1371239","0.0-13.0-2.19","19354","List2A","black","man","","","","null","","","","","","","","",""
"26263.90000000596","","","survey-text","109","1397514","0.0-13.0-3.19","19354","List2A","black","man","","","","","{""Q0"":""dave is fighting with jane""}","<img src=""stim_listA/oppose1.gif""style=""height:400px;""></stim_listA>","is opposing","","","","","",""
"19650","<img src='img/portrait_matrix_list2.jpg' style='width:900px;height:500px;''></img><p>If you have memorised all the portraits and names and are ready to start, press Continue.</p><p><strong>Please note: Your memory of these faces will be tested 4 times during this experiment.</strong></p>","0","html-button-response","110","1417172","0.0-14.0-0.0","19354","List2A","black","man","","","","","","","","","","","","",""
"4953.100000008941","<img src=""portrait/BW1.jpg""style=""height:400px;""></img>","0","html-button-response","111","1423137","0.0-14.0-1.0","19354","List2A","black","man","","true","0","","","","","","","","","",""
"null","CORRECT","","html-keyboard-response","112","1424641","0.0-14.0-2.0-0.0","19354","List2A","black","man","","","","null","","","","","","","","",""
"3388.800000011921","<img src=""portrait/BM1.jpg""style=""height:400px;""></img>","4","html-button-response","113","1428038","0.0-14.0-4.0","19354","List2A","black","man","","true","4","","","","","","","","","",""
"null","CORRECT","","html-keyboard-response","114","1429542","0.0-14.0-5.0-0.0","19354","List2A","black","man","","","","null","","","","","","","","",""
"3949.2000000029802","<img src=""portrait/BM2.jpg""style=""height:400px;""></img>","5","html-button-response","115","1433499","0.0-14.0-7.0","19354","List2A","black","man","","true","5","","","","","","","","","",""
"null","CORRECT","","html-keyboard-response","116","1435004","0.0-14.0-8.0-0.0","19354","List2A","black","man","","","","null","","","","","","","","",""
"3772.5","<img src=""portrait/WM1.jpg""style=""height:400px;""></img>","6","html-button-response","117","1438785","0.0-14.0-10.0","19354","List2A","black","man","","true","6","","","","","","","","","",""
"null","CORRECT","","html-keyboard-response","118","1440288","0.0-14.0-11.0-0.0","19354","List2A","black","man","","","","null","","","","","","","","",""
"3713.0999999940395","<img src=""portrait/WM2.jpg""style=""height:400px;""></img>","7","html-button-response","119","1444009","0.0-14.0-13.0","19354","List2A","black","man","","true","7","","","","","","","","","",""
"null","CORRECT","","html-keyboard-response","120","1445514","0.0-14.0-14.0-0.0","19354","List2A","black","man","","","","null","","","","","","","","",""
"5587.4000000059605","<img src=""portrait/WW1.jpg""style=""height:400px;""></img>","1","html-button-response","121","1451107","0.0-14.0-16.0","19354","List2A","black","man","","true","1","","","","","","","","","",""
"null","CORRECT","","html-keyboard-response","122","1452611","0.0-14.0-17.0-0.0","19354","List2A","black","man","","","","null","","","","","","","","",""
"3563.2999999970198","<img src=""portrait/BW2.jpg""style=""height:400px;""></img>","2","html-button-response","123","1456182","0.0-14.0-19.0","19354","List2A","black","man","","true","2","","","","","","","","","",""
"null","CORRECT","","html-keyboard-response","124","1457686","0.0-14.0-20.0-0.0","19354","List2A","black","man","","","","null","","","","","","","","",""
"4850.800000011921","<img src=""portrait/WW2.jpg""style=""height:400px;""></img>","3","html-button-response","125","1462545","0.0-14.0-22.0","19354","List2A","black","man","","true","3","","","","","","","","","",""
"null","CORRECT","","html-keyboard-response","126","1464049","0.0-14.0-23.0-0.0","19354","List2A","black","man","","","","null","","","","","","","","",""
"2697.300000011921","<p>You got 8 out of 8 right first time. Press Continue.</p>","0","html-button-response","127","1466754","0.0-14.0-25.0","19354","List2A","black","man","","","","","","","","","","","","",""
"null","<div style=""font-size:60px;"">+</div>","","html-keyboard-response","128","1468260","0.0-15.0-0.0","19354","List2A","black","man","","","","null","","","","","","","","",""
"null","<img src=""stim_listA/oppose8.gif""style=""height:400px;""></stim_listA>","","html-keyboard-response","129","1470266","0.0-15.0-1.0","19354","List2A","black","man","","","","null","","","","","","","","",""
"null","is being opposed by","","html-keyboard-response","130","1472269","0.0-15.0-2.0","19354","List2A","black","man","","","","null","","","","","","","","",""
"24144.60000000894","","","survey-text","131","1496428","0.0-15.0-3.0","19354","List2A","black","man","","","","","{""Q0"":""beth is being opposed by ruth""}","<img src=""stim_listA/oppose8.gif""style=""height:400px;""></stim_listA>","is being opposed by","","","","","",""
"null","<div style=""font-size:60px;"">+</div>","","html-keyboard-response","132","1496933","0.0-15.0-0.1","19354","List2A","black","man","","","","null","","","","","","","","",""
"null","<img src=""stim_listA/hug8.gif""style=""height:400px;""></stim_listA>","","html-keyboard-response","133","1498940","0.0-15.0-1.1","19354","List2A","black","man","","","","null","","","","","","","","",""
"null","is being hugged by","","html-keyboard-response","134","1500944","0.0-15.0-2.1","19354","List2A","black","man","","","","null","","","","","","","","",""
"13482.60000000894","","","survey-text","135","1514438","0.0-15.0-3.1","19354","List2A","black","man","","","","","{""Q0"":""jane is being hugged by kate""}","<img src=""stim_listA/hug8.gif""style=""height:400px;""></stim_listA>","is being hugged by","","","","","",""
"null","<div style=""font-size:60px;"">+</div>","","html-keyboard-response","136","1514942","0.0-15.0-0.2","19354","List2A","black","man","","","","null","","","","","","","","",""
"null","<img src=""stim_listA/look5.gif""style=""height:400px;""></stim_listA>","","html-keyboard-response","137","1516950","0.0-15.0-1.2","19354","List2A","black","man","","","","null","","","","","","","","",""
"null","is looking at","","html-keyboard-response","138","1518954","0.0-15.0-2.2","19354","List2A","black","man","","","","null","","","","","","","","",""
"19222.70000000298","","","survey-text","139","1538188","0.0-15.0-3.2","19354","List2A","black","man","","","","","{""Q0"":""fred is looking at luke""}","<img src=""stim_listA/look5.gif""style=""height:400px;""></stim_listA>","is looking at","","","","","",""
"null","<div style=""font-size:60px;"">+</div>","","html-keyboard-response","140","1538692","0.0-15.0-0.3","19354","List2A","black","man","","","","null","","","","","","","","",""
"null","<img src=""stim_listA/greet4.gif""style=""height:400px;""></stim_listA>","","html-keyboard-response","141","1540703","0.0-15.0-1.3","19354","List2A","black","man","","","","null","","","","","","","","",""
"null","is being greeted by","","html-keyboard-response","142","1542707","0.0-15.0-2.3","19354","List2A","black","man","","","","null","","","","","","","","",""
"9762.5","","","survey-text","143","1552480","0.0-15.0-3.3","19354","List2A","black","man","","","","","{""Q0"":""kate is greeted by fred""}","<img src=""stim_listA/greet4.gif""style=""height:400px;""></stim_listA>","is being greeted by","","","","","",""
"null","<div style=""font-size:60px;"">+</div>","","html-keyboard-response","144","1552985","0.0-15.0-0.4","19354","List2A","black","man","","","","null","","","","","","","","",""
"null","<img src=""stim_listA/look1.gif""style=""height:400px;""></stim_listA>","","html-keyboard-response","145","1554993","0.0-15.0-1.4","19354","List2A","black","man","","","","null","","","","","","","","",""
"null","is looking at","","html-keyboard-response","146","1556998","0.0-15.0-2.4","19354","List2A","black","man","","","","null","","","","","","","","",""
"10845.59999999404","","","survey-text","147","1567855","0.0-15.0-3.4","19354","List2A","black","man","","","","","{""Q0"":""ruth is looking at luke""}","<img src=""stim_listA/look1.gif""style=""height:400px;""></stim_listA>","is looking at","","","","","",""
"null","<div style=""font-size:60px;"">+</div>","","html-keyboard-response","148","1568359","0.0-15.0-0.5","19354","List2A","black","man","","","","null","","","","","","","","",""
"null","<img src=""stim_listA/challenge7.gif""style=""height:400px;""></stim_listA>","","html-keyboard-response","149","1570367","0.0-15.0-1.5","19354","List2A","black","man","","","","null","","","","","","","","",""
"null","is challenging","","html-keyboard-response","150","1572371","0.0-15.0-2.5","19354","List2A","black","man","","","","null","","","","","","","","",""
"11547.09999999404","","","survey-text","151","1583929","0.0-15.0-3.5","19354","List2A","black","man","","","","","{""Q0"":""beth is challenging jane""}","<img src=""stim_listA/challenge7.gif""style=""height:400px;""></stim_listA>","is challenging","","","","","",""
"null","<div style=""font-size:60px;"">+</div>","","html-keyboard-response","152","1584435","0.0-15.0-0.6","19354","List2A","black","man","","","","null","","","","","","","","",""
"null","<img src=""stim_listA/look7.gif""style=""height:400px;""></stim_listA>","","html-keyboard-response","153","1586444","0.0-15.0-1.6","19354","List2A","black","man","","","","null","","","","","","","","",""
"null","is looking at","","html-keyboard-response","154","1588451","0.0-15.0-2.6","19354","List2A","black","man","","","","null","","","","","","","","",""
"11911.40000000596","","","survey-text","155","1600382","0.0-15.0-3.6","19354","List2A","black","man","","","","","{""Q0"":""beth is looking at ruth""}","<img src=""stim_listA/look7.gif""style=""height:400px;""></stim_listA>","is looking at","","","","","",""
"null","<div style=""font-size:60px;"">+</div>","","html-keyboard-response","156","1600887","0.0-15.0-0.7","19354","List2A","black","man","","","","null","","","","","","","","",""
"null","<img src=""stim_listA/kiss8.gif""style=""height:400px;""></stim_listA>","","html-keyboard-response","157","1602895","0.0-15.0-1.7","19354","List2A","black","man","","","","null","","","","","","","","",""
"null","is being kissed by","","html-keyboard-response","158","1604899","0.0-15.0-2.7","19354","List2A","black","man","","","","null","","","","","","","","",""
"20435.89999999106","","","survey-text","159","1625346","0.0-15.0-3.7","19354","List2A","black","man","","","","","{""Q0"":""ruth is being kissed by kate""}","<img src=""stim_listA/kiss8.gif""style=""height:400px;""></stim_listA>","is being kissed by","","","","","",""
"null","<div style=""font-size:60px;"">+</div>","","html-keyboard-response","160","1625851","0.0-15.0-0.8","19354","List2A","black","man","","","","null","","","","","","","","",""
"null","<img src=""stim_listA/seduce4.gif""style=""height:400px;""></stim_listA>","","html-keyboard-response","161","1627859","0.0-15.0-1.8","19354","List2A","black","man","","","","null","","","","","","","","",""
"null","is being seduced by","","html-keyboard-response","162","1629863","0.0-15.0-2.8","19354","List2A","black","man","","","","null","","","","","","","","",""
"30023","","","survey-text","163","1659900","0.0-15.0-3.8","19354","List2A","black","man","","","","","{""Q0"":""beth is being seduced by luke""}","<img src=""stim_listA/seduce4.gif""style=""height:400px;""></stim_listA>","is being seduced by","","","","","",""
"null","<div style=""font-size:60px;"">+</div>","","html-keyboard-response","164","1660405","0.0-15.0-0.9","19354","List2A","black","man","","","","null","","","","","","","","",""
"null","<img src=""stim_listA/kiss7.gif""style=""height:400px;""></stim_listA>","","html-keyboard-response","165","1662412","0.0-15.0-1.9","19354","List2A","black","man","","","","null","","","","","","","","",""
"null","is kissing","","html-keyboard-response","166","1664415","0.0-15.0-2.9","19354","List2A","black","man","","","","null","","","","","","","","",""
"15299.59999999404","","","survey-text","167","1679725","0.0-15.0-3.9","19354","List2A","black","man","","","","","{""Q0"":""ruth is kissing beth""}","<img src=""stim_listA/kiss7.gif""style=""height:400px;""></stim_listA>","is kissing","","","","","",""
"null","<div style=""font-size:60px;"">+</div>","","html-keyboard-response","168","1680229","0.0-15.0-0.10","19354","List2A","black","man","","","","null","","","","","","","","",""
"null","<img src=""stim_listA/look4.gif""style=""height:400px;""></stim_listA>","","html-keyboard-response","169","1682237","0.0-15.0-1.10","19354","List2A","black","man","","","","null","","","","","","","","",""
"null","is being looked at by","","html-keyboard-response","170","1684240","0.0-15.0-2.10","19354","List2A","black","man","","","","null","","","","","","","","",""
"22225.29999999702","","","survey-text","171","1706475","0.0-15.0-3.10","19354","List2A","black","man","","","","","{""Q0"":""kate is looking at mike""}","<img src=""stim_listA/look4.gif""style=""height:400px;""></stim_listA>","is being looked at by","","","","","",""
"null","<div style=""font-size:60px;"">+</div>","","html-keyboard-response","172","1706980","0.0-15.0-0.11","19354","List2A","black","man","","","","null","","","","","","","","",""
"null","<img src=""stim_listA/touch3.gif""style=""height:400px;""></stim_listA>","","html-keyboard-response","173","1708987","0.0-15.0-1.11","19354","List2A","black","man","","","","null","","","","","","","","",""
"null","is touching","","html-keyboard-response","174","1710991","0.0-15.0-2.11","19354","List2A","black","man","","","","null","","","","","","","","",""
"14300.29999999702","","","survey-text","175","1725305","0.0-15.0-3.11","19354","List2A","black","man","","","","","{""Q0"":""kate is touching mike""}","<img src=""stim_listA/touch3.gif""style=""height:400px;""></stim_listA>","is touching","","","","","",""
"null","<div style=""font-size:60px;"">+</div>","","html-keyboard-response","176","1725809","0.0-15.0-0.12","19354","List2A","black","man","","","","null","","","","","","","","",""
"null","<img src=""stim_listA/hug4.gif""style=""height:400px;""></stim_listA>","","html-keyboard-response","177","1727817","0.0-15.0-1.12","19354","List2A","black","man","","","","null","","","","","","","","",""
"null","is being hugged by","","html-keyboard-response","178","1729820","0.0-15.0-2.12","19354","List2A","black","man","","","","null","","","","","","","","",""
"45027.20000000298","","","survey-text","179","1774858","0.0-15.0-3.12","19354","List2A","black","man","","","","","{""Q0"":""mike is hugging kate""}","<img src=""stim_listA/hug4.gif""style=""height:400px;""></stim_listA>","is being hugged by","","","","","",""
"null","<div style=""font-size:60px;"">+</div>","","html-keyboard-response","180","1775362","0.0-15.0-0.13","19354","List2A","black","man","","","","null","","","","","","","","",""
"null","<img src=""stim_listA/greet1.gif""style=""height:400px;""></stim_listA>","","html-keyboard-response","181","1777370","0.0-15.0-1.13","19354","List2A","black","man","","","","null","","","","","","","","",""
"null","is greeting","","html-keyboard-response","182","1779374","0.0-15.0-2.13","19354","List2A","black","man","","","","null","","","","","","","","",""
"15608.699999988079","","","survey-text","183","1794997","0.0-15.0-3.13","19354","List2A","black","man","","","","","{""Q0"":""dave is greeting ruth""}","<img src=""stim_listA/greet1.gif""style=""height:400px;""></stim_listA>","is greeting","","","","","",""
"null","<div style=""font-size:60px;"">+</div>","","html-keyboard-response","184","1795502","0.0-15.0-0.14","19354","List2A","black","man","","","","null","","","","","","","","",""
"null","<img src=""stim_listA/copy6.gif""style=""height:400px;""></stim_listA>","","html-keyboard-response","185","1797510","0.0-15.0-1.14","19354","List2A","black","man","","","","null","","","","","","","","",""
"null","is being copied by","","html-keyboard-response","186","1799514","0.0-15.0-2.14","19354","List2A","black","man","","","","null","","","","","","","","",""
"15812.199999988079","","","survey-text","187","1815337","0.0-15.0-3.14","19354","List2A","black","man","","","","","{""Q0"":""mike is being copied by luke""}","<img src=""stim_listA/copy6.gif""style=""height:400px;""></stim_listA>","is being copied by","","","","","",""
"null","<div style=""font-size:60px;"">+</div>","","html-keyboard-response","188","1815842","0.0-15.0-0.15","19354","List2A","black","man","","","","null","","","","","","","","",""
"null","<img src=""stim_listA/oppose7.gif""style=""height:400px;""></stim_listA>","","html-keyboard-response","189","1817850","0.0-15.0-1.15","19354","List2A","black","man","","","","null","","","","","","","","",""
"null","is opposing","","html-keyboard-response","190","1819854","0.0-15.0-2.15","19354","List2A","black","man","","","","null","","","","","","","","",""
"14271.29999999702","","","survey-text","191","1834136","0.0-15.0-3.15","19354","List2A","black","man","","","","","{""Q0"":""jane is opposing kate""}","<img src=""stim_listA/oppose7.gif""style=""height:400px;""></stim_listA>","is opposing","","","","","",""
"null","<div style=""font-size:60px;"">+</div>","","html-keyboard-response","192","1834641","0.0-15.0-0.16","19354","List2A","black","man","","","","null","","","","","","","","",""
"null","<img src=""stim_listA/hug1.gif""style=""height:400px;""></stim_listA>","","html-keyboard-response","193","1836649","0.0-15.0-1.16","19354","List2A","black","man","","","","null","","","","","","","","",""
"null","is hugging","","html-keyboard-response","194","1838653","0.0-15.0-2.16","19354","List2A","black","man","","","","null","","","","","","","","",""
"10770.70000000298","","","survey-text","195","1849439","0.0-15.0-3.16","19354","List2A","black","man","","","","","{""Q0"":""luke is hugging ruth""}","<img src=""stim_listA/hug1.gif""style=""height:400px;""></stim_listA>","is hugging","","","","","",""
"null","<div style=""font-size:60px;"">+</div>","","html-keyboard-response","196","1849945","0.0-15.0-0.17","19354","List2A","black","man","","","","null","","","","","","","","",""
"null","<img src=""stim_listA/greet2.gif""style=""height:400px;""></stim_listA>","","html-keyboard-response","197","1851954","0.0-15.0-1.17","19354","List2A","black","man","","","","null","","","","","","","","",""
"null","is being greeted by","","html-keyboard-response","198","1853958","0.0-15.0-2.17","19354","List2A","black","man","","","","null","","","","","","","","",""
"10369.09999999404","","","survey-text","199","1864338","0.0-15.0-3.17","19354","List2A","black","man","","","","","{""Q0"":""luke is greeted by jane""}","<img src=""stim_listA/greet2.gif""style=""height:400px;""></stim_listA>","is being greeted by","","","","","",""
"null","<div style=""font-size:60px;"">+</div>","","html-keyboard-response","200","1864850","0.0-15.0-0.18","19354","List2A","black","man","","","","null","","","","","","","","",""
"null","<img src=""stim_listA/touch8.gif""style=""height:400px;""></stim_listA>","","html-keyboard-response","201","1866858","0.0-15.0-1.18","19354","List2A","black","man","","","","null","","","","","","","","",""
"null","is being touched by","","html-keyboard-response","202","1868863","0.0-15.0-2.18","19354","List2A","black","man","","","","null","","","","","","","","",""
"16600.79999999702","","","survey-text","203","1885475","0.0-15.0-3.18","19354","List2A","black","man","","","","","{""Q0"":""beth is  being touched by jane""}","<img src=""stim_listA/touch8.gif""style=""height:400px;""></stim_listA>","is being touched by","","","","","",""
"null","<div style=""font-size:60px;"">+</div>","","html-keyboard-response","204","1885982","0.0-15.0-0.19","19354","List2A","black","man","","","","null","","","","","","","","",""
"null","<img src=""stim_listA/challenge2.gif""style=""height:400px;""></stim_listA>","","html-keyboard-response","205","1887990","0.0-15.0-1.19","19354","List2A","black","man","","","","null","","","","","","","","",""
"null","is being challenged by","","html-keyboard-response","206","1889994","0.0-15.0-2.19","19354","List2A","black","man","","","","null","","","","","","","","",""
"17505.70000000298","","","survey-text","207","1907514","0.0-15.0-3.19","19354","List2A","black","man","","","","","{""Q0"":""jane is been challenged by luke""}","<img src=""stim_listA/challenge2.gif""style=""height:400px;""></stim_listA>","is being challenged by","","","","","",""
"8714.79999999702","<img src='img/portrait_matrix_list2.jpg' style='width:900px;height:500px;''></img><p>If you have memorised all the portraits and names and are ready to start, press Continue.</p><p><strong>Please note: Your memory of these faces will be tested 4 times during this experiment.</strong></p>","0","html-button-response","208","1916236","0.0-16.0-0.0","19354","List2A","black","man","","","","","","","","","","","","",""
"4454.20000000298","<img src=""portrait/WM2.jpg""style=""height:400px;""></img>","7","html-button-response","209","1921699","0.0-16.0-1.0","19354","List2A","black","man","","true","7","","","","","","","","","",""
"null","CORRECT","","html-keyboard-response","210","1923204","0.0-16.0-2.0-0.0","19354","List2A","black","man","","","","null","","","","","","","","",""
"3798.3999999910593","<img src=""portrait/WM1.jpg""style=""height:400px;""></img>","6","html-button-response","211","1927010","0.0-16.0-4.0","19354","List2A","black","man","","true","6","","","","","","","","","",""
"null","CORRECT","","html-keyboard-response","212","1928514","0.0-16.0-5.0-0.0","19354","List2A","black","man","","","","null","","","","","","","","",""
"3462.3999999910593","<img src=""portrait/WW1.jpg""style=""height:400px;""></img>","1","html-button-response","213","1931983","0.0-16.0-7.0","19354","List2A","black","man","","true","1","","","","","","","","","",""
"null","CORRECT","","html-keyboard-response","214","1933487","0.0-16.0-8.0-0.0","19354","List2A","black","man","","","","null","","","","","","","","",""
"3325.5","<img src=""portrait/BM2.jpg""style=""height:400px;""></img>","5","html-button-response","215","1936820","0.0-16.0-10.0","19354","List2A","black","man","","true","5","","","","","","","","","",""
"null","CORRECT","","html-keyboard-response","216","1938324","0.0-16.0-11.0-0.0","19354","List2A","black","man","","","","null","","","","","","","","",""
"3749.2000000029802","<img src=""portrait/WW2.jpg""style=""height:400px;""></img>","3","html-button-response","217","1942081","0.0-16.0-13.0","19354","List2A","black","man","","true","3","","","","","","","","","",""
"null","CORRECT","","html-keyboard-response","218","1943586","0.0-16.0-14.0-0.0","19354","List2A","black","man","","","","null","","","","","","","","",""
"3774.6000000089407","<img src=""portrait/BW2.jpg""style=""height:400px;""></img>","2","html-button-response","219","1947368","0.0-16.0-16.0","19354","List2A","black","man","","true","2","","","","","","","","","",""
"null","CORRECT","","html-keyboard-response","220","1948872","0.0-16.0-17.0-0.0","19354","List2A","black","man","","","","null","","","","","","","","",""
"3624.5","<img src=""portrait/BW1.jpg""style=""height:400px;""></img>","0","html-button-response","221","1952503","0.0-16.0-19.0","19354","List2A","black","man","","true","0","","","","","","","","","",""
"null","CORRECT","","html-keyboard-response","222","1954007","0.0-16.0-20.0-0.0","19354","List2A","black","man","","","","null","","","","","","","","",""
"2601.2999999970198","<img src=""portrait/BM1.jpg""style=""height:400px;""></img>","4","html-button-response","223","1956616","0.0-16.0-22.0","19354","List2A","black","man","","true","4","","","","","","","","","",""
"null","CORRECT","","html-keyboard-response","224","1958120","0.0-16.0-23.0-0.0","19354","List2A","black","man","","","","null","","","","","","","","",""
"1950.4000000059605","<p>You got 8 out of 8 right first time. Press Continue.</p>","0","html-button-response","225","1960078","0.0-16.0-25.0","19354","List2A","black","man","","","","","","","","","","","","",""
"null","<div style=""font-size:60px;"">+</div>","","html-keyboard-response","226","1961588","0.0-17.0-0.0","19354","List2A","black","man","","","","null","","","","","","","","",""
"null","<img src=""stim_listA/shout2.gif""style=""height:400px;""></stim_listA>","","html-keyboard-response","227","1963596","0.0-17.0-1.0","19354","List2A","black","man","","","","null","","","","","","","","",""
"null","is being shouted at by","","html-keyboard-response","228","1965599","0.0-17.0-2.0","19354","List2A","black","man","","","","null","","","","","","","","",""
"14241.70000000298","","","survey-text","229","1979852","0.0-17.0-3.0","19354","List2A","black","man","","","","","{""Q0"":""dave is been shouted by jane""}","<img src=""stim_listA/shout2.gif""style=""height:400px;""></stim_listA>","is being shouted at by","","","","","",""
"null","<div style=""font-size:60px;"">+</div>","","html-keyboard-response","230","1980357","0.0-17.0-0.1","19354","List2A","black","man","","","","null","","","","","","","","",""
"null","<img src=""stim_listA/copy3.gif""style=""height:400px;""></stim_listA>","","html-keyboard-response","231","1982365","0.0-17.0-1.1","19354","List2A","black","man","","","","null","","","","","","","","",""
"null","is copying","","html-keyboard-response","232","1984368","0.0-17.0-2.1","19354","List2A","black","man","","","","null","","","","","","","","",""
"28272.59999999404","","","survey-text","233","2012651","0.0-17.0-3.1","19354","List2A","black","man","","","","","{""Q0"":""mike is copying beth""}","<img src=""stim_listA/copy3.gif""style=""height:400px;""></stim_listA>","is copying","","","","","",""
"null","<div style=""font-size:60px;"">+</div>","","html-keyboard-response","234","2013156","0.0-17.0-0.2","19354","List2A","black","man","","","","null","","","","","","","","",""
"null","<img src=""stim_listA/look2.gif""style=""height:400px;""></stim_listA>","","html-keyboard-response","235","2015163","0.0-17.0-1.2","19354","List2A","black","man","","","","null","","","","","","","","",""
"null","is being looked at by","","html-keyboard-response","236","2017167","0.0-17.0-2.2","19354","List2A","black","man","","","","null","","","","","","","","",""
"76967.60000000894","","","survey-text","237","2094155","0.0-17.0-3.2","19354","List2A","black","man","","","","","{""Q0"":""dave is looked by jane""}","<img src=""stim_listA/look2.gif""style=""height:400px;""></stim_listA>","is being looked at by","","","","","",""
"null","<div style=""font-size:60px;"">+</div>","","html-keyboard-response","238","2094660","0.0-17.0-0.3","19354","List2A","black","man","","","","null","","","","","","","","",""
"null","<img src=""stim_listA/greet6.gif""style=""height:400px;""></stim_listA>","","html-keyboard-response","239","2096668","0.0-17.0-1.3","19354","List2A","black","man","","","","null","","","","","","","","",""
"null","is being greeted by","","html-keyboard-response","240","2098672","0.0-17.0-2.3","19354","List2A","black","man","","","","null","","","","","","","","",""
"24619.60000000894","","","survey-text","241","2123303","0.0-17.0-3.3","19354","List2A","black","man","","","","","{""Q0"":""mike is being greeted by luke ""}","<img src=""stim_listA/greet6.gif""style=""height:400px;""></stim_listA>","is being greeted by","","","","","",""
"null","<div style=""font-size:60px;"">+</div>","","html-keyboard-response","242","2123807","0.0-17.0-0.4","19354","List2A","black","man","","","","null","","","","","","","","",""
"null","<img src=""stim_listA/challenge8.gif""style=""height:400px;""></stim_listA>","","html-keyboard-response","243","2125815","0.0-17.0-1.4","19354","List2A","black","man","","","","null","","","","","","","","",""
"null","is being challenged by","","html-keyboard-response","244","2127820","0.0-17.0-2.4","19354","List2A","black","man","","","","null","","","","","","","","",""
"12482.79999999702","","","survey-text","245","2140314","0.0-17.0-3.4","19354","List2A","black","man","","","","","{""Q0"":""jane is challenged by kate""}","<img src=""stim_listA/challenge8.gif""style=""height:400px;""></stim_listA>","is being challenged by","","","","","",""
"null","<div style=""font-size:60px;"">+</div>","","html-keyboard-response","246","2140819","0.0-17.0-0.5","19354","List2A","black","man","","","","null","","","","","","","","",""
"null","<img src=""stim_listA/greet3.gif""style=""height:400px;""></stim_listA>","","html-keyboard-response","247","2142828","0.0-17.0-1.5","19354","List2A","black","man","","","","null","","","","","","","","",""
"null","is greeting","","html-keyboard-response","248","2144833","0.0-17.0-2.5","19354","List2A","black","man","","","","null","","","","","","","","",""
"38878.10000000894","","","survey-text","249","2183725","0.0-17.0-3.5","19354","List2A","black","man","","","","","{""Q0"":""Mike is greeting beth""}","<img src=""stim_listA/greet3.gif""style=""height:400px;""></stim_listA>","is greeting","","","","","",""
"null","<div style=""font-size:60px;"">+</div>","","html-keyboard-response","250","2184231","0.0-17.0-0.6","19354","List2A","black","man","","","","null","","","","","","","","",""
"null","<img src=""stim_listA/challenge5.gif""style=""height:400px;""></stim_listA>","","html-keyboard-response","251","2186239","0.0-17.0-1.6","19354","List2A","black","man","","","","null","","","","","","","","",""
"null","is challenging","","html-keyboard-response","252","2188243","0.0-17.0-2.6","19354","List2A","black","man","","","","null","","","","","","","","",""
"8009.29999999702","","","survey-text","253","2196264","0.0-17.0-3.6","19354","List2A","black","man","","","","","{""Q0"":""fred is challenging dave""}","<img src=""stim_listA/challenge5.gif""style=""height:400px;""></stim_listA>","is challenging","","","","","",""
"null","<div style=""font-size:60px;"">+</div>","","html-keyboard-response","254","2196770","0.0-17.0-0.7","19354","List2A","black","man","","","","null","","","","","","","","",""
"null","<img src=""stim_listA/kiss6.gif""style=""height:400px;""></stim_listA>","","html-keyboard-response","255","2198778","0.0-17.0-1.7","19354","List2A","black","man","","","","null","","","","","","","","",""
"null","is being kissed by","","html-keyboard-response","256","2200782","0.0-17.0-2.7","19354","List2A","black","man","","","","null","","","","","","","","",""
"9641.79999999702","","","survey-text","257","2210439","0.0-17.0-3.7","19354","List2A","black","man","","","","","{""Q0"":""mike is being kissed by dave""}","<img src=""stim_listA/kiss6.gif""style=""height:400px;""></stim_listA>","is being kissed by","","","","","",""
"null","<div style=""font-size:60px;"">+</div>","","html-keyboard-response","258","2210944","0.0-17.0-0.8","19354","List2A","black","man","","","","null","","","","","","","","",""
"null","<img src=""stim_listA/oppose5.gif""style=""height:400px;""></stim_listA>","","html-keyboard-response","259","2212953","0.0-17.0-1.8","19354","List2A","black","man","","","","null","","","","","","","","",""
"null","is opposing","","html-keyboard-response","260","2214958","0.0-17.0-2.8","19354","List2A","black","man","","","","null","","","","","","","","",""
"17618.39999999106","","","survey-text","261","2232588","0.0-17.0-3.8","19354","List2A","black","man","","","","","{""Q0"":""mike is fighting with dave""}","<img src=""stim_listA/oppose5.gif""style=""height:400px;""></stim_listA>","is opposing","","","","","",""
"null","<div style=""font-size:60px;"">+</div>","","html-keyboard-response","262","2233092","0.0-17.0-0.9","19354","List2A","black","man","","","","null","","","","","","","","",""
"null","<img src=""stim_listA/greet7.gif""style=""height:400px;""></stim_listA>","","html-keyboard-response","263","2235099","0.0-17.0-1.9","19354","List2A","black","man","","","","null","","","","","","","","",""
"null","is greeting","","html-keyboard-response","264","2237102","0.0-17.0-2.9","19354","List2A","black","man","","","","null","","","","","","","","",""
"9522.60000000894","","","survey-text","265","2246635","0.0-17.0-3.9","19354","List2A","black","man","","","","","{""Q0"":""beth is greeting jane""}","<img src=""stim_listA/greet7.gif""style=""height:400px;""></stim_listA>","is greeting","","","","","",""
"null","<div style=""font-size:60px;"">+</div>","","html-keyboard-response","266","2247139","0.0-17.0-0.10","19354","List2A","black","man","","","","null","","","","","","","","",""
"null","<img src=""stim_listA/kiss5.gif""style=""height:400px;""></stim_listA>","","html-keyboard-response","267","2249147","0.0-17.0-1.10","19354","List2A","black","man","","","","null","","","","","","","","",""
"null","is kissing","","html-keyboard-response","268","2251151","0.0-17.0-2.10","19354","List2A","black","man","","","","null","","","","","","","","",""
"5693.29999999702","","","survey-text","269","2256855","0.0-17.0-3.10","19354","List2A","black","man","","","","","{""Q0"":""luke is kissing fred""}","<img src=""stim_listA/kiss5.gif""style=""height:400px;""></stim_listA>","is kissing","","","","","",""
"null","<div style=""font-size:60px;"">+</div>","","html-keyboard-response","270","2257360","0.0-17.0-0.11","19354","List2A","black","man","","","","null","","","","","","","","",""
"null","<img src=""stim_listA/hug3.gif""style=""height:400px;""></stim_listA>","","html-keyboard-response","271","2259367","0.0-17.0-1.11","19354","List2A","black","man","","","","null","","","","","","","","",""
"null","is hugging","","html-keyboard-response","272","2261370","0.0-17.0-2.11","19354","List2A","black","man","","","","null","","","","","","","","",""
"6652.199999988079","","","survey-text","273","2268036","0.0-17.0-3.11","19354","List2A","black","man","","","","","{""Q0"":""fred is hugging beth""}","<img src=""stim_listA/hug3.gif""style=""height:400px;""></stim_listA>","is hugging","","","","","",""
"null","<div style=""font-size:60px;"">+</div>","","html-keyboard-response","274","2268540","0.0-17.0-0.12","19354","List2A","black","man","","","","null","","","","","","","","",""
"null","<img src=""stim_listA/seduce6.gif""style=""height:400px;""></stim_listA>","","html-keyboard-response","275","2270547","0.0-17.0-1.12","19354","List2A","black","man","","","","null","","","","","","","","",""
"null","is being seduced by","","html-keyboard-response","276","2272550","0.0-17.0-2.12","19354","List2A","black","man","","","","null","","","","","","","","",""
"33359.70000000298","","","survey-text","277","2305920","0.0-17.0-3.12","19354","List2A","black","man","","","","","{""Q0"":""dave is seduced by fred""}","<img src=""stim_listA/seduce6.gif""style=""height:400px;""></stim_listA>","is being seduced by","","","","","",""
"null","<div style=""font-size:60px;"">+</div>","","html-keyboard-response","278","2306425","0.0-17.0-0.13","19354","List2A","black","man","","","","null","","","","","","","","",""
"null","<img src=""stim_listA/challenge6.gif""style=""height:400px;""></stim_listA>","","html-keyboard-response","279","2308432","0.0-17.0-1.13","19354","List2A","black","man","","","","null","","","","","","","","",""
"null","is being challenged by","","html-keyboard-response","280","2310436","0.0-17.0-2.13","19354","List2A","black","man","","","","null","","","","","","","","",""
"8771.90000000596","","","survey-text","281","2319218","0.0-17.0-3.13","19354","List2A","black","man","","","","","{""Q0"":""mike is challenged by luke""}","<img src=""stim_listA/challenge6.gif""style=""height:400px;""></stim_listA>","is being challenged by","","","","","",""
"null","<div style=""font-size:60px;"">+</div>","","html-keyboard-response","282","2319723","0.0-17.0-0.14","19354","List2A","black","man","","","","null","","","","","","","","",""
"null","<img src=""stim_listA/greet5.gif""style=""height:400px;""></stim_listA>","","html-keyboard-response","283","2321730","0.0-17.0-1.14","19354","List2A","black","man","","","","null","","","","","","","","",""
"null","is greeting","","html-keyboard-response","284","2323734","0.0-17.0-2.14","19354","List2A","black","man","","","","null","","","","","","","","",""
"8872.39999999106","","","survey-text","285","2332621","0.0-17.0-3.14","19354","List2A","black","man","","","","","{""Q0"":""dave is greeting fred""}","<img src=""stim_listA/greet5.gif""style=""height:400px;""></stim_listA>","is greeting","","","","","",""
"null","<div style=""font-size:60px;"">+</div>","","html-keyboard-response","286","2333125","0.0-17.0-0.15","19354","List2A","black","man","","","","null","","","","","","","","",""
"null","<img src=""stim_listA/seduce8.gif""style=""height:400px;""></stim_listA>","","html-keyboard-response","287","2335134","0.0-17.0-1.15","19354","List2A","black","man","","","","null","","","","","","","","",""
"null","is being seduced by","","html-keyboard-response","288","2337137","0.0-17.0-2.15","19354","List2A","black","man","","","","null","","","","","","","","",""
"18078.90000000596","","","survey-text","289","2355228","0.0-17.0-3.15","19354","List2A","black","man","","","","","{""Q0"":""beth is seduced by kate""}","<img src=""stim_listA/seduce8.gif""style=""height:400px;""></stim_listA>","is being seduced by","","","","","",""
"null","<div style=""font-size:60px;"">+</div>","","html-keyboard-response","290","2355732","0.0-17.0-0.16","19354","List2A","black","man","","","","null","","","","","","","","",""
"null","<img src=""stim_listA/shout6.gif""style=""height:400px;""></stim_listA>","","html-keyboard-response","291","2357740","0.0-17.0-1.16","19354","List2A","black","man","","","","null","","","","","","","","",""
"null","is being shouted at by","","html-keyboard-response","292","2359744","0.0-17.0-2.16","19354","List2A","black","man","","","","null","","","","","","","","",""
"14248.79999999702","","","survey-text","293","2374004","0.0-17.0-3.16","19354","List2A","black","man","","","","","{""Q0"":""dave is being shouted on by mike""}","<img src=""stim_listA/shout6.gif""style=""height:400px;""></stim_listA>","is being shouted at by","","","","","",""
"null","<div style=""font-size:60px;"">+</div>","","html-keyboard-response","294","2374514","0.0-17.0-0.17","19354","List2A","black","man","","","","null","","","","","","","","",""
"null","<img src=""stim_listA/shout3.gif""style=""height:400px;""></stim_listA>","","html-keyboard-response","295","2376521","0.0-17.0-1.17","19354","List2A","black","man","","","","null","","","","","","","","",""
"null","is shouting at","","html-keyboard-response","296","2378525","0.0-17.0-2.17","19354","List2A","black","man","","","","null","","","","","","","","",""
"14073.79999999702","","","survey-text","297","2392614","0.0-17.0-3.17","19354","List2A","black","man","","","","","{""Q0"":""fred is shouting at beth""}","<img src=""stim_listA/shout3.gif""style=""height:400px;""></stim_listA>","is shouting at","","","","","",""
"null","<div style=""font-size:60px;"">+</div>","","html-keyboard-response","298","2393119","0.0-17.0-0.18","19354","List2A","black","man","","","","null","","","","","","","","",""
"null","<img src=""stim_listA/seduce1.gif""style=""height:400px;""></stim_listA>","","html-keyboard-response","299","2395127","0.0-17.0-1.18","19354","List2A","black","man","","","","null","","","","","","","","",""
"null","is seducing","","html-keyboard-response","300","2397131","0.0-17.0-2.18","19354","List2A","black","man","","","","null","","","","","","","","",""
"10489.39999999106","","","survey-text","301","2407632","0.0-17.0-3.18","19354","List2A","black","man","","","","","{""Q0"":""luke is seducing jane""}","<img src=""stim_listA/seduce1.gif""style=""height:400px;""></stim_listA>","is seducing","","","","","",""
"null","<div style=""font-size:60px;"">+</div>","","html-keyboard-response","302","2408137","0.0-17.0-0.19","19354","List2A","black","man","","","","null","","","","","","","","",""
"null","<img src=""stim_listA/kiss3.gif""style=""height:400px;""></stim_listA>","","html-keyboard-response","303","2410145","0.0-17.0-1.19","19354","List2A","black","man","","","","null","","","","","","","","",""
"null","is kissing","","html-keyboard-response","304","2412149","0.0-17.0-2.19","19354","List2A","black","man","","","","null","","","","","","","","",""
"8255.79999999702","","","survey-text","305","2420418","0.0-17.0-3.19","19354","List2A","black","man","","","","","{""Q0"":""fred is kissing beth""}","<img src=""stim_listA/kiss3.gif""style=""height:400px;""></stim_listA>","is kissing","","","","","",""
"21019.40000000596","<img src='img/portrait_matrix_list2.jpg' style='width:900px;height:500px;''></img><p>If you have memorised all the portraits and names and are ready to start, press Continue.</p><p><strong>Please note: Your memory of these faces will be tested 4 times during this experiment.</strong></p>","0","html-button-response","306","2441445","0.0-18.0-0.0","19354","List2A","black","man","","","","","","","","","","","","",""
"3754.7999999970198","<img src=""portrait/BW2.jpg""style=""height:400px;""></img>","2","html-button-response","307","2446210","0.0-18.0-1.0","19354","List2A","black","man","","true","2","","","","","","","","","",""
"null","CORRECT","","html-keyboard-response","308","2447716","0.0-18.0-2.0-0.0","19354","List2A","black","man","","","","null","","","","","","","","",""
"2799.7999999970198","<img src=""portrait/BM1.jpg""style=""height:400px;""></img>","4","html-button-response","309","2450529","0.0-18.0-4.0","19354","List2A","black","man","","true","4","","","","","","","","","",""
"null","CORRECT","","html-keyboard-response","310","2452035","0.0-18.0-5.0-0.0","19354","List2A","black","man","","","","null","","","","","","","","",""
"30476.29999999702","<img src=""portrait/WM1.jpg""style=""height:400px;""></img>","6","html-button-response","311","2482525","0.0-18.0-7.0","19354","List2A","black","man","","true","6","","","","","","","","","",""
"null","CORRECT","","html-keyboard-response","312","2484031","0.0-18.0-8.0-0.0","19354","List2A","black","man","","","","null","","","","","","","","",""
"3193.300000011921","<img src=""portrait/WW2.jpg""style=""height:400px;""></img>","3","html-button-response","313","2487234","0.0-18.0-10.0","19354","List2A","black","man","","true","3","","","","","","","","","",""
"null","CORRECT","","html-keyboard-response","314","2488740","0.0-18.0-11.0-0.0","19354","List2A","black","man","","","","null","","","","","","","","",""
"2809.7000000029802","<img src=""portrait/BM2.jpg""style=""height:400px;""></img>","5","html-button-response","315","2491559","0.0-18.0-13.0","19354","List2A","black","man","","true","5","","","","","","","","","",""
"null","CORRECT","","html-keyboard-response","316","2493065","0.0-18.0-14.0-0.0","19354","List2A","black","man","","","","null","","","","","","","","",""
"2760.5","<img src=""portrait/WM2.jpg""style=""height:400px;""></img>","7","html-button-response","317","2495836","0.0-18.0-16.0","19354","List2A","black","man","","true","7","","","","","","","","","",""
"null","CORRECT","","html-keyboard-response","318","2497342","0.0-18.0-17.0-0.0","19354","List2A","black","man","","","","null","","","","","","","","",""
"5909.5","<img src=""portrait/BW1.jpg""style=""height:400px;""></img>","0","html-button-response","319","2503260","0.0-18.0-19.0","19354","List2A","black","man","","true","0","","","","","","","","","",""
"null","CORRECT","","html-keyboard-response","320","2504766","0.0-18.0-20.0-0.0","19354","List2A","black","man","","","","null","","","","","","","","",""
"6012.5","<img src=""portrait/WW1.jpg""style=""height:400px;""></img>","1","html-button-response","321","2510791","0.0-18.0-22.0","19354","List2A","black","man","","true","1","","","","","","","","","",""
"null","CORRECT","","html-keyboard-response","322","2512298","0.0-18.0-23.0-0.0","19354","List2A","black","man","","","","null","","","","","","","","",""
"3060.2999999970198","<p>You got 8 out of 8 right first time. Press Continue.</p>","0","html-button-response","323","2515367","0.0-18.0-25.0","19354","List2A","black","man","","","","","","","","","","","","",""
"null","<div style=""font-size:60px;"">+</div>","","html-keyboard-response","324","2516877","0.0-19.0-0.0","19354","List2A","black","man","","","","null","","","","","","","","",""
"null","<img src=""stim_listA/copy2.gif""style=""height:400px;""></stim_listA>","","html-keyboard-response","325","2518885","0.0-19.0-1.0","19354","List2A","black","man","","","","null","","","","","","","","",""
"null","is being copied by","","html-keyboard-response","326","2520890","0.0-19.0-2.0","19354","List2A","black","man","","","","null","","","","","","","","",""
"10555.29999999702","","","survey-text","327","2531457","0.0-19.0-3.0","19354","List2A","black","man","","","","","{""Q0"":""luke is being copied by jane""}","<img src=""stim_listA/copy2.gif""style=""height:400px;""></stim_listA>","is being copied by","","","","","",""
"null","<div style=""font-size:60px;"">+</div>","","html-keyboard-response","328","2531963","0.0-19.0-0.1","19354","List2A","black","man","","","","null","","","","","","","","",""
"null","<img src=""stim_listA/kiss2.gif""style=""height:400px;""></stim_listA>","","html-keyboard-response","329","2533972","0.0-19.0-1.1","19354","List2A","black","man","","","","null","","","","","","","","",""
"null","is being kissed by","","html-keyboard-response","330","2535977","0.0-19.0-2.1","19354","List2A","black","man","","","","null","","","","","","","","",""
"66174.5","","","survey-text","331","2602167","0.0-19.0-3.1","19354","List2A","black","man","","","","","{""Q0"":""dave is being kissed by jane""}","<img src=""stim_listA/kiss2.gif""style=""height:400px;""></stim_listA>","is being kissed by","","","","","",""
"null","<div style=""font-size:60px;"">+</div>","","html-keyboard-response","332","2602672","0.0-19.0-0.2","19354","List2A","black","man","","","","null","","","","","","","","",""
"null","<img src=""stim_listA/challenge4.gif""style=""height:400px;""></stim_listA>","","html-keyboard-response","333","2604679","0.0-19.0-1.2","19354","List2A","black","man","","","","null","","","","","","","","",""
"null","is being challenged by","","html-keyboard-response","334","2606682","0.0-19.0-2.2","19354","List2A","black","man","","","","null","","","","","","","","",""
"31547.70000000298","","","survey-text","335","2638244","0.0-19.0-3.2","19354","List2A","black","man","","","","","{""Q0"":""fred is challenged by kate""}","<img src=""stim_listA/challenge4.gif""style=""height:400px;""></stim_listA>","is being challenged by","","","","","",""
"null","<div style=""font-size:60px;"">+</div>","","html-keyboard-response","336","2638752","0.0-19.0-0.3","19354","List2A","black","man","","","","null","","","","","","","","",""
"null","<img src=""stim_listA/look3.gif""style=""height:400px;""></stim_listA>","","html-keyboard-response","337","2640759","0.0-19.0-1.3","19354","List2A","black","man","","","","null","","","","","","","","",""
"null","is looking at","","html-keyboard-response","338","2642763","0.0-19.0-2.3","19354","List2A","black","man","","","","null","","","","","","","","",""
"35932.29999999702","","","survey-text","339","2678707","0.0-19.0-3.3","19354","List2A","black","man","","","","","{""Q0"":""fred is looking at beth""}","<img src=""stim_listA/look3.gif""style=""height:400px;""></stim_listA>","is looking at","","","","","",""
"null","<div style=""font-size:60px;"">+</div>","","html-keyboard-response","340","2679212","0.0-19.0-0.4","19354","List2A","black","man","","","","null","","","","","","","","",""
"null","<img src=""stim_listA/touch5.gif""style=""height:400px;""></stim_listA>","","html-keyboard-response","341","2681219","0.0-19.0-1.4","19354","List2A","black","man","","","","null","","","","","","","","",""
"null","is touching","","html-keyboard-response","342","2683223","0.0-19.0-2.4","19354","List2A","black","man","","","","null","","","","","","","","",""
"22298.79999999702","","","survey-text","343","2705536","0.0-19.0-3.4","19354","List2A","black","man","","","","","{""Q0"":""dave is touch in mike""}","<img src=""stim_listA/touch5.gif""style=""height:400px;""></stim_listA>","is touching","","","","","",""
"null","<div style=""font-size:60px;"">+</div>","","html-keyboard-response","344","2706042","0.0-19.0-0.5","19354","List2A","black","man","","","","null","","","","","","","","",""
"null","<img src=""stim_listA/challenge1.gif""style=""height:400px;""></stim_listA>","","html-keyboard-response","345","2708049","0.0-19.0-1.5","19354","List2A","black","man","","","","null","","","","","","","","",""
"null","is challenging","","html-keyboard-response","346","2710053","0.0-19.0-2.5","19354","List2A","black","man","","","","null","","","","","","","","",""
"60209.29999999702","","","survey-text","347","2770277","0.0-19.0-3.5","19354","List2A","black","man","","","","","{""Q0"":""ruth is challenging luke""}","<img src=""stim_listA/challenge1.gif""style=""height:400px;""></stim_listA>","is challenging","","","","","",""
"null","<div style=""font-size:60px;"">+</div>","","html-keyboard-response","348","2770781","0.0-19.0-0.6","19354","List2A","black","man","","","","null","","","","","","","","",""
"null","<img src=""stim_listA/look8.gif""style=""height:400px;""></stim_listA>","","html-keyboard-response","349","2772789","0.0-19.0-1.6","19354","List2A","black","man","","","","null","","","","","","","","",""
"null","is being looked at by","","html-keyboard-response","350","2774793","0.0-19.0-2.6","19354","List2A","black","man","","","","null","","","","","","","","",""
"16803.09999999404","","","survey-text","351","2791608","0.0-19.0-3.6","19354","List2A","black","man","","","","","{""Q0"":""jane is looked by by beth""}","<img src=""stim_listA/look8.gif""style=""height:400px;""></stim_listA>","is being looked at by","","","","","",""
"null","<div style=""font-size:60px;"">+</div>","","html-keyboard-response","352","2792112","0.0-19.0-0.7","19354","List2A","black","man","","","","null","","","","","","","","",""
"null","<img src=""stim_listA/copy7.gif""style=""height:400px;""></stim_listA>","","html-keyboard-response","353","2794119","0.0-19.0-1.7","19354","List2A","black","man","","","","null","","","","","","","","",""
"null","is copying","","html-keyboard-response","354","2796123","0.0-19.0-2.7","19354","List2A","black","man","","","","null","","","","","","","","",""
"9813.70000000298","","","survey-text","355","2805948","0.0-19.0-3.7","19354","List2A","black","man","","","","","{""Q0"":""jane is copying beth""}","<img src=""stim_listA/copy7.gif""style=""height:400px;""></stim_listA>","is copying","","","","","",""
"null","<div style=""font-size:60px;"">+</div>","","html-keyboard-response","356","2806453","0.0-19.0-0.8","19354","List2A","black","man","","","","null","","","","","","","","",""
"null","<img src=""stim_listA/copy8.gif""style=""height:400px;""></stim_listA>","","html-keyboard-response","357","2808461","0.0-19.0-1.8","19354","List2A","black","man","","","","null","","","","","","","","",""
"null","is being copied by","","html-keyboard-response","358","2810469","0.0-19.0-2.8","19354","List2A","black","man","","","","null","","","","","","","","",""
"56485","","","survey-text","359","2866965","0.0-19.0-3.8","19354","List2A","black","man","","","","","{""Q0"":""kate is being copied by kate""}","<img src=""stim_listA/copy8.gif""style=""height:400px;""></stim_listA>","is being copied by","","","","","",""
"null","<div style=""font-size:60px;"">+</div>","","html-keyboard-response","360","2867471","0.0-19.0-0.9","19354","List2A","black","man","","","","null","","","","","","","","",""
"null","<img src=""stim_listA/oppose3.gif""style=""height:400px;""></stim_listA>","","html-keyboard-response","361","2869478","0.0-19.0-1.9","19354","List2A","black","man","","","","null","","","","","","","","",""
"null","is opposing","","html-keyboard-response","362","2871486","0.0-19.0-2.9","19354","List2A","black","man","","","","null","","","","","","","","",""
"8045","","","survey-text","363","2879543","0.0-19.0-3.9","19354","List2A","black","man","","","","","{""Q0"":""mike is opposing kate""}","<img src=""stim_listA/oppose3.gif""style=""height:400px;""></stim_listA>","is opposing","","","","","",""
"null","<div style=""font-size:60px;"">+</div>","","html-keyboard-response","364","2880049","0.0-19.0-0.10","19354","List2A","black","man","","","","null","","","","","","","","",""
"null","<img src=""stim_listA/copy5.gif""style=""height:400px;""></stim_listA>","","html-keyboard-response","365","2882057","0.0-19.0-1.10","19354","List2A","black","man","","","","null","","","","","","","","",""
"null","is copying","","html-keyboard-response","366","2884061","0.0-19.0-2.10","19354","List2A","black","man","","","","null","","","","","","","","",""
"9437.90000000596","","","survey-text","367","2893512","0.0-19.0-3.10","19354","List2A","black","man","","","","","{""Q0"":""dave is copying fred""}","<img src=""stim_listA/copy5.gif""style=""height:400px;""></stim_listA>","is copying","","","","","",""
"null","<div style=""font-size:60px;"">+</div>","","html-keyboard-response","368","2894018","0.0-19.0-0.11","19354","List2A","black","man","","","","null","","","","","","","","",""
"null","<img src=""stim_listA/oppose6.gif""style=""height:400px;""></stim_listA>","","html-keyboard-response","369","2896026","0.0-19.0-1.11","19354","List2A","black","man","","","","null","","","","","","","","",""
"null","is being opposed by","","html-keyboard-response","370","2898030","0.0-19.0-2.11","19354","List2A","black","man","","","","null","","","","","","","","",""
"11312.20000000298","","","survey-text","371","2909355","0.0-19.0-3.11","19354","List2A","black","man","","","","","{""Q0"":""fred is being opposed by luke""}","<img src=""stim_listA/oppose6.gif""style=""height:400px;""></stim_listA>","is being opposed by","","","","","",""
"null","<div style=""font-size:60px;"">+</div>","","html-keyboard-response","372","2909860","0.0-19.0-0.12","19354","List2A","black","man","","","","null","","","","","","","","",""
"null","<img src=""stim_listA/look6.gif""style=""height:400px;""></stim_listA>","","html-keyboard-response","373","2911869","0.0-19.0-1.12","19354","List2A","black","man","","","","null","","","","","","","","",""
"null","is being looked at by","","html-keyboard-response","374","2913873","0.0-19.0-2.12","19354","List2A","black","man","","","","null","","","","","","","","",""
"61458.20000000298","","","survey-text","375","2975347","0.0-19.0-3.12","19354","List2A","black","man","","","","","{""Q0"":""dave is being opposed by mike""}","<img src=""stim_listA/look6.gif""style=""height:400px;""></stim_listA>","is being looked at by","","","","","",""
"null","<div style=""font-size:60px;"">+</div>","","html-keyboard-response","376","2975852","0.0-19.0-0.13","19354","List2A","black","man","","","","null","","","","","","","","",""
"null","<img src=""stim_listA/challenge3.gif""style=""height:400px;""></stim_listA>","","html-keyboard-response","377","2977860","0.0-19.0-1.13","19354","List2A","black","man","","","","null","","","","","","","","",""
"null","is challenging","","html-keyboard-response","378","2979865","0.0-19.0-2.13","19354","List2A","black","man","","","","null","","","","","","","","",""
"8287.09999999404","","","survey-text","379","2988167","0.0-19.0-3.13","19354","List2A","black","man","","","","","{""Q0"":""beth is challenging mike""}","<img src=""stim_listA/challenge3.gif""style=""height:400px;""></stim_listA>","is challenging","","","","","",""
"null","<div style=""font-size:60px;"">+</div>","","html-keyboard-response","380","2988673","0.0-19.0-0.14","19354","List2A","black","man","","","","null","","","","","","","","",""
"null","<img src=""stim_listA/seduce3.gif""style=""height:400px;""></stim_listA>","","html-keyboard-response","381","2990682","0.0-19.0-1.14","19354","List2A","black","man","","","","null","","","","","","","","",""
"null","is seducing","","html-keyboard-response","382","2992686","0.0-19.0-2.14","19354","List2A","black","man","","","","null","","","","","","","","",""
"9350.79999999702","","","survey-text","383","3002049","0.0-19.0-3.14","19354","List2A","black","man","","","","","{""Q0"":""kate is seducing fred""}","<img src=""stim_listA/seduce3.gif""style=""height:400px;""></stim_listA>","is seducing","","","","","",""
"null","<div style=""font-size:60px;"">+</div>","","html-keyboard-response","384","3002554","0.0-19.0-0.15","19354","List2A","black","man","","","","null","","","","","","","","",""
"null","<img src=""stim_listA/seduce2.gif""style=""height:400px;""></stim_listA>","","html-keyboard-response","385","3004563","0.0-19.0-1.15","19354","List2A","black","man","","","","null","","","","","","","","",""
"null","is being seduced by","","html-keyboard-response","386","3006568","0.0-19.0-2.15","19354","List2A","black","man","","","","null","","","","","","","","",""
"15685","","","survey-text","387","3022270","0.0-19.0-3.15","19354","List2A","black","man","","","","","{""Q0"":""ruth is seduced by dave""}","<img src=""stim_listA/seduce2.gif""style=""height:400px;""></stim_listA>","is being seduced by","","","","","",""
"null","<div style=""font-size:60px;"">+</div>","","html-keyboard-response","388","3022775","0.0-19.0-0.16","19354","List2A","black","man","","","","null","","","","","","","","",""
"null","<img src=""stim_listA/hug7.gif""style=""height:400px;""></stim_listA>","","html-keyboard-response","389","3024784","0.0-19.0-1.16","19354","List2A","black","man","","","","null","","","","","","","","",""
"null","is hugging","","html-keyboard-response","390","3026789","0.0-19.0-2.16","19354","List2A","black","man","","","","null","","","","","","","","",""
"9007.29999999702","","","survey-text","391","3035821","0.0-19.0-3.16","19354","List2A","black","man","","","","","{""Q0"":""beth is hugging ruth""}","<img src=""stim_listA/hug7.gif""style=""height:400px;""></stim_listA>","is hugging","","","","","",""
"null","<div style=""font-size:60px;"">+</div>","","html-keyboard-response","392","3036327","0.0-19.0-0.17","19354","List2A","black","man","","","","null","","","","","","","","",""
"null","<img src=""stim_listA/shout8.gif""style=""height:400px;""></stim_listA>","","html-keyboard-response","393","3038336","0.0-19.0-1.17","19354","List2A","black","man","","","","null","","","","","","","","",""
"null","is being shouted at by","","html-keyboard-response","394","3040341","0.0-19.0-2.17","19354","List2A","black","man","","","","null","","","","","","","","",""
"18706.20000000298","","","survey-text","395","3059060","0.0-19.0-3.17","19354","List2A","black","man","","","","","{""Q0"":"" jane is being shouted on by beth""}","<img src=""stim_listA/shout8.gif""style=""height:400px;""></stim_listA>","is being shouted at by","","","","","",""
"null","<div style=""font-size:60px;"">+</div>","","html-keyboard-response","396","3059566","0.0-19.0-0.18","19354","List2A","black","man","","","","null","","","","","","","","",""
"null","<img src=""stim_listA/kiss4.gif""style=""height:400px;""></stim_listA>","","html-keyboard-response","397","3061575","0.0-19.0-1.18","19354","List2A","black","man","","","","null","","","","","","","","",""
"null","is being kissed by","","html-keyboard-response","398","3063580","0.0-19.0-2.18","19354","List2A","black","man","","","","null","","","","","","","","",""
"8173","","","survey-text","399","3071766","0.0-19.0-3.18","19354","List2A","black","man","","","","","{""Q0"":""mike is being kissed by kate""}","<img src=""stim_listA/kiss4.gif""style=""height:400px;""></stim_listA>","is being kissed by","","","","","",""
"null","<div style=""font-size:60px;"">+</div>","","html-keyboard-response","400","3072271","0.0-19.0-0.19","19354","List2A","black","man","","","","null","","","","","","","","",""
"null","<img src=""stim_listA/shout4.gif""style=""height:400px;""></stim_listA>","","html-keyboard-response","401","3074283","0.0-19.0-1.19","19354","List2A","black","man","","","","null","","","","","","","","",""
"null","is being shouted at by","","html-keyboard-response","402","3076287","0.0-19.0-2.19","19354","List2A","black","man","","","","null","","","","","","","","",""
"8519.300000011921","","","survey-text","403","3084821","0.0-19.0-3.19","19354","List2A","black","man","","","","","{""Q0"":""mike is being shouted at by kate""}","<img src=""stim_listA/shout4.gif""style=""height:400px;""></stim_listA>","is being shouted at by","","","","","",""
"3359.800000011921","<p>Thank you for completing that task.</p><p>The final part of this session is a questionnaire that will take about 4 minutes.</p><p>Press Continue.</p>","0","html-button-response","404","3088188","0.0-20.0","19354","List2A","black","man","","","","","","","","","","","","",""
"42450.90000000596","","","survey-text","405","3131677","0.0-21.0","19354","List2A","black","man","","","","","{""Q0"":""36"",""Q1"":""English"",""Q2"":""English"",""Q3"":""USA"",""Q4"":""American"",""Q5"":""African America"",""Q6"":""Male""}","","","demographics","","","","",""
"4118.29999999702","<p>Have you lived in the USA for the last 5 years or more?</p>","0","html-button-response","406","3135811","0.0-22.0","19354","List2A","black","man","","","","","","","","fiveyears","","","","",""
"1854.7000000029802","<p>Move the slider to show the extent to which you agree with the following statements.</p>","0","html-button-response","407","3138672","0.0-23.0","19354","List2A","black","man","","","","","","","","","","","","",""
"7028.5","","","html-slider-response","408","3146715","0.0-24.0-0.0-0.0","19354","List2A","black","man","","","","","","","","survey_gender","35","","","I would say I am an animal person.","filler"
"3958.9000000059605","","","html-slider-response","409","3150687","0.0-24.0-0.0-0.1","19354","List2A","black","man","","","","","","","","survey_gender","84","","","I feel committed to my gender.","committed"
"3737.2999999970198","","","html-slider-response","410","3154433","0.0-24.0-0.0-0.2","19354","List2A","black","man","","","","","","","","survey_gender","11","","","Routine is not important to me.","filler"
"3261.199999988079","","","html-slider-response","411","3157706","0.0-24.0-0.0-0.3","19354","List2A","black","man","","","","","","","","survey_gender","88","","","I feel solidarity with my friends.","filler"
"4784.79999999702","","","html-slider-response","412","3162503","0.0-24.0-0.0-0.4","19354","List2A","black","man","","","","","","","","survey_gender","85","","","I often think about the fact that I am my gender.","often"
"5309.20000000298","","","html-slider-response","413","3167824","0.0-24.0-0.0-0.5","19354","List2A","black","man","","","","","","","","survey_gender","69","","","I am similar to the average person of my gender.","similar"
"5057.5","","","html-slider-response","414","3172894","0.0-24.0-0.0-0.6","19354","List2A","black","man","","","","","","","","survey_gender","90","","","Being my gender gives me a good feeling.","feeling"
"6831","","","html-slider-response","415","3179737","0.0-24.0-0.0-0.7","19354","List2A","black","man","","","","","","","","survey_gender","9","","","Family is not more important to me than friendship.","filler"
"4696.5","","","html-slider-response","416","3184446","0.0-24.0-0.0-0.8","19354","List2A","black","man","","","","","","","","survey_gender","82","","","People of my gender are very similar to each other.","verysimilar"
"3685.4000000059605","","","html-slider-response","417","3188143","0.0-24.0-0.0-0.9","19354","List2A","black","man","","","","","","","","survey_gender","93","","","The fact that I am my gender is an important part of my identity.","identity"
"3423.0999999940395","","","html-slider-response","418","3191578","0.0-24.0-0.0-0.10","19354","List2A","black","man","","","","","","","","survey_gender","85","","","I feel a bond with my gender.","bond"
"3023.5","","","html-slider-response","419","3194612","0.0-24.0-0.0-0.11","19354","List2A","black","man","","","","","","","","survey_gender","98","","","It is pleasant to be my gender.","pleasant"
"3777.5999999940395","","","html-slider-response","420","3198402","0.0-24.0-0.0-0.12","19354","List2A","black","man","","","","","","","","survey_gender","90","","","Being my gender is an important part of how I see myself.","important"
"2835.6000000089407","","","html-slider-response","421","3201250","0.0-24.0-0.0-0.13","19354","List2A","black","man","","","","","","","","survey_gender","79","","","My friends understand me.","filler"
"6256.29999999702","","","html-slider-response","422","3207519","0.0-24.0-0.0-0.14","19354","List2A","black","man","","","","","","","","survey_gender","76","","","It is not always easy for people to know what I am thinking.","filler"
"3885.6000000089407","","","html-slider-response","423","3211416","0.0-24.0-0.0-0.15","19354","List2A","black","man","","","","","","","","survey_gender","84","","","I feel solidarity with my gender.","solidarity"
"3372.1000000089407","","","html-slider-response","424","3214799","0.0-24.0-0.0-0.16","19354","List2A","black","man","","","","","","","","survey_gender","100","","","I think that my gender has a lot to be proud of.","proud"
"5470.79999999702","","","html-slider-response","425","3220282","0.0-24.0-0.0-0.17","19354","List2A","black","man","","","","","","","","survey_gender","30","","","Most of the friends in my life are very similar to me.","filler"
"5057.5","","","html-slider-response","426","3225351","0.0-24.0-0.0-0.18","19354","List2A","black","man","","","","","","","","survey_gender","61","","","I have a lot in common with my friends.","filler"
"4871.20000000298","","","html-slider-response","427","3230234","0.0-24.0-0.0-0.19","19354","List2A","black","man","","","","","","","","survey_gender","100","","","Being around my friends gives me a good feeling.","filler"
"3047.9000000059605","","","html-slider-response","428","3233293","0.0-24.0-0.0-0.20","19354","List2A","black","man","","","","","","","","survey_gender","82","","","I am glad to be my gender.","glad"
"5830.79999999702","","","html-slider-response","429","3239137","0.0-24.0-0.0-0.21","19354","List2A","black","man","","","","","","","","survey_gender","95","","","I often think about my actions.","filler"
"5545.300000011921","","","html-slider-response","430","3244693","0.0-24.0-0.0-0.22","19354","List2A","black","man","","","","","","","","survey_gender","76","","","I am glad to have the friends that I have.","filler"
"3909.3999999910593","","","html-slider-response","431","3248613","0.0-24.0-0.0-0.23","19354","List2A","black","man","","","","","","","","survey_gender","80","","","I consider myself a highly empathetic person.","filler"
"2848","","","html-slider-response","432","3251473","0.0-24.0-0.0-0.24","19354","List2A","black","man","","","","","","","","survey_gender","83","","","I feel a bond with my friends.","filler"
"3236.6000000089407","","","html-slider-response","433","3254720","0.0-24.0-0.0-0.25","19354","List2A","black","man","","","","","","","","survey_gender","84","","","My friends have a lot in common with each other.","filler"
"3526.800000011921","","","html-slider-response","434","3258257","0.0-24.0-0.0-0.26","19354","List2A","black","man","","","","","","","","survey_gender","86","","","People of my gender have a lot in common with each other.","common"
"3047.7999999970198","","","html-slider-response","435","3261315","0.0-24.0-0.0-0.27","19354","List2A","black","man","","","","","","","","survey_gender","85","","","I have a lot in common with the average person of my gender.","average"
"2512.4000000059605","","","html-slider-response","436","3263838","0.0-24.0-1.0-0.0","19354","List2A","black","man","","","","","","","","survey_race","96","","","I feel committed to my race.","committed"
"2501.2999999970198","","","html-slider-response","437","3266347","0.0-24.0-1.0-0.1","19354","List2A","black","man","","","","","","","","survey_race","90","","","Being my race is an important part of how I see myself.","important"
"1915.2000000029802","","","html-slider-response","438","3268271","0.0-24.0-1.0-0.2","19354","List2A","black","man","","","","","","","","survey_race","81","","","I feel a bond with my race.","bond"
"4300.0999999940395","","","html-slider-response","439","3272579","0.0-24.0-1.0-0.3","19354","List2A","black","man","","","","","","","","survey_race","89","","","People of my race are very similar to each other.","verysimilar"
"4894.4000000059605","","","html-slider-response","440","3277486","0.0-24.0-1.0-0.4","19354","List2A","black","man","","","","","","","","survey_race","93","","","The older I get, the wiser I feel.","filler"
"3147","","","html-slider-response","441","3280645","0.0-24.0-1.0-0.5","19354","List2A","black","man","","","","","","","","survey_race","96","","","I have a lot in common with the average person of my race.","average"
"2986.5","","","html-slider-response","442","3283641","0.0-24.0-1.0-0.6","19354","List2A","black","man","","","","","","","","survey_race","86","","","Being my age gives me a good feeling.","filler"
"2846.699999988079","","","html-slider-response","443","3286500","0.0-24.0-1.0-0.7","19354","List2A","black","man","","","","","","","","survey_race","38","","","People of my race have a lot in common with each other.","common"
"3449.6000000089407","","","html-slider-response","444","3289959","0.0-24.0-1.0-0.8","19354","List2A","black","man","","","","","","","","survey_race","97","","","Being my race gives me a good feeling.","feeling"
"2982.300000011921","","","html-slider-response","445","3292955","0.0-24.0-1.0-0.9","19354","List2A","black","man","","","","","","","","survey_race","69","","","I feel a bond with people the same age as me.","filler"
"2984.7000000029802","","","html-slider-response","446","3295952","0.0-24.0-1.0-0.10","19354","List2A","black","man","","","","","","","","survey_race","67","","","I am glad to be my race.","glad"
"3273.199999988079","","","html-slider-response","447","3299234","0.0-24.0-1.0-0.11","19354","List2A","black","man","","","","","","","","survey_race","69","","","Getting older does not worry me.","filler"
"4446.20000000298","","","html-slider-response","448","3303691","0.0-24.0-1.0-0.12","19354","List2A","black","man","","","","","","","","survey_race","35","","","I enjoy being in large groups.","filler"
"5194.79999999702","","","html-slider-response","449","3308896","0.0-24.0-1.0-0.13","19354","List2A","black","man","","","","","","","","survey_race","39","","","My age is not an important part of who I am.","filler"
"4870.29999999702","","","html-slider-response","450","3313777","0.0-24.0-1.0-0.14","19354","List2A","black","man","","","","","","","","survey_race","55","","","I often think about the fact that I am my age.","filler"
"4746.0999999940395","","","html-slider-response","451","3318537","0.0-24.0-1.0-0.15","19354","List2A","black","man","","","","","","","","survey_race","66","","","I have a lot in common with people of a similar age to me.","filler"
"3845.8999999910593","","","html-slider-response","452","3322396","0.0-24.0-1.0-0.16","19354","List2A","black","man","","","","","","","","survey_race","75","","","I am similar to the average person of my race.","similar"
"28848.59999999404","","","html-slider-response","453","3351258","0.0-24.0-1.0-0.17","19354","List2A","black","man","","","","","","","","survey_race","80","","","I consider myself an extrovert.","filler"
"2972.7999999970198","","","html-slider-response","454","3354243","0.0-24.0-1.0-0.18","19354","List2A","black","man","","","","","","","","survey_race","84","","","I feel solidarity with people the same age as me.","filler"
"2376.2000000029802","","","html-slider-response","455","3356629","0.0-24.0-1.0-0.19","19354","List2A","black","man","","","","","","","","survey_race","89","","","I feel solidarity with my race.","solidarity"
"2783.7000000029802","","","html-slider-response","456","3359422","0.0-24.0-1.0-0.20","19354","List2A","black","man","","","","","","","","survey_race","79","","","I often think about the fact that I am my race.","often"
"2338.7999999970198","","","html-slider-response","457","3361770","0.0-24.0-1.0-0.21","19354","List2A","black","man","","","","","","","","survey_race","76","","","The fact that I am my race is an important part of my identity.","identity"
"2450.800000011921","","","html-slider-response","458","3364230","0.0-24.0-1.0-0.22","19354","List2A","black","man","","","","","","","","survey_race","71","","","It is pleasant to be my race.","pleasant"
"4973.29999999702","","","html-slider-response","459","3369213","0.0-24.0-1.0-0.23","19354","List2A","black","man","","","","","","","","survey_race","2","","","I consider myself an introvert.","filler"
"3281.0999999940395","","","html-slider-response","460","3372507","0.0-24.0-1.0-0.24","19354","List2A","black","man","","","","","","","","survey_race","61","","","People my age have a lot in common with each other.","filler"
"5367.20000000298","","","html-slider-response","461","3377889","0.0-24.0-1.0-0.25","19354","List2A","black","man","","","","","","","","survey_race","73","","","I am glad to be my age.","filler"
"3197.4000000059605","","","html-slider-response","462","3381097","0.0-24.0-1.0-0.26","19354","List2A","black","man","","","","","","","","survey_race","63","","","I think that my race has a lot to be proud of.","proud"
"3001.5","","","html-slider-response","463","3384106","0.0-24.0-1.0-0.27","19354","List2A","black","man","","","","","","","","survey_race","82","","","I am glad to be the age I am.","filler"
"170758.5","","","survey-text","464","3554889","0.0-25.0","19354","List2A","black","man","","","","","{""Q0"":""61570a8574dd5fb37e6c0269""}","","","worker_id","","","","",""
"7857.9000000059605","","","external-html","465","3564497","0.0-26.0","19354","List2A","black","man","debrief.html","","","","","","","","","","","",""
