"rt","stimulus","button_pressed","trial_type","trial_index","time_elapsed","internal_node_id","subject","list","ppt_race","ppt_gender","url","first_guess","correct","key_press","responses","image_type","phrase_type","test_part","response","stimulus1","stimulus2","question_type","survey_item"
"2401.5999999940395","Welcome to the experiment. Press Continue to begin.","0","html-button-response","0","2406","0.0-0.0","19838","List1A","white","woman","","","","","","","","","","","","",""
"35762.69999998808","","","external-html","1","39350","0.0-1.0","19838","List1A","white","woman","consent.html","","","","","","","","","","","",""
"11363.60000000894","<p>On the next page, you will see portraits of 8 people and their names.</p><p>Your first task is to take a few minutes to memorise the names of these people.</p><p>You will have to recall their names during the rest of the experiment, so it is</p><p>essential that you try to memorise these people and their names as best as you can.</p><br><p><strong>You will then be tested on your memory of these names and portraits.</strong></p><br><p>The experiment will start after you have completed this memory test.</p><br><p>Ready?</p>","0","html-button-response","2","50715","0.0-2.0","19838","List1A","white","woman","","","","","","","","","","","","",""
"206829.5","<img src='img/portrait_matrix_list1.jpg' style='width:900px;height:500px;''></img><p>If you have memorised all the portraits and names and are ready to start, press Continue.</p><p><strong>Please note: Your memory of these faces will be tested 4 times during this experiment.</strong></p>","0","html-button-response","3","258548","0.0-3.0-0.0","19838","List1A","white","woman","","","","","","","","","","","","",""
"5143.5999999940395","<img src=""portrait/BW1.jpg""style=""height:400px;""></img>","0","html-button-response","4","264705","0.0-3.0-1.0","19838","List1A","white","woman","","true","0","","","","","","","","","",""
"null","CORRECT","","html-keyboard-response","5","266222","0.0-3.0-2.0-0.0","19838","List1A","white","woman","","","","null","","","","","","","","",""
"5562.4000000059605","<img src=""portrait/BW2.jpg""style=""height:400px;""></img>","2","html-button-response","6","271788","0.0-3.0-4.0","19838","List1A","white","woman","","true","2","","","","","","","","","",""
"null","CORRECT","","html-keyboard-response","7","273317","0.0-3.0-5.0-0.0","19838","List1A","white","woman","","","","null","","","","","","","","",""
"5047.399999991059","<img src=""portrait/BM2.jpg""style=""height:400px;""></img>","5","html-button-response","8","278367","0.0-3.0-7.0","19838","List1A","white","woman","","true","5","","","","","","","","","",""
"null","CORRECT","","html-keyboard-response","9","279895","0.0-3.0-8.0-0.0","19838","List1A","white","woman","","","","null","","","","","","","","",""
"3357.5","<img src=""portrait/BM1.jpg""style=""height:400px;""></img>","4","html-button-response","10","283254","0.0-3.0-10.0","19838","List1A","white","woman","","true","4","","","","","","","","","",""
"null","CORRECT","","html-keyboard-response","11","284771","0.0-3.0-11.0-0.0","19838","List1A","white","woman","","","","null","","","","","","","","",""
"2429","<img src=""portrait/WM2.jpg""style=""height:400px;""></img>","7","html-button-response","12","287203","0.0-3.0-13.0","19838","List1A","white","woman","","true","7","","","","","","","","","",""
"null","CORRECT","","html-keyboard-response","13","288719","0.0-3.0-14.0-0.0","19838","List1A","white","woman","","","","null","","","","","","","","",""
"2786.2000000029802","<img src=""portrait/WW2.jpg""style=""height:400px;""></img>","3","html-button-response","14","291507","0.0-3.0-16.0","19838","List1A","white","woman","","true","3","","","","","","","","","",""
"null","CORRECT","","html-keyboard-response","15","293028","0.0-3.0-17.0-0.0","19838","List1A","white","woman","","","","null","","","","","","","","",""
"3832.3999999910593","<img src=""portrait/WM1.jpg""style=""height:400px;""></img>","6","html-button-response","16","296863","0.0-3.0-19.0","19838","List1A","white","woman","","true","6","","","","","","","","","",""
"null","CORRECT","","html-keyboard-response","17","298375","0.0-3.0-20.0-0.0","19838","List1A","white","woman","","","","null","","","","","","","","",""
"4248.399999991059","<img src=""portrait/WW1.jpg""style=""height:400px;""></img>","1","html-button-response","18","302626","0.0-3.0-22.0","19838","List1A","white","woman","","true","1","","","","","","","","","",""
"null","CORRECT","","html-keyboard-response","19","304151","0.0-3.0-23.0-0.0","19838","List1A","white","woman","","","","null","","","","","","","","",""
"2013.2000000029802","<p>You got 8 out of 8 right first time. Press Continue.</p>","0","html-button-response","20","306167","0.0-3.0-25.0","19838","List1A","white","woman","","","","","","","","","","","","",""
"27228","<p>In this experiment, you will view photographs of the people from the memory game interacting.</p><p>By using the <strong>exact</strong> phrase given <i>after</i> the photograph appears and recalling the correct names of the people in the photographs, form a sentence describing the interaction. You do not need to capitalise names.</p><p>Type your answer in the space provided. Please complete every sentence before moving onto the next trial.</p><p>You will only have a few seconds to memorise each given photograph and phrase before you can respond, so try your best to focus.</p><p>An example is given below. Press 'Continue' when you are ready.</p><img src='img/speaking_example.jpg' style='width:800px;height:460px;''></img>","0","html-button-response","21","334403","0.0-4.0","19838","List1A","white","woman","","","","","","","","","","","","",""
"3949","<p>Before the experiment starts, you will watch two example trials. Press 'Continue'.</p>","0","html-button-response","22","339355","0.0-5.0","19838","List1A","white","woman","","","","","","","","","","","","",""
"null","<img src='img/play_eg.gif' style='height:400px;''></img>","","html-keyboard-response","23","342368","0.0-6.0","19838","List1A","white","woman","","","","null","","","","","","","","",""
"null","<p>is playing with</p>","","html-keyboard-response","24","344374","0.0-7.0","19838","List1A","white","woman","","","","null","","","","","","","","",""
"3861.4000000059605","<p><b>Answer:</b> kate is playing with beth</p>","0","html-button-response","25","348237","0.0-8.0","19838","List1A","white","woman","","","","","","","","","","","","",""
"null","<img src='img/dance_eg.gif' style='height:400px;''></img>","","html-keyboard-response","26","351263","0.0-9.0","19838","List1A","white","woman","","","","null","","","","","","","","",""
"null","<p>is being entertained by</p>","","html-keyboard-response","27","353272","0.0-10.0","19838","List1A","white","woman","","","","null","","","","","","","","",""
"5624.70000000298","<p><b>Answer:</b> luke is being entertained by dave</p>","0","html-button-response","28","358898","0.0-11.0","19838","List1A","white","woman","","","","","","","","","","","","",""
"6478.70000000298","<p>Ready to start the experiment?</p><br><p><strong>Remember to describe the picture using a full sentence,</strong></p><p><strong>that combines the names of the people with the <i>exact</i> phrase given.</strong></p><p><strong>To receive full payment you must do this correctly.</strong></p><p><strong> You do not need to capitalise names or use punctuation.</strong></p><br><p>Press 'Continue' to begin.</p>","0","html-button-response","29","366388","0.0-12.0","19838","List1A","white","woman","","","","","","","","","","","","",""
"null","<div style=""font-size:60px;"">+</div>","","html-keyboard-response","30","367891","0.0-13.0-0.0","19838","List1A","white","woman","","","","null","","","","","","","","",""
"null","<img src=""stim_listA/touch8.gif""style=""height:400px;""></stim_listA>","","html-keyboard-response","31","369896","0.0-13.0-1.0","19838","List1A","white","woman","","","","null","","","","","","","","",""
"null","is being touched by","","html-keyboard-response","32","371902","0.0-13.0-2.0","19838","List1A","white","woman","","","","null","","","","","","","","",""
"15527.60000000894","","","survey-text","33","387454","0.0-13.0-3.0","19838","List1A","white","woman","","","","","{""Q0"":""ruth is being touched by beth""}","<img src=""stim_listA/touch8.gif""style=""height:400px;""></stim_listA>","is being touched by","","","","","",""
"null","<div style=""font-size:60px;"">+</div>","","html-keyboard-response","34","387962","0.0-13.0-0.1","19838","List1A","white","woman","","","","null","","","","","","","","",""
"null","<img src=""stim_listA/copy3.gif""style=""height:400px;""></stim_listA>","","html-keyboard-response","35","389968","0.0-13.0-1.1","19838","List1A","white","woman","","","","null","","","","","","","","",""
"null","is copying","","html-keyboard-response","36","391973","0.0-13.0-2.1","19838","List1A","white","woman","","","","null","","","","","","","","",""
"25348.10000000894","","","survey-text","37","417336","0.0-13.0-3.1","19838","List1A","white","woman","","","","","{""Q0"":""dave is copied by ruth""}","<img src=""stim_listA/copy3.gif""style=""height:400px;""></stim_listA>","is copying","","","","","",""
"null","<div style=""font-size:60px;"">+</div>","","html-keyboard-response","38","417845","0.0-13.0-0.2","19838","List1A","white","woman","","","","null","","","","","","","","",""
"null","<img src=""stim_listA/look8.gif""style=""height:400px;""></stim_listA>","","html-keyboard-response","39","419864","0.0-13.0-1.2","19838","List1A","white","woman","","","","null","","","","","","","","",""
"null","is being looked at by","","html-keyboard-response","40","421872","0.0-13.0-2.2","19838","List1A","white","woman","","","","null","","","","","","","","",""
"11106.70000000298","","","survey-text","41","432985","0.0-13.0-3.2","19838","List1A","white","woman","","","","","{""Q0"":""kate is being looked at by jane""}","<img src=""stim_listA/look8.gif""style=""height:400px;""></stim_listA>","is being looked at by","","","","","",""
"null","<div style=""font-size:60px;"">+</div>","","html-keyboard-response","42","433495","0.0-13.0-0.3","19838","List1A","white","woman","","","","null","","","","","","","","",""
"null","<img src=""stim_listA/oppose4.gif""style=""height:400px;""></stim_listA>","","html-keyboard-response","43","435504","0.0-13.0-1.3","19838","List1A","white","woman","","","","null","","","","","","","","",""
"null","is being opposed by","","html-keyboard-response","44","437509","0.0-13.0-2.3","19838","List1A","white","woman","","","","null","","","","","","","","",""
"11497.5","","","survey-text","45","449014","0.0-13.0-3.3","19838","List1A","white","woman","","","","","{""Q0"":""ruth is being opposed by luke""}","<img src=""stim_listA/oppose4.gif""style=""height:400px;""></stim_listA>","is being opposed by","","","","","",""
"null","<div style=""font-size:60px;"">+</div>","","html-keyboard-response","46","449518","0.0-13.0-0.4","19838","List1A","white","woman","","","","null","","","","","","","","",""
"null","<img src=""stim_listA/copy5.gif""style=""height:400px;""></stim_listA>","","html-keyboard-response","47","451529","0.0-13.0-1.4","19838","List1A","white","woman","","","","null","","","","","","","","",""
"null","is copying","","html-keyboard-response","48","453544","0.0-13.0-2.4","19838","List1A","white","woman","","","","null","","","","","","","","",""
"4761.5999999940395","","","survey-text","49","458322","0.0-13.0-3.4","19838","List1A","white","woman","","","","","{""Q0"":""mike is copying luke""}","<img src=""stim_listA/copy5.gif""style=""height:400px;""></stim_listA>","is copying","","","","","",""
"null","<div style=""font-size:60px;"">+</div>","","html-keyboard-response","50","458832","0.0-13.0-0.5","19838","List1A","white","woman","","","","null","","","","","","","","",""
"null","<img src=""stim_listA/shout5.gif""style=""height:400px;""></stim_listA>","","html-keyboard-response","51","460840","0.0-13.0-1.5","19838","List1A","white","woman","","","","null","","","","","","","","",""
"null","is shouting at","","html-keyboard-response","52","462860","0.0-13.0-2.5","19838","List1A","white","woman","","","","null","","","","","","","","",""
"10559","","","survey-text","53","473425","0.0-13.0-3.5","19838","List1A","white","woman","","","","","{""Q0"":""fred is shouting at luke""}","<img src=""stim_listA/shout5.gif""style=""height:400px;""></stim_listA>","is shouting at","","","","","",""
"null","<div style=""font-size:60px;"">+</div>","","html-keyboard-response","54","473928","0.0-13.0-0.6","19838","List1A","white","woman","","","","null","","","","","","","","",""
"null","<img src=""stim_listA/touch6.gif""style=""height:400px;""></stim_listA>","","html-keyboard-response","55","475943","0.0-13.0-1.6","19838","List1A","white","woman","","","","null","","","","","","","","",""
"null","is being touched by","","html-keyboard-response","56","477956","0.0-13.0-2.6","19838","List1A","white","woman","","","","null","","","","","","","","",""
"8293","","","survey-text","57","486276","0.0-13.0-3.6","19838","List1A","white","woman","","","","","{""Q0"":""fred is being touched by luke""}","<img src=""stim_listA/touch6.gif""style=""height:400px;""></stim_listA>","is being touched by","","","","","",""
"null","<div style=""font-size:60px;"">+</div>","","html-keyboard-response","58","486778","0.0-13.0-0.7","19838","List1A","white","woman","","","","null","","","","","","","","",""
"null","<img src=""stim_listA/touch2.gif""style=""height:400px;""></stim_listA>","","html-keyboard-response","59","488790","0.0-13.0-1.7","19838","List1A","white","woman","","","","null","","","","","","","","",""
"null","is being touched by","","html-keyboard-response","60","490794","0.0-13.0-2.7","19838","List1A","white","woman","","","","null","","","","","","","","",""
"7812.100000008941","","","survey-text","61","498633","0.0-13.0-3.7","19838","List1A","white","woman","","","","","{""Q0"":""beth is being touched by fred""}","<img src=""stim_listA/touch2.gif""style=""height:400px;""></stim_listA>","is being touched by","","","","","",""
"null","<div style=""font-size:60px;"">+</div>","","html-keyboard-response","62","499137","0.0-13.0-0.8","19838","List1A","white","woman","","","","null","","","","","","","","",""
"null","<img src=""stim_listA/copy6.gif""style=""height:400px;""></stim_listA>","","html-keyboard-response","63","501141","0.0-13.0-1.8","19838","List1A","white","woman","","","","null","","","","","","","","",""
"null","is being copied by","","html-keyboard-response","64","503147","0.0-13.0-2.8","19838","List1A","white","woman","","","","null","","","","","","","","",""
"8972.59999999404","","","survey-text","65","512126","0.0-13.0-3.8","19838","List1A","white","woman","","","","","{""Q0"":""fred is being copied by dave""}","<img src=""stim_listA/copy6.gif""style=""height:400px;""></stim_listA>","is being copied by","","","","","",""
"null","<div style=""font-size:60px;"">+</div>","","html-keyboard-response","66","512630","0.0-13.0-0.9","19838","List1A","white","woman","","","","null","","","","","","","","",""
"null","<img src=""stim_listA/touch7.gif""style=""height:400px;""></stim_listA>","","html-keyboard-response","67","514641","0.0-13.0-1.9","19838","List1A","white","woman","","","","null","","","","","","","","",""
"null","is touching","","html-keyboard-response","68","516668","0.0-13.0-2.9","19838","List1A","white","woman","","","","null","","","","","","","","",""
"15534.70000000298","","","survey-text","69","532210","0.0-13.0-3.9","19838","List1A","white","woman","","","","","{""Q0"":""kate is touching jane""}","<img src=""stim_listA/touch7.gif""style=""height:400px;""></stim_listA>","is touching","","","","","",""
"null","<div style=""font-size:60px;"">+</div>","","html-keyboard-response","70","532712","0.0-13.0-0.10","19838","List1A","white","woman","","","","null","","","","","","","","",""
"null","<img src=""stim_listA/challenge7.gif""style=""height:400px;""></stim_listA>","","html-keyboard-response","71","534728","0.0-13.0-1.10","19838","List1A","white","woman","","","","null","","","","","","","","",""
"null","is challenging","","html-keyboard-response","72","536742","0.0-13.0-2.10","19838","List1A","white","woman","","","","null","","","","","","","","",""
"11904.90000000596","","","survey-text","73","548670","0.0-13.0-3.10","19838","List1A","white","woman","","","","","{""Q0"":""kate is challenging ruth""}","<img src=""stim_listA/challenge7.gif""style=""height:400px;""></stim_listA>","is challenging","","","","","",""
"null","<div style=""font-size:60px;"">+</div>","","html-keyboard-response","74","549176","0.0-13.0-0.11","19838","List1A","white","woman","","","","null","","","","","","","","",""
"null","<img src=""stim_listA/seduce1.gif""style=""height:400px;""></stim_listA>","","html-keyboard-response","75","551181","0.0-13.0-1.11","19838","List1A","white","woman","","","","null","","","","","","","","",""
"null","is seducing","","html-keyboard-response","76","553194","0.0-13.0-2.11","19838","List1A","white","woman","","","","null","","","","","","","","",""
"7241.600000008941","","","survey-text","77","560446","0.0-13.0-3.11","19838","List1A","white","woman","","","","","{""Q0"":""kate is seducing fred""}","<img src=""stim_listA/seduce1.gif""style=""height:400px;""></stim_listA>","is seducing","","","","","",""
"null","<div style=""font-size:60px;"">+</div>","","html-keyboard-response","78","560949","0.0-13.0-0.12","19838","List1A","white","woman","","","","null","","","","","","","","",""
"null","<img src=""stim_listA/look4.gif""style=""height:400px;""></stim_listA>","","html-keyboard-response","79","562968","0.0-13.0-1.12","19838","List1A","white","woman","","","","null","","","","","","","","",""
"null","is being looked at by","","html-keyboard-response","80","564984","0.0-13.0-2.12","19838","List1A","white","woman","","","","null","","","","","","","","",""
"20450.59999999404","","","survey-text","81","585441","0.0-13.0-3.12","19838","List1A","white","woman","","","","","{""Q0"":""dave is being looked at by jane""}","<img src=""stim_listA/look4.gif""style=""height:400px;""></stim_listA>","is being looked at by","","","","","",""
"null","<div style=""font-size:60px;"">+</div>","","html-keyboard-response","82","585952","0.0-13.0-0.13","19838","List1A","white","woman","","","","null","","","","","","","","",""
"null","<img src=""stim_listA/look3.gif""style=""height:400px;""></stim_listA>","","html-keyboard-response","83","587966","0.0-13.0-1.13","19838","List1A","white","woman","","","","null","","","","","","","","",""
"null","is looking at","","html-keyboard-response","84","589973","0.0-13.0-2.13","19838","List1A","white","woman","","","","null","","","","","","","","",""
"6305.5999999940395","","","survey-text","85","596285","0.0-13.0-3.13","19838","List1A","white","woman","","","","","{""Q0"":""ruth is looking at luke""}","<img src=""stim_listA/look3.gif""style=""height:400px;""></stim_listA>","is looking at","","","","","",""
"null","<div style=""font-size:60px;"">+</div>","","html-keyboard-response","86","596788","0.0-13.0-0.14","19838","List1A","white","woman","","","","null","","","","","","","","",""
"null","<img src=""stim_listA/kiss8.gif""style=""height:400px;""></stim_listA>","","html-keyboard-response","87","598798","0.0-13.0-1.14","19838","List1A","white","woman","","","","null","","","","","","","","",""
"null","is being kissed by","","html-keyboard-response","88","600801","0.0-13.0-2.14","19838","List1A","white","woman","","","","null","","","","","","","","",""
"17061.70000000298","","","survey-text","89","617890","0.0-13.0-3.14","19838","List1A","white","woman","","","","","{""Q0"":""kate is being kissed by jane""}","<img src=""stim_listA/kiss8.gif""style=""height:400px;""></stim_listA>","is being kissed by","","","","","",""
"null","<div style=""font-size:60px;"">+</div>","","html-keyboard-response","90","618406","0.0-13.0-0.15","19838","List1A","white","woman","","","","null","","","","","","","","",""
"null","<img src=""stim_listA/hug5.gif""style=""height:400px;""></stim_listA>","","html-keyboard-response","91","620417","0.0-13.0-1.15","19838","List1A","white","woman","","","","null","","","","","","","","",""
"null","is hugging","","html-keyboard-response","92","622432","0.0-13.0-2.15","19838","List1A","white","woman","","","","null","","","","","","","","",""
"7807.5","","","survey-text","93","630251","0.0-13.0-3.15","19838","List1A","white","woman","","","","","{""Q0"":""fred is hugged by luke""}","<img src=""stim_listA/hug5.gif""style=""height:400px;""></stim_listA>","is hugging","","","","","",""
"null","<div style=""font-size:60px;"">+</div>","","html-keyboard-response","94","630767","0.0-13.0-0.16","19838","List1A","white","woman","","","","null","","","","","","","","",""
"null","<img src=""stim_listA/look7.gif""style=""height:400px;""></stim_listA>","","html-keyboard-response","95","632770","0.0-13.0-1.16","19838","List1A","white","woman","","","","null","","","","","","","","",""
"null","is looking at","","html-keyboard-response","96","634785","0.0-13.0-2.16","19838","List1A","white","woman","","","","null","","","","","","","","",""
"12966.20000000298","","","survey-text","97","647769","0.0-13.0-3.16","19838","List1A","white","woman","","","","","{""Q0"":""beth is looking at ruth""}","<img src=""stim_listA/look7.gif""style=""height:400px;""></stim_listA>","is looking at","","","","","",""
"null","<div style=""font-size:60px;"">+</div>","","html-keyboard-response","98","648274","0.0-13.0-0.17","19838","List1A","white","woman","","","","null","","","","","","","","",""
"null","<img src=""stim_listA/oppose3.gif""style=""height:400px;""></stim_listA>","","html-keyboard-response","99","650284","0.0-13.0-1.17","19838","List1A","white","woman","","","","null","","","","","","","","",""
"null","is opposing","","html-keyboard-response","100","652287","0.0-13.0-2.17","19838","List1A","white","woman","","","","null","","","","","","","","",""
"8006.5999999940395","","","survey-text","101","660314","0.0-13.0-3.17","19838","List1A","white","woman","","","","","{""Q0"":""jane is opposing dave""}","<img src=""stim_listA/oppose3.gif""style=""height:400px;""></stim_listA>","is opposing","","","","","",""
"null","<div style=""font-size:60px;"">+</div>","","html-keyboard-response","102","660818","0.0-13.0-0.18","19838","List1A","white","woman","","","","null","","","","","","","","",""
"null","<img src=""stim_listA/oppose5.gif""style=""height:400px;""></stim_listA>","","html-keyboard-response","103","662834","0.0-13.0-1.18","19838","List1A","white","woman","","","","null","","","","","","","","",""
"null","is opposing","","html-keyboard-response","104","664845","0.0-13.0-2.18","19838","List1A","white","woman","","","","null","","","","","","","","",""
"7728.9000000059605","","","survey-text","105","672589","0.0-13.0-3.18","19838","List1A","white","woman","","","","","{""Q0"":"" mike is opposing dave""}","<img src=""stim_listA/oppose5.gif""style=""height:400px;""></stim_listA>","is opposing","","","","","",""
"null","<div style=""font-size:60px;"">+</div>","","html-keyboard-response","106","673099","0.0-13.0-0.19","19838","List1A","white","woman","","","","null","","","","","","","","",""
"null","<img src=""stim_listA/challenge2.gif""style=""height:400px;""></stim_listA>","","html-keyboard-response","107","675112","0.0-13.0-1.19","19838","List1A","white","woman","","","","null","","","","","","","","",""
"null","is being challenged by","","html-keyboard-response","108","677115","0.0-13.0-2.19","19838","List1A","white","woman","","","","null","","","","","","","","",""
"8213.60000000894","","","survey-text","109","685337","0.0-13.0-3.19","19838","List1A","white","woman","","","","","{""Q0"":""fred is being challenged by kate""}","<img src=""stim_listA/challenge2.gif""style=""height:400px;""></stim_listA>","is being challenged by","","","","","",""
"12456.29999999702","<img src='img/portrait_matrix_list1.jpg' style='width:900px;height:500px;''></img><p>If you have memorised all the portraits and names and are ready to start, press Continue.</p><p><strong>Please note: Your memory of these faces will be tested 4 times during this experiment.</strong></p>","0","html-button-response","110","697796","0.0-14.0-0.0","19838","List1A","white","woman","","","","","","","","","","","","",""
"2623.2000000029802","<img src=""portrait/WW1.jpg""style=""height:400px;""></img>","1","html-button-response","111","701423","0.0-14.0-1.0","19838","List1A","white","woman","","true","1","","","","","","","","","",""
"null","CORRECT","","html-keyboard-response","112","702943","0.0-14.0-2.0-0.0","19838","List1A","white","woman","","","","null","","","","","","","","",""
"2592.5","<img src=""portrait/WM2.jpg""style=""height:400px;""></img>","7","html-button-response","113","705539","0.0-14.0-4.0","19838","List1A","white","woman","","true","7","","","","","","","","","",""
"null","CORRECT","","html-keyboard-response","114","707052","0.0-14.0-5.0-0.0","19838","List1A","white","woman","","","","null","","","","","","","","",""
"2077.4000000059605","<img src=""portrait/BM1.jpg""style=""height:400px;""></img>","4","html-button-response","115","709137","0.0-14.0-7.0","19838","List1A","white","woman","","true","4","","","","","","","","","",""
"null","CORRECT","","html-keyboard-response","116","710662","0.0-14.0-8.0-0.0","19838","List1A","white","woman","","","","null","","","","","","","","",""
"2323.2999999970198","<img src=""portrait/BM2.jpg""style=""height:400px;""></img>","5","html-button-response","117","712989","0.0-14.0-10.0","19838","List1A","white","woman","","true","5","","","","","","","","","",""
"null","CORRECT","","html-keyboard-response","118","714509","0.0-14.0-11.0-0.0","19838","List1A","white","woman","","","","null","","","","","","","","",""
"5763.5999999940395","<img src=""portrait/BW2.jpg""style=""height:400px;""></img>","2","html-button-response","119","720276","0.0-14.0-13.0","19838","List1A","white","woman","","true","2","","","","","","","","","",""
"null","CORRECT","","html-keyboard-response","120","721782","0.0-14.0-14.0-0.0","19838","List1A","white","woman","","","","null","","","","","","","","",""
"4115","<img src=""portrait/BW1.jpg""style=""height:400px;""></img>","0","html-button-response","121","725900","0.0-14.0-16.0","19838","List1A","white","woman","","true","0","","","","","","","","","",""
"null","CORRECT","","html-keyboard-response","122","727411","0.0-14.0-17.0-0.0","19838","List1A","white","woman","","","","null","","","","","","","","",""
"1911.2999999970198","<img src=""portrait/WW2.jpg""style=""height:400px;""></img>","3","html-button-response","123","729325","0.0-14.0-19.0","19838","List1A","white","woman","","true","3","","","","","","","","","",""
"null","CORRECT","","html-keyboard-response","124","730838","0.0-14.0-20.0-0.0","19838","List1A","white","woman","","","","null","","","","","","","","",""
"2237.4000000059605","<img src=""portrait/WM1.jpg""style=""height:400px;""></img>","6","html-button-response","125","733078","0.0-14.0-22.0","19838","List1A","white","woman","","true","6","","","","","","","","","",""
"null","CORRECT","","html-keyboard-response","126","734594","0.0-14.0-23.0-0.0","19838","List1A","white","woman","","","","null","","","","","","","","",""
"1756.8999999910593","<p>You got 8 out of 8 right first time. Press Continue.</p>","0","html-button-response","127","736354","0.0-14.0-25.0","19838","List1A","white","woman","","","","","","","","","","","","",""
"null","<div style=""font-size:60px;"">+</div>","","html-keyboard-response","128","737885","0.0-15.0-0.0","19838","List1A","white","woman","","","","null","","","","","","","","",""
"null","<img src=""stim_listA/hug2.gif""style=""height:400px;""></stim_listA>","","html-keyboard-response","129","739897","0.0-15.0-1.0","19838","List1A","white","woman","","","","null","","","","","","","","",""
"null","is being hugged by","","html-keyboard-response","130","741905","0.0-15.0-2.0","19838","List1A","white","woman","","","","null","","","","","","","","",""
"7638.29999999702","","","survey-text","131","749564","0.0-15.0-3.0","19838","List1A","white","woman","","","","","{""Q0"":""kate is being hugged by mike""}","<img src=""stim_listA/hug2.gif""style=""height:400px;""></stim_listA>","is being hugged by","","","","","",""
"null","<div style=""font-size:60px;"">+</div>","","html-keyboard-response","132","750071","0.0-15.0-0.1","19838","List1A","white","woman","","","","null","","","","","","","","",""
"null","<img src=""stim_listA/oppose8.gif""style=""height:400px;""></stim_listA>","","html-keyboard-response","133","752074","0.0-15.0-1.1","19838","List1A","white","woman","","","","null","","","","","","","","",""
"null","is being opposed by","","html-keyboard-response","134","754086","0.0-15.0-2.1","19838","List1A","white","woman","","","","null","","","","","","","","",""
"11508.40000000596","","","survey-text","135","765604","0.0-15.0-3.1","19838","List1A","white","woman","","","","","{""Q0"":""beth is being opposed by ruth""}","<img src=""stim_listA/oppose8.gif""style=""height:400px;""></stim_listA>","is being opposed by","","","","","",""
"null","<div style=""font-size:60px;"">+</div>","","html-keyboard-response","136","766107","0.0-15.0-0.2","19838","List1A","white","woman","","","","null","","","","","","","","",""
"null","<img src=""stim_listA/kiss6.gif""style=""height:400px;""></stim_listA>","","html-keyboard-response","137","768123","0.0-15.0-1.2","19838","List1A","white","woman","","","","null","","","","","","","","",""
"null","is being kissed by","","html-keyboard-response","138","770130","0.0-15.0-2.2","19838","List1A","white","woman","","","","null","","","","","","","","",""
"7953.5","","","survey-text","139","778109","0.0-15.0-3.2","19838","List1A","white","woman","","","","","{""Q0"":""mike is being kissed by dave""}","<img src=""stim_listA/kiss6.gif""style=""height:400px;""></stim_listA>","is being kissed by","","","","","",""
"null","<div style=""font-size:60px;"">+</div>","","html-keyboard-response","140","778614","0.0-15.0-0.3","19838","List1A","white","woman","","","","null","","","","","","","","",""
"null","<img src=""stim_listA/seduce3.gif""style=""height:400px;""></stim_listA>","","html-keyboard-response","141","780619","0.0-15.0-1.3","19838","List1A","white","woman","","","","null","","","","","","","","",""
"null","is seducing","","html-keyboard-response","142","782628","0.0-15.0-2.3","19838","List1A","white","woman","","","","null","","","","","","","","",""
"6868","","","survey-text","143","789503","0.0-15.0-3.3","19838","List1A","white","woman","","","","","{""Q0"":""luke is seducing jane""}","<img src=""stim_listA/seduce3.gif""style=""height:400px;""></stim_listA>","is seducing","","","","","",""
"null","<div style=""font-size:60px;"">+</div>","","html-keyboard-response","144","790008","0.0-15.0-0.4","19838","List1A","white","woman","","","","null","","","","","","","","",""
"null","<img src=""stim_listA/look2.gif""style=""height:400px;""></stim_listA>","","html-keyboard-response","145","792017","0.0-15.0-1.4","19838","List1A","white","woman","","","","null","","","","","","","","",""
"null","is being looked at by","","html-keyboard-response","146","794021","0.0-15.0-2.4","19838","List1A","white","woman","","","","null","","","","","","","","",""
"9297.90000000596","","","survey-text","147","803327","0.0-15.0-3.4","19838","List1A","white","woman","","","","","{""Q0"":""kate is being looked at by mike""}","<img src=""stim_listA/look2.gif""style=""height:400px;""></stim_listA>","is being looked at by","","","","","",""
"null","<div style=""font-size:60px;"">+</div>","","html-keyboard-response","148","803829","0.0-15.0-0.5","19838","List1A","white","woman","","","","null","","","","","","","","",""
"null","<img src=""stim_listA/shout7.gif""style=""height:400px;""></stim_listA>","","html-keyboard-response","149","805847","0.0-15.0-1.5","19838","List1A","white","woman","","","","null","","","","","","","","",""
"null","is shouting at","","html-keyboard-response","150","807863","0.0-15.0-2.5","19838","List1A","white","woman","","","","null","","","","","","","","",""
"5749.29999999702","","","survey-text","151","813640","0.0-15.0-3.5","19838","List1A","white","woman","","","","","{""Q0"":""beth is shouting at ruth""}","<img src=""stim_listA/shout7.gif""style=""height:400px;""></stim_listA>","is shouting at","","","","","",""
"null","<div style=""font-size:60px;"">+</div>","","html-keyboard-response","152","814153","0.0-15.0-0.6","19838","List1A","white","woman","","","","null","","","","","","","","",""
"null","<img src=""stim_listA/greet7.gif""style=""height:400px;""></stim_listA>","","html-keyboard-response","153","816168","0.0-15.0-1.6","19838","List1A","white","woman","","","","null","","","","","","","","",""
"null","is greeting","","html-keyboard-response","154","818174","0.0-15.0-2.6","19838","List1A","white","woman","","","","null","","","","","","","","",""
"10619.29999999702","","","survey-text","155","828799","0.0-15.0-3.6","19838","List1A","white","woman","","","","","{""Q0"":""kate is greeting ruth""}","<img src=""stim_listA/greet7.gif""style=""height:400px;""></stim_listA>","is greeting","","","","","",""
"null","<div style=""font-size:60px;"">+</div>","","html-keyboard-response","156","829303","0.0-15.0-0.7","19838","List1A","white","woman","","","","null","","","","","","","","",""
"null","<img src=""stim_listA/hug7.gif""style=""height:400px;""></stim_listA>","","html-keyboard-response","157","831308","0.0-15.0-1.7","19838","List1A","white","woman","","","","null","","","","","","","","",""
"null","is hugging","","html-keyboard-response","158","833318","0.0-15.0-2.7","19838","List1A","white","woman","","","","null","","","","","","","","",""
"7963.79999999702","","","survey-text","159","841290","0.0-15.0-3.7","19838","List1A","white","woman","","","","","{""Q0"":""beth is hugging ruth""}","<img src=""stim_listA/hug7.gif""style=""height:400px;""></stim_listA>","is hugging","","","","","",""
"null","<div style=""font-size:60px;"">+</div>","","html-keyboard-response","160","841802","0.0-15.0-0.8","19838","List1A","white","woman","","","","null","","","","","","","","",""
"null","<img src=""stim_listA/touch1.gif""style=""height:400px;""></stim_listA>","","html-keyboard-response","161","843808","0.0-15.0-1.8","19838","List1A","white","woman","","","","null","","","","","","","","",""
"null","is touching","","html-keyboard-response","162","845813","0.0-15.0-2.8","19838","List1A","white","woman","","","","null","","","","","","","","",""
"4786.9000000059605","","","survey-text","163","850619","0.0-15.0-3.8","19838","List1A","white","woman","","","","","{""Q0"":""mike is touching kate""}","<img src=""stim_listA/touch1.gif""style=""height:400px;""></stim_listA>","is touching","","","","","",""
"null","<div style=""font-size:60px;"">+</div>","","html-keyboard-response","164","851123","0.0-15.0-0.9","19838","List1A","white","woman","","","","null","","","","","","","","",""
"null","<img src=""stim_listA/shout1.gif""style=""height:400px;""></stim_listA>","","html-keyboard-response","165","853131","0.0-15.0-1.9","19838","List1A","white","woman","","","","null","","","","","","","","",""
"null","is shouting at","","html-keyboard-response","166","855139","0.0-15.0-2.9","19838","List1A","white","woman","","","","null","","","","","","","","",""
"7040.5","","","survey-text","167","862201","0.0-15.0-3.9","19838","List1A","white","woman","","","","","{""Q0"":""fred is shouting at beth""}","<img src=""stim_listA/shout1.gif""style=""height:400px;""></stim_listA>","is shouting at","","","","","",""
"null","<div style=""font-size:60px;"">+</div>","","html-keyboard-response","168","862704","0.0-15.0-0.10","19838","List1A","white","woman","","","","null","","","","","","","","",""
"null","<img src=""stim_listA/kiss2.gif""style=""height:400px;""></stim_listA>","","html-keyboard-response","169","864719","0.0-15.0-1.10","19838","List1A","white","woman","","","","null","","","","","","","","",""
"null","is being kissed by","","html-keyboard-response","170","866724","0.0-15.0-2.10","19838","List1A","white","woman","","","","null","","","","","","","","",""
"7828.9000000059605","","","survey-text","171","874562","0.0-15.0-3.10","19838","List1A","white","woman","","","","","{""Q0"":""kate is being kissed by mike""}","<img src=""stim_listA/kiss2.gif""style=""height:400px;""></stim_listA>","is being kissed by","","","","","",""
"null","<div style=""font-size:60px;"">+</div>","","html-keyboard-response","172","875065","0.0-15.0-0.11","19838","List1A","white","woman","","","","null","","","","","","","","",""
"null","<img src=""stim_listA/kiss7.gif""style=""height:400px;""></stim_listA>","","html-keyboard-response","173","877077","0.0-15.0-1.11","19838","List1A","white","woman","","","","null","","","","","","","","",""
"null","is kissing","","html-keyboard-response","174","879094","0.0-15.0-2.11","19838","List1A","white","woman","","","","null","","","","","","","","",""
"7826.4000000059605","","","survey-text","175","886928","0.0-15.0-3.11","19838","List1A","white","woman","","","","","{""Q0"":""ruth is kissing beth""}","<img src=""stim_listA/kiss7.gif""style=""height:400px;""></stim_listA>","is kissing","","","","","",""
"null","<div style=""font-size:60px;"">+</div>","","html-keyboard-response","176","887433","0.0-15.0-0.12","19838","List1A","white","woman","","","","null","","","","","","","","",""
"null","<img src=""stim_listA/challenge5.gif""style=""height:400px;""></stim_listA>","","html-keyboard-response","177","889447","0.0-15.0-1.12","19838","List1A","white","woman","","","","null","","","","","","","","",""
"null","is challenging","","html-keyboard-response","178","891462","0.0-15.0-2.12","19838","List1A","white","woman","","","","null","","","","","","","","",""
"6733.0999999940395","","","survey-text","179","898217","0.0-15.0-3.12","19838","List1A","white","woman","","","","","{""Q0"":""mike is challenging luke""}","<img src=""stim_listA/challenge5.gif""style=""height:400px;""></stim_listA>","is challenging","","","","","",""
"null","<div style=""font-size:60px;"">+</div>","","html-keyboard-response","180","898720","0.0-15.0-0.13","19838","List1A","white","woman","","","","null","","","","","","","","",""
"null","<img src=""stim_listA/touch4.gif""style=""height:400px;""></stim_listA>","","html-keyboard-response","181","900733","0.0-15.0-1.13","19838","List1A","white","woman","","","","null","","","","","","","","",""
"null","is being touched by","","html-keyboard-response","182","902743","0.0-15.0-2.13","19838","List1A","white","woman","","","","null","","","","","","","","",""
"10461.29999999702","","","survey-text","183","913228","0.0-15.0-3.13","19838","List1A","white","woman","","","","","{""Q0"":""luke is touching ruth""}","<img src=""stim_listA/touch4.gif""style=""height:400px;""></stim_listA>","is being touched by","","","","","",""
"null","<div style=""font-size:60px;"">+</div>","","html-keyboard-response","184","913736","0.0-15.0-0.14","19838","List1A","white","woman","","","","null","","","","","","","","",""
"null","<img src=""stim_listA/challenge4.gif""style=""height:400px;""></stim_listA>","","html-keyboard-response","185","915751","0.0-15.0-1.14","19838","List1A","white","woman","","","","null","","","","","","","","",""
"null","is being challenged by","","html-keyboard-response","186","917766","0.0-15.0-2.14","19838","List1A","white","woman","","","","null","","","","","","","","",""
"16514","","","survey-text","187","934288","0.0-15.0-3.14","19838","List1A","white","woman","","","","","{""Q0"":""jane is being touched by luke""}","<img src=""stim_listA/challenge4.gif""style=""height:400px;""></stim_listA>","is being challenged by","","","","","",""
"null","<div style=""font-size:60px;"">+</div>","","html-keyboard-response","188","934792","0.0-15.0-0.15","19838","List1A","white","woman","","","","null","","","","","","","","",""
"null","<img src=""stim_listA/shout2.gif""style=""height:400px;""></stim_listA>","","html-keyboard-response","189","936797","0.0-15.0-1.15","19838","List1A","white","woman","","","","null","","","","","","","","",""
"null","is being shouted at by","","html-keyboard-response","190","938812","0.0-15.0-2.15","19838","List1A","white","woman","","","","null","","","","","","","","",""
"9132","","","survey-text","191","947961","0.0-15.0-3.15","19838","List1A","white","woman","","","","","{""Q0"":""kate is being shouted at by mike""}","<img src=""stim_listA/shout2.gif""style=""height:400px;""></stim_listA>","is being shouted at by","","","","","",""
"null","<div style=""font-size:60px;"">+</div>","","html-keyboard-response","192","948466","0.0-15.0-0.16","19838","List1A","white","woman","","","","null","","","","","","","","",""
"null","<img src=""stim_listA/seduce8.gif""style=""height:400px;""></stim_listA>","","html-keyboard-response","193","950485","0.0-15.0-1.16","19838","List1A","white","woman","","","","null","","","","","","","","",""
"null","is being seduced by","","html-keyboard-response","194","952502","0.0-15.0-2.16","19838","List1A","white","woman","","","","null","","","","","","","","",""
"8711","","","survey-text","195","961239","0.0-15.0-3.16","19838","List1A","white","woman","","","","","{""Q0"":""kate is being seduced by ruth""}","<img src=""stim_listA/seduce8.gif""style=""height:400px;""></stim_listA>","is being seduced by","","","","","",""
"null","<div style=""font-size:60px;"">+</div>","","html-keyboard-response","196","961749","0.0-15.0-0.17","19838","List1A","white","woman","","","","null","","","","","","","","",""
"null","<img src=""stim_listA/seduce6.gif""style=""height:400px;""></stim_listA>","","html-keyboard-response","197","963752","0.0-15.0-1.17","19838","List1A","white","woman","","","","null","","","","","","","","",""
"null","is being seduced by","","html-keyboard-response","198","965767","0.0-15.0-2.17","19838","List1A","white","woman","","","","null","","","","","","","","",""
"6903.5","","","survey-text","199","972684","0.0-15.0-3.17","19838","List1A","white","woman","","","","","{""Q0"":""luke is being seduced by mike""}","<img src=""stim_listA/seduce6.gif""style=""height:400px;""></stim_listA>","is being seduced by","","","","","",""
"null","<div style=""font-size:60px;"">+</div>","","html-keyboard-response","200","973187","0.0-15.0-0.18","19838","List1A","white","woman","","","","null","","","","","","","","",""
"null","<img src=""stim_listA/seduce5.gif""style=""height:400px;""></stim_listA>","","html-keyboard-response","201","975202","0.0-15.0-1.18","19838","List1A","white","woman","","","","null","","","","","","","","",""
"null","is seducing","","html-keyboard-response","202","977220","0.0-15.0-2.18","19838","List1A","white","woman","","","","null","","","","","","","","",""
"7206.600000008941","","","survey-text","203","984434","0.0-15.0-3.18","19838","List1A","white","woman","","","","","{""Q0"":""fred is seducing dave""}","<img src=""stim_listA/seduce5.gif""style=""height:400px;""></stim_listA>","is seducing","","","","","",""
"null","<div style=""font-size:60px;"">+</div>","","html-keyboard-response","204","984936","0.0-15.0-0.19","19838","List1A","white","woman","","","","null","","","","","","","","",""
"null","<img src=""stim_listA/look1.gif""style=""height:400px;""></stim_listA>","","html-keyboard-response","205","986942","0.0-15.0-1.19","19838","List1A","white","woman","","","","null","","","","","","","","",""
"null","is looking at","","html-keyboard-response","206","988949","0.0-15.0-2.19","19838","List1A","white","woman","","","","null","","","","","","","","",""
"6583.300000011921","","","survey-text","207","995547","0.0-15.0-3.19","19838","List1A","white","woman","","","","","{""Q0"":""fred is looking at beth""}","<img src=""stim_listA/look1.gif""style=""height:400px;""></stim_listA>","is looking at","","","","","",""
"10899.5","<img src='img/portrait_matrix_list1.jpg' style='width:900px;height:500px;''></img><p>If you have memorised all the portraits and names and are ready to start, press Continue.</p><p><strong>Please note: Your memory of these faces will be tested 4 times during this experiment.</strong></p>","0","html-button-response","208","1006449","0.0-16.0-0.0","19838","List1A","white","woman","","","","","","","","","","","","",""
"3457.7999999970198","<img src=""portrait/WW1.jpg""style=""height:400px;""></img>","1","html-button-response","209","1010916","0.0-16.0-1.0","19838","List1A","white","woman","","true","1","","","","","","","","","",""
"null","CORRECT","","html-keyboard-response","210","1012450","0.0-16.0-2.0-0.0","19838","List1A","white","woman","","","","null","","","","","","","","",""
"2736.5","<img src=""portrait/WM1.jpg""style=""height:400px;""></img>","6","html-button-response","211","1015189","0.0-16.0-4.0","19838","List1A","white","woman","","true","6","","","","","","","","","",""
"null","CORRECT","","html-keyboard-response","212","1016701","0.0-16.0-5.0-0.0","19838","List1A","white","woman","","","","null","","","","","","","","",""
"2716.7999999970198","<img src=""portrait/BW1.jpg""style=""height:400px;""></img>","0","html-button-response","213","1019421","0.0-16.0-7.0","19838","List1A","white","woman","","true","0","","","","","","","","","",""
"null","CORRECT","","html-keyboard-response","214","1020949","0.0-16.0-8.0-0.0","19838","List1A","white","woman","","","","null","","","","","","","","",""
"2141.9000000059605","<img src=""portrait/BM1.jpg""style=""height:400px;""></img>","4","html-button-response","215","1023094","0.0-16.0-10.0","19838","List1A","white","woman","","true","4","","","","","","","","","",""
"null","CORRECT","","html-keyboard-response","216","1024628","0.0-16.0-11.0-0.0","19838","List1A","white","woman","","","","null","","","","","","","","",""
"2174.7000000029802","<img src=""portrait/BM2.jpg""style=""height:400px;""></img>","5","html-button-response","217","1026806","0.0-16.0-13.0","19838","List1A","white","woman","","true","5","","","","","","","","","",""
"null","CORRECT","","html-keyboard-response","218","1028323","0.0-16.0-14.0-0.0","19838","List1A","white","woman","","","","null","","","","","","","","",""
"2216.6000000089407","<img src=""portrait/WM2.jpg""style=""height:400px;""></img>","7","html-button-response","219","1030542","0.0-16.0-16.0","19838","List1A","white","woman","","true","7","","","","","","","","","",""
"null","CORRECT","","html-keyboard-response","220","1032060","0.0-16.0-17.0-0.0","19838","List1A","white","woman","","","","null","","","","","","","","",""
"1693.800000011921","<img src=""portrait/WW2.jpg""style=""height:400px;""></img>","3","html-button-response","221","1033757","0.0-16.0-19.0","19838","List1A","white","woman","","true","3","","","","","","","","","",""
"null","CORRECT","","html-keyboard-response","222","1035275","0.0-16.0-20.0-0.0","19838","List1A","white","woman","","","","null","","","","","","","","",""
"3101","<img src=""portrait/BW2.jpg""style=""height:400px;""></img>","2","html-button-response","223","1038379","0.0-16.0-22.0","19838","List1A","white","woman","","true","2","","","","","","","","","",""
"null","CORRECT","","html-keyboard-response","224","1039899","0.0-16.0-23.0-0.0","19838","List1A","white","woman","","","","null","","","","","","","","",""
"6351.29999999702","<p>You got 8 out of 8 right first time. Press Continue.</p>","0","html-button-response","225","1046254","0.0-16.0-25.0","19838","List1A","white","woman","","","","","","","","","","","","",""
"null","<div style=""font-size:60px;"">+</div>","","html-keyboard-response","226","1047762","0.0-17.0-0.0","19838","List1A","white","woman","","","","null","","","","","","","","",""
"null","<img src=""stim_listA/kiss4.gif""style=""height:400px;""></stim_listA>","","html-keyboard-response","227","1049777","0.0-17.0-1.0","19838","List1A","white","woman","","","","null","","","","","","","","",""
"null","is being kissed by","","html-keyboard-response","228","1051786","0.0-17.0-2.0","19838","List1A","white","woman","","","","null","","","","","","","","",""
"7331.4000000059605","","","survey-text","229","1059126","0.0-17.0-3.0","19838","List1A","white","woman","","","","","{""Q0"":""jane is being kissed by dave""}","<img src=""stim_listA/kiss4.gif""style=""height:400px;""></stim_listA>","is being kissed by","","","","","",""
"null","<div style=""font-size:60px;"">+</div>","","html-keyboard-response","230","1059634","0.0-17.0-0.1","19838","List1A","white","woman","","","","null","","","","","","","","",""
"null","<img src=""stim_listA/hug6.gif""style=""height:400px;""></stim_listA>","","html-keyboard-response","231","1061644","0.0-17.0-1.1","19838","List1A","white","woman","","","","null","","","","","","","","",""
"null","is being hugged by","","html-keyboard-response","232","1063662","0.0-17.0-2.1","19838","List1A","white","woman","","","","null","","","","","","","","",""
"6773.9000000059605","","","survey-text","233","1070443","0.0-17.0-3.1","19838","List1A","white","woman","","","","","{""Q0"":""dave is being hugged by mike""}","<img src=""stim_listA/hug6.gif""style=""height:400px;""></stim_listA>","is being hugged by","","","","","",""
"null","<div style=""font-size:60px;"">+</div>","","html-keyboard-response","234","1070946","0.0-17.0-0.2","19838","List1A","white","woman","","","","null","","","","","","","","",""
"null","<img src=""stim_listA/touch3.gif""style=""height:400px;""></stim_listA>","","html-keyboard-response","235","1072958","0.0-17.0-1.2","19838","List1A","white","woman","","","","null","","","","","","","","",""
"null","is touching","","html-keyboard-response","236","1074974","0.0-17.0-2.2","19838","List1A","white","woman","","","","null","","","","","","","","",""
"4765.600000008941","","","survey-text","237","1079748","0.0-17.0-3.2","19838","List1A","white","woman","","","","","{""Q0"":""dave is touching jane""}","<img src=""stim_listA/touch3.gif""style=""height:400px;""></stim_listA>","is touching","","","","","",""
"null","<div style=""font-size:60px;"">+</div>","","html-keyboard-response","238","1080260","0.0-17.0-0.3","19838","List1A","white","woman","","","","null","","","","","","","","",""
"null","<img src=""stim_listA/hug1.gif""style=""height:400px;""></stim_listA>","","html-keyboard-response","239","1082276","0.0-17.0-1.3","19838","List1A","white","woman","","","","null","","","","","","","","",""
"null","is hugging","","html-keyboard-response","240","1084286","0.0-17.0-2.3","19838","List1A","white","woman","","","","null","","","","","","","","",""
"4937.20000000298","","","survey-text","241","1089243","0.0-17.0-3.3","19838","List1A","white","woman","","","","","{""Q0"":""fred is hugging beth""}","<img src=""stim_listA/hug1.gif""style=""height:400px;""></stim_listA>","is hugging","","","","","",""
"null","<div style=""font-size:60px;"">+</div>","","html-keyboard-response","242","1089750","0.0-17.0-0.4","19838","List1A","white","woman","","","","null","","","","","","","","",""
"null","<img src=""stim_listA/kiss5.gif""style=""height:400px;""></stim_listA>","","html-keyboard-response","243","1091768","0.0-17.0-1.4","19838","List1A","white","woman","","","","null","","","","","","","","",""
"null","is kissing","","html-keyboard-response","244","1093776","0.0-17.0-2.4","19838","List1A","white","woman","","","","null","","","","","","","","",""
"4977.4000000059605","","","survey-text","245","1098761","0.0-17.0-3.4","19838","List1A","white","woman","","","","","{""Q0"":""fred is kissing luke""}","<img src=""stim_listA/kiss5.gif""style=""height:400px;""></stim_listA>","is kissing","","","","","",""
"null","<div style=""font-size:60px;"">+</div>","","html-keyboard-response","246","1099271","0.0-17.0-0.5","19838","List1A","white","woman","","","","null","","","","","","","","",""
"null","<img src=""stim_listA/copy7.gif""style=""height:400px;""></stim_listA>","","html-keyboard-response","247","1101280","0.0-17.0-1.5","19838","List1A","white","woman","","","","null","","","","","","","","",""
"null","is copying","","html-keyboard-response","248","1103291","0.0-17.0-2.5","19838","List1A","white","woman","","","","null","","","","","","","","",""
"5409.70000000298","","","survey-text","249","1108721","0.0-17.0-3.5","19838","List1A","white","woman","","","","","{""Q0"":""kate is copying ruth""}","<img src=""stim_listA/copy7.gif""style=""height:400px;""></stim_listA>","is copying","","","","","",""
"null","<div style=""font-size:60px;"">+</div>","","html-keyboard-response","250","1109236","0.0-17.0-0.6","19838","List1A","white","woman","","","","null","","","","","","","","",""
"null","<img src=""stim_listA/shout6.gif""style=""height:400px;""></stim_listA>","","html-keyboard-response","251","1111246","0.0-17.0-1.6","19838","List1A","white","woman","","","","null","","","","","","","","",""
"null","is being shouted at by","","html-keyboard-response","252","1113254","0.0-17.0-2.6","19838","List1A","white","woman","","","","null","","","","","","","","",""
"6809.9000000059605","","","survey-text","253","1120085","0.0-17.0-3.6","19838","List1A","white","woman","","","","","{""Q0"":""dave is being shouted at by mike""}","<img src=""stim_listA/shout6.gif""style=""height:400px;""></stim_listA>","is being shouted at by","","","","","",""
"null","<div style=""font-size:60px;"">+</div>","","html-keyboard-response","254","1120588","0.0-17.0-0.7","19838","List1A","white","woman","","","","null","","","","","","","","",""
"null","<img src=""stim_listA/challenge6.gif""style=""height:400px;""></stim_listA>","","html-keyboard-response","255","1122604","0.0-17.0-1.7","19838","List1A","white","woman","","","","null","","","","","","","","",""
"null","is being challenged by","","html-keyboard-response","256","1124619","0.0-17.0-2.7","19838","List1A","white","woman","","","","null","","","","","","","","",""
"7156.5","","","survey-text","257","1131804","0.0-17.0-3.7","19838","List1A","white","woman","","","","","{""Q0"":""dave is being challenged by fred""}","<img src=""stim_listA/challenge6.gif""style=""height:400px;""></stim_listA>","is being challenged by","","","","","",""
"null","<div style=""font-size:60px;"">+</div>","","html-keyboard-response","258","1132317","0.0-17.0-0.8","19838","List1A","white","woman","","","","null","","","","","","","","",""
"null","<img src=""stim_listA/greet3.gif""style=""height:400px;""></stim_listA>","","html-keyboard-response","259","1134327","0.0-17.0-1.8","19838","List1A","white","woman","","","","null","","","","","","","","",""
"null","is greeting","","html-keyboard-response","260","1136344","0.0-17.0-2.8","19838","List1A","white","woman","","","","null","","","","","","","","",""
"6401.0999999940395","","","survey-text","261","1142751","0.0-17.0-3.8","19838","List1A","white","woman","","","","","{""Q0"":""dave is greeting ruth""}","<img src=""stim_listA/greet3.gif""style=""height:400px;""></stim_listA>","is greeting","","","","","",""
"null","<div style=""font-size:60px;"">+</div>","","html-keyboard-response","262","1143253","0.0-17.0-0.9","19838","List1A","white","woman","","","","null","","","","","","","","",""
"null","<img src=""stim_listA/kiss3.gif""style=""height:400px;""></stim_listA>","","html-keyboard-response","263","1145259","0.0-17.0-1.9","19838","List1A","white","woman","","","","null","","","","","","","","",""
"null","is kissing","","html-keyboard-response","264","1147264","0.0-17.0-2.9","19838","List1A","white","woman","","","","null","","","","","","","","",""
"5760.5","","","survey-text","265","1153039","0.0-17.0-3.9","19838","List1A","white","woman","","","","","{""Q0"":""luke is kissing ruth""}","<img src=""stim_listA/kiss3.gif""style=""height:400px;""></stim_listA>","is kissing","","","","","",""
"null","<div style=""font-size:60px;"">+</div>","","html-keyboard-response","266","1153562","0.0-17.0-0.10","19838","List1A","white","woman","","","","null","","","","","","","","",""
"null","<img src=""stim_listA/challenge3.gif""style=""height:400px;""></stim_listA>","","html-keyboard-response","267","1155567","0.0-17.0-1.10","19838","List1A","white","woman","","","","null","","","","","","","","",""
"null","is challenging","","html-keyboard-response","268","1157582","0.0-17.0-2.10","19838","List1A","white","woman","","","","null","","","","","","","","",""
"7384","","","survey-text","269","1164975","0.0-17.0-3.10","19838","List1A","white","woman","","","","","{""Q0"":""dave is challenging ruth""}","<img src=""stim_listA/challenge3.gif""style=""height:400px;""></stim_listA>","is challenging","","","","","",""
"null","<div style=""font-size:60px;"">+</div>","","html-keyboard-response","270","1165479","0.0-17.0-0.11","19838","List1A","white","woman","","","","null","","","","","","","","",""
"null","<img src=""stim_listA/challenge1.gif""style=""height:400px;""></stim_listA>","","html-keyboard-response","271","1167485","0.0-17.0-1.11","19838","List1A","white","woman","","","","null","","","","","","","","",""
"null","is challenging","","html-keyboard-response","272","1169490","0.0-17.0-2.11","19838","List1A","white","woman","","","","null","","","","","","","","",""
"5963.79999999702","","","survey-text","273","1175473","0.0-17.0-3.11","19838","List1A","white","woman","","","","","{""Q0"":""mike is challenging beth""}","<img src=""stim_listA/challenge1.gif""style=""height:400px;""></stim_listA>","is challenging","","","","","",""
"null","<div style=""font-size:60px;"">+</div>","","html-keyboard-response","274","1175979","0.0-17.0-0.12","19838","List1A","white","woman","","","","null","","","","","","","","",""
"null","<img src=""stim_listA/touch5.gif""style=""height:400px;""></stim_listA>","","html-keyboard-response","275","1177984","0.0-17.0-1.12","19838","List1A","white","woman","","","","null","","","","","","","","",""
"null","is touching","","html-keyboard-response","276","1179995","0.0-17.0-2.12","19838","List1A","white","woman","","","","null","","","","","","","","",""
"4510.399999991059","","","survey-text","277","1184522","0.0-17.0-3.12","19838","List1A","white","woman","","","","","{""Q0"":""mike is touching dave""}","<img src=""stim_listA/touch5.gif""style=""height:400px;""></stim_listA>","is touching","","","","","",""
"null","<div style=""font-size:60px;"">+</div>","","html-keyboard-response","278","1185041","0.0-17.0-0.13","19838","List1A","white","woman","","","","null","","","","","","","","",""
"null","<img src=""stim_listA/greet8.gif""style=""height:400px;""></stim_listA>","","html-keyboard-response","279","1187058","0.0-17.0-1.13","19838","List1A","white","woman","","","","null","","","","","","","","",""
"null","is being greeted by","","html-keyboard-response","280","1189072","0.0-17.0-2.13","19838","List1A","white","woman","","","","null","","","","","","","","",""
"6135.20000000298","","","survey-text","281","1195230","0.0-17.0-3.13","19838","List1A","white","woman","","","","","{""Q0"":""jane is being greeted by beth""}","<img src=""stim_listA/greet8.gif""style=""height:400px;""></stim_listA>","is being greeted by","","","","","",""
"null","<div style=""font-size:60px;"">+</div>","","html-keyboard-response","282","1195742","0.0-17.0-0.14","19838","List1A","white","woman","","","","null","","","","","","","","",""
"null","<img src=""stim_listA/look6.gif""style=""height:400px;""></stim_listA>","","html-keyboard-response","283","1197750","0.0-17.0-1.14","19838","List1A","white","woman","","","","null","","","","","","","","",""
"null","is being looked at by","","html-keyboard-response","284","1199761","0.0-17.0-2.14","19838","List1A","white","woman","","","","null","","","","","","","","",""
"7653.20000000298","","","survey-text","285","1207422","0.0-17.0-3.14","19838","List1A","white","woman","","","","","{""Q0"":""dave is being looked at by mike""}","<img src=""stim_listA/look6.gif""style=""height:400px;""></stim_listA>","is being looked at by","","","","","",""
"null","<div style=""font-size:60px;"">+</div>","","html-keyboard-response","286","1207926","0.0-17.0-0.15","19838","List1A","white","woman","","","","null","","","","","","","","",""
"null","<img src=""stim_listA/copy8.gif""style=""height:400px;""></stim_listA>","","html-keyboard-response","287","1209944","0.0-17.0-1.15","19838","List1A","white","woman","","","","null","","","","","","","","",""
"null","is being copied by","","html-keyboard-response","288","1211959","0.0-17.0-2.15","19838","List1A","white","woman","","","","null","","","","","","","","",""
"6742.100000008941","","","survey-text","289","1218709","0.0-17.0-3.15","19838","List1A","white","woman","","","","","{""Q0"":""jane is being copied by beth""}","<img src=""stim_listA/copy8.gif""style=""height:400px;""></stim_listA>","is being copied by","","","","","",""
"null","<div style=""font-size:60px;"">+</div>","","html-keyboard-response","290","1219225","0.0-17.0-0.16","19838","List1A","white","woman","","","","null","","","","","","","","",""
"null","<img src=""stim_listA/shout8.gif""style=""height:400px;""></stim_listA>","","html-keyboard-response","291","1221231","0.0-17.0-1.16","19838","List1A","white","woman","","","","null","","","","","","","","",""
"null","is being shouted at by","","html-keyboard-response","292","1223242","0.0-17.0-2.16","19838","List1A","white","woman","","","","null","","","","","","","","",""
"6794.29999999702","","","survey-text","293","1230045","0.0-17.0-3.16","19838","List1A","white","woman","","","","","{""Q0"":""jane is being shouted at by kate""}","<img src=""stim_listA/shout8.gif""style=""height:400px;""></stim_listA>","is being shouted at by","","","","","",""
"null","<div style=""font-size:60px;"">+</div>","","html-keyboard-response","294","1230557","0.0-17.0-0.17","19838","List1A","white","woman","","","","null","","","","","","","","",""
"null","<img src=""stim_listA/greet2.gif""style=""height:400px;""></stim_listA>","","html-keyboard-response","295","1232573","0.0-17.0-1.17","19838","List1A","white","woman","","","","null","","","","","","","","",""
"null","is being greeted by","","html-keyboard-response","296","1234577","0.0-17.0-2.17","19838","List1A","white","woman","","","","null","","","","","","","","",""
"5850.899999991059","","","survey-text","297","1240435","0.0-17.0-3.17","19838","List1A","white","woman","","","","","{""Q0"":""kate is being greeted by fred""}","<img src=""stim_listA/greet2.gif""style=""height:400px;""></stim_listA>","is being greeted by","","","","","",""
"null","<div style=""font-size:60px;"">+</div>","","html-keyboard-response","298","1240947","0.0-17.0-0.18","19838","List1A","white","woman","","","","null","","","","","","","","",""
"null","<img src=""stim_listA/hug3.gif""style=""height:400px;""></stim_listA>","","html-keyboard-response","299","1242962","0.0-17.0-1.18","19838","List1A","white","woman","","","","null","","","","","","","","",""
"null","is hugging","","html-keyboard-response","300","1244971","0.0-17.0-2.18","19838","List1A","white","woman","","","","null","","","","","","","","",""
"4014.6000000089407","","","survey-text","301","1249009","0.0-17.0-3.18","19838","List1A","white","woman","","","","","{""Q0"":""luke is hugging ruth""}","<img src=""stim_listA/hug3.gif""style=""height:400px;""></stim_listA>","is hugging","","","","","",""
"null","<div style=""font-size:60px;"">+</div>","","html-keyboard-response","302","1249527","0.0-17.0-0.19","19838","List1A","white","woman","","","","null","","","","","","","","",""
"null","<img src=""stim_listA/oppose7.gif""style=""height:400px;""></stim_listA>","","html-keyboard-response","303","1251535","0.0-17.0-1.19","19838","List1A","white","woman","","","","null","","","","","","","","",""
"null","is opposing","","html-keyboard-response","304","1253543","0.0-17.0-2.19","19838","List1A","white","woman","","","","null","","","","","","","","",""
"4056.7000000029802","","","survey-text","305","1257607","0.0-17.0-3.19","19838","List1A","white","woman","","","","","{""Q0"":""kate is opposing jane""}","<img src=""stim_listA/oppose7.gif""style=""height:400px;""></stim_listA>","is opposing","","","","","",""
"4725.70000000298","<img src='img/portrait_matrix_list1.jpg' style='width:900px;height:500px;''></img><p>If you have memorised all the portraits and names and are ready to start, press Continue.</p><p><strong>Please note: Your memory of these faces will be tested 4 times during this experiment.</strong></p>","0","html-button-response","306","1262337","0.0-18.0-0.0","19838","List1A","white","woman","","","","","","","","","","","","",""
"1621.7999999970198","<img src=""portrait/BW2.jpg""style=""height:400px;""></img>","2","html-button-response","307","1264966","0.0-18.0-1.0","19838","List1A","white","woman","","true","2","","","","","","","","","",""
"null","CORRECT","","html-keyboard-response","308","1266484","0.0-18.0-2.0-0.0","19838","List1A","white","woman","","","","null","","","","","","","","",""
"3452.5","<img src=""portrait/BM2.jpg""style=""height:400px;""></img>","5","html-button-response","309","1269939","0.0-18.0-4.0","19838","List1A","white","woman","","true","5","","","","","","","","","",""
"null","CORRECT","","html-keyboard-response","310","1271469","0.0-18.0-5.0-0.0","19838","List1A","white","woman","","","","null","","","","","","","","",""
"2069.7999999970198","<img src=""portrait/WW1.jpg""style=""height:400px;""></img>","1","html-button-response","311","1273541","0.0-18.0-7.0","19838","List1A","white","woman","","true","1","","","","","","","","","",""
"null","CORRECT","","html-keyboard-response","312","1275056","0.0-18.0-8.0-0.0","19838","List1A","white","woman","","","","null","","","","","","","","",""
"2094.5","<img src=""portrait/BM1.jpg""style=""height:400px;""></img>","4","html-button-response","313","1277153","0.0-18.0-10.0","19838","List1A","white","woman","","true","4","","","","","","","","","",""
"null","CORRECT","","html-keyboard-response","314","1278659","0.0-18.0-11.0-0.0","19838","List1A","white","woman","","","","null","","","","","","","","",""
"1619.9000000059605","<img src=""portrait/WW2.jpg""style=""height:400px;""></img>","3","html-button-response","315","1280282","0.0-18.0-13.0","19838","List1A","white","woman","","true","3","","","","","","","","","",""
"null","CORRECT","","html-keyboard-response","316","1281802","0.0-18.0-14.0-0.0","19838","List1A","white","woman","","","","null","","","","","","","","",""
"2142","<img src=""portrait/WM1.jpg""style=""height:400px;""></img>","6","html-button-response","317","1283947","0.0-18.0-16.0","19838","List1A","white","woman","","true","6","","","","","","","","","",""
"null","CORRECT","","html-keyboard-response","318","1285462","0.0-18.0-17.0-0.0","19838","List1A","white","woman","","","","null","","","","","","","","",""
"3610.300000011921","<img src=""portrait/BW1.jpg""style=""height:400px;""></img>","0","html-button-response","319","1289075","0.0-18.0-19.0","19838","List1A","white","woman","","true","0","","","","","","","","","",""
"null","CORRECT","","html-keyboard-response","320","1290592","0.0-18.0-20.0-0.0","19838","List1A","white","woman","","","","null","","","","","","","","",""
"1702.2999999970198","<img src=""portrait/WM2.jpg""style=""height:400px;""></img>","7","html-button-response","321","1292297","0.0-18.0-22.0","19838","List1A","white","woman","","true","7","","","","","","","","","",""
"null","CORRECT","","html-keyboard-response","322","1293819","0.0-18.0-23.0-0.0","19838","List1A","white","woman","","","","null","","","","","","","","",""
"1589.0999999940395","<p>You got 8 out of 8 right first time. Press Continue.</p>","0","html-button-response","323","1295411","0.0-18.0-25.0","19838","List1A","white","woman","","","","","","","","","","","","",""
"null","<div style=""font-size:60px;"">+</div>","","html-keyboard-response","324","1296921","0.0-19.0-0.0","19838","List1A","white","woman","","","","null","","","","","","","","",""
"null","<img src=""stim_listA/greet1.gif""style=""height:400px;""></stim_listA>","","html-keyboard-response","325","1298936","0.0-19.0-1.0","19838","List1A","white","woman","","","","null","","","","","","","","",""
"null","is greeting","","html-keyboard-response","326","1300952","0.0-19.0-2.0","19838","List1A","white","woman","","","","null","","","","","","","","",""
"4227.79999999702","","","survey-text","327","1305208","0.0-19.0-3.0","19838","List1A","white","woman","","","","","{""Q0"":""mike is greeting beth""}","<img src=""stim_listA/greet1.gif""style=""height:400px;""></stim_listA>","is greeting","","","","","",""
"null","<div style=""font-size:60px;"">+</div>","","html-keyboard-response","328","1305713","0.0-19.0-0.1","19838","List1A","white","woman","","","","null","","","","","","","","",""
"null","<img src=""stim_listA/greet4.gif""style=""height:400px;""></stim_listA>","","html-keyboard-response","329","1307721","0.0-19.0-1.1","19838","List1A","white","woman","","","","null","","","","","","","","",""
"null","is being greeted by","","html-keyboard-response","330","1309737","0.0-19.0-2.1","19838","List1A","white","woman","","","","null","","","","","","","","",""
"5302.29999999702","","","survey-text","331","1315056","0.0-19.0-3.1","19838","List1A","white","woman","","","","","{""Q0"":""jane is being greeted by luke""}","<img src=""stim_listA/greet4.gif""style=""height:400px;""></stim_listA>","is being greeted by","","","","","",""
"null","<div style=""font-size:60px;"">+</div>","","html-keyboard-response","332","1315564","0.0-19.0-0.2","19838","List1A","white","woman","","","","null","","","","","","","","",""
"null","<img src=""stim_listA/copy1.gif""style=""height:400px;""></stim_listA>","","html-keyboard-response","333","1317569","0.0-19.0-1.2","19838","List1A","white","woman","","","","null","","","","","","","","",""
"null","is copying","","html-keyboard-response","334","1319571","0.0-19.0-2.2","19838","List1A","white","woman","","","","null","","","","","","","","",""
"3868.8999999910593","","","survey-text","335","1323467","0.0-19.0-3.2","19838","List1A","white","woman","","","","","{""Q0"":""mike is copying beth""}","<img src=""stim_listA/copy1.gif""style=""height:400px;""></stim_listA>","is copying","","","","","",""
"null","<div style=""font-size:60px;"">+</div>","","html-keyboard-response","336","1323978","0.0-19.0-0.3","19838","List1A","white","woman","","","","null","","","","","","","","",""
"null","<img src=""stim_listA/oppose2.gif""style=""height:400px;""></stim_listA>","","html-keyboard-response","337","1325995","0.0-19.0-1.3","19838","List1A","white","woman","","","","null","","","","","","","","",""
"null","is being opposed by","","html-keyboard-response","338","1328009","0.0-19.0-2.3","19838","List1A","white","woman","","","","null","","","","","","","","",""
"6342.899999991059","","","survey-text","339","1334383","0.0-19.0-3.3","19838","List1A","white","woman","","","","","{""Q0"":""beth is being opposed by fred""}","<img src=""stim_listA/oppose2.gif""style=""height:400px;""></stim_listA>","is being opposed by","","","","","",""
"null","<div style=""font-size:60px;"">+</div>","","html-keyboard-response","340","1334899","0.0-19.0-0.4","19838","List1A","white","woman","","","","null","","","","","","","","",""
"null","<img src=""stim_listA/greet6.gif""style=""height:400px;""></stim_listA>","","html-keyboard-response","341","1336903","0.0-19.0-1.4","19838","List1A","white","woman","","","","null","","","","","","","","",""
"null","is being greeted by","","html-keyboard-response","342","1338912","0.0-19.0-2.4","19838","List1A","white","woman","","","","null","","","","","","","","",""
"5284.70000000298","","","survey-text","343","1344205","0.0-19.0-3.4","19838","List1A","white","woman","","","","","{""Q0"":""dave is being greeted by fred""}","<img src=""stim_listA/greet6.gif""style=""height:400px;""></stim_listA>","is being greeted by","","","","","",""
"null","<div style=""font-size:60px;"">+</div>","","html-keyboard-response","344","1344709","0.0-19.0-0.5","19838","List1A","white","woman","","","","null","","","","","","","","",""
"null","<img src=""stim_listA/seduce7.gif""style=""height:400px;""></stim_listA>","","html-keyboard-response","345","1346728","0.0-19.0-1.5","19838","List1A","white","woman","","","","null","","","","","","","","",""
"null","is seducing","","html-keyboard-response","346","1348743","0.0-19.0-2.5","19838","List1A","white","woman","","","","null","","","","","","","","",""
"5239.4000000059605","","","survey-text","347","1353989","0.0-19.0-3.5","19838","List1A","white","woman","","","","","{""Q0"":""beth is seducing jane""}","<img src=""stim_listA/seduce7.gif""style=""height:400px;""></stim_listA>","is seducing","","","","","",""
"null","<div style=""font-size:60px;"">+</div>","","html-keyboard-response","348","1354496","0.0-19.0-0.6","19838","List1A","white","woman","","","","null","","","","","","","","",""
"null","<img src=""stim_listA/shout4.gif""style=""height:400px;""></stim_listA>","","html-keyboard-response","349","1356508","0.0-19.0-1.6","19838","List1A","white","woman","","","","null","","","","","","","","",""
"null","is being shouted at by","","html-keyboard-response","350","1358518","0.0-19.0-2.6","19838","List1A","white","woman","","","","null","","","","","","","","",""
"5881.9000000059605","","","survey-text","351","1364418","0.0-19.0-3.6","19838","List1A","white","woman","","","","","{""Q0"":""jane is being shouted at by dave""}","<img src=""stim_listA/shout4.gif""style=""height:400px;""></stim_listA>","is being shouted at by","","","","","",""
"null","<div style=""font-size:60px;"">+</div>","","html-keyboard-response","352","1364925","0.0-19.0-0.7","19838","List1A","white","woman","","","","null","","","","","","","","",""
"null","<img src=""stim_listA/copy4.gif""style=""height:400px;""></stim_listA>","","html-keyboard-response","353","1366934","0.0-19.0-1.7","19838","List1A","white","woman","","","","null","","","","","","","","",""
"null","is being copied by","","html-keyboard-response","354","1368949","0.0-19.0-2.7","19838","List1A","white","woman","","","","null","","","","","","","","",""
"6199.0999999940395","","","survey-text","355","1375171","0.0-19.0-3.7","19838","List1A","white","woman","","","","","{""Q0"":""jane is being copied by luke""}","<img src=""stim_listA/copy4.gif""style=""height:400px;""></stim_listA>","is being copied by","","","","","",""
"null","<div style=""font-size:60px;"">+</div>","","html-keyboard-response","356","1375689","0.0-19.0-0.8","19838","List1A","white","woman","","","","null","","","","","","","","",""
"null","<img src=""stim_listA/shout3.gif""style=""height:400px;""></stim_listA>","","html-keyboard-response","357","1377696","0.0-19.0-1.8","19838","List1A","white","woman","","","","null","","","","","","","","",""
"null","is shouting at","","html-keyboard-response","358","1379703","0.0-19.0-2.8","19838","List1A","white","woman","","","","null","","","","","","","","",""
"4167.70000000298","","","survey-text","359","1383877","0.0-19.0-3.8","19838","List1A","white","woman","","","","","{""Q0"":""luke is shouting at ruth""}","<img src=""stim_listA/shout3.gif""style=""height:400px;""></stim_listA>","is shouting at","","","","","",""
"null","<div style=""font-size:60px;"">+</div>","","html-keyboard-response","360","1384387","0.0-19.0-0.9","19838","List1A","white","woman","","","","null","","","","","","","","",""
"null","<img src=""stim_listA/seduce2.gif""style=""height:400px;""></stim_listA>","","html-keyboard-response","361","1386394","0.0-19.0-1.9","19838","List1A","white","woman","","","","null","","","","","","","","",""
"null","is being seduced by","","html-keyboard-response","362","1388403","0.0-19.0-2.9","19838","List1A","white","woman","","","","null","","","","","","","","",""
"9312.70000000298","","","survey-text","363","1397741","0.0-19.0-3.9","19838","List1A","white","woman","","","","","{""Q0"":""beth is being seduced by mike""}","<img src=""stim_listA/seduce2.gif""style=""height:400px;""></stim_listA>","is being seduced by","","","","","",""
"null","<div style=""font-size:60px;"">+</div>","","html-keyboard-response","364","1398249","0.0-19.0-0.10","19838","List1A","white","woman","","","","null","","","","","","","","",""
"null","<img src=""stim_listA/look5.gif""style=""height:400px;""></stim_listA>","","html-keyboard-response","365","1400266","0.0-19.0-1.10","19838","List1A","white","woman","","","","null","","","","","","","","",""
"null","is looking at","","html-keyboard-response","366","1402277","0.0-19.0-2.10","19838","List1A","white","woman","","","","null","","","","","","","","",""
"7758","","","survey-text","367","1410058","0.0-19.0-3.10","19838","List1A","white","woman","","","","","{""Q0"":""luke is looking at fred""}","<img src=""stim_listA/look5.gif""style=""height:400px;""></stim_listA>","is looking at","","","","","",""
"null","<div style=""font-size:60px;"">+</div>","","html-keyboard-response","368","1410570","0.0-19.0-0.11","19838","List1A","white","woman","","","","null","","","","","","","","",""
"null","<img src=""stim_listA/seduce4.gif""style=""height:400px;""></stim_listA>","","html-keyboard-response","369","1412582","0.0-19.0-1.11","19838","List1A","white","woman","","","","null","","","","","","","","",""
"null","is being seduced by","","html-keyboard-response","370","1414600","0.0-19.0-2.11","19838","List1A","white","woman","","","","null","","","","","","","","",""
"8497.10000000894","","","survey-text","371","1423113","0.0-19.0-3.11","19838","List1A","white","woman","","","","","{""Q0"":""dave is being seduced by ruth""}","<img src=""stim_listA/seduce4.gif""style=""height:400px;""></stim_listA>","is being seduced by","","","","","",""
"null","<div style=""font-size:60px;"">+</div>","","html-keyboard-response","372","1423627","0.0-19.0-0.12","19838","List1A","white","woman","","","","null","","","","","","","","",""
"null","<img src=""stim_listA/hug4.gif""style=""height:400px;""></stim_listA>","","html-keyboard-response","373","1425631","0.0-19.0-1.12","19838","List1A","white","woman","","","","null","","","","","","","","",""
"null","is being hugged by","","html-keyboard-response","374","1427639","0.0-19.0-2.12","19838","List1A","white","woman","","","","null","","","","","","","","",""
"5298","","","survey-text","375","1432946","0.0-19.0-3.12","19838","List1A","white","woman","","","","","{""Q0"":""jane is being hugged by dave""}","<img src=""stim_listA/hug4.gif""style=""height:400px;""></stim_listA>","is being hugged by","","","","","",""
"null","<div style=""font-size:60px;"">+</div>","","html-keyboard-response","376","1433460","0.0-19.0-0.13","19838","List1A","white","woman","","","","null","","","","","","","","",""
"null","<img src=""stim_listA/kiss1.gif""style=""height:400px;""></stim_listA>","","html-keyboard-response","377","1435471","0.0-19.0-1.13","19838","List1A","white","woman","","","","null","","","","","","","","",""
"null","is kissing","","html-keyboard-response","378","1437501","0.0-19.0-2.13","19838","List1A","white","woman","","","","null","","","","","","","","",""
"3702.2000000029802","","","survey-text","379","1441212","0.0-19.0-3.13","19838","List1A","white","woman","","","","","{""Q0"":""fred is kissing beth""}","<img src=""stim_listA/kiss1.gif""style=""height:400px;""></stim_listA>","is kissing","","","","","",""
"null","<div style=""font-size:60px;"">+</div>","","html-keyboard-response","380","1441732","0.0-19.0-0.14","19838","List1A","white","woman","","","","null","","","","","","","","",""
"null","<img src=""stim_listA/oppose1.gif""style=""height:400px;""></stim_listA>","","html-keyboard-response","381","1443753","0.0-19.0-1.14","19838","List1A","white","woman","","","","null","","","","","","","","",""
"null","is opposing","","html-keyboard-response","382","1445756","0.0-19.0-2.14","19838","List1A","white","woman","","","","null","","","","","","","","",""
"5157.0999999940395","","","survey-text","383","1450949","0.0-19.0-3.14","19838","List1A","white","woman","","","","","{""Q0"":""mike is opposing kate""}","<img src=""stim_listA/oppose1.gif""style=""height:400px;""></stim_listA>","is opposing","","","","","",""
"null","<div style=""font-size:60px;"">+</div>","","html-keyboard-response","384","1451463","0.0-19.0-0.15","19838","List1A","white","woman","","","","null","","","","","","","","",""
"null","<img src=""stim_listA/oppose6.gif""style=""height:400px;""></stim_listA>","","html-keyboard-response","385","1453481","0.0-19.0-1.15","19838","List1A","white","woman","","","","null","","","","","","","","",""
"null","is being opposed by","","html-keyboard-response","386","1455497","0.0-19.0-2.15","19838","List1A","white","woman","","","","null","","","","","","","","",""
"5717.800000011921","","","survey-text","387","1461236","0.0-19.0-3.15","19838","List1A","white","woman","","","","","{""Q0"":""luke is being opposed by fred""}","<img src=""stim_listA/oppose6.gif""style=""height:400px;""></stim_listA>","is being opposed by","","","","","",""
"null","<div style=""font-size:60px;"">+</div>","","html-keyboard-response","388","1461752","0.0-19.0-0.16","19838","List1A","white","woman","","","","null","","","","","","","","",""
"null","<img src=""stim_listA/challenge8.gif""style=""height:400px;""></stim_listA>","","html-keyboard-response","389","1463756","0.0-19.0-1.16","19838","List1A","white","woman","","","","null","","","","","","","","",""
"null","is being challenged by","","html-keyboard-response","390","1465760","0.0-19.0-2.16","19838","List1A","white","woman","","","","null","","","","","","","","",""
"7308.4000000059605","","","survey-text","391","1473094","0.0-19.0-3.16","19838","List1A","white","woman","","","","","{""Q0"":""jane is being challenged by beth""}","<img src=""stim_listA/challenge8.gif""style=""height:400px;""></stim_listA>","is being challenged by","","","","","",""
"null","<div style=""font-size:60px;"">+</div>","","html-keyboard-response","392","1473605","0.0-19.0-0.17","19838","List1A","white","woman","","","","null","","","","","","","","",""
"null","<img src=""stim_listA/copy2.gif""style=""height:400px;""></stim_listA>","","html-keyboard-response","393","1475622","0.0-19.0-1.17","19838","List1A","white","woman","","","","null","","","","","","","","",""
"null","is being copied by","","html-keyboard-response","394","1477638","0.0-19.0-2.17","19838","List1A","white","woman","","","","null","","","","","","","","",""
"4750.5","","","survey-text","395","1482397","0.0-19.0-3.17","19838","List1A","white","woman","","","","","{""Q0"":""kate is being copied by fred""}","<img src=""stim_listA/copy2.gif""style=""height:400px;""></stim_listA>","is being copied by","","","","","",""
"null","<div style=""font-size:60px;"">+</div>","","html-keyboard-response","396","1482918","0.0-19.0-0.18","19838","List1A","white","woman","","","","null","","","","","","","","",""
"null","<img src=""stim_listA/hug8.gif""style=""height:400px;""></stim_listA>","","html-keyboard-response","397","1484931","0.0-19.0-1.18","19838","List1A","white","woman","","","","null","","","","","","","","",""
"null","is being hugged by","","html-keyboard-response","398","1486936","0.0-19.0-2.18","19838","List1A","white","woman","","","","null","","","","","","","","",""
"4148","","","survey-text","399","1491113","0.0-19.0-3.18","19838","List1A","white","woman","","","","","{""Q0"":""jane is being hugged by kate""}","<img src=""stim_listA/hug8.gif""style=""height:400px;""></stim_listA>","is being hugged by","","","","","",""
"null","<div style=""font-size:60px;"">+</div>","","html-keyboard-response","400","1491622","0.0-19.0-0.19","19838","List1A","white","woman","","","","null","","","","","","","","",""
"null","<img src=""stim_listA/greet5.gif""style=""height:400px;""></stim_listA>","","html-keyboard-response","401","1493637","0.0-19.0-1.19","19838","List1A","white","woman","","","","null","","","","","","","","",""
"null","is greeting","","html-keyboard-response","402","1495648","0.0-19.0-2.19","19838","List1A","white","woman","","","","null","","","","","","","","",""
"5458.9000000059605","","","survey-text","403","1501133","0.0-19.0-3.19","19838","List1A","white","woman","","","","","{""Q0"":""luke is greeting mike""}","<img src=""stim_listA/greet5.gif""style=""height:400px;""></stim_listA>","is greeting","","","","","",""
"2769.5","<p>Thank you for completing that task.</p><p>The final part of this session is a questionnaire that will take about 4 minutes.</p><p>Press Continue.</p>","0","html-button-response","404","1503908","0.0-20.0","19838","List1A","white","woman","","","","","","","","","","","","",""
"20417.09999999404","","","survey-text","405","1525355","0.0-21.0","19838","List1A","white","woman","","","","","{""Q0"":""32"",""Q1"":""English"",""Q2"":""English"",""Q3"":""USA"",""Q4"":""American"",""Q5"":""White"",""Q6"":""Female""}","","","demographics","","","","",""
"1814.2999999970198","<p>Have you lived in the USA for the last 5 years or more?</p>","0","html-button-response","406","1527173","0.0-22.0","19838","List1A","white","woman","","","","","","","","fiveyears","","","","",""
"3788.9000000059605","<p>Move the slider to show the extent to which you agree with the following statements.</p>","0","html-button-response","407","1531968","0.0-23.0","19838","List1A","white","woman","","","","","","","","","","","","",""
"4639.600000008941","","","html-slider-response","408","1537648","0.0-24.0-0.0-0.0","19838","List1A","white","woman","","","","","","","","survey_gender","74","","","I would say I am an animal person.","filler"
"3389.7999999970198","","","html-slider-response","409","1541049","0.0-24.0-0.0-0.1","19838","List1A","white","woman","","","","","","","","survey_gender","88","","","I am glad to be my gender.","glad"
"6330.20000000298","","","html-slider-response","410","1547382","0.0-24.0-0.0-0.2","19838","List1A","white","woman","","","","","","","","survey_gender","34","","","Family is not more important to me than friendship.","filler"
"3415.0999999940395","","","html-slider-response","411","1550802","0.0-24.0-0.0-0.3","19838","List1A","white","woman","","","","","","","","survey_gender","83","","","It is pleasant to be my gender.","pleasant"
"3681.5","","","html-slider-response","412","1554488","0.0-24.0-0.0-0.4","19838","List1A","white","woman","","","","","","","","survey_gender","76","","","Being my gender is an important part of how I see myself.","important"
"3374.6000000089407","","","html-slider-response","413","1557866","0.0-24.0-0.0-0.5","19838","List1A","white","woman","","","","","","","","survey_gender","68","","","My friends understand me.","filler"
"4944.600000008941","","","html-slider-response","414","1562814","0.0-24.0-0.0-0.6","19838","List1A","white","woman","","","","","","","","survey_gender","67","","","It is not always easy for people to know what I am thinking.","filler"
"4407.800000011921","","","html-slider-response","415","1567226","0.0-24.0-0.0-0.7","19838","List1A","white","woman","","","","","","","","survey_gender","81","","","I think that my gender has a lot to be proud of.","proud"
"4057.8999999910593","","","html-slider-response","416","1571287","0.0-24.0-0.0-0.8","19838","List1A","white","woman","","","","","","","","survey_gender","41","","","I am similar to the average person of my gender.","similar"
"4480.70000000298","","","html-slider-response","417","1575771","0.0-24.0-0.0-0.9","19838","List1A","white","woman","","","","","","","","survey_gender","90","","","I am glad to have the friends that I have.","filler"
"5972.20000000298","","","html-slider-response","418","1581746","0.0-24.0-0.0-0.10","19838","List1A","white","woman","","","","","","","","survey_gender","47","","","Routine is not important to me.","filler"
"2845.6000000089407","","","html-slider-response","419","1584595","0.0-24.0-0.0-0.11","19838","List1A","white","woman","","","","","","","","survey_gender","87","","","I feel committed to my gender.","committed"
"3247.199999988079","","","html-slider-response","420","1587845","0.0-24.0-0.0-0.12","19838","List1A","white","woman","","","","","","","","survey_gender","67","","","I have a lot in common with my friends.","filler"
"4201.300000011921","","","html-slider-response","421","1592049","0.0-24.0-0.0-0.13","19838","List1A","white","woman","","","","","","","","survey_gender","38","","","The fact that I am my gender is an important part of my identity.","identity"
"2734.5","","","html-slider-response","422","1594786","0.0-24.0-0.0-0.14","19838","List1A","white","woman","","","","","","","","survey_gender","71","","","I feel solidarity with my friends.","filler"
"3011.7000000029802","","","html-slider-response","423","1597800","0.0-24.0-0.0-0.15","19838","List1A","white","woman","","","","","","","","survey_gender","70","","","I consider myself a highly empathetic person.","filler"
"3630.8999999910593","","","html-slider-response","424","1601434","0.0-24.0-0.0-0.16","19838","List1A","white","woman","","","","","","","","survey_gender","84","","","I feel a bond with my gender.","bond"
"3951.2999999970198","","","html-slider-response","425","1605388","0.0-24.0-0.0-0.17","19838","List1A","white","woman","","","","","","","","survey_gender","41","","","I have a lot in common with the average person of my gender.","average"
"2756.9000000059605","","","html-slider-response","426","1608148","0.0-24.0-0.0-0.18","19838","List1A","white","woman","","","","","","","","survey_gender","69","","","Being my gender gives me a good feeling.","feeling"
"2650.699999988079","","","html-slider-response","427","1610802","0.0-24.0-0.0-0.19","19838","List1A","white","woman","","","","","","","","survey_gender","83","","","I feel a bond with my friends.","filler"
"3544.3999999910593","","","html-slider-response","428","1614349","0.0-24.0-0.0-0.20","19838","List1A","white","woman","","","","","","","","survey_gender","45","","","Most of the friends in my life are very similar to me.","filler"
"3375.199999988079","","","html-slider-response","429","1617727","0.0-24.0-0.0-0.21","19838","List1A","white","woman","","","","","","","","survey_gender","67","","","Being around my friends gives me a good feeling.","filler"
"4992.9000000059605","","","html-slider-response","430","1622722","0.0-24.0-0.0-0.22","19838","List1A","white","woman","","","","","","","","survey_gender","17","","","People of my gender are very similar to each other.","verysimilar"
"2799.4000000059605","","","html-slider-response","431","1625524","0.0-24.0-0.0-0.23","19838","List1A","white","woman","","","","","","","","survey_gender","70","","","I feel solidarity with my gender.","solidarity"
"6153.0999999940395","","","html-slider-response","432","1631679","0.0-24.0-0.0-0.24","19838","List1A","white","woman","","","","","","","","survey_gender","57","","","People of my gender have a lot in common with each other.","common"
"3641.300000011921","","","html-slider-response","433","1635324","0.0-24.0-0.0-0.25","19838","List1A","white","woman","","","","","","","","survey_gender","34","","","I often think about the fact that I am my gender.","often"
"2928.300000011921","","","html-slider-response","434","1638255","0.0-24.0-0.0-0.26","19838","List1A","white","woman","","","","","","","","survey_gender","62","","","I often think about my actions.","filler"
"4574.899999991059","","","html-slider-response","435","1642832","0.0-24.0-0.0-0.27","19838","List1A","white","woman","","","","","","","","survey_gender","69","","","My friends have a lot in common with each other.","filler"
"7762.300000011921","","","html-slider-response","436","1650597","0.0-24.0-1.0-0.0","19838","List1A","white","woman","","","","","","","","survey_race","63","","","People of my race have a lot in common with each other.","common"
"3708.7000000029802","","","html-slider-response","437","1654309","0.0-24.0-1.0-0.1","19838","List1A","white","woman","","","","","","","","survey_race","46","","","I feel committed to my race.","committed"
"19297.40000000596","","","html-slider-response","438","1673610","0.0-24.0-1.0-0.2","19838","List1A","white","woman","","","","","","","","survey_race","41","","","People of my race are very similar to each other.","verysimilar"
"2993.2999999970198","","","html-slider-response","439","1676607","0.0-24.0-1.0-0.3","19838","List1A","white","woman","","","","","","","","survey_race","41","","","It is pleasant to be my race.","pleasant"
"3771.7000000029802","","","html-slider-response","440","1680381","0.0-24.0-1.0-0.4","19838","List1A","white","woman","","","","","","","","survey_race","61","","","I feel solidarity with people the same age as me.","filler"
"2799.0999999940395","","","html-slider-response","441","1683183","0.0-24.0-1.0-0.5","19838","List1A","white","woman","","","","","","","","survey_race","37","","","Being my race gives me a good feeling.","feeling"
"3451.0999999940395","","","html-slider-response","442","1686637","0.0-24.0-1.0-0.6","19838","List1A","white","woman","","","","","","","","survey_race","23","","","I often think about the fact that I am my race.","often"
"3210.699999988079","","","html-slider-response","443","1689851","0.0-24.0-1.0-0.7","19838","List1A","white","woman","","","","","","","","survey_race","36","","","I have a lot in common with people of a similar age to me.","filler"
"2853.2000000029802","","","html-slider-response","444","1692706","0.0-24.0-1.0-0.8","19838","List1A","white","woman","","","","","","","","survey_race","36","","","I am glad to be my age.","filler"
"2900.7999999970198","","","html-slider-response","445","1695609","0.0-24.0-1.0-0.9","19838","List1A","white","woman","","","","","","","","survey_race","27","","","I am glad to be my race.","glad"
"3918.9000000059605","","","html-slider-response","446","1699531","0.0-24.0-1.0-0.10","19838","List1A","white","woman","","","","","","","","survey_race","80","","","I enjoy being in large groups.","filler"
"2712.2999999970198","","","html-slider-response","447","1702246","0.0-24.0-1.0-0.11","19838","List1A","white","woman","","","","","","","","survey_race","29","","","I feel a bond with my race.","bond"
"3201.9000000059605","","","html-slider-response","448","1705451","0.0-24.0-1.0-0.12","19838","List1A","white","woman","","","","","","","","survey_race","39","","","I feel a bond with people the same age as me.","filler"
"3258.8999999910593","","","html-slider-response","449","1708713","0.0-24.0-1.0-0.13","19838","List1A","white","woman","","","","","","","","survey_race","32","","","I am glad to be the age I am.","filler"
"5530.70000000298","","","html-slider-response","450","1714246","0.0-24.0-1.0-0.14","19838","List1A","white","woman","","","","","","","","survey_race","54","","","I am similar to the average person of my race.","similar"
"3092.7999999970198","","","html-slider-response","451","1717342","0.0-24.0-1.0-0.15","19838","List1A","white","woman","","","","","","","","survey_race","60","","","I often think about the fact that I am my age.","filler"
"4037.2000000029802","","","html-slider-response","452","1721381","0.0-24.0-1.0-0.16","19838","List1A","white","woman","","","","","","","","survey_race","34","","","Getting older does not worry me.","filler"
"3716.5999999940395","","","html-slider-response","453","1725101","0.0-24.0-1.0-0.17","19838","List1A","white","woman","","","","","","","","survey_race","65","","","The older I get, the wiser I feel.","filler"
"3242.7000000029802","","","html-slider-response","454","1728346","0.0-24.0-1.0-0.18","19838","List1A","white","woman","","","","","","","","survey_race","22","","","The fact that I am my race is an important part of my identity.","identity"
"4104.199999988079","","","html-slider-response","455","1732453","0.0-24.0-1.0-0.19","19838","List1A","white","woman","","","","","","","","survey_race","5","","","I think that my race has a lot to be proud of.","proud"
"3685.1000000089407","","","html-slider-response","456","1736141","0.0-24.0-1.0-0.20","19838","List1A","white","woman","","","","","","","","survey_race","53","","","I consider myself an introvert.","filler"
"3149.8999999910593","","","html-slider-response","457","1739293","0.0-24.0-1.0-0.21","19838","List1A","white","woman","","","","","","","","survey_race","28","","","Being my age gives me a good feeling.","filler"
"2700.4000000059605","","","html-slider-response","458","1741996","0.0-24.0-1.0-0.22","19838","List1A","white","woman","","","","","","","","survey_race","26","","","I feel solidarity with my race.","solidarity"
"4508.0999999940395","","","html-slider-response","459","1746507","0.0-24.0-1.0-0.23","19838","List1A","white","woman","","","","","","","","survey_race","41","","","People my age have a lot in common with each other.","filler"
"3140.4000000059605","","","html-slider-response","460","1749651","0.0-24.0-1.0-0.24","19838","List1A","white","woman","","","","","","","","survey_race","38","","","I have a lot in common with the average person of my race.","average"
"3505.3999999910593","","","html-slider-response","461","1753159","0.0-24.0-1.0-0.25","19838","List1A","white","woman","","","","","","","","survey_race","59","","","My age is not an important part of who I am.","filler"
"3063.7000000029802","","","html-slider-response","462","1756226","0.0-24.0-1.0-0.26","19838","List1A","white","woman","","","","","","","","survey_race","30","","","Being my race is an important part of how I see myself.","important"
"4766.399999991059","","","html-slider-response","463","1760996","0.0-24.0-1.0-0.27","19838","List1A","white","woman","","","","","","","","survey_race","55","","","I consider myself an extrovert.","filler"
"4281.29999999702","","","survey-text","464","1765286","0.0-25.0","19838","List1A","white","woman","","","","","{""Q0"":""5d70826012d076001680fbb7""}","","","worker_id","","","","",""
"20335.09999999404","","","external-html","465","1785985","0.0-26.0","19838","List1A","white","woman","debrief.html","","","","","","","","","","","",""
