rt,stimulus,button_pressed,trial_type,trial_index,time_elapsed,internal_node_id,subject,list,ppt_race,ppt_gender,url,first_guess,correct,key_press,responses,image_type,phrase_type,test_part,response,stimulus1,stimulus2,question_type,survey_item
21335,Welcome to the experiment. Press Continue to begin.,0,html-button-response,0,21339,0.0-0.0,20890,List1A,black,woman,,,,,,,,,,,,,
18587.9,,,external-html,1,41205,0.0-1.0,20890,List1A,black,woman,consent.html,,,,,,,,,,,,
75758.8,"<p>On the next page, you will see portraits of 8 people and their names.</p><p>Your first task is to take a few minutes to memorise the names of these people.</p><p>You will have to recall their names during the rest of the experiment, so it is</p><p>essential that you try to memorise these people and their names as best as you can.</p><br><p><strong>You will then be tested on your memory of these names and portraits.</strong></p><br><p>The experiment will start after you have completed this memory test.</p><br><p>Ready?</p>",0,html-button-response,2,116966,0.0-2.0,20890,List1A,black,woman,,,,,,,,,,,,,
79671.7,"<img src='img/portrait_matrix_list1.jpg' style='width:900px;height:500px;''></img><p>If you have memorised all the portraits and names and are ready to start, press Continue.</p><p><strong>Please note: Your memory of these faces will be tested 4 times during this experiment.</strong></p>",0,html-button-response,3,197653,0.0-3.0-0.0,20890,List1A,black,woman,,,,,,,,,,,,,
12067.8,"<img src=""portrait/WW2.jpg""style=""height:400px;""></img>",3,html-button-response,4,210725,0.0-3.0-1.0,20890,List1A,black,woman,,TRUE,3,,,,,,,,,,
null,CORRECT,,html-keyboard-response,5,212253,0.0-3.0-2.0-0.0,20890,List1A,black,woman,,,,null,,,,,,,,,
2872.9,"<img src=""portrait/BM1.jpg""style=""height:400px;""></img>",4,html-button-response,6,215128,0.0-3.0-4.0,20890,List1A,black,woman,,TRUE,4,,,,,,,,,,
null,CORRECT,,html-keyboard-response,7,216653,0.0-3.0-5.0-0.0,20890,List1A,black,woman,,,,null,,,,,,,,,
4366.2,"<img src=""portrait/BW1.jpg""style=""height:400px;""></img>",0,html-button-response,8,221020,0.0-3.0-7.0,20890,List1A,black,woman,,TRUE,0,,,,,,,,,,
null,CORRECT,,html-keyboard-response,9,222528,0.0-3.0-8.0-0.0,20890,List1A,black,woman,,,,null,,,,,,,,,
4059.6,"<img src=""portrait/WM1.jpg""style=""height:400px;""></img>",5,html-button-response,10,226589,0.0-3.0-10.0,20890,List1A,black,woman,,TRUE,6,,,,,,,,,,
3991.3,"<img src=""portrait/WM1.jpg""style=""height:400px;""></img>",6,html-button-response,11,231593,0.0-3.0-12.0-0.0,20890,List1A,black,woman,,FALSE,6,,,,,,,,,,
null,CORRECT,,html-keyboard-response,12,233109,0.0-3.0-12.0-1.0-0.0,20890,List1A,black,woman,,,,null,,,,,,,,,
1887,"<img src=""portrait/BW2.jpg""style=""height:400px;""></img>",2,html-button-response,13,234997,0.0-3.0-13.0,20890,List1A,black,woman,,TRUE,2,,,,,,,,,,
null,CORRECT,,html-keyboard-response,14,236512,0.0-3.0-14.0-0.0,20890,List1A,black,woman,,,,null,,,,,,,,,
2864.6,"<img src=""portrait/WM2.jpg""style=""height:400px;""></img>",7,html-button-response,15,239378,0.0-3.0-16.0,20890,List1A,black,woman,,TRUE,7,,,,,,,,,,
null,CORRECT,,html-keyboard-response,16,240889,0.0-3.0-17.0-0.0,20890,List1A,black,woman,,,,null,,,,,,,,,
5031.3,"<img src=""portrait/WW1.jpg""style=""height:400px;""></img>",1,html-button-response,17,245922,0.0-3.0-19.0,20890,List1A,black,woman,,TRUE,1,,,,,,,,,,
null,CORRECT,,html-keyboard-response,18,247425,0.0-3.0-20.0-0.0,20890,List1A,black,woman,,,,null,,,,,,,,,
5869.5,"<img src=""portrait/BM2.jpg""style=""height:400px;""></img>",5,html-button-response,19,253295,0.0-3.0-22.0,20890,List1A,black,woman,,TRUE,5,,,,,,,,,,
null,CORRECT,,html-keyboard-response,20,254812,0.0-3.0-23.0-0.0,20890,List1A,black,woman,,,,null,,,,,,,,,
1930.6,<p>You got 7 out of 8 right first time. Press Continue.</p>,0,html-button-response,21,256743,0.0-3.0-25.0,20890,List1A,black,woman,,,,,,,,,,,,,
3400.6,"As you did not score 100%, the memory game will repeat. Press Continue.",0,html-button-response,22,261161,0.0-3.0-26.0-0.0,20890,List1A,black,woman,,,,,,,,,,,,,
13087.5,"<img src='img/portrait_matrix_list1.jpg' style='width:900px;height:500px;''></img><p>If you have memorised all the portraits and names and are ready to start, press Continue.</p><p><strong>Please note: Your memory of these faces will be tested 4 times during this experiment.</strong></p>",0,html-button-response,23,275261,0.0-3.1-0.1,20890,List1A,black,woman,,,,,,,,,,,,,
1827.3,"<img src=""portrait/WW2.jpg""style=""height:400px;""></img>",3,html-button-response,24,278101,0.0-3.1-1.1,20890,List1A,black,woman,,TRUE,3,,,,,,,,,,
null,CORRECT,,html-keyboard-response,25,279622,0.0-3.1-2.1-0.1,20890,List1A,black,woman,,,,null,,,,,,,,,
4485.9,"<img src=""portrait/BM1.jpg""style=""height:400px;""></img>",4,html-button-response,26,284109,0.0-3.1-4.1,20890,List1A,black,woman,,TRUE,4,,,,,,,,,,
null,CORRECT,,html-keyboard-response,27,285621,0.0-3.1-5.1-0.1,20890,List1A,black,woman,,,,null,,,,,,,,,
3739.8,"<img src=""portrait/BW1.jpg""style=""height:400px;""></img>",0,html-button-response,28,289362,0.0-3.1-7.1,20890,List1A,black,woman,,TRUE,0,,,,,,,,,,
null,CORRECT,,html-keyboard-response,29,290866,0.0-3.1-8.1-0.1,20890,List1A,black,woman,,,,null,,,,,,,,,
2852.6,"<img src=""portrait/WM1.jpg""style=""height:400px;""></img>",6,html-button-response,30,293720,0.0-3.1-10.1,20890,List1A,black,woman,,TRUE,6,,,,,,,,,,
null,CORRECT,,html-keyboard-response,31,295240,0.0-3.1-11.1-0.1,20890,List1A,black,woman,,,,null,,,,,,,,,
1428,"<img src=""portrait/BW2.jpg""style=""height:400px;""></img>",2,html-button-response,32,296669,0.0-3.1-13.1,20890,List1A,black,woman,,TRUE,2,,,,,,,,,,
null,CORRECT,,html-keyboard-response,33,298201,0.0-3.1-14.1-0.1,20890,List1A,black,woman,,,,null,,,,,,,,,
2817.6,"<img src=""portrait/WM2.jpg""style=""height:400px;""></img>",7,html-button-response,34,301019,0.0-3.1-16.1,20890,List1A,black,woman,,TRUE,7,,,,,,,,,,
null,CORRECT,,html-keyboard-response,35,302540,0.0-3.1-17.1-0.1,20890,List1A,black,woman,,,,null,,,,,,,,,
4245.2,"<img src=""portrait/WW1.jpg""style=""height:400px;""></img>",1,html-button-response,36,306786,0.0-3.1-19.1,20890,List1A,black,woman,,TRUE,1,,,,,,,,,,
null,CORRECT,,html-keyboard-response,37,308308,0.0-3.1-20.1-0.1,20890,List1A,black,woman,,,,null,,,,,,,,,
3935.9,"<img src=""portrait/BM2.jpg""style=""height:400px;""></img>",5,html-button-response,38,312246,0.0-3.1-22.1,20890,List1A,black,woman,,TRUE,5,,,,,,,,,,
null,CORRECT,,html-keyboard-response,39,313769,0.0-3.1-23.1-0.1,20890,List1A,black,woman,,,,null,,,,,,,,,
1284.5,<p>You got 8 out of 8 right first time. Press Continue.</p>,0,html-button-response,40,315055,0.0-3.1-25.1,20890,List1A,black,woman,,,,,,,,,,,,,
30665.9,"<p>In this experiment, you will view photographs of the people from the memory game interacting.</p><p>By using the <strong>exact</strong> phrase given <i>after</i> the photograph appears and recalling the correct names of the people in the photographs, form a sentence describing the interaction. You do not need to capitalise names.</p><p>Type your answer in the space provided. Please complete every sentence before moving onto the next trial.</p><p>You will only have a few seconds to memorise each given photograph and phrase before you can respond, so try your best to focus.</p><p>An example is given below. Press 'Continue' when you are ready.</p><img src='img/speaking_example.jpg' style='width:800px;height:460px;''></img>",0,html-button-response,41,346727,0.0-4.0,20890,List1A,black,woman,,,,,,,,,,,,,
3261.4,"<p>Before the experiment starts, you will watch two example trials. Press 'Continue'.</p>",0,html-button-response,42,350990,0.0-5.0,20890,List1A,black,woman,,,,,,,,,,,,,
null,<img src='img/play_eg.gif' style='height:400px;''></img>,,html-keyboard-response,43,353999,0.0-6.0,20890,List1A,black,woman,,,,null,,,,,,,,,
null,<p>is playing with</p>,,html-keyboard-response,44,356006,0.0-7.0,20890,List1A,black,woman,,,,null,,,,,,,,,
4978.1,<p><b>Answer:</b> kate is playing with beth</p>,0,html-button-response,45,360986,0.0-8.0,20890,List1A,black,woman,,,,,,,,,,,,,
null,<img src='img/dance_eg.gif' style='height:400px;''></img>,,html-keyboard-response,46,363999,0.0-9.0,20890,List1A,black,woman,,,,null,,,,,,,,,
null,<p>is being entertained by</p>,,html-keyboard-response,47,366003,0.0-10.0,20890,List1A,black,woman,,,,null,,,,,,,,,
6956.6,<p><b>Answer:</b> luke is being entertained by dave</p>,0,html-button-response,48,372961,0.0-11.0,20890,List1A,black,woman,,,,,,,,,,,,,
48635.9,"<p>Ready to start the experiment?</p><br><p><strong>Remember to describe the picture using a full sentence,</strong></p><p><strong>that combines the names of the people with the <i>exact</i> phrase given.</strong></p><p><strong>To receive full payment you must do this correctly.</strong></p><p><strong> You do not need to capitalise names or use punctuation.</strong></p><br><p>Press 'Continue' to begin.</p>",0,html-button-response,49,422611,0.0-12.0,20890,List1A,black,woman,,,,,,,,,,,,,
null,"<div style=""font-size:60px;"">+</div>",,html-keyboard-response,50,424123,0.0-13.0-0.0,20890,List1A,black,woman,,,,null,,,,,,,,,
null,"<img src=""stim_listA/kiss4.gif""style=""height:400px;""></stim_listA>",,html-keyboard-response,51,426128,0.0-13.0-1.0,20890,List1A,black,woman,,,,null,,,,,,,,,
null,is being kissed by,,html-keyboard-response,52,428129,0.0-13.0-2.0,20890,List1A,black,woman,,,,null,,,,,,,,,
12783.9,,,survey-text,53,440915,0.0-13.0-3.0,20890,List1A,black,woman,,,,,"{""Q0"":""dave is being kissed by ruth""}","<img src=""stim_listA/kiss4.gif""style=""height:400px;""></stim_listA>",is being kissed by,,,,,,
null,"<div style=""font-size:60px;"">+</div>",,html-keyboard-response,54,441422,0.0-13.0-0.1,20890,List1A,black,woman,,,,null,,,,,,,,,
null,"<img src=""stim_listA/seduce4.gif""style=""height:400px;""></stim_listA>",,html-keyboard-response,55,443437,0.0-13.0-1.1,20890,List1A,black,woman,,,,null,,,,,,,,,
null,is being seduced by,,html-keyboard-response,56,445441,0.0-13.0-2.1,20890,List1A,black,woman,,,,null,,,,,,,,,
10838.7,,,survey-text,57,456282,0.0-13.0-3.1,20890,List1A,black,woman,,,,,"{""Q0"":""dave is being seduced by ruth""}","<img src=""stim_listA/seduce4.gif""style=""height:400px;""></stim_listA>",is being seduced by,,,,,,
null,"<div style=""font-size:60px;"">+</div>",,html-keyboard-response,58,456784,0.0-13.0-0.2,20890,List1A,black,woman,,,,null,,,,,,,,,
null,"<img src=""stim_listA/challenge3.gif""style=""height:400px;""></stim_listA>",,html-keyboard-response,59,458796,0.0-13.0-1.2,20890,List1A,black,woman,,,,null,,,,,,,,,
null,is challenging,,html-keyboard-response,60,460810,0.0-13.0-2.2,20890,List1A,black,woman,,,,null,,,,,,,,,
9395.7,,,survey-text,61,470209,0.0-13.0-3.2,20890,List1A,black,woman,,,,,"{""Q0"":""ruth is challenging dave""}","<img src=""stim_listA/challenge3.gif""style=""height:400px;""></stim_listA>",is challenging,,,,,,
null,"<div style=""font-size:60px;"">+</div>",,html-keyboard-response,62,470719,0.0-13.0-0.3,20890,List1A,black,woman,,,,null,,,,,,,,,
null,"<img src=""stim_listA/shout3.gif""style=""height:400px;""></stim_listA>",,html-keyboard-response,63,472735,0.0-13.0-1.3,20890,List1A,black,woman,,,,null,,,,,,,,,
null,is shouting at,,html-keyboard-response,64,474738,0.0-13.0-2.3,20890,List1A,black,woman,,,,null,,,,,,,,,
7556,,,survey-text,65,482295,0.0-13.0-3.3,20890,List1A,black,woman,,,,,"{""Q0"":""ruth is shouting at luke""}","<img src=""stim_listA/shout3.gif""style=""height:400px;""></stim_listA>",is shouting at,,,,,,
null,"<div style=""font-size:60px;"">+</div>",,html-keyboard-response,66,482801,0.0-13.0-0.4,20890,List1A,black,woman,,,,null,,,,,,,,,
null,"<img src=""stim_listA/challenge2.gif""style=""height:400px;""></stim_listA>",,html-keyboard-response,67,484802,0.0-13.0-1.4,20890,List1A,black,woman,,,,null,,,,,,,,,
null,is being challenged by,,html-keyboard-response,68,486806,0.0-13.0-2.4,20890,List1A,black,woman,,,,null,,,,,,,,,
11505.1,,,survey-text,69,498313,0.0-13.0-3.4,20890,List1A,black,woman,,,,,"{""Q0"":""kate is being challenged by fred""}","<img src=""stim_listA/challenge2.gif""style=""height:400px;""></stim_listA>",is being challenged by,,,,,,
null,"<div style=""font-size:60px;"">+</div>",,html-keyboard-response,70,498831,0.0-13.0-0.5,20890,List1A,black,woman,,,,null,,,,,,,,,
null,"<img src=""stim_listA/oppose8.gif""style=""height:400px;""></stim_listA>",,html-keyboard-response,71,500833,0.0-13.0-1.5,20890,List1A,black,woman,,,,null,,,,,,,,,
null,is being opposed by,,html-keyboard-response,72,502845,0.0-13.0-2.5,20890,List1A,black,woman,,,,null,,,,,,,,,
7104.3,,,survey-text,73,509952,0.0-13.0-3.5,20890,List1A,black,woman,,,,,"{""Q0"":""beth is being opposed by ruth""}","<img src=""stim_listA/oppose8.gif""style=""height:400px;""></stim_listA>",is being opposed by,,,,,,
null,"<div style=""font-size:60px;"">+</div>",,html-keyboard-response,74,510455,0.0-13.0-0.6,20890,List1A,black,woman,,,,null,,,,,,,,,
null,"<img src=""stim_listA/greet7.gif""style=""height:400px;""></stim_listA>",,html-keyboard-response,75,512457,0.0-13.0-1.6,20890,List1A,black,woman,,,,null,,,,,,,,,
null,is greeting,,html-keyboard-response,76,514458,0.0-13.0-2.6,20890,List1A,black,woman,,,,null,,,,,,,,,
6673.7,,,survey-text,77,521134,0.0-13.0-3.6,20890,List1A,black,woman,,,,,"{""Q0"":""ruth is greeting kate""}","<img src=""stim_listA/greet7.gif""style=""height:400px;""></stim_listA>",is greeting,,,,,,
null,"<div style=""font-size:60px;"">+</div>",,html-keyboard-response,78,521643,0.0-13.0-0.7,20890,List1A,black,woman,,,,null,,,,,,,,,
null,"<img src=""stim_listA/copy2.gif""style=""height:400px;""></stim_listA>",,html-keyboard-response,79,523660,0.0-13.0-1.7,20890,List1A,black,woman,,,,null,,,,,,,,,
null,is being copied by,,html-keyboard-response,80,525671,0.0-13.0-2.7,20890,List1A,black,woman,,,,null,,,,,,,,,
8653.7,,,survey-text,81,534327,0.0-13.0-3.7,20890,List1A,black,woman,,,,,"{""Q0"":""kate is being copied by fred""}","<img src=""stim_listA/copy2.gif""style=""height:400px;""></stim_listA>",is being copied by,,,,,,
null,"<div style=""font-size:60px;"">+</div>",,html-keyboard-response,82,534829,0.0-13.0-0.8,20890,List1A,black,woman,,,,null,,,,,,,,,
null,"<img src=""stim_listA/greet5.gif""style=""height:400px;""></stim_listA>",,html-keyboard-response,83,536843,0.0-13.0-1.8,20890,List1A,black,woman,,,,null,,,,,,,,,
null,is greeting,,html-keyboard-response,84,538845,0.0-13.0-2.8,20890,List1A,black,woman,,,,null,,,,,,,,,
5169.8,,,survey-text,85,544017,0.0-13.0-3.8,20890,List1A,black,woman,,,,,"{""Q0"":""luke is greeting mike""}","<img src=""stim_listA/greet5.gif""style=""height:400px;""></stim_listA>",is greeting,,,,,,
null,"<div style=""font-size:60px;"">+</div>",,html-keyboard-response,86,544533,0.0-13.0-0.9,20890,List1A,black,woman,,,,null,,,,,,,,,
null,"<img src=""stim_listA/challenge1.gif""style=""height:400px;""></stim_listA>",,html-keyboard-response,87,546548,0.0-13.0-1.9,20890,List1A,black,woman,,,,null,,,,,,,,,
null,is challenging,,html-keyboard-response,88,548564,0.0-13.0-2.9,20890,List1A,black,woman,,,,null,,,,,,,,,
7449,,,survey-text,89,556016,0.0-13.0-3.9,20890,List1A,black,woman,,,,,"{""Q0"":""mike is challenging beth""}","<img src=""stim_listA/challenge1.gif""style=""height:400px;""></stim_listA>",is challenging,,,,,,
null,"<div style=""font-size:60px;"">+</div>",,html-keyboard-response,90,556527,0.0-13.0-0.10,20890,List1A,black,woman,,,,null,,,,,,,,,
null,"<img src=""stim_listA/oppose7.gif""style=""height:400px;""></stim_listA>",,html-keyboard-response,91,558530,0.0-13.0-1.10,20890,List1A,black,woman,,,,null,,,,,,,,,
null,is opposing,,html-keyboard-response,92,560535,0.0-13.0-2.10,20890,List1A,black,woman,,,,null,,,,,,,,,
7850.9,,,survey-text,93,568388,0.0-13.0-3.10,20890,List1A,black,woman,,,,,"{""Q0"":""jane is opposing kate""}","<img src=""stim_listA/oppose7.gif""style=""height:400px;""></stim_listA>",is opposing,,,,,,
null,"<div style=""font-size:60px;"">+</div>",,html-keyboard-response,94,568905,0.0-13.0-0.11,20890,List1A,black,woman,,,,null,,,,,,,,,
null,"<img src=""stim_listA/kiss1.gif""style=""height:400px;""></stim_listA>",,html-keyboard-response,95,570910,0.0-13.0-1.11,20890,List1A,black,woman,,,,null,,,,,,,,,
null,is kissing,,html-keyboard-response,96,572917,0.0-13.0-2.11,20890,List1A,black,woman,,,,null,,,,,,,,,
6070.7,,,survey-text,97,578989,0.0-13.0-3.11,20890,List1A,black,woman,,,,,"{""Q0"":""beth is kissing fred""}","<img src=""stim_listA/kiss1.gif""style=""height:400px;""></stim_listA>",is kissing,,,,,,
null,"<div style=""font-size:60px;"">+</div>",,html-keyboard-response,98,579503,0.0-13.0-0.12,20890,List1A,black,woman,,,,null,,,,,,,,,
null,"<img src=""stim_listA/copy7.gif""style=""height:400px;""></stim_listA>",,html-keyboard-response,99,581520,0.0-13.0-1.12,20890,List1A,black,woman,,,,null,,,,,,,,,
null,is copying,,html-keyboard-response,100,583526,0.0-13.0-2.12,20890,List1A,black,woman,,,,null,,,,,,,,,
6121.7,,,survey-text,101,589651,0.0-13.0-3.12,20890,List1A,black,woman,,,,,"{""Q0"":""jane is copying kate""}","<img src=""stim_listA/copy7.gif""style=""height:400px;""></stim_listA>",is copying,,,,,,
null,"<div style=""font-size:60px;"">+</div>",,html-keyboard-response,102,590166,0.0-13.0-0.13,20890,List1A,black,woman,,,,null,,,,,,,,,
null,"<img src=""stim_listA/look4.gif""style=""height:400px;""></stim_listA>",,html-keyboard-response,103,592168,0.0-13.0-1.13,20890,List1A,black,woman,,,,null,,,,,,,,,
null,is being looked at by,,html-keyboard-response,104,594170,0.0-13.0-2.13,20890,List1A,black,woman,,,,null,,,,,,,,,
10663.5,,,survey-text,105,604836,0.0-13.0-3.13,20890,List1A,black,woman,,,,,"{""Q0"":""jane is being looked at by dave""}","<img src=""stim_listA/look4.gif""style=""height:400px;""></stim_listA>",is being looked at by,,,,,,
null,"<div style=""font-size:60px;"">+</div>",,html-keyboard-response,106,605345,0.0-13.0-0.14,20890,List1A,black,woman,,,,null,,,,,,,,,
null,"<img src=""stim_listA/seduce6.gif""style=""height:400px;""></stim_listA>",,html-keyboard-response,107,607357,0.0-13.0-1.14,20890,List1A,black,woman,,,,null,,,,,,,,,
null,is being seduced by,,html-keyboard-response,108,609362,0.0-13.0-2.14,20890,List1A,black,woman,,,,null,,,,,,,,,
10557.4,,,survey-text,109,619923,0.0-13.0-3.14,20890,List1A,black,woman,,,,,"{""Q0"":""mike is being seduced by luke""}","<img src=""stim_listA/seduce6.gif""style=""height:400px;""></stim_listA>",is being seduced by,,,,,,
null,"<div style=""font-size:60px;"">+</div>",,html-keyboard-response,110,620424,0.0-13.0-0.15,20890,List1A,black,woman,,,,null,,,,,,,,,
null,"<img src=""stim_listA/greet3.gif""style=""height:400px;""></stim_listA>",,html-keyboard-response,111,622440,0.0-13.0-1.15,20890,List1A,black,woman,,,,null,,,,,,,,,
null,is greeting,,html-keyboard-response,112,624446,0.0-13.0-2.15,20890,List1A,black,woman,,,,null,,,,,,,,,
8427.9,,,survey-text,113,632876,0.0-13.0-3.15,20890,List1A,black,woman,,,,,"{""Q0"":""luke is greeting mike""}","<img src=""stim_listA/greet3.gif""style=""height:400px;""></stim_listA>",is greeting,,,,,,
null,"<div style=""font-size:60px;"">+</div>",,html-keyboard-response,114,633388,0.0-13.0-0.16,20890,List1A,black,woman,,,,null,,,,,,,,,
null,"<img src=""stim_listA/oppose1.gif""style=""height:400px;""></stim_listA>",,html-keyboard-response,115,635391,0.0-13.0-1.16,20890,List1A,black,woman,,,,null,,,,,,,,,
null,is opposing,,html-keyboard-response,116,637396,0.0-13.0-2.16,20890,List1A,black,woman,,,,null,,,,,,,,,
9765.9,,,survey-text,117,647164,0.0-13.0-3.16,20890,List1A,black,woman,,,,,"{""Q0"":""kate is opposing mike""}","<img src=""stim_listA/oppose1.gif""style=""height:400px;""></stim_listA>",is opposing,,,,,,
null,"<div style=""font-size:60px;"">+</div>",,html-keyboard-response,118,647675,0.0-13.0-0.17,20890,List1A,black,woman,,,,null,,,,,,,,,
null,"<img src=""stim_listA/kiss2.gif""style=""height:400px;""></stim_listA>",,html-keyboard-response,119,649689,0.0-13.0-1.17,20890,List1A,black,woman,,,,null,,,,,,,,,
null,is being kissed by,,html-keyboard-response,120,651705,0.0-13.0-2.17,20890,List1A,black,woman,,,,null,,,,,,,,,
8444.5,,,survey-text,121,660152,0.0-13.0-3.17,20890,List1A,black,woman,,,,,"{""Q0"":""kate is being kissed by mike""}","<img src=""stim_listA/kiss2.gif""style=""height:400px;""></stim_listA>",is being kissed by,,,,,,
null,"<div style=""font-size:60px;"">+</div>",,html-keyboard-response,122,660659,0.0-13.0-0.18,20890,List1A,black,woman,,,,null,,,,,,,,,
null,"<img src=""stim_listA/hug1.gif""style=""height:400px;""></stim_listA>",,html-keyboard-response,123,662662,0.0-13.0-1.18,20890,List1A,black,woman,,,,null,,,,,,,,,
null,is hugging,,html-keyboard-response,124,664669,0.0-13.0-2.18,20890,List1A,black,woman,,,,null,,,,,,,,,
7545.7,,,survey-text,125,672217,0.0-13.0-3.18,20890,List1A,black,woman,,,,,"{""Q0"":""beth is hugging fred""}","<img src=""stim_listA/hug1.gif""style=""height:400px;""></stim_listA>",is hugging,,,,,,
null,"<div style=""font-size:60px;"">+</div>",,html-keyboard-response,126,672720,0.0-13.0-0.19,20890,List1A,black,woman,,,,null,,,,,,,,,
null,"<img src=""stim_listA/touch6.gif""style=""height:400px;""></stim_listA>",,html-keyboard-response,127,674723,0.0-13.0-1.19,20890,List1A,black,woman,,,,null,,,,,,,,,
null,is being touched by,,html-keyboard-response,128,676739,0.0-13.0-2.19,20890,List1A,black,woman,,,,null,,,,,,,,,
8075.1,,,survey-text,129,684816,0.0-13.0-3.19,20890,List1A,black,woman,,,,,"{""Q0"":""fred is being touched by luke""}","<img src=""stim_listA/touch6.gif""style=""height:400px;""></stim_listA>",is being touched by,,,,,,
148511.3,"<img src='img/portrait_matrix_list1.jpg' style='width:900px;height:500px;''></img><p>If you have memorised all the portraits and names and are ready to start, press Continue.</p><p><strong>Please note: Your memory of these faces will be tested 4 times during this experiment.</strong></p>",0,html-button-response,130,833328,0.0-14.0-0.0,20890,List1A,black,woman,,,,,,,,,,,,,
6555.1,"<img src=""portrait/WM1.jpg""style=""height:400px;""></img>",6,html-button-response,131,840888,0.0-14.0-1.0,20890,List1A,black,woman,,TRUE,6,,,,,,,,,,
null,CORRECT,,html-keyboard-response,132,842406,0.0-14.0-2.0-0.0,20890,List1A,black,woman,,,,null,,,,,,,,,
2157.2,"<img src=""portrait/BW2.jpg""style=""height:400px;""></img>",2,html-button-response,133,844564,0.0-14.0-4.0,20890,List1A,black,woman,,TRUE,2,,,,,,,,,,
null,CORRECT,,html-keyboard-response,134,846081,0.0-14.0-5.0-0.0,20890,List1A,black,woman,,,,null,,,,,,,,,
5665.4,"<img src=""portrait/BM1.jpg""style=""height:400px;""></img>",4,html-button-response,135,851748,0.0-14.0-7.0,20890,List1A,black,woman,,TRUE,4,,,,,,,,,,
null,CORRECT,,html-keyboard-response,136,853252,0.0-14.0-8.0-0.0,20890,List1A,black,woman,,,,null,,,,,,,,,
1593.2,"<img src=""portrait/WW1.jpg""style=""height:400px;""></img>",1,html-button-response,137,854846,0.0-14.0-10.0,20890,List1A,black,woman,,TRUE,1,,,,,,,,,,
null,CORRECT,,html-keyboard-response,138,856349,0.0-14.0-11.0-0.0,20890,List1A,black,woman,,,,null,,,,,,,,,
1730.7,"<img src=""portrait/WW2.jpg""style=""height:400px;""></img>",3,html-button-response,139,858081,0.0-14.0-13.0,20890,List1A,black,woman,,TRUE,3,,,,,,,,,,
null,CORRECT,,html-keyboard-response,140,859593,0.0-14.0-14.0-0.0,20890,List1A,black,woman,,,,null,,,,,,,,,
2633.1,"<img src=""portrait/BM2.jpg""style=""height:400px;""></img>",5,html-button-response,141,862227,0.0-14.0-16.0,20890,List1A,black,woman,,TRUE,5,,,,,,,,,,
null,CORRECT,,html-keyboard-response,142,863740,0.0-14.0-17.0-0.0,20890,List1A,black,woman,,,,null,,,,,,,,,
3087.6,"<img src=""portrait/BW1.jpg""style=""height:400px;""></img>",0,html-button-response,143,866829,0.0-14.0-19.0,20890,List1A,black,woman,,TRUE,0,,,,,,,,,,
null,CORRECT,,html-keyboard-response,144,868362,0.0-14.0-20.0-0.0,20890,List1A,black,woman,,,,null,,,,,,,,,
2846.5,"<img src=""portrait/WM2.jpg""style=""height:400px;""></img>",7,html-button-response,145,871210,0.0-14.0-22.0,20890,List1A,black,woman,,TRUE,7,,,,,,,,,,
null,CORRECT,,html-keyboard-response,146,872720,0.0-14.0-23.0-0.0,20890,List1A,black,woman,,,,null,,,,,,,,,
1093.3,<p>You got 8 out of 8 right first time. Press Continue.</p>,0,html-button-response,147,873814,0.0-14.0-25.0,20890,List1A,black,woman,,,,,,,,,,,,,
null,"<div style=""font-size:60px;"">+</div>",,html-keyboard-response,148,875348,0.0-15.0-0.0,20890,List1A,black,woman,,,,null,,,,,,,,,
null,"<img src=""stim_listA/look3.gif""style=""height:400px;""></stim_listA>",,html-keyboard-response,149,877360,0.0-15.0-1.0,20890,List1A,black,woman,,,,null,,,,,,,,,
null,is looking at,,html-keyboard-response,150,879363,0.0-15.0-2.0,20890,List1A,black,woman,,,,null,,,,,,,,,
6913.6,,,survey-text,151,886279,0.0-15.0-3.0,20890,List1A,black,woman,,,,,"{""Q0"":""ruth is looking at luke""}","<img src=""stim_listA/look3.gif""style=""height:400px;""></stim_listA>",is looking at,,,,,,
null,"<div style=""font-size:60px;"">+</div>",,html-keyboard-response,152,886782,0.0-15.0-0.1,20890,List1A,black,woman,,,,null,,,,,,,,,
null,"<img src=""stim_listA/hug8.gif""style=""height:400px;""></stim_listA>",,html-keyboard-response,153,888786,0.0-15.0-1.1,20890,List1A,black,woman,,,,null,,,,,,,,,
null,is being hugged by,,html-keyboard-response,154,890799,0.0-15.0-2.1,20890,List1A,black,woman,,,,null,,,,,,,,,
6508.2,,,survey-text,155,897309,0.0-15.0-3.1,20890,List1A,black,woman,,,,,"{""Q0"":""kate is being hugged by jane""}","<img src=""stim_listA/hug8.gif""style=""height:400px;""></stim_listA>",is being hugged by,,,,,,
null,"<div style=""font-size:60px;"">+</div>",,html-keyboard-response,156,897812,0.0-15.0-0.2,20890,List1A,black,woman,,,,null,,,,,,,,,
null,"<img src=""stim_listA/greet6.gif""style=""height:400px;""></stim_listA>",,html-keyboard-response,157,899828,0.0-15.0-1.2,20890,List1A,black,woman,,,,null,,,,,,,,,
null,is being greeted by,,html-keyboard-response,158,901843,0.0-15.0-2.2,20890,List1A,black,woman,,,,null,,,,,,,,,
7240.3,,,survey-text,159,909085,0.0-15.0-3.2,20890,List1A,black,woman,,,,,"{""Q0"":""fred is being greeted by dave""}","<img src=""stim_listA/greet6.gif""style=""height:400px;""></stim_listA>",is being greeted by,,,,,,
null,"<div style=""font-size:60px;"">+</div>",,html-keyboard-response,160,909599,0.0-15.0-0.3,20890,List1A,black,woman,,,,null,,,,,,,,,
null,"<img src=""stim_listA/seduce8.gif""style=""height:400px;""></stim_listA>",,html-keyboard-response,161,911602,0.0-15.0-1.3,20890,List1A,black,woman,,,,null,,,,,,,,,
null,is being seduced by,,html-keyboard-response,162,913613,0.0-15.0-2.3,20890,List1A,black,woman,,,,null,,,,,,,,,
6007.9,,,survey-text,163,919627,0.0-15.0-3.3,20890,List1A,black,woman,,,,,"{""Q0"":""kate is being seduced by ruth""}","<img src=""stim_listA/seduce8.gif""style=""height:400px;""></stim_listA>",is being seduced by,,,,,,
null,"<div style=""font-size:60px;"">+</div>",,html-keyboard-response,164,920132,0.0-15.0-0.4,20890,List1A,black,woman,,,,null,,,,,,,,,
null,"<img src=""stim_listA/kiss5.gif""style=""height:400px;""></stim_listA>",,html-keyboard-response,165,922140,0.0-15.0-1.4,20890,List1A,black,woman,,,,null,,,,,,,,,
null,is kissing,,html-keyboard-response,166,924146,0.0-15.0-2.4,20890,List1A,black,woman,,,,null,,,,,,,,,
4313.9,,,survey-text,167,928462,0.0-15.0-3.4,20890,List1A,black,woman,,,,,"{""Q0"":""luke is kissing fred""}","<img src=""stim_listA/kiss5.gif""style=""height:400px;""></stim_listA>",is kissing,,,,,,
null,"<div style=""font-size:60px;"">+</div>",,html-keyboard-response,168,928971,0.0-15.0-0.5,20890,List1A,black,woman,,,,null,,,,,,,,,
null,"<img src=""stim_listA/shout6.gif""style=""height:400px;""></stim_listA>",,html-keyboard-response,169,930987,0.0-15.0-1.5,20890,List1A,black,woman,,,,null,,,,,,,,,
null,is being shouted at by,,html-keyboard-response,170,933001,0.0-15.0-2.5,20890,List1A,black,woman,,,,null,,,,,,,,,
12044.8,,,survey-text,171,945048,0.0-15.0-3.5,20890,List1A,black,woman,,,,,"{""Q0"":""mike is being shouted at by luke""}","<img src=""stim_listA/shout6.gif""style=""height:400px;""></stim_listA>",is being shouted at by,,,,,,
null,"<div style=""font-size:60px;"">+</div>",,html-keyboard-response,172,945549,0.0-15.0-0.6,20890,List1A,black,woman,,,,null,,,,,,,,,
null,"<img src=""stim_listA/look1.gif""style=""height:400px;""></stim_listA>",,html-keyboard-response,173,947556,0.0-15.0-1.6,20890,List1A,black,woman,,,,null,,,,,,,,,
null,is looking at,,html-keyboard-response,174,949558,0.0-15.0-2.6,20890,List1A,black,woman,,,,null,,,,,,,,,
6392.9,,,survey-text,175,955953,0.0-15.0-3.6,20890,List1A,black,woman,,,,,"{""Q0"":""beth is looking at fred""}","<img src=""stim_listA/look1.gif""style=""height:400px;""></stim_listA>",is looking at,,,,,,
null,"<div style=""font-size:60px;"">+</div>",,html-keyboard-response,176,956467,0.0-15.0-0.7,20890,List1A,black,woman,,,,null,,,,,,,,,
null,"<img src=""stim_listA/copy5.gif""style=""height:400px;""></stim_listA>",,html-keyboard-response,177,958469,0.0-15.0-1.7,20890,List1A,black,woman,,,,null,,,,,,,,,
null,is copying,,html-keyboard-response,178,960484,0.0-15.0-2.7,20890,List1A,black,woman,,,,null,,,,,,,,,
5059.6,,,survey-text,179,965545,0.0-15.0-3.7,20890,List1A,black,woman,,,,,"{""Q0"":""mike is copying luke""}","<img src=""stim_listA/copy5.gif""style=""height:400px;""></stim_listA>",is copying,,,,,,
null,"<div style=""font-size:60px;"">+</div>",,html-keyboard-response,180,966054,0.0-15.0-0.8,20890,List1A,black,woman,,,,null,,,,,,,,,
null,"<img src=""stim_listA/look8.gif""style=""height:400px;""></stim_listA>",,html-keyboard-response,181,968066,0.0-15.0-1.8,20890,List1A,black,woman,,,,null,,,,,,,,,
null,is being looked at by,,html-keyboard-response,182,970077,0.0-15.0-2.8,20890,List1A,black,woman,,,,null,,,,,,,,,
5979.7,,,survey-text,183,976060,0.0-15.0-3.8,20890,List1A,black,woman,,,,,"{""Q0"":""jane is being looked at by kate""}","<img src=""stim_listA/look8.gif""style=""height:400px;""></stim_listA>",is being looked at by,,,,,,
null,"<div style=""font-size:60px;"">+</div>",,html-keyboard-response,184,976574,0.0-15.0-0.9,20890,List1A,black,woman,,,,null,,,,,,,,,
null,"<img src=""stim_listA/copy1.gif""style=""height:400px;""></stim_listA>",,html-keyboard-response,185,978579,0.0-15.0-1.9,20890,List1A,black,woman,,,,null,,,,,,,,,
null,is copying,,html-keyboard-response,186,980582,0.0-15.0-2.9,20890,List1A,black,woman,,,,null,,,,,,,,,
4549.3,,,survey-text,187,985134,0.0-15.0-3.9,20890,List1A,black,woman,,,,,"{""Q0"":""beth is copying mike""}","<img src=""stim_listA/copy1.gif""style=""height:400px;""></stim_listA>",is copying,,,,,,
null,"<div style=""font-size:60px;"">+</div>",,html-keyboard-response,188,985647,0.0-15.0-0.10,20890,List1A,black,woman,,,,null,,,,,,,,,
null,"<img src=""stim_listA/greet8.gif""style=""height:400px;""></stim_listA>",,html-keyboard-response,189,987660,0.0-15.0-1.10,20890,List1A,black,woman,,,,null,,,,,,,,,
null,is being greeted by,,html-keyboard-response,190,989676,0.0-15.0-2.10,20890,List1A,black,woman,,,,null,,,,,,,,,
5275.2,,,survey-text,191,994955,0.0-15.0-3.10,20890,List1A,black,woman,,,,,"{""Q0"":""beth is being greeted by jane""}","<img src=""stim_listA/greet8.gif""style=""height:400px;""></stim_listA>",is being greeted by,,,,,,
null,"<div style=""font-size:60px;"">+</div>",,html-keyboard-response,192,995458,0.0-15.0-0.11,20890,List1A,black,woman,,,,null,,,,,,,,,
null,"<img src=""stim_listA/hug6.gif""style=""height:400px;""></stim_listA>",,html-keyboard-response,193,997460,0.0-15.0-1.11,20890,List1A,black,woman,,,,null,,,,,,,,,
null,is being hugged by,,html-keyboard-response,194,999473,0.0-15.0-2.11,20890,List1A,black,woman,,,,null,,,,,,,,,
4722,,,survey-text,195,1004197,0.0-15.0-3.11,20890,List1A,black,woman,,,,,"{""Q0"":""mike is being hugged by dave""}","<img src=""stim_listA/hug6.gif""style=""height:400px;""></stim_listA>",is being hugged by,,,,,,
null,"<div style=""font-size:60px;"">+</div>",,html-keyboard-response,196,1004704,0.0-15.0-0.12,20890,List1A,black,woman,,,,null,,,,,,,,,
null,"<img src=""stim_listA/challenge8.gif""style=""height:400px;""></stim_listA>",,html-keyboard-response,197,1006720,0.0-15.0-1.12,20890,List1A,black,woman,,,,null,,,,,,,,,
null,is being challenged by,,html-keyboard-response,198,1008733,0.0-15.0-2.12,20890,List1A,black,woman,,,,null,,,,,,,,,
6696.8,,,survey-text,199,1015432,0.0-15.0-3.12,20890,List1A,black,woman,,,,,"{""Q0"":""beth is being challenged by jane""}","<img src=""stim_listA/challenge8.gif""style=""height:400px;""></stim_listA>",is being challenged by,,,,,,
null,"<div style=""font-size:60px;"">+</div>",,html-keyboard-response,200,1015949,0.0-15.0-0.13,20890,List1A,black,woman,,,,null,,,,,,,,,
null,"<img src=""stim_listA/kiss7.gif""style=""height:400px;""></stim_listA>",,html-keyboard-response,201,1017951,0.0-15.0-1.13,20890,List1A,black,woman,,,,null,,,,,,,,,
null,is kissing,,html-keyboard-response,202,1019956,0.0-15.0-2.13,20890,List1A,black,woman,,,,null,,,,,,,,,
3495.2,,,survey-text,203,1023453,0.0-15.0-3.13,20890,List1A,black,woman,,,,,"{""Q0"":""ruth is kissing beth""}","<img src=""stim_listA/kiss7.gif""style=""height:400px;""></stim_listA>",is kissing,,,,,,
null,"<div style=""font-size:60px;"">+</div>",,html-keyboard-response,204,1023968,0.0-15.0-0.14,20890,List1A,black,woman,,,,null,,,,,,,,,
null,"<img src=""stim_listA/look2.gif""style=""height:400px;""></stim_listA>",,html-keyboard-response,205,1025976,0.0-15.0-1.14,20890,List1A,black,woman,,,,null,,,,,,,,,
null,is being looked at by,,html-keyboard-response,206,1027986,0.0-15.0-2.14,20890,List1A,black,woman,,,,null,,,,,,,,,
11706.3,,,survey-text,207,1039695,0.0-15.0-3.14,20890,List1A,black,woman,,,,,"{""Q0"":""kate is being looked at by mike""}","<img src=""stim_listA/look2.gif""style=""height:400px;""></stim_listA>",is being looked at by,,,,,,
null,"<div style=""font-size:60px;"">+</div>",,html-keyboard-response,208,1040199,0.0-15.0-0.15,20890,List1A,black,woman,,,,null,,,,,,,,,
null,"<img src=""stim_listA/hug3.gif""style=""height:400px;""></stim_listA>",,html-keyboard-response,209,1042204,0.0-15.0-1.15,20890,List1A,black,woman,,,,null,,,,,,,,,
null,is hugging,,html-keyboard-response,210,1044208,0.0-15.0-2.15,20890,List1A,black,woman,,,,null,,,,,,,,,
5273.9,,,survey-text,211,1049484,0.0-15.0-3.15,20890,List1A,black,woman,,,,,"{""Q0"":""ruth is hugging luke""}","<img src=""stim_listA/hug3.gif""style=""height:400px;""></stim_listA>",is hugging,,,,,,
null,"<div style=""font-size:60px;"">+</div>",,html-keyboard-response,212,1049999,0.0-15.0-0.16,20890,List1A,black,woman,,,,null,,,,,,,,,
null,"<img src=""stim_listA/oppose3.gif""style=""height:400px;""></stim_listA>",,html-keyboard-response,213,1052001,0.0-15.0-1.16,20890,List1A,black,woman,,,,null,,,,,,,,,
null,is opposing,,html-keyboard-response,214,1054003,0.0-15.0-2.16,20890,List1A,black,woman,,,,null,,,,,,,,,
6140.7,,,survey-text,215,1060146,0.0-15.0-3.16,20890,List1A,black,woman,,,,,"{""Q0"":""jane is opposing dave""}","<img src=""stim_listA/oppose3.gif""style=""height:400px;""></stim_listA>",is opposing,,,,,,
null,"<div style=""font-size:60px;"">+</div>",,html-keyboard-response,216,1060648,0.0-15.0-0.17,20890,List1A,black,woman,,,,null,,,,,,,,,
null,"<img src=""stim_listA/greet1.gif""style=""height:400px;""></stim_listA>",,html-keyboard-response,217,1062658,0.0-15.0-1.17,20890,List1A,black,woman,,,,null,,,,,,,,,
null,is greeting,,html-keyboard-response,218,1064660,0.0-15.0-2.17,20890,List1A,black,woman,,,,null,,,,,,,,,
4412.9,,,survey-text,219,1069075,0.0-15.0-3.17,20890,List1A,black,woman,,,,,"{""Q0"":""beth is greeting mike""}","<img src=""stim_listA/greet1.gif""style=""height:400px;""></stim_listA>",is greeting,,,,,,
null,"<div style=""font-size:60px;"">+</div>",,html-keyboard-response,220,1069582,0.0-15.0-0.18,20890,List1A,black,woman,,,,null,,,,,,,,,
null,"<img src=""stim_listA/shout8.gif""style=""height:400px;""></stim_listA>",,html-keyboard-response,221,1071586,0.0-15.0-1.18,20890,List1A,black,woman,,,,null,,,,,,,,,
null,is being shouted at by,,html-keyboard-response,222,1073591,0.0-15.0-2.18,20890,List1A,black,woman,,,,null,,,,,,,,,
5920.9,,,survey-text,223,1079514,0.0-15.0-3.18,20890,List1A,black,woman,,,,,"{""Q0"":""kate is being shouted at by jane""}","<img src=""stim_listA/shout8.gif""style=""height:400px;""></stim_listA>",is being shouted at by,,,,,,
null,"<div style=""font-size:60px;"">+</div>",,html-keyboard-response,224,1080027,0.0-15.0-0.19,20890,List1A,black,woman,,,,null,,,,,,,,,
null,"<img src=""stim_listA/oppose4.gif""style=""height:400px;""></stim_listA>",,html-keyboard-response,225,1082030,0.0-15.0-1.19,20890,List1A,black,woman,,,,null,,,,,,,,,
null,is being opposed by,,html-keyboard-response,226,1084045,0.0-15.0-2.19,20890,List1A,black,woman,,,,null,,,,,,,,,
6406.5,,,survey-text,227,1090454,0.0-15.0-3.19,20890,List1A,black,woman,,,,,"{""Q0"":""ruth is being opposed by luke""}","<img src=""stim_listA/oppose4.gif""style=""height:400px;""></stim_listA>",is being opposed by,,,,,,
83012.4,"<img src='img/portrait_matrix_list1.jpg' style='width:900px;height:500px;''></img><p>If you have memorised all the portraits and names and are ready to start, press Continue.</p><p><strong>Please note: Your memory of these faces will be tested 4 times during this experiment.</strong></p>",0,html-button-response,228,1173468,0.0-16.0-0.0,20890,List1A,black,woman,,,,,,,,,,,,,
2923.2,"<img src=""portrait/BM1.jpg""style=""height:400px;""></img>",4,html-button-response,229,1177410,0.0-16.0-1.0,20890,List1A,black,woman,,TRUE,4,,,,,,,,,,
null,CORRECT,,html-keyboard-response,230,1178919,0.0-16.0-2.0-0.0,20890,List1A,black,woman,,,,null,,,,,,,,,
2042.4,"<img src=""portrait/BM2.jpg""style=""height:400px;""></img>",5,html-button-response,231,1180962,0.0-16.0-4.0,20890,List1A,black,woman,,TRUE,5,,,,,,,,,,
null,CORRECT,,html-keyboard-response,232,1182475,0.0-16.0-5.0-0.0,20890,List1A,black,woman,,,,null,,,,,,,,,
1674.1,"<img src=""portrait/WM2.jpg""style=""height:400px;""></img>",7,html-button-response,233,1184151,0.0-16.0-7.0,20890,List1A,black,woman,,TRUE,7,,,,,,,,,,
null,CORRECT,,html-keyboard-response,234,1185671,0.0-16.0-8.0-0.0,20890,List1A,black,woman,,,,null,,,,,,,,,
1911.2,"<img src=""portrait/BW1.jpg""style=""height:400px;""></img>",0,html-button-response,235,1187583,0.0-16.0-10.0,20890,List1A,black,woman,,TRUE,0,,,,,,,,,,
null,CORRECT,,html-keyboard-response,236,1189108,0.0-16.0-11.0-0.0,20890,List1A,black,woman,,,,null,,,,,,,,,
3633,"<img src=""portrait/WM1.jpg""style=""height:400px;""></img>",6,html-button-response,237,1192743,0.0-16.0-13.0,20890,List1A,black,woman,,TRUE,6,,,,,,,,,,
null,CORRECT,,html-keyboard-response,238,1194259,0.0-16.0-14.0-0.0,20890,List1A,black,woman,,,,null,,,,,,,,,
2915.9,"<img src=""portrait/WW2.jpg""style=""height:400px;""></img>",3,html-button-response,239,1197176,0.0-16.0-16.0,20890,List1A,black,woman,,TRUE,3,,,,,,,,,,
null,CORRECT,,html-keyboard-response,240,1198688,0.0-16.0-17.0-0.0,20890,List1A,black,woman,,,,null,,,,,,,,,
1347.6,"<img src=""portrait/WW1.jpg""style=""height:400px;""></img>",1,html-button-response,241,1200037,0.0-16.0-19.0,20890,List1A,black,woman,,TRUE,1,,,,,,,,,,
null,CORRECT,,html-keyboard-response,242,1201551,0.0-16.0-20.0-0.0,20890,List1A,black,woman,,,,null,,,,,,,,,
1178.3,"<img src=""portrait/BW2.jpg""style=""height:400px;""></img>",2,html-button-response,243,1202731,0.0-16.0-22.0,20890,List1A,black,woman,,TRUE,2,,,,,,,,,,
null,CORRECT,,html-keyboard-response,244,1204256,0.0-16.0-23.0-0.0,20890,List1A,black,woman,,,,null,,,,,,,,,
960.6,<p>You got 8 out of 8 right first time. Press Continue.</p>,0,html-button-response,245,1205218,0.0-16.0-25.0,20890,List1A,black,woman,,,,,,,,,,,,,
null,"<div style=""font-size:60px;"">+</div>",,html-keyboard-response,246,1206726,0.0-17.0-0.0,20890,List1A,black,woman,,,,null,,,,,,,,,
null,"<img src=""stim_listA/copy8.gif""style=""height:400px;""></stim_listA>",,html-keyboard-response,247,1208731,0.0-17.0-1.0,20890,List1A,black,woman,,,,null,,,,,,,,,
null,is being copied by,,html-keyboard-response,248,1210736,0.0-17.0-2.0,20890,List1A,black,woman,,,,null,,,,,,,,,
5326.3,,,survey-text,249,1216065,0.0-17.0-3.0,20890,List1A,black,woman,,,,,"{""Q0"":""beth is being copied by jane""}","<img src=""stim_listA/copy8.gif""style=""height:400px;""></stim_listA>",is being copied by,,,,,,
null,"<div style=""font-size:60px;"">+</div>",,html-keyboard-response,250,1216572,0.0-17.0-0.1,20890,List1A,black,woman,,,,null,,,,,,,,,
null,"<img src=""stim_listA/shout1.gif""style=""height:400px;""></stim_listA>",,html-keyboard-response,251,1218578,0.0-17.0-1.1,20890,List1A,black,woman,,,,null,,,,,,,,,
null,is shouting at,,html-keyboard-response,252,1220591,0.0-17.0-2.1,20890,List1A,black,woman,,,,null,,,,,,,,,
7213.4,,,survey-text,253,1227806,0.0-17.0-3.1,20890,List1A,black,woman,,,,,"{""Q0"":""beth is shouting at fred""}","<img src=""stim_listA/shout1.gif""style=""height:400px;""></stim_listA>",is shouting at,,,,,,
null,"<div style=""font-size:60px;"">+</div>",,html-keyboard-response,254,1228315,0.0-17.0-0.2,20890,List1A,black,woman,,,,null,,,,,,,,,
null,"<img src=""stim_listA/greet2.gif""style=""height:400px;""></stim_listA>",,html-keyboard-response,255,1230317,0.0-17.0-1.2,20890,List1A,black,woman,,,,null,,,,,,,,,
null,is being greeted by,,html-keyboard-response,256,1232326,0.0-17.0-2.2,20890,List1A,black,woman,,,,null,,,,,,,,,
5326.4,,,survey-text,257,1237655,0.0-17.0-3.2,20890,List1A,black,woman,,,,,"{""Q0"":""kate is being greeted by fred""}","<img src=""stim_listA/greet2.gif""style=""height:400px;""></stim_listA>",is being greeted by,,,,,,
null,"<div style=""font-size:60px;"">+</div>",,html-keyboard-response,258,1238166,0.0-17.0-0.3,20890,List1A,black,woman,,,,null,,,,,,,,,
null,"<img src=""stim_listA/oppose2.gif""style=""height:400px;""></stim_listA>",,html-keyboard-response,259,1240169,0.0-17.0-1.3,20890,List1A,black,woman,,,,null,,,,,,,,,
null,is being opposed by,,html-keyboard-response,260,1242173,0.0-17.0-2.3,20890,List1A,black,woman,,,,null,,,,,,,,,
5511.1,,,survey-text,261,1247688,0.0-17.0-3.3,20890,List1A,black,woman,,,,,"{""Q0"":""beth is being opposed by fred""}","<img src=""stim_listA/oppose2.gif""style=""height:400px;""></stim_listA>",is being opposed by,,,,,,
null,"<div style=""font-size:60px;"">+</div>",,html-keyboard-response,262,1248196,0.0-17.0-0.4,20890,List1A,black,woman,,,,null,,,,,,,,,
null,"<img src=""stim_listA/seduce2.gif""style=""height:400px;""></stim_listA>",,html-keyboard-response,263,1250199,0.0-17.0-1.4,20890,List1A,black,woman,,,,null,,,,,,,,,
null,is being seduced by,,html-keyboard-response,264,1252212,0.0-17.0-2.4,20890,List1A,black,woman,,,,null,,,,,,,,,
6199.6,,,survey-text,265,1258414,0.0-17.0-3.4,20890,List1A,black,woman,,,,,"{""Q0"":""beth is being seduced by mike""}","<img src=""stim_listA/seduce2.gif""style=""height:400px;""></stim_listA>",is being seduced by,,,,,,
null,"<div style=""font-size:60px;"">+</div>",,html-keyboard-response,266,1258930,0.0-17.0-0.5,20890,List1A,black,woman,,,,null,,,,,,,,,
null,"<img src=""stim_listA/touch7.gif""style=""height:400px;""></stim_listA>",,html-keyboard-response,267,1260933,0.0-17.0-1.5,20890,List1A,black,woman,,,,null,,,,,,,,,
null,is touching,,html-keyboard-response,268,1262936,0.0-17.0-2.5,20890,List1A,black,woman,,,,null,,,,,,,,,
4728.8,,,survey-text,269,1267667,0.0-17.0-3.5,20890,List1A,black,woman,,,,,"{""Q0"":""jane is touching kate""}","<img src=""stim_listA/touch7.gif""style=""height:400px;""></stim_listA>",is touching,,,,,,
null,"<div style=""font-size:60px;"">+</div>",,html-keyboard-response,270,1268174,0.0-17.0-0.6,20890,List1A,black,woman,,,,null,,,,,,,,,
null,"<img src=""stim_listA/touch4.gif""style=""height:400px;""></stim_listA>",,html-keyboard-response,271,1270192,0.0-17.0-1.6,20890,List1A,black,woman,,,,null,,,,,,,,,
null,is being touched by,,html-keyboard-response,272,1272206,0.0-17.0-2.6,20890,List1A,black,woman,,,,null,,,,,,,,,
8990.1,,,survey-text,273,1281198,0.0-17.0-3.6,20890,List1A,black,woman,,,,,"{""Q0"":""ruth is being touched by luke""}","<img src=""stim_listA/touch4.gif""style=""height:400px;""></stim_listA>",is being touched by,,,,,,
null,"<div style=""font-size:60px;"">+</div>",,html-keyboard-response,274,1281702,0.0-17.0-0.7,20890,List1A,black,woman,,,,null,,,,,,,,,
null,"<img src=""stim_listA/shout7.gif""style=""height:400px;""></stim_listA>",,html-keyboard-response,275,1283710,0.0-17.0-1.7,20890,List1A,black,woman,,,,null,,,,,,,,,
null,is shouting at,,html-keyboard-response,276,1285722,0.0-17.0-2.7,20890,List1A,black,woman,,,,null,,,,,,,,,
5145.2,,,survey-text,277,1290870,0.0-17.0-3.7,20890,List1A,black,woman,,,,,"{""Q0"":""beth is shouting at ruth""}","<img src=""stim_listA/shout7.gif""style=""height:400px;""></stim_listA>",is shouting at,,,,,,
null,"<div style=""font-size:60px;"">+</div>",,html-keyboard-response,278,1291384,0.0-17.0-0.8,20890,List1A,black,woman,,,,null,,,,,,,,,
null,"<img src=""stim_listA/touch1.gif""style=""height:400px;""></stim_listA>",,html-keyboard-response,279,1293394,0.0-17.0-1.8,20890,List1A,black,woman,,,,null,,,,,,,,,
null,is touching,,html-keyboard-response,280,1295399,0.0-17.0-2.8,20890,List1A,black,woman,,,,null,,,,,,,,,
4502.1,,,survey-text,281,1299902,0.0-17.0-3.8,20890,List1A,black,woman,,,,,"{""Q0"":""kate is touching mike""}","<img src=""stim_listA/touch1.gif""style=""height:400px;""></stim_listA>",is touching,,,,,,
null,"<div style=""font-size:60px;"">+</div>",,html-keyboard-response,282,1300410,0.0-17.0-0.9,20890,List1A,black,woman,,,,null,,,,,,,,,
null,"<img src=""stim_listA/touch2.gif""style=""height:400px;""></stim_listA>",,html-keyboard-response,283,1302413,0.0-17.0-1.9,20890,List1A,black,woman,,,,null,,,,,,,,,
null,is being touched by,,html-keyboard-response,284,1304427,0.0-17.0-2.9,20890,List1A,black,woman,,,,null,,,,,,,,,
7973.9,,,survey-text,285,1312407,0.0-17.0-3.9,20890,List1A,black,woman,,,,,"{""Q0"":""fred is being touched by beth""}","<img src=""stim_listA/touch2.gif""style=""height:400px;""></stim_listA>",is being touched by,,,,,,
null,"<div style=""font-size:60px;"">+</div>",,html-keyboard-response,286,1312920,0.0-17.0-0.10,20890,List1A,black,woman,,,,null,,,,,,,,,
null,"<img src=""stim_listA/hug4.gif""style=""height:400px;""></stim_listA>",,html-keyboard-response,287,1314932,0.0-17.0-1.10,20890,List1A,black,woman,,,,null,,,,,,,,,
null,is being hugged by,,html-keyboard-response,288,1316938,0.0-17.0-2.10,20890,List1A,black,woman,,,,null,,,,,,,,,
6384.1,,,survey-text,289,1323324,0.0-17.0-3.10,20890,List1A,black,woman,,,,,"{""Q0"":""dave is being hugged by jane""}","<img src=""stim_listA/hug4.gif""style=""height:400px;""></stim_listA>",is being hugged by,,,,,,
null,"<div style=""font-size:60px;"">+</div>",,html-keyboard-response,290,1323834,0.0-17.0-0.11,20890,List1A,black,woman,,,,null,,,,,,,,,
null,"<img src=""stim_listA/look6.gif""style=""height:400px;""></stim_listA>",,html-keyboard-response,291,1325837,0.0-17.0-1.11,20890,List1A,black,woman,,,,null,,,,,,,,,
null,is being looked at by,,html-keyboard-response,292,1327847,0.0-17.0-2.11,20890,List1A,black,woman,,,,null,,,,,,,,,
6254.7,,,survey-text,293,1334103,0.0-17.0-3.11,20890,List1A,black,woman,,,,,"{""Q0"":""dave is being looked at by mike""}","<img src=""stim_listA/look6.gif""style=""height:400px;""></stim_listA>",is being looked at by,,,,,,
null,"<div style=""font-size:60px;"">+</div>",,html-keyboard-response,294,1334605,0.0-17.0-0.12,20890,List1A,black,woman,,,,null,,,,,,,,,
null,"<img src=""stim_listA/seduce5.gif""style=""height:400px;""></stim_listA>",,html-keyboard-response,295,1336607,0.0-17.0-1.12,20890,List1A,black,woman,,,,null,,,,,,,,,
null,is seducing,,html-keyboard-response,296,1338610,0.0-17.0-2.12,20890,List1A,black,woman,,,,null,,,,,,,,,
4671.8,,,survey-text,297,1343284,0.0-17.0-3.12,20890,List1A,black,woman,,,,,"{""Q0"":""fred is seducing dave""}","<img src=""stim_listA/seduce5.gif""style=""height:400px;""></stim_listA>",is seducing,,,,,,
null,"<div style=""font-size:60px;"">+</div>",,html-keyboard-response,298,1343794,0.0-17.0-0.13,20890,List1A,black,woman,,,,null,,,,,,,,,
null,"<img src=""stim_listA/hug5.gif""style=""height:400px;""></stim_listA>",,html-keyboard-response,299,1345811,0.0-17.0-1.13,20890,List1A,black,woman,,,,null,,,,,,,,,
null,is hugging,,html-keyboard-response,300,1347823,0.0-17.0-2.13,20890,List1A,black,woman,,,,null,,,,,,,,,
7813.6,,,survey-text,301,1355640,0.0-17.0-3.13,20890,List1A,black,woman,,,,,"{""Q0"":""fred is hugging luke""}","<img src=""stim_listA/hug5.gif""style=""height:400px;""></stim_listA>",is hugging,,,,,,
null,"<div style=""font-size:60px;"">+</div>",,html-keyboard-response,302,1356146,0.0-17.0-0.14,20890,List1A,black,woman,,,,null,,,,,,,,,
null,"<img src=""stim_listA/oppose6.gif""style=""height:400px;""></stim_listA>",,html-keyboard-response,303,1358150,0.0-17.0-1.14,20890,List1A,black,woman,,,,null,,,,,,,,,
null,is being opposed by,,html-keyboard-response,304,1360158,0.0-17.0-2.14,20890,List1A,black,woman,,,,null,,,,,,,,,
7124.9,,,survey-text,305,1367285,0.0-17.0-3.14,20890,List1A,black,woman,,,,,"{""Q0"":""fred is being opposed by luke""}","<img src=""stim_listA/oppose6.gif""style=""height:400px;""></stim_listA>",is being opposed by,,,,,,
null,"<div style=""font-size:60px;"">+</div>",,html-keyboard-response,306,1367797,0.0-17.0-0.15,20890,List1A,black,woman,,,,null,,,,,,,,,
null,"<img src=""stim_listA/touch8.gif""style=""height:400px;""></stim_listA>",,html-keyboard-response,307,1369799,0.0-17.0-1.15,20890,List1A,black,woman,,,,null,,,,,,,,,
null,is being touched by,,html-keyboard-response,308,1371814,0.0-17.0-2.15,20890,List1A,black,woman,,,,null,,,,,,,,,
8932.8,,,survey-text,309,1380750,0.0-17.0-3.15,20890,List1A,black,woman,,,,,"{""Q0"":""ruth is being touched by beth""}","<img src=""stim_listA/touch8.gif""style=""height:400px;""></stim_listA>",is being touched by,,,,,,
null,"<div style=""font-size:60px;"">+</div>",,html-keyboard-response,310,1381264,0.0-17.0-0.16,20890,List1A,black,woman,,,,null,,,,,,,,,
null,"<img src=""stim_listA/greet4.gif""style=""height:400px;""></stim_listA>",,html-keyboard-response,311,1383279,0.0-17.0-1.16,20890,List1A,black,woman,,,,null,,,,,,,,,
null,is being greeted by,,html-keyboard-response,312,1385288,0.0-17.0-2.16,20890,List1A,black,woman,,,,null,,,,,,,,,
7125.9,,,survey-text,313,1392416,0.0-17.0-3.16,20890,List1A,black,woman,,,,,"{""Q0"":""jane is being greeted by luke""}","<img src=""stim_listA/greet4.gif""style=""height:400px;""></stim_listA>",is being greeted by,,,,,,
null,"<div style=""font-size:60px;"">+</div>",,html-keyboard-response,314,1392925,0.0-17.0-0.17,20890,List1A,black,woman,,,,null,,,,,,,,,
null,"<img src=""stim_listA/challenge7.gif""style=""height:400px;""></stim_listA>",,html-keyboard-response,315,1394929,0.0-17.0-1.17,20890,List1A,black,woman,,,,null,,,,,,,,,
null,is challenging,,html-keyboard-response,316,1396943,0.0-17.0-2.17,20890,List1A,black,woman,,,,null,,,,,,,,,
7613.2,,,survey-text,317,1404559,0.0-17.0-3.17,20890,List1A,black,woman,,,,,"{""Q0"":""kate is challenging ruth""}","<img src=""stim_listA/challenge7.gif""style=""height:400px;""></stim_listA>",is challenging,,,,,,
null,"<div style=""font-size:60px;"">+</div>",,html-keyboard-response,318,1405066,0.0-17.0-0.18,20890,List1A,black,woman,,,,null,,,,,,,,,
null,"<img src=""stim_listA/shout4.gif""style=""height:400px;""></stim_listA>",,html-keyboard-response,319,1407070,0.0-17.0-1.18,20890,List1A,black,woman,,,,null,,,,,,,,,
null,is being shouted at by,,html-keyboard-response,320,1409075,0.0-17.0-2.18,20890,List1A,black,woman,,,,null,,,,,,,,,
6614.5,,,survey-text,321,1415691,0.0-17.0-3.18,20890,List1A,black,woman,,,,,"{""Q0"":""jane is being shouted at by dave""}","<img src=""stim_listA/shout4.gif""style=""height:400px;""></stim_listA>",is being shouted at by,,,,,,
null,"<div style=""font-size:60px;"">+</div>",,html-keyboard-response,322,1416206,0.0-17.0-0.19,20890,List1A,black,woman,,,,null,,,,,,,,,
null,"<img src=""stim_listA/seduce7.gif""style=""height:400px;""></stim_listA>",,html-keyboard-response,323,1418221,0.0-17.0-1.19,20890,List1A,black,woman,,,,null,,,,,,,,,
null,is seducing,,html-keyboard-response,324,1420237,0.0-17.0-2.19,20890,List1A,black,woman,,,,null,,,,,,,,,
3837.6,,,survey-text,325,1424077,0.0-17.0-3.19,20890,List1A,black,woman,,,,,"{""Q0"":""beth is seducing jane""}","<img src=""stim_listA/seduce7.gif""style=""height:400px;""></stim_listA>",is seducing,,,,,,
4921.7,"<img src='img/portrait_matrix_list1.jpg' style='width:900px;height:500px;''></img><p>If you have memorised all the portraits and names and are ready to start, press Continue.</p><p><strong>Please note: Your memory of these faces will be tested 4 times during this experiment.</strong></p>",0,html-button-response,326,1429000,0.0-18.0-0.0,20890,List1A,black,woman,,,,,,,,,,,,,
3710.6,"<img src=""portrait/BW1.jpg""style=""height:400px;""></img>",0,html-button-response,327,1433718,0.0-18.0-1.0,20890,List1A,black,woman,,TRUE,0,,,,,,,,,,
null,CORRECT,,html-keyboard-response,328,1435223,0.0-18.0-2.0-0.0,20890,List1A,black,woman,,,,null,,,,,,,,,
1943,"<img src=""portrait/WM1.jpg""style=""height:400px;""></img>",6,html-button-response,329,1437168,0.0-18.0-4.0,20890,List1A,black,woman,,TRUE,6,,,,,,,,,,
null,CORRECT,,html-keyboard-response,330,1438690,0.0-18.0-5.0-0.0,20890,List1A,black,woman,,,,null,,,,,,,,,
1595.6,"<img src=""portrait/BW2.jpg""style=""height:400px;""></img>",2,html-button-response,331,1440287,0.0-18.0-7.0,20890,List1A,black,woman,,TRUE,2,,,,,,,,,,
null,CORRECT,,html-keyboard-response,332,1441813,0.0-18.0-8.0-0.0,20890,List1A,black,woman,,,,null,,,,,,,,,
1567,"<img src=""portrait/WW2.jpg""style=""height:400px;""></img>",3,html-button-response,333,1443381,0.0-18.0-10.0,20890,List1A,black,woman,,TRUE,3,,,,,,,,,,
null,CORRECT,,html-keyboard-response,334,1444892,0.0-18.0-11.0-0.0,20890,List1A,black,woman,,,,null,,,,,,,,,
1459.3,"<img src=""portrait/WW1.jpg""style=""height:400px;""></img>",1,html-button-response,335,1446354,0.0-18.0-13.0,20890,List1A,black,woman,,TRUE,1,,,,,,,,,,
null,CORRECT,,html-keyboard-response,336,1447864,0.0-18.0-14.0-0.0,20890,List1A,black,woman,,,,null,,,,,,,,,
1656.3,"<img src=""portrait/WM2.jpg""style=""height:400px;""></img>",7,html-button-response,337,1449523,0.0-18.0-16.0,20890,List1A,black,woman,,TRUE,7,,,,,,,,,,
null,CORRECT,,html-keyboard-response,338,1451049,0.0-18.0-17.0-0.0,20890,List1A,black,woman,,,,null,,,,,,,,,
1202,"<img src=""portrait/BM2.jpg""style=""height:400px;""></img>",5,html-button-response,339,1452252,0.0-18.0-19.0,20890,List1A,black,woman,,TRUE,5,,,,,,,,,,
null,CORRECT,,html-keyboard-response,340,1453770,0.0-18.0-20.0-0.0,20890,List1A,black,woman,,,,null,,,,,,,,,
1642.9,"<img src=""portrait/BM1.jpg""style=""height:400px;""></img>",4,html-button-response,341,1455414,0.0-18.0-22.0,20890,List1A,black,woman,,TRUE,4,,,,,,,,,,
null,CORRECT,,html-keyboard-response,342,1456935,0.0-18.0-23.0-0.0,20890,List1A,black,woman,,,,null,,,,,,,,,
1286.6,<p>You got 8 out of 8 right first time. Press Continue.</p>,0,html-button-response,343,1458224,0.0-18.0-25.0,20890,List1A,black,woman,,,,,,,,,,,,,
null,"<div style=""font-size:60px;"">+</div>",,html-keyboard-response,344,1459747,0.0-19.0-0.0,20890,List1A,black,woman,,,,null,,,,,,,,,
null,"<img src=""stim_listA/challenge5.gif""style=""height:400px;""></stim_listA>",,html-keyboard-response,345,1461750,0.0-19.0-1.0,20890,List1A,black,woman,,,,null,,,,,,,,,
null,is challenging,,html-keyboard-response,346,1463756,0.0-19.0-2.0,20890,List1A,black,woman,,,,null,,,,,,,,,
5053.6,,,survey-text,347,1468812,0.0-19.0-3.0,20890,List1A,black,woman,,,,,"{""Q0"":""mike is challenging luke""}","<img src=""stim_listA/challenge5.gif""style=""height:400px;""></stim_listA>",is challenging,,,,,,
null,"<div style=""font-size:60px;"">+</div>",,html-keyboard-response,348,1469330,0.0-19.0-0.1,20890,List1A,black,woman,,,,null,,,,,,,,,
null,"<img src=""stim_listA/copy3.gif""style=""height:400px;""></stim_listA>",,html-keyboard-response,349,1471332,0.0-19.0-1.1,20890,List1A,black,woman,,,,null,,,,,,,,,
null,is copying,,html-keyboard-response,350,1473345,0.0-19.0-2.1,20890,List1A,black,woman,,,,null,,,,,,,,,
4778.2,,,survey-text,351,1478126,0.0-19.0-3.1,20890,List1A,black,woman,,,,,"{""Q0"":""ruth is copying dave""}","<img src=""stim_listA/copy3.gif""style=""height:400px;""></stim_listA>",is copying,,,,,,
null,"<div style=""font-size:60px;"">+</div>",,html-keyboard-response,352,1478638,0.0-19.0-0.2,20890,List1A,black,woman,,,,null,,,,,,,,,
null,"<img src=""stim_listA/kiss3.gif""style=""height:400px;""></stim_listA>",,html-keyboard-response,353,1480656,0.0-19.0-1.2,20890,List1A,black,woman,,,,null,,,,,,,,,
null,is kissing,,html-keyboard-response,354,1482657,0.0-19.0-2.2,20890,List1A,black,woman,,,,null,,,,,,,,,
7177.8,,,survey-text,355,1489837,0.0-19.0-3.2,20890,List1A,black,woman,,,,,"{""Q0"":""ruth is kissing luke""}","<img src=""stim_listA/kiss3.gif""style=""height:400px;""></stim_listA>",is kissing,,,,,,
null,"<div style=""font-size:60px;"">+</div>",,html-keyboard-response,356,1490345,0.0-19.0-0.3,20890,List1A,black,woman,,,,null,,,,,,,,,
null,"<img src=""stim_listA/touch5.gif""style=""height:400px;""></stim_listA>",,html-keyboard-response,357,1492346,0.0-19.0-1.3,20890,List1A,black,woman,,,,null,,,,,,,,,
null,is touching,,html-keyboard-response,358,1494348,0.0-19.0-2.3,20890,List1A,black,woman,,,,null,,,,,,,,,
4548.8,,,survey-text,359,1498898,0.0-19.0-3.3,20890,List1A,black,woman,,,,,"{""Q0"":""mike is touching dave""}","<img src=""stim_listA/touch5.gif""style=""height:400px;""></stim_listA>",is touching,,,,,,
null,"<div style=""font-size:60px;"">+</div>",,html-keyboard-response,360,1499408,0.0-19.0-0.4,20890,List1A,black,woman,,,,null,,,,,,,,,
null,"<img src=""stim_listA/challenge4.gif""style=""height:400px;""></stim_listA>",,html-keyboard-response,361,1501419,0.0-19.0-1.4,20890,List1A,black,woman,,,,null,,,,,,,,,
null,is being challenged by,,html-keyboard-response,362,1503426,0.0-19.0-2.4,20890,List1A,black,woman,,,,null,,,,,,,,,
11805.3,,,survey-text,363,1515234,0.0-19.0-3.4,20890,List1A,black,woman,,,,,"{""Q0"":""jane is being challenged by luke""}","<img src=""stim_listA/challenge4.gif""style=""height:400px;""></stim_listA>",is being challenged by,,,,,,
null,"<div style=""font-size:60px;"">+</div>",,html-keyboard-response,364,1515737,0.0-19.0-0.5,20890,List1A,black,woman,,,,null,,,,,,,,,
null,"<img src=""stim_listA/copy4.gif""style=""height:400px;""></stim_listA>",,html-keyboard-response,365,1517746,0.0-19.0-1.5,20890,List1A,black,woman,,,,null,,,,,,,,,
null,is being copied by,,html-keyboard-response,366,1519748,0.0-19.0-2.5,20890,List1A,black,woman,,,,null,,,,,,,,,
6938.4,,,survey-text,367,1526688,0.0-19.0-3.5,20890,List1A,black,woman,,,,,"{""Q0"":""jane is being copied by luke""}","<img src=""stim_listA/copy4.gif""style=""height:400px;""></stim_listA>",is being copied by,,,,,,
null,"<div style=""font-size:60px;"">+</div>",,html-keyboard-response,368,1527204,0.0-19.0-0.6,20890,List1A,black,woman,,,,null,,,,,,,,,
null,"<img src=""stim_listA/kiss8.gif""style=""height:400px;""></stim_listA>",,html-keyboard-response,369,1529220,0.0-19.0-1.6,20890,List1A,black,woman,,,,null,,,,,,,,,
null,is being kissed by,,html-keyboard-response,370,1531235,0.0-19.0-2.6,20890,List1A,black,woman,,,,null,,,,,,,,,
5510.7,,,survey-text,371,1536748,0.0-19.0-3.6,20890,List1A,black,woman,,,,,"{""Q0"":""kate is being kissed by jane""}","<img src=""stim_listA/kiss8.gif""style=""height:400px;""></stim_listA>",is being kissed by,,,,,,
null,"<div style=""font-size:60px;"">+</div>",,html-keyboard-response,372,1537250,0.0-19.0-0.7,20890,List1A,black,woman,,,,null,,,,,,,,,
null,"<img src=""stim_listA/seduce3.gif""style=""height:400px;""></stim_listA>",,html-keyboard-response,373,1539252,0.0-19.0-1.7,20890,List1A,black,woman,,,,null,,,,,,,,,
null,is seducing,,html-keyboard-response,374,1541264,0.0-19.0-2.7,20890,List1A,black,woman,,,,null,,,,,,,,,
3576,,,survey-text,375,1544842,0.0-19.0-3.7,20890,List1A,black,woman,,,,,"{""Q0"":""jane is seducing luke""}","<img src=""stim_listA/seduce3.gif""style=""height:400px;""></stim_listA>",is seducing,,,,,,
null,"<div style=""font-size:60px;"">+</div>",,html-keyboard-response,376,1545357,0.0-19.0-0.8,20890,List1A,black,woman,,,,null,,,,,,,,,
null,"<img src=""stim_listA/touch3.gif""style=""height:400px;""></stim_listA>",,html-keyboard-response,377,1547361,0.0-19.0-1.8,20890,List1A,black,woman,,,,null,,,,,,,,,
null,is touching,,html-keyboard-response,378,1549375,0.0-19.0-2.8,20890,List1A,black,woman,,,,null,,,,,,,,,
5393.2,,,survey-text,379,1554770,0.0-19.0-3.8,20890,List1A,black,woman,,,,,"{""Q0"":""jane is touching dave""}","<img src=""stim_listA/touch3.gif""style=""height:400px;""></stim_listA>",is touching,,,,,,
null,"<div style=""font-size:60px;"">+</div>",,html-keyboard-response,380,1555278,0.0-19.0-0.9,20890,List1A,black,woman,,,,null,,,,,,,,,
null,"<img src=""stim_listA/copy6.gif""style=""height:400px;""></stim_listA>",,html-keyboard-response,381,1557281,0.0-19.0-1.9,20890,List1A,black,woman,,,,null,,,,,,,,,
null,is being copied by,,html-keyboard-response,382,1559286,0.0-19.0-2.9,20890,List1A,black,woman,,,,null,,,,,,,,,
5514.1,,,survey-text,383,1564802,0.0-19.0-3.9,20890,List1A,black,woman,,,,,"{""Q0"":""fred is being copied by dave""}","<img src=""stim_listA/copy6.gif""style=""height:400px;""></stim_listA>",is being copied by,,,,,,
null,"<div style=""font-size:60px;"">+</div>",,html-keyboard-response,384,1565317,0.0-19.0-0.10,20890,List1A,black,woman,,,,null,,,,,,,,,
null,"<img src=""stim_listA/shout5.gif""style=""height:400px;""></stim_listA>",,html-keyboard-response,385,1567330,0.0-19.0-1.10,20890,List1A,black,woman,,,,null,,,,,,,,,
null,is shouting at,,html-keyboard-response,386,1569334,0.0-19.0-2.10,20890,List1A,black,woman,,,,null,,,,,,,,,
4578.9,,,survey-text,387,1573917,0.0-19.0-3.10,20890,List1A,black,woman,,,,,"{""Q0"":""fred is shouting at luke""}","<img src=""stim_listA/shout5.gif""style=""height:400px;""></stim_listA>",is shouting at,,,,,,
null,"<div style=""font-size:60px;"">+</div>",,html-keyboard-response,388,1574419,0.0-19.0-0.11,20890,List1A,black,woman,,,,null,,,,,,,,,
null,"<img src=""stim_listA/kiss6.gif""style=""height:400px;""></stim_listA>",,html-keyboard-response,389,1576437,0.0-19.0-1.11,20890,List1A,black,woman,,,,null,,,,,,,,,
null,is being kissed by,,html-keyboard-response,390,1578451,0.0-19.0-2.11,20890,List1A,black,woman,,,,null,,,,,,,,,
8928.3,,,survey-text,391,1587381,0.0-19.0-3.11,20890,List1A,black,woman,,,,,"{""Q0"":""mike is being kissed by dave""}","<img src=""stim_listA/kiss6.gif""style=""height:400px;""></stim_listA>",is being kissed by,,,,,,
null,"<div style=""font-size:60px;"">+</div>",,html-keyboard-response,392,1587891,0.0-19.0-0.12,20890,List1A,black,woman,,,,null,,,,,,,,,
null,"<img src=""stim_listA/look7.gif""style=""height:400px;""></stim_listA>",,html-keyboard-response,393,1589903,0.0-19.0-1.12,20890,List1A,black,woman,,,,null,,,,,,,,,
null,is looking at,,html-keyboard-response,394,1591908,0.0-19.0-2.12,20890,List1A,black,woman,,,,null,,,,,,,,,
4489.5,,,survey-text,395,1596400,0.0-19.0-3.12,20890,List1A,black,woman,,,,,"{""Q0"":""beth is looking at ruth""}","<img src=""stim_listA/look7.gif""style=""height:400px;""></stim_listA>",is looking at,,,,,,
null,"<div style=""font-size:60px;"">+</div>",,html-keyboard-response,396,1596915,0.0-19.0-0.13,20890,List1A,black,woman,,,,null,,,,,,,,,
null,"<img src=""stim_listA/look5.gif""style=""height:400px;""></stim_listA>",,html-keyboard-response,397,1598919,0.0-19.0-1.13,20890,List1A,black,woman,,,,null,,,,,,,,,
null,is looking at,,html-keyboard-response,398,1600933,0.0-19.0-2.13,20890,List1A,black,woman,,,,null,,,,,,,,,
5334.9,,,survey-text,399,1606270,0.0-19.0-3.13,20890,List1A,black,woman,,,,,"{""Q0"":""fred is looking at luke""}","<img src=""stim_listA/look5.gif""style=""height:400px;""></stim_listA>",is looking at,,,,,,
null,"<div style=""font-size:60px;"">+</div>",,html-keyboard-response,400,1606781,0.0-19.0-0.14,20890,List1A,black,woman,,,,null,,,,,,,,,
null,"<img src=""stim_listA/challenge6.gif""style=""height:400px;""></stim_listA>",,html-keyboard-response,401,1608783,0.0-19.0-1.14,20890,List1A,black,woman,,,,null,,,,,,,,,
null,is being challenged by,,html-keyboard-response,402,1610800,0.0-19.0-2.14,20890,List1A,black,woman,,,,null,,,,,,,,,
5455.4,,,survey-text,403,1616258,0.0-19.0-3.14,20890,List1A,black,woman,,,,,"{""Q0"":""fred is being challenged by dave""}","<img src=""stim_listA/challenge6.gif""style=""height:400px;""></stim_listA>",is being challenged by,,,,,,
null,"<div style=""font-size:60px;"">+</div>",,html-keyboard-response,404,1616767,0.0-19.0-0.15,20890,List1A,black,woman,,,,null,,,,,,,,,
null,"<img src=""stim_listA/oppose5.gif""style=""height:400px;""></stim_listA>",,html-keyboard-response,405,1618768,0.0-19.0-1.15,20890,List1A,black,woman,,,,null,,,,,,,,,
null,is opposing,,html-keyboard-response,406,1620781,0.0-19.0-2.15,20890,List1A,black,woman,,,,null,,,,,,,,,
4471.1,,,survey-text,407,1625254,0.0-19.0-3.15,20890,List1A,black,woman,,,,,"{""Q0"":""mike is opposing dave""}","<img src=""stim_listA/oppose5.gif""style=""height:400px;""></stim_listA>",is opposing,,,,,,
null,"<div style=""font-size:60px;"">+</div>",,html-keyboard-response,408,1625766,0.0-19.0-0.16,20890,List1A,black,woman,,,,null,,,,,,,,,
null,"<img src=""stim_listA/hug7.gif""style=""height:400px;""></stim_listA>",,html-keyboard-response,409,1627782,0.0-19.0-1.16,20890,List1A,black,woman,,,,null,,,,,,,,,
null,is hugging,,html-keyboard-response,410,1629786,0.0-19.0-2.16,20890,List1A,black,woman,,,,null,,,,,,,,,
4588.1,,,survey-text,411,1634376,0.0-19.0-3.16,20890,List1A,black,woman,,,,,"{""Q0"":""ruth is hugging beth""}","<img src=""stim_listA/hug7.gif""style=""height:400px;""></stim_listA>",is hugging,,,,,,
null,"<div style=""font-size:60px;"">+</div>",,html-keyboard-response,412,1634892,0.0-19.0-0.17,20890,List1A,black,woman,,,,null,,,,,,,,,
null,"<img src=""stim_listA/hug2.gif""style=""height:400px;""></stim_listA>",,html-keyboard-response,413,1636908,0.0-19.0-1.17,20890,List1A,black,woman,,,,null,,,,,,,,,
null,is being hugged by,,html-keyboard-response,414,1638916,0.0-19.0-2.17,20890,List1A,black,woman,,,,null,,,,,,,,,
5562.3,,,survey-text,415,1644481,0.0-19.0-3.17,20890,List1A,black,woman,,,,,"{""Q0"":""kate is being hugged by mike""}","<img src=""stim_listA/hug2.gif""style=""height:400px;""></stim_listA>",is being hugged by,,,,,,
null,"<div style=""font-size:60px;"">+</div>",,html-keyboard-response,416,1644988,0.0-19.0-0.18,20890,List1A,black,woman,,,,null,,,,,,,,,
null,"<img src=""stim_listA/shout2.gif""style=""height:400px;""></stim_listA>",,html-keyboard-response,417,1647000,0.0-19.0-1.18,20890,List1A,black,woman,,,,null,,,,,,,,,
null,is being shouted at by,,html-keyboard-response,418,1649014,0.0-19.0-2.18,20890,List1A,black,woman,,,,null,,,,,,,,,
14364.9,,,survey-text,419,1663381,0.0-19.0-3.18,20890,List1A,black,woman,,,,,"{""Q0"":""kate is being shouted at by mike""}","<img src=""stim_listA/shout2.gif""style=""height:400px;""></stim_listA>",is being shouted at by,,,,,,
null,"<div style=""font-size:60px;"">+</div>",,html-keyboard-response,420,1663890,0.0-19.0-0.19,20890,List1A,black,woman,,,,null,,,,,,,,,
null,"<img src=""stim_listA/seduce1.gif""style=""height:400px;""></stim_listA>",,html-keyboard-response,421,1665897,0.0-19.0-1.19,20890,List1A,black,woman,,,,null,,,,,,,,,
null,is seducing,,html-keyboard-response,422,1667899,0.0-19.0-2.19,20890,List1A,black,woman,,,,null,,,,,,,,,
4161.5,,,survey-text,423,1672063,0.0-19.0-3.19,20890,List1A,black,woman,,,,,"{""Q0"":""fred is seducing kate""}","<img src=""stim_listA/seduce1.gif""style=""height:400px;""></stim_listA>",is seducing,,,,,,
3373.5,<p>Thank you for completing that task.</p><p>The final part of this session is a questionnaire that will take about 4 minutes.</p><p>Press Continue.</p>,0,html-button-response,424,1675438,0.0-20.0,20890,List1A,black,woman,,,,,,,,,,,,,
29297.1,,,survey-text,425,1705751,0.0-21.0,20890,List1A,black,woman,,,,,"{""Q0"":""19"",""Q1"":""english"",""Q2"":""english"",""Q3"":""united states"",""Q4"":""american"",""Q5"":""black"",""Q6"":""female""}",,,demographics,,,,,
2242.6,<p>Have you lived in the USA for the last 5 years or more?</p>,0,html-button-response,426,1707996,0.0-22.0,20890,List1A,black,woman,,,,,,,,fiveyears,,,,,
2422.6,<p>Move the slider to show the extent to which you agree with the following statements.</p>,0,html-button-response,427,1711423,0.0-23.0,20890,List1A,black,woman,,,,,,,,,,,,,
4127.7,,,html-slider-response,428,1716566,0.0-24.0-0.0-0.0,20890,List1A,black,woman,,,,,,,,survey_race,65,,,I consider myself an introvert.,filler
2507.2,,,html-slider-response,429,1719076,0.0-24.0-0.0-0.1,20890,List1A,black,woman,,,,,,,,survey_race,20,,,I consider myself an extrovert.,filler
7805.3,,,html-slider-response,430,1726882,0.0-24.0-0.0-0.2,20890,List1A,black,woman,,,,,,,,survey_race,49,,,It is pleasant to be my race.,pleasant
3233.4,,,html-slider-response,431,1730118,0.0-24.0-0.0-0.3,20890,List1A,black,woman,,,,,,,,survey_race,23,,,I often think about the fact that I am my race.,often
2492.9,,,html-slider-response,432,1732613,0.0-24.0-0.0-0.4,20890,List1A,black,woman,,,,,,,,survey_race,20,,,People of my race have a lot in common with each other.,common
2316.1,,,html-slider-response,433,1734931,0.0-24.0-0.0-0.5,20890,List1A,black,woman,,,,,,,,survey_race,0,,,I have a lot in common with the average person of my race.,average
5926.5,,,html-slider-response,434,1740859,0.0-24.0-0.0-0.6,20890,List1A,black,woman,,,,,,,,survey_race,51,,,Being my race gives me a good feeling.,feeling
3849.7,,,html-slider-response,435,1744710,0.0-24.0-0.0-0.7,20890,List1A,black,woman,,,,,,,,survey_race,53,,,I have a lot in common with people of a similar age to me.,filler
2647.1,,,html-slider-response,436,1747359,0.0-24.0-0.0-0.8,20890,List1A,black,woman,,,,,,,,survey_race,0,,,People of my race are very similar to each other.,verysimilar
2038.6,,,html-slider-response,437,1749398,0.0-24.0-0.0-0.9,20890,List1A,black,woman,,,,,,,,survey_race,0,,,I feel solidarity with my race.,solidarity
3271.5,,,html-slider-response,438,1752671,0.0-24.0-0.0-0.10,20890,List1A,black,woman,,,,,,,,survey_race,0,,,I feel committed to my race.,committed
3189.6,,,html-slider-response,439,1755862,0.0-24.0-0.0-0.11,20890,List1A,black,woman,,,,,,,,survey_race,74,,,I am glad to be the age I am.,filler
4283.1,,,html-slider-response,440,1760147,0.0-24.0-0.0-0.12,20890,List1A,black,woman,,,,,,,,survey_race,52,,,My age is not an important part of who I am.,filler
2294.7,,,html-slider-response,441,1762444,0.0-24.0-0.0-0.13,20890,List1A,black,woman,,,,,,,,survey_race,49,,,I am glad to be my race.,glad
3080.4,,,html-slider-response,442,1765525,0.0-24.0-0.0-0.14,20890,List1A,black,woman,,,,,,,,survey_race,52,,,People my age have a lot in common with each other.,filler
3482.9,,,html-slider-response,443,1769009,0.0-24.0-0.0-0.15,20890,List1A,black,woman,,,,,,,,survey_race,51,,,I feel a bond with people the same age as me.,filler
2551.8,,,html-slider-response,444,1771563,0.0-24.0-0.0-0.16,20890,List1A,black,woman,,,,,,,,survey_race,39,,,Getting older does not worry me.,filler
3586,,,html-slider-response,445,1775150,0.0-24.0-0.0-0.17,20890,List1A,black,woman,,,,,,,,survey_race,13,,,I think that my race has a lot to be proud of.,proud
2683.5,,,html-slider-response,446,1777836,0.0-24.0-0.0-0.18,20890,List1A,black,woman,,,,,,,,survey_race,0,,,Being my race is an important part of how I see myself.,important
3747.4,,,html-slider-response,447,1781584,0.0-24.0-0.0-0.19,20890,List1A,black,woman,,,,,,,,survey_race,49,,,I feel solidarity with people the same age as me.,filler
4876.9,,,html-slider-response,448,1786463,0.0-24.0-0.0-0.20,20890,List1A,black,woman,,,,,,,,survey_race,29,,,"The older I get, the wiser I feel.",filler
2124.7,,,html-slider-response,449,1788591,0.0-24.0-0.0-0.21,20890,List1A,black,woman,,,,,,,,survey_race,29,,,I enjoy being in large groups.,filler
2198.8,,,html-slider-response,450,1790791,0.0-24.0-0.0-0.22,20890,List1A,black,woman,,,,,,,,survey_race,0,,,I am similar to the average person of my race.,similar
2361.7,,,html-slider-response,451,1793154,0.0-24.0-0.0-0.23,20890,List1A,black,woman,,,,,,,,survey_race,52,,,Being my age gives me a good feeling.,filler
2727.6,,,html-slider-response,452,1795883,0.0-24.0-0.0-0.24,20890,List1A,black,woman,,,,,,,,survey_race,63,,,I often think about the fact that I am my age.,filler
2368.2,,,html-slider-response,453,1798252,0.0-24.0-0.0-0.25,20890,List1A,black,woman,,,,,,,,survey_race,0,,,The fact that I am my race is an important part of my identity.,identity
2383.2,,,html-slider-response,454,1800637,0.0-24.0-0.0-0.26,20890,List1A,black,woman,,,,,,,,survey_race,0,,,I feel a bond with my race.,bond
2169.9,,,html-slider-response,455,1802808,0.0-24.0-0.0-0.27,20890,List1A,black,woman,,,,,,,,survey_race,63,,,I am glad to be my age.,filler
3395.9,,,html-slider-response,456,1806205,0.0-24.0-1.0-0.0,20890,List1A,black,woman,,,,,,,,survey_gender,68,,,I feel a bond with my friends.,filler
2302,,,html-slider-response,457,1808509,0.0-24.0-1.0-0.1,20890,List1A,black,woman,,,,,,,,survey_gender,87,,,Being around my friends gives me a good feeling.,filler
1957.5,,,html-slider-response,458,1810468,0.0-24.0-1.0-0.2,20890,List1A,black,woman,,,,,,,,survey_gender,64,,,My friends understand me.,filler
2830.6,,,html-slider-response,459,1813299,0.0-24.0-1.0-0.3,20890,List1A,black,woman,,,,,,,,survey_gender,82,,,Routine is not important to me.,filler
2992.7,,,html-slider-response,460,1816293,0.0-24.0-1.0-0.4,20890,List1A,black,woman,,,,,,,,survey_gender,55,,,I think that my gender has a lot to be proud of.,proud
2711.1,,,html-slider-response,461,1819007,0.0-24.0-1.0-0.5,20890,List1A,black,woman,,,,,,,,survey_gender,77,,,I have a lot in common with my friends.,filler
2603.2,,,html-slider-response,462,1821612,0.0-24.0-1.0-0.6,20890,List1A,black,woman,,,,,,,,survey_gender,76,,,My friends have a lot in common with each other.,filler
4621.4,,,html-slider-response,463,1826234,0.0-24.0-1.0-0.7,20890,List1A,black,woman,,,,,,,,survey_gender,66,,,I feel committed to my gender.,committed
2551,,,html-slider-response,464,1828787,0.0-24.0-1.0-0.8,20890,List1A,black,woman,,,,,,,,survey_gender,63,,,I feel a bond with my gender.,bond
2816.1,,,html-slider-response,465,1831604,0.0-24.0-1.0-0.9,20890,List1A,black,woman,,,,,,,,survey_gender,16,,,People of my gender are very similar to each other.,verysimilar
2456.6,,,html-slider-response,466,1834062,0.0-24.0-1.0-0.10,20890,List1A,black,woman,,,,,,,,survey_gender,58,,,I feel solidarity with my gender.,solidarity
3138.3,,,html-slider-response,467,1837202,0.0-24.0-1.0-0.11,20890,List1A,black,woman,,,,,,,,survey_gender,25,,,I have a lot in common with the average person of my gender.,average
2647.4,,,html-slider-response,468,1839851,0.0-24.0-1.0-0.12,20890,List1A,black,woman,,,,,,,,survey_gender,91,,,I am glad to be my gender.,glad
3109.1,,,html-slider-response,469,1842962,0.0-24.0-1.0-0.13,20890,List1A,black,woman,,,,,,,,survey_gender,30,,,I am similar to the average person of my gender.,similar
3960.6,,,html-slider-response,470,1846924,0.0-24.0-1.0-0.14,20890,List1A,black,woman,,,,,,,,survey_gender,66,,,Most of the friends in my life are very similar to me.,filler
2566,,,html-slider-response,471,1849491,0.0-24.0-1.0-0.15,20890,List1A,black,woman,,,,,,,,survey_gender,75,,,I consider myself a highly empathetic person.,filler
3813.6,,,html-slider-response,472,1853306,0.0-24.0-1.0-0.16,20890,List1A,black,woman,,,,,,,,survey_gender,100,,,Family is not more important to me than friendship.,filler
2933.3,,,html-slider-response,473,1856241,0.0-24.0-1.0-0.17,20890,List1A,black,woman,,,,,,,,survey_gender,70,,,I feel solidarity with my friends.,filler
2485,,,html-slider-response,474,1858728,0.0-24.0-1.0-0.18,20890,List1A,black,woman,,,,,,,,survey_gender,82,,,I would say I am an animal person.,filler
3059.2,,,html-slider-response,475,1861789,0.0-24.0-1.0-0.19,20890,List1A,black,woman,,,,,,,,survey_gender,88,,,The fact that I am my gender is an important part of my identity.,identity
2675.5,,,html-slider-response,476,1864466,0.0-24.0-1.0-0.20,20890,List1A,black,woman,,,,,,,,survey_gender,84,,,I often think about the fact that I am my gender.,often
2155.2,,,html-slider-response,477,1866623,0.0-24.0-1.0-0.21,20890,List1A,black,woman,,,,,,,,survey_gender,89,,,Being my gender gives me a good feeling.,feeling
3093.5,,,html-slider-response,478,1869719,0.0-24.0-1.0-0.22,20890,List1A,black,woman,,,,,,,,survey_gender,47,,,I often think about my actions.,filler
2302.7,,,html-slider-response,479,1872023,0.0-24.0-1.0-0.23,20890,List1A,black,woman,,,,,,,,survey_gender,84,,,It is pleasant to be my gender.,pleasant
3234,,,html-slider-response,480,1875258,0.0-24.0-1.0-0.24,20890,List1A,black,woman,,,,,,,,survey_gender,79,,,Being my gender is an important part of how I see myself.,important
2141.1,,,html-slider-response,481,1877401,0.0-24.0-1.0-0.25,20890,List1A,black,woman,,,,,,,,survey_gender,85,,,I am glad to have the friends that I have.,filler
3638.8,,,html-slider-response,482,1881041,0.0-24.0-1.0-0.26,20890,List1A,black,woman,,,,,,,,survey_gender,35,,,People of my gender have a lot in common with each other.,common
3211.8,,,html-slider-response,483,1884254,0.0-24.0-1.0-0.27,20890,List1A,black,woman,,,,,,,,survey_gender,66,,,It is not always easy for people to know what I am thinking.,filler
4010.9,,,survey-text,484,1888268,0.0-25.0,20890,List1A,black,woman,,,,,"{""Q0"":""ccc""}",,,worker_id,,,,,
9021.4,,,external-html,485,1897543,0.0-26.0,20890,List1A,black,woman,debrief.html,,,,,,,,,,,,
