"rt","stimulus","button_pressed","trial_type","trial_index","time_elapsed","internal_node_id","subject","list","ppt_race","ppt_gender","url","first_guess","correct","key_press","responses","image_type","phrase_type","test_part","response","stimulus1","stimulus2","question_type","survey_item"
"2206.699999988079","Welcome to the experiment. Press Continue to begin.","0","html-button-response","0","2209","0.0-0.0","20918","List1B","white","woman","","","","","","","","","","","","",""
"8319.200000047684","","","external-html","1","11649","0.0-1.0","20918","List1B","white","woman","consent.html","","","","","","","","","","","",""
"8881.5","<p>On the next page, you will see portraits of 8 people and their names.</p><p>Your first task is to take a few minutes to memorise the names of these people.</p><p>You will have to recall their names during the rest of the experiment, so it is</p><p>essential that you try to memorise these people and their names as best as you can.</p><br><p><strong>You will then be tested on your memory of these names and portraits.</strong></p><br><p>The experiment will start after you have completed this memory test.</p><br><p>Ready?</p>","0","html-button-response","2","20532","0.0-2.0","20918","List1B","white","woman","","","","","","","","","","","","",""
"118625","<img src='img/portrait_matrix_list1.jpg' style='width:900px;height:500px;''></img><p>If you have memorised all the portraits and names and are ready to start, press Continue.</p><p><strong>Please note: Your memory of these faces will be tested 4 times during this experiment.</strong></p>","0","html-button-response","3","140167","0.0-3.0-0.0","20918","List1B","white","woman","","","","","","","","","","","","",""
"4857","<img src=""portrait/WM2.jpg""style=""height:400px;""></img>","7","html-button-response","4","146034","0.0-3.0-1.0","20918","List1B","white","woman","","true","7","","","","","","","","","",""
"null","CORRECT","","html-keyboard-response","5","147563","0.0-3.0-2.0-0.0","20918","List1B","white","woman","","","","null","","","","","","","","",""
"4112","<img src=""portrait/WW1.jpg""style=""height:400px;""></img>","1","html-button-response","6","151676","0.0-3.0-4.0","20918","List1B","white","woman","","true","1","","","","","","","","","",""
"null","CORRECT","","html-keyboard-response","7","153202","0.0-3.0-5.0-0.0","20918","List1B","white","woman","","","","null","","","","","","","","",""
"3899.100000023842","<img src=""portrait/WW2.jpg""style=""height:400px;""></img>","3","html-button-response","8","157102","0.0-3.0-7.0","20918","List1B","white","woman","","true","3","","","","","","","","","",""
"null","CORRECT","","html-keyboard-response","9","158616","0.0-3.0-8.0-0.0","20918","List1B","white","woman","","","","null","","","","","","","","",""
"2657","<img src=""portrait/BW2.jpg""style=""height:400px;""></img>","2","html-button-response","10","161275","0.0-3.0-10.0","20918","List1B","white","woman","","true","2","","","","","","","","","",""
"null","CORRECT","","html-keyboard-response","11","162790","0.0-3.0-11.0-0.0","20918","List1B","white","woman","","","","null","","","","","","","","",""
"3607.100000023842","<img src=""portrait/WM1.jpg""style=""height:400px;""></img>","6","html-button-response","12","166399","0.0-3.0-13.0","20918","List1B","white","woman","","true","6","","","","","","","","","",""
"null","CORRECT","","html-keyboard-response","13","167914","0.0-3.0-14.0-0.0","20918","List1B","white","woman","","","","null","","","","","","","","",""
"5890.399999976158","<img src=""portrait/BM2.jpg""style=""height:400px;""></img>","5","html-button-response","14","173805","0.0-3.0-16.0","20918","List1B","white","woman","","true","5","","","","","","","","","",""
"null","CORRECT","","html-keyboard-response","15","175321","0.0-3.0-17.0-0.0","20918","List1B","white","woman","","","","null","","","","","","","","",""
"6364.800000011921","<img src=""portrait/BW1.jpg""style=""height:400px;""></img>","0","html-button-response","16","181686","0.0-3.0-19.0","20918","List1B","white","woman","","true","0","","","","","","","","","",""
"null","CORRECT","","html-keyboard-response","17","183213","0.0-3.0-20.0-0.0","20918","List1B","white","woman","","","","null","","","","","","","","",""
"4355.100000023842","<img src=""portrait/BM1.jpg""style=""height:400px;""></img>","4","html-button-response","18","187570","0.0-3.0-22.0","20918","List1B","white","woman","","true","4","","","","","","","","","",""
"null","CORRECT","","html-keyboard-response","19","189087","0.0-3.0-23.0-0.0","20918","List1B","white","woman","","","","null","","","","","","","","",""
"2105.399999976158","<p>You got 8 out of 8 right first time. Press Continue.</p>","0","html-button-response","20","191194","0.0-3.0-25.0","20918","List1B","white","woman","","","","","","","","","","","","",""
"27299.600000023842","<p>In this experiment, you will view photographs of the people from the memory game interacting.</p><p>By using the <strong>exact</strong> phrase given <i>after</i> the photograph appears and recalling the correct names of the people in the photographs, form a sentence describing the interaction. You do not need to capitalise names.</p><p>Type your answer in the space provided. Please complete every sentence before moving onto the next trial.</p><p>You will only have a few seconds to memorise each given photograph and phrase before you can respond, so try your best to focus.</p><p>An example is given below. Press 'Continue' when you are ready.</p><img src='img/speaking_example.jpg' style='width:800px;height:460px;''></img>","0","html-button-response","21","219497","0.0-4.0","20918","List1B","white","woman","","","","","","","","","","","","",""
"10782.699999988079","<p>Before the experiment starts, you will watch two example trials. Press 'Continue'.</p>","0","html-button-response","22","231297","0.0-5.0","20918","List1B","white","woman","","","","","","","","","","","","",""
"null","<img src='img/play_eg.gif' style='height:400px;''></img>","","html-keyboard-response","23","234299","0.0-6.0","20918","List1B","white","woman","","","","null","","","","","","","","",""
"null","<p>is playing with</p>","","html-keyboard-response","24","236302","0.0-7.0","20918","List1B","white","woman","","","","null","","","","","","","","",""
"3087.400000035763","<p><b>Answer:</b> kate is playing with beth</p>","0","html-button-response","25","239390","0.0-8.0","20918","List1B","white","woman","","","","","","","","","","","","",""
"null","<img src='img/dance_eg.gif' style='height:400px;''></img>","","html-keyboard-response","26","242402","0.0-9.0","20918","List1B","white","woman","","","","null","","","","","","","","",""
"null","<p>is being entertained by</p>","","html-keyboard-response","27","244417","0.0-10.0","20918","List1B","white","woman","","","","null","","","","","","","","",""
"2249.699999988079","<p><b>Answer:</b> luke is being entertained by dave</p>","0","html-button-response","28","246668","0.0-11.0","20918","List1B","white","woman","","","","","","","","","","","","",""
"9283.699999988079","<p>Ready to start the experiment?</p><br><p><strong>Remember to describe the picture using a full sentence,</strong></p><p><strong>that combines the names of the people with the <i>exact</i> phrase given.</strong></p><p><strong>To receive full payment you must do this correctly.</strong></p><p><strong> You do not need to capitalise names or use punctuation.</strong></p><br><p>Press 'Continue' to begin.</p>","0","html-button-response","29","256960","0.0-12.0","20918","List1B","white","woman","","","","","","","","","","","","",""
"null","<div style=""font-size:60px;"">+</div>","","html-keyboard-response","30","258467","0.0-13.0-0.0","20918","List1B","white","woman","","","","null","","","","","","","","",""
"null","<img src=""stim_listB/look4.gif""style=""height:400px;""></stim_listB>","","html-keyboard-response","31","260481","0.0-13.0-1.0","20918","List1B","white","woman","","","","null","","","","","","","","",""
"null","is being looked at by","","html-keyboard-response","32","262493","0.0-13.0-2.0","20918","List1B","white","woman","","","","null","","","","","","","","",""
"13480.799999952316","","","survey-text","33","275977","0.0-13.0-3.0","20918","List1B","white","woman","","","","","{""Q0"":""jane is being looked at by dave""}","<img src=""stim_listB/look4.gif""style=""height:400px;""></stim_listB>","is being looked at by","","","","","",""
"null","<div style=""font-size:60px;"">+</div>","","html-keyboard-response","34","276482","0.0-13.0-0.1","20918","List1B","white","woman","","","","null","","","","","","","","",""
"null","<img src=""stim_listB/shout8.gif""style=""height:400px;""></stim_listB>","","html-keyboard-response","35","278483","0.0-13.0-1.1","20918","List1B","white","woman","","","","null","","","","","","","","",""
"null","is being shouted at by","","html-keyboard-response","36","280492","0.0-13.0-2.1","20918","List1B","white","woman","","","","null","","","","","","","","",""
"11420","","","survey-text","37","291914","0.0-13.0-3.1","20918","List1B","white","woman","","","","","{""Q0"":""jane is being shouted at by kate""}","<img src=""stim_listB/shout8.gif""style=""height:400px;""></stim_listB>","is being shouted at by","","","","","",""
"null","<div style=""font-size:60px;"">+</div>","","html-keyboard-response","38","292425","0.0-13.0-0.2","20918","List1B","white","woman","","","","null","","","","","","","","",""
"null","<img src=""stim_listB/seduce3.gif""style=""height:400px;""></stim_listB>","","html-keyboard-response","39","294427","0.0-13.0-1.2","20918","List1B","white","woman","","","","null","","","","","","","","",""
"null","is seducing","","html-keyboard-response","40","296440","0.0-13.0-2.2","20918","List1B","white","woman","","","","null","","","","","","","","",""
"9469.699999988079","","","survey-text","41","305911","0.0-13.0-3.2","20918","List1B","white","woman","","","","","{""Q0"":""luke is seducing jane""}","<img src=""stim_listB/seduce3.gif""style=""height:400px;""></stim_listB>","is seducing","","","","","",""
"null","<div style=""font-size:60px;"">+</div>","","html-keyboard-response","42","306414","0.0-13.0-0.3","20918","List1B","white","woman","","","","null","","","","","","","","",""
"null","<img src=""stim_listB/touch3.gif""style=""height:400px;""></stim_listB>","","html-keyboard-response","43","308416","0.0-13.0-1.3","20918","List1B","white","woman","","","","null","","","","","","","","",""
"null","is touching","","html-keyboard-response","44","310418","0.0-13.0-2.3","20918","List1B","white","woman","","","","null","","","","","","","","",""
"9635.399999976158","","","survey-text","45","320054","0.0-13.0-3.3","20918","List1B","white","woman","","","","","{""Q0"":""dave is touching jane""}","<img src=""stim_listB/touch3.gif""style=""height:400px;""></stim_listB>","is touching","","","","","",""
"null","<div style=""font-size:60px;"">+</div>","","html-keyboard-response","46","320569","0.0-13.0-0.4","20918","List1B","white","woman","","","","null","","","","","","","","",""
"null","<img src=""stim_listB/oppose3.gif""style=""height:400px;""></stim_listB>","","html-keyboard-response","47","322573","0.0-13.0-1.4","20918","List1B","white","woman","","","","null","","","","","","","","",""
"null","is opposing","","html-keyboard-response","48","324586","0.0-13.0-2.4","20918","List1B","white","woman","","","","null","","","","","","","","",""
"7011.699999988079","","","survey-text","49","331600","0.0-13.0-3.4","20918","List1B","white","woman","","","","","{""Q0"":""jane is opposing dave""}","<img src=""stim_listB/oppose3.gif""style=""height:400px;""></stim_listB>","is opposing","","","","","",""
"null","<div style=""font-size:60px;"">+</div>","","html-keyboard-response","50","332104","0.0-13.0-0.5","20918","List1B","white","woman","","","","null","","","","","","","","",""
"null","<img src=""stim_listB/greet5.gif""style=""height:400px;""></stim_listB>","","html-keyboard-response","51","334120","0.0-13.0-1.5","20918","List1B","white","woman","","","","null","","","","","","","","",""
"null","is greeting","","html-keyboard-response","52","336134","0.0-13.0-2.5","20918","List1B","white","woman","","","","null","","","","","","","","",""
"10755.899999976158","","","survey-text","53","346892","0.0-13.0-3.5","20918","List1B","white","woman","","","","","{""Q0"":""luke is greeting mike""}","<img src=""stim_listB/greet5.gif""style=""height:400px;""></stim_listB>","is greeting","","","","","",""
"null","<div style=""font-size:60px;"">+</div>","","html-keyboard-response","54","347395","0.0-13.0-0.6","20918","List1B","white","woman","","","","null","","","","","","","","",""
"null","<img src=""stim_listB/kiss6.gif""style=""height:400px;""></stim_listB>","","html-keyboard-response","55","349400","0.0-13.0-1.6","20918","List1B","white","woman","","","","null","","","","","","","","",""
"null","is being kissed by","","html-keyboard-response","56","351405","0.0-13.0-2.6","20918","List1B","white","woman","","","","null","","","","","","","","",""
"7822","","","survey-text","57","359229","0.0-13.0-3.6","20918","List1B","white","woman","","","","","{""Q0"":""dave is being kissed by mike""}","<img src=""stim_listB/kiss6.gif""style=""height:400px;""></stim_listB>","is being kissed by","","","","","",""
"null","<div style=""font-size:60px;"">+</div>","","html-keyboard-response","58","359730","0.0-13.0-0.7","20918","List1B","white","woman","","","","null","","","","","","","","",""
"null","<img src=""stim_listB/oppose7.gif""style=""height:400px;""></stim_listB>","","html-keyboard-response","59","361742","0.0-13.0-1.7","20918","List1B","white","woman","","","","null","","","","","","","","",""
"null","is opposing","","html-keyboard-response","60","363743","0.0-13.0-2.7","20918","List1B","white","woman","","","","null","","","","","","","","",""
"8116.899999976158","","","survey-text","61","371862","0.0-13.0-3.7","20918","List1B","white","woman","","","","","{""Q0"":""jane is opposing kate""}","<img src=""stim_listB/oppose7.gif""style=""height:400px;""></stim_listB>","is opposing","","","","","",""
"null","<div style=""font-size:60px;"">+</div>","","html-keyboard-response","62","372379","0.0-13.0-0.8","20918","List1B","white","woman","","","","null","","","","","","","","",""
"null","<img src=""stim_listB/kiss2.gif""style=""height:400px;""></stim_listB>","","html-keyboard-response","63","374381","0.0-13.0-1.8","20918","List1B","white","woman","","","","null","","","","","","","","",""
"null","is being kissed by","","html-keyboard-response","64","376387","0.0-13.0-2.8","20918","List1B","white","woman","","","","null","","","","","","","","",""
"10943.699999988079","","","survey-text","65","387332","0.0-13.0-3.8","20918","List1B","white","woman","","","","","{""Q0"":""kate is being kissed by mike""}","<img src=""stim_listB/kiss2.gif""style=""height:400px;""></stim_listB>","is being kissed by","","","","","",""
"null","<div style=""font-size:60px;"">+</div>","","html-keyboard-response","66","387848","0.0-13.0-0.9","20918","List1B","white","woman","","","","null","","","","","","","","",""
"null","<img src=""stim_listB/challenge6.gif""style=""height:400px;""></stim_listB>","","html-keyboard-response","67","389863","0.0-13.0-1.9","20918","List1B","white","woman","","","","null","","","","","","","","",""
"null","is being challenged by","","html-keyboard-response","68","391875","0.0-13.0-2.9","20918","List1B","white","woman","","","","null","","","","","","","","",""
"11505.300000011921","","","survey-text","69","403382","0.0-13.0-3.9","20918","List1B","white","woman","","","","","{""Q0"":""fred is being challenged by mike""}","<img src=""stim_listB/challenge6.gif""style=""height:400px;""></stim_listB>","is being challenged by","","","","","",""
"null","<div style=""font-size:60px;"">+</div>","","html-keyboard-response","70","403896","0.0-13.0-0.10","20918","List1B","white","woman","","","","null","","","","","","","","",""
"null","<img src=""stim_listB/copy4.gif""style=""height:400px;""></stim_listB>","","html-keyboard-response","71","405912","0.0-13.0-1.10","20918","List1B","white","woman","","","","null","","","","","","","","",""
"null","is being copied by","","html-keyboard-response","72","407928","0.0-13.0-2.10","20918","List1B","white","woman","","","","null","","","","","","","","",""
"10388.5","","","survey-text","73","418318","0.0-13.0-3.10","20918","List1B","white","woman","","","","","{""Q0"":""luke is being copied by jane""}","<img src=""stim_listB/copy4.gif""style=""height:400px;""></stim_listB>","is being copied by","","","","","",""
"null","<div style=""font-size:60px;"">+</div>","","html-keyboard-response","74","418827","0.0-13.0-0.11","20918","List1B","white","woman","","","","null","","","","","","","","",""
"null","<img src=""stim_listB/greet7.gif""style=""height:400px;""></stim_listB>","","html-keyboard-response","75","420841","0.0-13.0-1.11","20918","List1B","white","woman","","","","null","","","","","","","","",""
"null","is greeting","","html-keyboard-response","76","422857","0.0-13.0-2.11","20918","List1B","white","woman","","","","null","","","","","","","","",""
"14427.299999952316","","","survey-text","77","437286","0.0-13.0-3.11","20918","List1B","white","woman","","","","","{""Q0"":""jane is being greeted by kate""}","<img src=""stim_listB/greet7.gif""style=""height:400px;""></stim_listB>","is greeting","","","","","",""
"null","<div style=""font-size:60px;"">+</div>","","html-keyboard-response","78","437798","0.0-13.0-0.12","20918","List1B","white","woman","","","","null","","","","","","","","",""
"null","<img src=""stim_listB/seduce6.gif""style=""height:400px;""></stim_listB>","","html-keyboard-response","79","439804","0.0-13.0-1.12","20918","List1B","white","woman","","","","null","","","","","","","","",""
"null","is being seduced by","","html-keyboard-response","80","441805","0.0-13.0-2.12","20918","List1B","white","woman","","","","null","","","","","","","","",""
"9405.899999976158","","","survey-text","81","451212","0.0-13.0-3.12","20918","List1B","white","woman","","","","","{""Q0"":""luke is being seduced by mike""}","<img src=""stim_listB/seduce6.gif""style=""height:400px;""></stim_listB>","is being seduced by","","","","","",""
"null","<div style=""font-size:60px;"">+</div>","","html-keyboard-response","82","451714","0.0-13.0-0.13","20918","List1B","white","woman","","","","null","","","","","","","","",""
"null","<img src=""stim_listB/shout6.gif""style=""height:400px;""></stim_listB>","","html-keyboard-response","83","453716","0.0-13.0-1.13","20918","List1B","white","woman","","","","null","","","","","","","","",""
"null","is being shouted at by","","html-keyboard-response","84","455717","0.0-13.0-2.13","20918","List1B","white","woman","","","","null","","","","","","","","",""
"7687.799999952316","","","survey-text","85","463406","0.0-13.0-3.13","20918","List1B","white","woman","","","","","{""Q0"":""dave is being shouted at by mike""}","<img src=""stim_listB/shout6.gif""style=""height:400px;""></stim_listB>","is being shouted at by","","","","","",""
"null","<div style=""font-size:60px;"">+</div>","","html-keyboard-response","86","463909","0.0-13.0-0.14","20918","List1B","white","woman","","","","null","","","","","","","","",""
"null","<img src=""stim_listB/greet2.gif""style=""height:400px;""></stim_listB>","","html-keyboard-response","87","465921","0.0-13.0-1.14","20918","List1B","white","woman","","","","null","","","","","","","","",""
"null","is being greeted by","","html-keyboard-response","88","467922","0.0-13.0-2.14","20918","List1B","white","woman","","","","null","","","","","","","","",""
"8748.600000023842","","","survey-text","89","476672","0.0-13.0-3.14","20918","List1B","white","woman","","","","","{""Q0"":""fred is being greeted by kate""}","<img src=""stim_listB/greet2.gif""style=""height:400px;""></stim_listB>","is being greeted by","","","","","",""
"null","<div style=""font-size:60px;"">+</div>","","html-keyboard-response","90","477176","0.0-13.0-0.15","20918","List1B","white","woman","","","","null","","","","","","","","",""
"null","<img src=""stim_listB/challenge8.gif""style=""height:400px;""></stim_listB>","","html-keyboard-response","91","479182","0.0-13.0-1.15","20918","List1B","white","woman","","","","null","","","","","","","","",""
"null","is being challenged by","","html-keyboard-response","92","481190","0.0-13.0-2.15","20918","List1B","white","woman","","","","null","","","","","","","","",""
"17663.400000035763","","","survey-text","93","498855","0.0-13.0-3.15","20918","List1B","white","woman","","","","","{""Q0"":""beth is being challenged by jane""}","<img src=""stim_listB/challenge8.gif""style=""height:400px;""></stim_listB>","is being challenged by","","","","","",""
"null","<div style=""font-size:60px;"">+</div>","","html-keyboard-response","94","499372","0.0-13.0-0.16","20918","List1B","white","woman","","","","null","","","","","","","","",""
"null","<img src=""stim_listB/shout5.gif""style=""height:400px;""></stim_listB>","","html-keyboard-response","95","501387","0.0-13.0-1.16","20918","List1B","white","woman","","","","null","","","","","","","","",""
"null","is shouting at","","html-keyboard-response","96","503388","0.0-13.0-2.16","20918","List1B","white","woman","","","","null","","","","","","","","",""
"8755.399999976158","","","survey-text","97","512145","0.0-13.0-3.16","20918","List1B","white","woman","","","","","{""Q0"":""fred is shouting at luke""}","<img src=""stim_listB/shout5.gif""style=""height:400px;""></stim_listB>","is shouting at","","","","","",""
"null","<div style=""font-size:60px;"">+</div>","","html-keyboard-response","98","512649","0.0-13.0-0.17","20918","List1B","white","woman","","","","null","","","","","","","","",""
"null","<img src=""stim_listB/oppose5.gif""style=""height:400px;""></stim_listB>","","html-keyboard-response","99","514663","0.0-13.0-1.17","20918","List1B","white","woman","","","","null","","","","","","","","",""
"null","is opposing","","html-keyboard-response","100","516673","0.0-13.0-2.17","20918","List1B","white","woman","","","","null","","","","","","","","",""
"6761.099999964237","","","survey-text","101","523436","0.0-13.0-3.17","20918","List1B","white","woman","","","","","{""Q0"":""mike is opposing dave""}","<img src=""stim_listB/oppose5.gif""style=""height:400px;""></stim_listB>","is opposing","","","","","",""
"null","<div style=""font-size:60px;"">+</div>","","html-keyboard-response","102","523943","0.0-13.0-0.18","20918","List1B","white","woman","","","","null","","","","","","","","",""
"null","<img src=""stim_listB/hug5.gif""style=""height:400px;""></stim_listB>","","html-keyboard-response","103","525956","0.0-13.0-1.18","20918","List1B","white","woman","","","","null","","","","","","","","",""
"null","is hugging","","html-keyboard-response","104","527963","0.0-13.0-2.18","20918","List1B","white","woman","","","","null","","","","","","","","",""
"8618.399999976158","","","survey-text","105","536583","0.0-13.0-3.18","20918","List1B","white","woman","","","","","{""Q0"":""fred is hugging luke""}","<img src=""stim_listB/hug5.gif""style=""height:400px;""></stim_listB>","is hugging","","","","","",""
"null","<div style=""font-size:60px;"">+</div>","","html-keyboard-response","106","537090","0.0-13.0-0.19","20918","List1B","white","woman","","","","null","","","","","","","","",""
"null","<img src=""stim_listB/touch1.gif""style=""height:400px;""></stim_listB>","","html-keyboard-response","107","539098","0.0-13.0-1.19","20918","List1B","white","woman","","","","null","","","","","","","","",""
"null","is touching","","html-keyboard-response","108","541103","0.0-13.0-2.19","20918","List1B","white","woman","","","","null","","","","","","","","",""
"8825.399999976158","","","survey-text","109","549929","0.0-13.0-3.19","20918","List1B","white","woman","","","","","{""Q0"":""kate is touching mike""}","<img src=""stim_listB/touch1.gif""style=""height:400px;""></stim_listB>","is touching","","","","","",""
"11220.700000047684","<img src='img/portrait_matrix_list1.jpg' style='width:900px;height:500px;''></img><p>If you have memorised all the portraits and names and are ready to start, press Continue.</p><p><strong>Please note: Your memory of these faces will be tested 4 times during this experiment.</strong></p>","0","html-button-response","110","561151","0.0-14.0-0.0","20918","List1B","white","woman","","","","","","","","","","","","",""
"3421","<img src=""portrait/BW2.jpg""style=""height:400px;""></img>","2","html-button-response","111","565580","0.0-14.0-1.0","20918","List1B","white","woman","","true","2","","","","","","","","","",""
"null","CORRECT","","html-keyboard-response","112","567101","0.0-14.0-2.0-0.0","20918","List1B","white","woman","","","","null","","","","","","","","",""
"3147","<img src=""portrait/BM2.jpg""style=""height:400px;""></img>","5","html-button-response","113","570250","0.0-14.0-4.0","20918","List1B","white","woman","","true","5","","","","","","","","","",""
"null","CORRECT","","html-keyboard-response","114","571760","0.0-14.0-5.0-0.0","20918","List1B","white","woman","","","","null","","","","","","","","",""
"2896.900000035763","<img src=""portrait/WM1.jpg""style=""height:400px;""></img>","6","html-button-response","115","574658","0.0-14.0-7.0","20918","List1B","white","woman","","true","6","","","","","","","","","",""
"null","CORRECT","","html-keyboard-response","116","576174","0.0-14.0-8.0-0.0","20918","List1B","white","woman","","","","null","","","","","","","","",""
"2619.099999964237","<img src=""portrait/BM1.jpg""style=""height:400px;""></img>","4","html-button-response","117","578795","0.0-14.0-10.0","20918","List1B","white","woman","","true","4","","","","","","","","","",""
"null","CORRECT","","html-keyboard-response","118","580321","0.0-14.0-11.0-0.0","20918","List1B","white","woman","","","","null","","","","","","","","",""
"8898.800000011921","<img src=""portrait/WM2.jpg""style=""height:400px;""></img>","7","html-button-response","119","589222","0.0-14.0-13.0","20918","List1B","white","woman","","true","7","","","","","","","","","",""
"null","CORRECT","","html-keyboard-response","120","590732","0.0-14.0-14.0-0.0","20918","List1B","white","woman","","","","null","","","","","","","","",""
"4221.600000023842","<img src=""portrait/WW2.jpg""style=""height:400px;""></img>","3","html-button-response","121","594955","0.0-14.0-16.0","20918","List1B","white","woman","","true","3","","","","","","","","","",""
"null","CORRECT","","html-keyboard-response","122","596474","0.0-14.0-17.0-0.0","20918","List1B","white","woman","","","","null","","","","","","","","",""
"7833","<img src=""portrait/BW1.jpg""style=""height:400px;""></img>","0","html-button-response","123","604308","0.0-14.0-19.0","20918","List1B","white","woman","","true","0","","","","","","","","","",""
"null","CORRECT","","html-keyboard-response","124","605823","0.0-14.0-20.0-0.0","20918","List1B","white","woman","","","","null","","","","","","","","",""
"9581.199999988079","<img src=""portrait/WW1.jpg""style=""height:400px;""></img>","1","html-button-response","125","615405","0.0-14.0-22.0","20918","List1B","white","woman","","true","1","","","","","","","","","",""
"null","CORRECT","","html-keyboard-response","126","616911","0.0-14.0-23.0-0.0","20918","List1B","white","woman","","","","null","","","","","","","","",""
"1799.8999999761581","<p>You got 8 out of 8 right first time. Press Continue.</p>","0","html-button-response","127","618713","0.0-14.0-25.0","20918","List1B","white","woman","","","","","","","","","","","","",""
"null","<div style=""font-size:60px;"">+</div>","","html-keyboard-response","128","620228","0.0-15.0-0.0","20918","List1B","white","woman","","","","null","","","","","","","","",""
"null","<img src=""stim_listB/greet6.gif""style=""height:400px;""></stim_listB>","","html-keyboard-response","129","622230","0.0-15.0-1.0","20918","List1B","white","woman","","","","null","","","","","","","","",""
"null","is being greeted by","","html-keyboard-response","130","624231","0.0-15.0-2.0","20918","List1B","white","woman","","","","null","","","","","","","","",""
"13022.5","","","survey-text","131","637255","0.0-15.0-3.0","20918","List1B","white","woman","","","","","{""Q0"":""fred is being greeted by dave""}","<img src=""stim_listB/greet6.gif""style=""height:400px;""></stim_listB>","is being greeted by","","","","","",""
"null","<div style=""font-size:60px;"">+</div>","","html-keyboard-response","132","637757","0.0-15.0-0.1","20918","List1B","white","woman","","","","null","","","","","","","","",""
"null","<img src=""stim_listB/copy2.gif""style=""height:400px;""></stim_listB>","","html-keyboard-response","133","639759","0.0-15.0-1.1","20918","List1B","white","woman","","","","null","","","","","","","","",""
"null","is being copied by","","html-keyboard-response","134","641760","0.0-15.0-2.1","20918","List1B","white","woman","","","","null","","","","","","","","",""
"6529","","","survey-text","135","648291","0.0-15.0-3.1","20918","List1B","white","woman","","","","","{""Q0"":""fred is being copied by kate""}","<img src=""stim_listB/copy2.gif""style=""height:400px;""></stim_listB>","is being copied by","","","","","",""
"null","<div style=""font-size:60px;"">+</div>","","html-keyboard-response","136","648798","0.0-15.0-0.2","20918","List1B","white","woman","","","","null","","","","","","","","",""
"null","<img src=""stim_listB/kiss7.gif""style=""height:400px;""></stim_listB>","","html-keyboard-response","137","650800","0.0-15.0-1.2","20918","List1B","white","woman","","","","null","","","","","","","","",""
"null","is kissing","","html-keyboard-response","138","652802","0.0-15.0-2.2","20918","List1B","white","woman","","","","null","","","","","","","","",""
"11041.100000023842","","","survey-text","139","663844","0.0-15.0-3.2","20918","List1B","white","woman","","","","","{""Q0"":""jane is kissing beth""}","<img src=""stim_listB/kiss7.gif""style=""height:400px;""></stim_listB>","is kissing","","","","","",""
"null","<div style=""font-size:60px;"">+</div>","","html-keyboard-response","140","664345","0.0-15.0-0.3","20918","List1B","white","woman","","","","null","","","","","","","","",""
"null","<img src=""stim_listB/greet8.gif""style=""height:400px;""></stim_listB>","","html-keyboard-response","141","666349","0.0-15.0-1.3","20918","List1B","white","woman","","","","null","","","","","","","","",""
"null","is being greeted by","","html-keyboard-response","142","668359","0.0-15.0-2.3","20918","List1B","white","woman","","","","null","","","","","","","","",""
"8758.399999976158","","","survey-text","143","677120","0.0-15.0-3.3","20918","List1B","white","woman","","","","","{""Q0"":""jane is being greeted by beth""}","<img src=""stim_listB/greet8.gif""style=""height:400px;""></stim_listB>","is being greeted by","","","","","",""
"null","<div style=""font-size:60px;"">+</div>","","html-keyboard-response","144","677623","0.0-15.0-0.4","20918","List1B","white","woman","","","","null","","","","","","","","",""
"null","<img src=""stim_listB/seduce4.gif""style=""height:400px;""></stim_listB>","","html-keyboard-response","145","679636","0.0-15.0-1.4","20918","List1B","white","woman","","","","null","","","","","","","","",""
"null","is being seduced by","","html-keyboard-response","146","681640","0.0-15.0-2.4","20918","List1B","white","woman","","","","null","","","","","","","","",""
"8014.400000035763","","","survey-text","147","689656","0.0-15.0-3.4","20918","List1B","white","woman","","","","","{""Q0"":""jane is being seduced by dave""}","<img src=""stim_listB/seduce4.gif""style=""height:400px;""></stim_listB>","is being seduced by","","","","","",""
"null","<div style=""font-size:60px;"">+</div>","","html-keyboard-response","148","690169","0.0-15.0-0.5","20918","List1B","white","woman","","","","null","","","","","","","","",""
"null","<img src=""stim_listB/greet1.gif""style=""height:400px;""></stim_listB>","","html-keyboard-response","149","692186","0.0-15.0-1.5","20918","List1B","white","woman","","","","null","","","","","","","","",""
"null","is greeting","","html-keyboard-response","150","694188","0.0-15.0-2.5","20918","List1B","white","woman","","","","null","","","","","","","","",""
"6157.100000023842","","","survey-text","151","700347","0.0-15.0-3.5","20918","List1B","white","woman","","","","","{""Q0"":""mike is greeting beth""}","<img src=""stim_listB/greet1.gif""style=""height:400px;""></stim_listB>","is greeting","","","","","",""
"null","<div style=""font-size:60px;"">+</div>","","html-keyboard-response","152","700853","0.0-15.0-0.6","20918","List1B","white","woman","","","","null","","","","","","","","",""
"null","<img src=""stim_listB/kiss1.gif""style=""height:400px;""></stim_listB>","","html-keyboard-response","153","702869","0.0-15.0-1.6","20918","List1B","white","woman","","","","null","","","","","","","","",""
"null","is kissing","","html-keyboard-response","154","704870","0.0-15.0-2.6","20918","List1B","white","woman","","","","null","","","","","","","","",""
"6474.800000011921","","","survey-text","155","711346","0.0-15.0-3.6","20918","List1B","white","woman","","","","","{""Q0"":""fred is kissing beth""}","<img src=""stim_listB/kiss1.gif""style=""height:400px;""></stim_listB>","is kissing","","","","","",""
"null","<div style=""font-size:60px;"">+</div>","","html-keyboard-response","156","711855","0.0-15.0-0.7","20918","List1B","white","woman","","","","null","","","","","","","","",""
"null","<img src=""stim_listB/touch7.gif""style=""height:400px;""></stim_listB>","","html-keyboard-response","157","713856","0.0-15.0-1.7","20918","List1B","white","woman","","","","null","","","","","","","","",""
"null","is touching","","html-keyboard-response","158","715858","0.0-15.0-2.7","20918","List1B","white","woman","","","","null","","","","","","","","",""
"7007.300000011921","","","survey-text","159","722867","0.0-15.0-3.7","20918","List1B","white","woman","","","","","{""Q0"":""jane is touching kate""}","<img src=""stim_listB/touch7.gif""style=""height:400px;""></stim_listB>","is touching","","","","","",""
"null","<div style=""font-size:60px;"">+</div>","","html-keyboard-response","160","723374","0.0-15.0-0.8","20918","List1B","white","woman","","","","null","","","","","","","","",""
"null","<img src=""stim_listB/oppose2.gif""style=""height:400px;""></stim_listB>","","html-keyboard-response","161","725376","0.0-15.0-1.8","20918","List1B","white","woman","","","","null","","","","","","","","",""
"null","is being opposed by","","html-keyboard-response","162","727383","0.0-15.0-2.8","20918","List1B","white","woman","","","","null","","","","","","","","",""
"7316.099999964237","","","survey-text","163","734701","0.0-15.0-3.8","20918","List1B","white","woman","","","","","{""Q0"":""fred is being opposed by beth""}","<img src=""stim_listB/oppose2.gif""style=""height:400px;""></stim_listB>","is being opposed by","","","","","",""
"null","<div style=""font-size:60px;"">+</div>","","html-keyboard-response","164","735209","0.0-15.0-0.9","20918","List1B","white","woman","","","","null","","","","","","","","",""
"null","<img src=""stim_listB/shout1.gif""style=""height:400px;""></stim_listB>","","html-keyboard-response","165","737221","0.0-15.0-1.9","20918","List1B","white","woman","","","","null","","","","","","","","",""
"null","is shouting at","","html-keyboard-response","166","739225","0.0-15.0-2.9","20918","List1B","white","woman","","","","null","","","","","","","","",""
"5391.599999964237","","","survey-text","167","744619","0.0-15.0-3.9","20918","List1B","white","woman","","","","","{""Q0"":""beth is shouting at fred""}","<img src=""stim_listB/shout1.gif""style=""height:400px;""></stim_listB>","is shouting at","","","","","",""
"null","<div style=""font-size:60px;"">+</div>","","html-keyboard-response","168","745127","0.0-15.0-0.10","20918","List1B","white","woman","","","","null","","","","","","","","",""
"null","<img src=""stim_listB/seduce7.gif""style=""height:400px;""></stim_listB>","","html-keyboard-response","169","747136","0.0-15.0-1.10","20918","List1B","white","woman","","","","null","","","","","","","","",""
"null","is seducing","","html-keyboard-response","170","749140","0.0-15.0-2.10","20918","List1B","white","woman","","","","null","","","","","","","","",""
"5871.200000047684","","","survey-text","171","755013","0.0-15.0-3.10","20918","List1B","white","woman","","","","","{""Q0"":"" is seducing beth""}","<img src=""stim_listB/seduce7.gif""style=""height:400px;""></stim_listB>","is seducing","","","","","",""
"null","<div style=""font-size:60px;"">+</div>","","html-keyboard-response","172","755516","0.0-15.0-0.11","20918","List1B","white","woman","","","","null","","","","","","","","",""
"null","<img src=""stim_listB/kiss8.gif""style=""height:400px;""></stim_listB>","","html-keyboard-response","173","757528","0.0-15.0-1.11","20918","List1B","white","woman","","","","null","","","","","","","","",""
"null","is being kissed by","","html-keyboard-response","174","759545","0.0-15.0-2.11","20918","List1B","white","woman","","","","null","","","","","","","","",""
"6305.800000011921","","","survey-text","175","765853","0.0-15.0-3.11","20918","List1B","white","woman","","","","","{""Q0"":""kate is being kissed by jane""}","<img src=""stim_listB/kiss8.gif""style=""height:400px;""></stim_listB>","is being kissed by","","","","","",""
"null","<div style=""font-size:60px;"">+</div>","","html-keyboard-response","176","766355","0.0-15.0-0.12","20918","List1B","white","woman","","","","null","","","","","","","","",""
"null","<img src=""stim_listB/seduce2.gif""style=""height:400px;""></stim_listB>","","html-keyboard-response","177","768371","0.0-15.0-1.12","20918","List1B","white","woman","","","","null","","","","","","","","",""
"null","is being seduced by","","html-keyboard-response","178","770372","0.0-15.0-2.12","20918","List1B","white","woman","","","","null","","","","","","","","",""
"8327.399999976158","","","survey-text","179","778702","0.0-15.0-3.12","20918","List1B","white","woman","","","","","{""Q0"":""mike is being seduced by beth""}","<img src=""stim_listB/seduce2.gif""style=""height:400px;""></stim_listB>","is being seduced by","","","","","",""
"null","<div style=""font-size:60px;"">+</div>","","html-keyboard-response","180","779212","0.0-15.0-0.13","20918","List1B","white","woman","","","","null","","","","","","","","",""
"null","<img src=""stim_listB/oppose4.gif""style=""height:400px;""></stim_listB>","","html-keyboard-response","181","781226","0.0-15.0-1.13","20918","List1B","white","woman","","","","null","","","","","","","","",""
"null","is being opposed by","","html-keyboard-response","182","783227","0.0-15.0-2.13","20918","List1B","white","woman","","","","null","","","","","","","","",""
"11232.600000023842","","","survey-text","183","794462","0.0-15.0-3.13","20918","List1B","white","woman","","","","","{""Q0"":""jane is being opposed by luke""}","<img src=""stim_listB/oppose4.gif""style=""height:400px;""></stim_listB>","is being opposed by","","","","","",""
"null","<div style=""font-size:60px;"">+</div>","","html-keyboard-response","184","794973","0.0-15.0-0.14","20918","List1B","white","woman","","","","null","","","","","","","","",""
"null","<img src=""stim_listB/challenge2.gif""style=""height:400px;""></stim_listB>","","html-keyboard-response","185","796975","0.0-15.0-1.14","20918","List1B","white","woman","","","","null","","","","","","","","",""
"null","is being challenged by","","html-keyboard-response","186","798976","0.0-15.0-2.14","20918","List1B","white","woman","","","","null","","","","","","","","",""
"7627.5","","","survey-text","187","806606","0.0-15.0-3.14","20918","List1B","white","woman","","","","","{""Q0"":""kate is being challenged by fred""}","<img src=""stim_listB/challenge2.gif""style=""height:400px;""></stim_listB>","is being challenged by","","","","","",""
"null","<div style=""font-size:60px;"">+</div>","","html-keyboard-response","188","807113","0.0-15.0-0.15","20918","List1B","white","woman","","","","null","","","","","","","","",""
"null","<img src=""stim_listB/copy3.gif""style=""height:400px;""></stim_listB>","","html-keyboard-response","189","809127","0.0-15.0-1.15","20918","List1B","white","woman","","","","null","","","","","","","","",""
"null","is copying","","html-keyboard-response","190","811141","0.0-15.0-2.15","20918","List1B","white","woman","","","","null","","","","","","","","",""
"6262","","","survey-text","191","817405","0.0-15.0-3.15","20918","List1B","white","woman","","","","","{""Q0"":""dave is copying jane""}","<img src=""stim_listB/copy3.gif""style=""height:400px;""></stim_listB>","is copying","","","","","",""
"null","<div style=""font-size:60px;"">+</div>","","html-keyboard-response","192","817911","0.0-15.0-0.16","20918","List1B","white","woman","","","","null","","","","","","","","",""
"null","<img src=""stim_listB/hug2.gif""style=""height:400px;""></stim_listB>","","html-keyboard-response","193","819926","0.0-15.0-1.16","20918","List1B","white","woman","","","","null","","","","","","","","",""
"null","is being hugged by","","html-keyboard-response","194","821928","0.0-15.0-2.16","20918","List1B","white","woman","","","","null","","","","","","","","",""
"10129.899999976158","","","survey-text","195","832059","0.0-15.0-3.16","20918","List1B","white","woman","","","","","{""Q0"":""kate is being hugged by mike""}","<img src=""stim_listB/hug2.gif""style=""height:400px;""></stim_listB>","is being hugged by","","","","","",""
"null","<div style=""font-size:60px;"">+</div>","","html-keyboard-response","196","832571","0.0-15.0-0.17","20918","List1B","white","woman","","","","null","","","","","","","","",""
"null","<img src=""stim_listB/oppose8.gif""style=""height:400px;""></stim_listB>","","html-keyboard-response","197","834587","0.0-15.0-1.17","20918","List1B","white","woman","","","","null","","","","","","","","",""
"null","is being opposed by","","html-keyboard-response","198","836603","0.0-15.0-2.17","20918","List1B","white","woman","","","","null","","","","","","","","",""
"7432.899999976158","","","survey-text","199","844037","0.0-15.0-3.17","20918","List1B","white","woman","","","","","{""Q0"":""beth is being opposed by jane""}","<img src=""stim_listB/oppose8.gif""style=""height:400px;""></stim_listB>","is being opposed by","","","","","",""
"null","<div style=""font-size:60px;"">+</div>","","html-keyboard-response","200","844541","0.0-15.0-0.18","20918","List1B","white","woman","","","","null","","","","","","","","",""
"null","<img src=""stim_listB/touch8.gif""style=""height:400px;""></stim_listB>","","html-keyboard-response","201","846544","0.0-15.0-1.18","20918","List1B","white","woman","","","","null","","","","","","","","",""
"null","is being touched by","","html-keyboard-response","202","848554","0.0-15.0-2.18","20918","List1B","white","woman","","","","null","","","","","","","","",""
"5641","","","survey-text","203","854197","0.0-15.0-3.18","20918","List1B","white","woman","","","","","{""Q0"":""beth is being touched by jane""}","<img src=""stim_listB/touch8.gif""style=""height:400px;""></stim_listB>","is being touched by","","","","","",""
"null","<div style=""font-size:60px;"">+</div>","","html-keyboard-response","204","854704","0.0-15.0-0.19","20918","List1B","white","woman","","","","null","","","","","","","","",""
"null","<img src=""stim_listB/oppose1.gif""style=""height:400px;""></stim_listB>","","html-keyboard-response","205","856708","0.0-15.0-1.19","20918","List1B","white","woman","","","","null","","","","","","","","",""
"null","is opposing","","html-keyboard-response","206","858724","0.0-15.0-2.19","20918","List1B","white","woman","","","","null","","","","","","","","",""
"7130.5","","","survey-text","207","865857","0.0-15.0-3.19","20918","List1B","white","woman","","","","","{""Q0"":""kate is opposing mike""}","<img src=""stim_listB/oppose1.gif""style=""height:400px;""></stim_listB>","is opposing","","","","","",""
"3473.600000023842","<img src='img/portrait_matrix_list1.jpg' style='width:900px;height:500px;''></img><p>If you have memorised all the portraits and names and are ready to start, press Continue.</p><p><strong>Please note: Your memory of these faces will be tested 4 times during this experiment.</strong></p>","0","html-button-response","208","869332","0.0-16.0-0.0","20918","List1B","white","woman","","","","","","","","","","","","",""
"1736.699999988079","<img src=""portrait/WW2.jpg""style=""height:400px;""></img>","3","html-button-response","209","872084","0.0-16.0-1.0","20918","List1B","white","woman","","true","3","","","","","","","","","",""
"null","CORRECT","","html-keyboard-response","210","873607","0.0-16.0-2.0-0.0","20918","List1B","white","woman","","","","null","","","","","","","","",""
"5076.100000023842","<img src=""portrait/BW1.jpg""style=""height:400px;""></img>","0","html-button-response","211","878685","0.0-16.0-4.0","20918","List1B","white","woman","","true","0","","","","","","","","","",""
"null","CORRECT","","html-keyboard-response","212","880204","0.0-16.0-5.0-0.0","20918","List1B","white","woman","","","","null","","","","","","","","",""
"2513.600000023842","<img src=""portrait/WM2.jpg""style=""height:400px;""></img>","7","html-button-response","213","882719","0.0-16.0-7.0","20918","List1B","white","woman","","true","7","","","","","","","","","",""
"null","CORRECT","","html-keyboard-response","214","884229","0.0-16.0-8.0-0.0","20918","List1B","white","woman","","","","null","","","","","","","","",""
"2829.300000011921","<img src=""portrait/BM2.jpg""style=""height:400px;""></img>","5","html-button-response","215","887060","0.0-16.0-10.0","20918","List1B","white","woman","","true","5","","","","","","","","","",""
"null","CORRECT","","html-keyboard-response","216","888584","0.0-16.0-11.0-0.0","20918","List1B","white","woman","","","","null","","","","","","","","",""
"2774.900000035763","<img src=""portrait/WW1.jpg""style=""height:400px;""></img>","1","html-button-response","217","891361","0.0-16.0-13.0","20918","List1B","white","woman","","true","1","","","","","","","","","",""
"null","CORRECT","","html-keyboard-response","218","892883","0.0-16.0-14.0-0.0","20918","List1B","white","woman","","","","null","","","","","","","","",""
"1997.699999988079","<img src=""portrait/WM1.jpg""style=""height:400px;""></img>","6","html-button-response","219","894882","0.0-16.0-16.0","20918","List1B","white","woman","","true","6","","","","","","","","","",""
"null","CORRECT","","html-keyboard-response","220","896401","0.0-16.0-17.0-0.0","20918","List1B","white","woman","","","","null","","","","","","","","",""
"2313.199999988079","<img src=""portrait/BW2.jpg""style=""height:400px;""></img>","2","html-button-response","221","898716","0.0-16.0-19.0","20918","List1B","white","woman","","true","2","","","","","","","","","",""
"null","CORRECT","","html-keyboard-response","222","900235","0.0-16.0-20.0-0.0","20918","List1B","white","woman","","","","null","","","","","","","","",""
"2627.199999988079","<img src=""portrait/BM1.jpg""style=""height:400px;""></img>","4","html-button-response","223","902864","0.0-16.0-22.0","20918","List1B","white","woman","","true","4","","","","","","","","","",""
"null","CORRECT","","html-keyboard-response","224","904373","0.0-16.0-23.0-0.0","20918","List1B","white","woman","","","","null","","","","","","","","",""
"1278.3999999761581","<p>You got 8 out of 8 right first time. Press Continue.</p>","0","html-button-response","225","905654","0.0-16.0-25.0","20918","List1B","white","woman","","","","","","","","","","","","",""
"null","<div style=""font-size:60px;"">+</div>","","html-keyboard-response","226","907164","0.0-17.0-0.0","20918","List1B","white","woman","","","","null","","","","","","","","",""
"null","<img src=""stim_listB/challenge3.gif""style=""height:400px;""></stim_listB>","","html-keyboard-response","227","909165","0.0-17.0-1.0","20918","List1B","white","woman","","","","null","","","","","","","","",""
"null","is challenging","","html-keyboard-response","228","911176","0.0-17.0-2.0","20918","List1B","white","woman","","","","null","","","","","","","","",""
"4995.300000011921","","","survey-text","229","916175","0.0-17.0-3.0","20918","List1B","white","woman","","","","","{""Q0"":""jane is challenging dave""}","<img src=""stim_listB/challenge3.gif""style=""height:400px;""></stim_listB>","is challenging","","","","","",""
"null","<div style=""font-size:60px;"">+</div>","","html-keyboard-response","230","916688","0.0-17.0-0.1","20918","List1B","white","woman","","","","null","","","","","","","","",""
"null","<img src=""stim_listB/hug7.gif""style=""height:400px;""></stim_listB>","","html-keyboard-response","231","918691","0.0-17.0-1.1","20918","List1B","white","woman","","","","null","","","","","","","","",""
"null","is hugging","","html-keyboard-response","232","920701","0.0-17.0-2.1","20918","List1B","white","woman","","","","null","","","","","","","","",""
"7203.699999988079","","","survey-text","233","927907","0.0-17.0-3.1","20918","List1B","white","woman","","","","","{""Q0"":""jane is hugging beth""}","<img src=""stim_listB/hug7.gif""style=""height:400px;""></stim_listB>","is hugging","","","","","",""
"null","<div style=""font-size:60px;"">+</div>","","html-keyboard-response","234","928417","0.0-17.0-0.2","20918","List1B","white","woman","","","","null","","","","","","","","",""
"null","<img src=""stim_listB/touch4.gif""style=""height:400px;""></stim_listB>","","html-keyboard-response","235","930434","0.0-17.0-1.2","20918","List1B","white","woman","","","","null","","","","","","","","",""
"null","is being touched by","","html-keyboard-response","236","932444","0.0-17.0-2.2","20918","List1B","white","woman","","","","null","","","","","","","","",""
"7785.199999988079","","","survey-text","237","940231","0.0-17.0-3.2","20918","List1B","white","woman","","","","","{""Q0"":""jane is being touched by luke""}","<img src=""stim_listB/touch4.gif""style=""height:400px;""></stim_listB>","is being touched by","","","","","",""
"null","<div style=""font-size:60px;"">+</div>","","html-keyboard-response","238","940743","0.0-17.0-0.3","20918","List1B","white","woman","","","","null","","","","","","","","",""
"null","<img src=""stim_listB/hug3.gif""style=""height:400px;""></stim_listB>","","html-keyboard-response","239","942759","0.0-17.0-1.3","20918","List1B","white","woman","","","","null","","","","","","","","",""
"null","is hugging","","html-keyboard-response","240","944762","0.0-17.0-2.3","20918","List1B","white","woman","","","","null","","","","","","","","",""
"5999.599999964237","","","survey-text","241","950763","0.0-17.0-3.3","20918","List1B","white","woman","","","","","{""Q0"":""jane is hugging luke""}","<img src=""stim_listB/hug3.gif""style=""height:400px;""></stim_listB>","is hugging","","","","","",""
"null","<div style=""font-size:60px;"">+</div>","","html-keyboard-response","242","951270","0.0-17.0-0.4","20918","List1B","white","woman","","","","null","","","","","","","","",""
"null","<img src=""stim_listB/kiss3.gif""style=""height:400px;""></stim_listB>","","html-keyboard-response","243","953276","0.0-17.0-1.4","20918","List1B","white","woman","","","","null","","","","","","","","",""
"null","is kissing","","html-keyboard-response","244","955277","0.0-17.0-2.4","20918","List1B","white","woman","","","","null","","","","","","","","",""
"4168.199999988079","","","survey-text","245","959447","0.0-17.0-3.4","20918","List1B","white","woman","","","","","{""Q0"":""jan eis kissing luke""}","<img src=""stim_listB/kiss3.gif""style=""height:400px;""></stim_listB>","is kissing","","","","","",""
"null","<div style=""font-size:60px;"">+</div>","","html-keyboard-response","246","959957","0.0-17.0-0.5","20918","List1B","white","woman","","","","null","","","","","","","","",""
"null","<img src=""stim_listB/challenge4.gif""style=""height:400px;""></stim_listB>","","html-keyboard-response","247","961969","0.0-17.0-1.5","20918","List1B","white","woman","","","","null","","","","","","","","",""
"null","is being challenged by","","html-keyboard-response","248","963970","0.0-17.0-2.5","20918","List1B","white","woman","","","","null","","","","","","","","",""
"8098.399999976158","","","survey-text","249","972070","0.0-17.0-3.5","20918","List1B","white","woman","","","","","{""Q0"":""jane is being challenged by luke""}","<img src=""stim_listB/challenge4.gif""style=""height:400px;""></stim_listB>","is being challenged by","","","","","",""
"null","<div style=""font-size:60px;"">+</div>","","html-keyboard-response","250","972585","0.0-17.0-0.6","20918","List1B","white","woman","","","","null","","","","","","","","",""
"null","<img src=""stim_listB/shout7.gif""style=""height:400px;""></stim_listB>","","html-keyboard-response","251","974588","0.0-17.0-1.6","20918","List1B","white","woman","","","","null","","","","","","","","",""
"null","is shouting at","","html-keyboard-response","252","976590","0.0-17.0-2.6","20918","List1B","white","woman","","","","null","","","","","","","","",""
"5597.199999988079","","","survey-text","253","982188","0.0-17.0-3.6","20918","List1B","white","woman","","","","","{""Q0"":""beth is shouting at jane""}","<img src=""stim_listB/shout7.gif""style=""height:400px;""></stim_listB>","is shouting at","","","","","",""
"null","<div style=""font-size:60px;"">+</div>","","html-keyboard-response","254","982691","0.0-17.0-0.7","20918","List1B","white","woman","","","","null","","","","","","","","",""
"null","<img src=""stim_listB/kiss5.gif""style=""height:400px;""></stim_listB>","","html-keyboard-response","255","984707","0.0-17.0-1.7","20918","List1B","white","woman","","","","null","","","","","","","","",""
"null","is kissing","","html-keyboard-response","256","986709","0.0-17.0-2.7","20918","List1B","white","woman","","","","null","","","","","","","","",""
"5434.5","","","survey-text","257","992145","0.0-17.0-3.7","20918","List1B","white","woman","","","","","{""Q0"":""fred is kissing luke""}","<img src=""stim_listB/kiss5.gif""style=""height:400px;""></stim_listB>","is kissing","","","","","",""
"null","<div style=""font-size:60px;"">+</div>","","html-keyboard-response","258","992659","0.0-17.0-0.8","20918","List1B","white","woman","","","","null","","","","","","","","",""
"null","<img src=""stim_listB/hug1.gif""style=""height:400px;""></stim_listB>","","html-keyboard-response","259","994663","0.0-17.0-1.8","20918","List1B","white","woman","","","","null","","","","","","","","",""
"null","is hugging","","html-keyboard-response","260","996669","0.0-17.0-2.8","20918","List1B","white","woman","","","","null","","","","","","","","",""
"5182.399999976158","","","survey-text","261","1001854","0.0-17.0-3.8","20918","List1B","white","woman","","","","","{""Q0"":""fred is hugging beth""}","<img src=""stim_listB/hug1.gif""style=""height:400px;""></stim_listB>","is hugging","","","","","",""
"null","<div style=""font-size:60px;"">+</div>","","html-keyboard-response","262","1002360","0.0-17.0-0.9","20918","List1B","white","woman","","","","null","","","","","","","","",""
"null","<img src=""stim_listB/seduce8.gif""style=""height:400px;""></stim_listB>","","html-keyboard-response","263","1004363","0.0-17.0-1.9","20918","List1B","white","woman","","","","null","","","","","","","","",""
"null","is being seduced by","","html-keyboard-response","264","1006364","0.0-17.0-2.9","20918","List1B","white","woman","","","","null","","","","","","","","",""
"7671.299999952316","","","survey-text","265","1014037","0.0-17.0-3.9","20918","List1B","white","woman","","","","","{""Q0"":""jane is being seduced by kate""}","<img src=""stim_listB/seduce8.gif""style=""height:400px;""></stim_listB>","is being seduced by","","","","","",""
"null","<div style=""font-size:60px;"">+</div>","","html-keyboard-response","266","1014553","0.0-17.0-0.10","20918","List1B","white","woman","","","","null","","","","","","","","",""
"null","<img src=""stim_listB/seduce1.gif""style=""height:400px;""></stim_listB>","","html-keyboard-response","267","1016569","0.0-17.0-1.10","20918","List1B","white","woman","","","","null","","","","","","","","",""
"null","is seducing","","html-keyboard-response","268","1018585","0.0-17.0-2.10","20918","List1B","white","woman","","","","null","","","","","","","","",""
"5668.600000023842","","","survey-text","269","1024255","0.0-17.0-3.10","20918","List1B","white","woman","","","","","{""Q0"":""kate is seducing fred""}","<img src=""stim_listB/seduce1.gif""style=""height:400px;""></stim_listB>","is seducing","","","","","",""
"null","<div style=""font-size:60px;"">+</div>","","html-keyboard-response","270","1024759","0.0-17.0-0.11","20918","List1B","white","woman","","","","null","","","","","","","","",""
"null","<img src=""stim_listB/seduce5.gif""style=""height:400px;""></stim_listB>","","html-keyboard-response","271","1026761","0.0-17.0-1.11","20918","List1B","white","woman","","","","null","","","","","","","","",""
"null","is seducing","","html-keyboard-response","272","1028776","0.0-17.0-2.11","20918","List1B","white","woman","","","","null","","","","","","","","",""
"5417.099999964237","","","survey-text","273","1034195","0.0-17.0-3.11","20918","List1B","white","woman","","","","","{""Q0"":""fred is seducing dave""}","<img src=""stim_listB/seduce5.gif""style=""height:400px;""></stim_listB>","is seducing","","","","","",""
"null","<div style=""font-size:60px;"">+</div>","","html-keyboard-response","274","1034708","0.0-17.0-0.12","20918","List1B","white","woman","","","","null","","","","","","","","",""
"null","<img src=""stim_listB/copy8.gif""style=""height:400px;""></stim_listB>","","html-keyboard-response","275","1036720","0.0-17.0-1.12","20918","List1B","white","woman","","","","null","","","","","","","","",""
"null","is being copied by","","html-keyboard-response","276","1038722","0.0-17.0-2.12","20918","List1B","white","woman","","","","null","","","","","","","","",""
"6794.599999964237","","","survey-text","277","1045519","0.0-17.0-3.12","20918","List1B","white","woman","","","","","{""Q0"":""beth is being copied by jane""}","<img src=""stim_listB/copy8.gif""style=""height:400px;""></stim_listB>","is being copied by","","","","","",""
"null","<div style=""font-size:60px;"">+</div>","","html-keyboard-response","278","1046029","0.0-17.0-0.13","20918","List1B","white","woman","","","","null","","","","","","","","",""
"null","<img src=""stim_listB/copy1.gif""style=""height:400px;""></stim_listB>","","html-keyboard-response","279","1048045","0.0-17.0-1.13","20918","List1B","white","woman","","","","null","","","","","","","","",""
"null","is copying","","html-keyboard-response","280","1050047","0.0-17.0-2.13","20918","List1B","white","woman","","","","null","","","","","","","","",""
"5811.299999952316","","","survey-text","281","1055861","0.0-17.0-3.13","20918","List1B","white","woman","","","","","{""Q0"":""beth is copying mike""}","<img src=""stim_listB/copy1.gif""style=""height:400px;""></stim_listB>","is copying","","","","","",""
"null","<div style=""font-size:60px;"">+</div>","","html-keyboard-response","282","1056373","0.0-17.0-0.14","20918","List1B","white","woman","","","","null","","","","","","","","",""
"null","<img src=""stim_listB/look8.gif""style=""height:400px;""></stim_listB>","","html-keyboard-response","283","1058385","0.0-17.0-1.14","20918","List1B","white","woman","","","","null","","","","","","","","",""
"null","is being looked at by","","html-keyboard-response","284","1060395","0.0-17.0-2.14","20918","List1B","white","woman","","","","null","","","","","","","","",""
"7928.400000035763","","","survey-text","285","1068325","0.0-17.0-3.14","20918","List1B","white","woman","","","","","{""Q0"":""jane is being looked at by kate""}","<img src=""stim_listB/look8.gif""style=""height:400px;""></stim_listB>","is being looked at by","","","","","",""
"null","<div style=""font-size:60px;"">+</div>","","html-keyboard-response","286","1068829","0.0-17.0-0.15","20918","List1B","white","woman","","","","null","","","","","","","","",""
"null","<img src=""stim_listB/hug4.gif""style=""height:400px;""></stim_listB>","","html-keyboard-response","287","1070836","0.0-17.0-1.15","20918","List1B","white","woman","","","","null","","","","","","","","",""
"null","is being hugged by","","html-keyboard-response","288","1072837","0.0-17.0-2.15","20918","List1B","white","woman","","","","null","","","","","","","","",""
"7878.400000035763","","","survey-text","289","1080718","0.0-17.0-3.15","20918","List1B","white","woman","","","","","{""Q0"":""jane is being hugged by dave""}","<img src=""stim_listB/hug4.gif""style=""height:400px;""></stim_listB>","is being hugged by","","","","","",""
"null","<div style=""font-size:60px;"">+</div>","","html-keyboard-response","290","1081221","0.0-17.0-0.16","20918","List1B","white","woman","","","","null","","","","","","","","",""
"null","<img src=""stim_listB/hug6.gif""style=""height:400px;""></stim_listB>","","html-keyboard-response","291","1083231","0.0-17.0-1.16","20918","List1B","white","woman","","","","null","","","","","","","","",""
"null","is being hugged by","","html-keyboard-response","292","1085232","0.0-17.0-2.16","20918","List1B","white","woman","","","","null","","","","","","","","",""
"6107.600000023842","","","survey-text","293","1091342","0.0-17.0-3.16","20918","List1B","white","woman","","","","","{""Q0"":""dave is being hugged by mike""}","<img src=""stim_listB/hug6.gif""style=""height:400px;""></stim_listB>","is being hugged by","","","","","",""
"null","<div style=""font-size:60px;"">+</div>","","html-keyboard-response","294","1091848","0.0-17.0-0.17","20918","List1B","white","woman","","","","null","","","","","","","","",""
"null","<img src=""stim_listB/copy5.gif""style=""height:400px;""></stim_listB>","","html-keyboard-response","295","1093862","0.0-17.0-1.17","20918","List1B","white","woman","","","","null","","","","","","","","",""
"null","is copying","","html-keyboard-response","296","1095863","0.0-17.0-2.17","20918","List1B","white","woman","","","","null","","","","","","","","",""
"4885.400000035763","","","survey-text","297","1100750","0.0-17.0-3.17","20918","List1B","white","woman","","","","","{""Q0"":""mike is copying luke""}","<img src=""stim_listB/copy5.gif""style=""height:400px;""></stim_listB>","is copying","","","","","",""
"null","<div style=""font-size:60px;"">+</div>","","html-keyboard-response","298","1101263","0.0-17.0-0.18","20918","List1B","white","woman","","","","null","","","","","","","","",""
"null","<img src=""stim_listB/oppose6.gif""style=""height:400px;""></stim_listB>","","html-keyboard-response","299","1103279","0.0-17.0-1.18","20918","List1B","white","woman","","","","null","","","","","","","","",""
"null","is being opposed by","","html-keyboard-response","300","1105293","0.0-17.0-2.18","20918","List1B","white","woman","","","","null","","","","","","","","",""
"8727.099999964237","","","survey-text","301","1114023","0.0-17.0-3.18","20918","List1B","white","woman","","","","","{""Q0"":""fred is being opposed by luke""}","<img src=""stim_listB/oppose6.gif""style=""height:400px;""></stim_listB>","is being opposed by","","","","","",""
"null","<div style=""font-size:60px;"">+</div>","","html-keyboard-response","302","1114538","0.0-17.0-0.19","20918","List1B","white","woman","","","","null","","","","","","","","",""
"null","<img src=""stim_listB/challenge5.gif""style=""height:400px;""></stim_listB>","","html-keyboard-response","303","1116546","0.0-17.0-1.19","20918","List1B","white","woman","","","","null","","","","","","","","",""
"null","is challenging","","html-keyboard-response","304","1118560","0.0-17.0-2.19","20918","List1B","white","woman","","","","null","","","","","","","","",""
"4724.800000011921","","","survey-text","305","1123287","0.0-17.0-3.19","20918","List1B","white","woman","","","","","{""Q0"":""luke is challenging mike""}","<img src=""stim_listB/challenge5.gif""style=""height:400px;""></stim_listB>","is challenging","","","","","",""
"2539.600000023842","<img src='img/portrait_matrix_list1.jpg' style='width:900px;height:500px;''></img><p>If you have memorised all the portraits and names and are ready to start, press Continue.</p><p><strong>Please note: Your memory of these faces will be tested 4 times during this experiment.</strong></p>","0","html-button-response","306","1125828","0.0-18.0-0.0","20918","List1B","white","woman","","","","","","","","","","","","",""
"2473.600000023842","<img src=""portrait/BW1.jpg""style=""height:400px;""></img>","0","html-button-response","307","1129303","0.0-18.0-1.0","20918","List1B","white","woman","","true","0","","","","","","","","","",""
"null","CORRECT","","html-keyboard-response","308","1130819","0.0-18.0-2.0-0.0","20918","List1B","white","woman","","","","null","","","","","","","","",""
"1580.0999999642372","<img src=""portrait/WM2.jpg""style=""height:400px;""></img>","7","html-button-response","309","1132400","0.0-18.0-4.0","20918","List1B","white","woman","","true","7","","","","","","","","","",""
"null","CORRECT","","html-keyboard-response","310","1133921","0.0-18.0-5.0-0.0","20918","List1B","white","woman","","","","null","","","","","","","","",""
"1524.5","<img src=""portrait/WW2.jpg""style=""height:400px;""></img>","3","html-button-response","311","1135447","0.0-18.0-7.0","20918","List1B","white","woman","","true","3","","","","","","","","","",""
"null","CORRECT","","html-keyboard-response","312","1136969","0.0-18.0-8.0-0.0","20918","List1B","white","woman","","","","null","","","","","","","","",""
"2009.5","<img src=""portrait/BM2.jpg""style=""height:400px;""></img>","5","html-button-response","313","1138980","0.0-18.0-10.0","20918","List1B","white","woman","","true","5","","","","","","","","","",""
"null","CORRECT","","html-keyboard-response","314","1140502","0.0-18.0-11.0-0.0","20918","List1B","white","woman","","","","null","","","","","","","","",""
"2791.899999976158","<img src=""portrait/BM1.jpg""style=""height:400px;""></img>","4","html-button-response","315","1143295","0.0-18.0-13.0","20918","List1B","white","woman","","true","4","","","","","","","","","",""
"null","CORRECT","","html-keyboard-response","316","1144803","0.0-18.0-14.0-0.0","20918","List1B","white","woman","","","","null","","","","","","","","",""
"1665.7000000476837","<img src=""portrait/WM1.jpg""style=""height:400px;""></img>","6","html-button-response","317","1146470","0.0-18.0-16.0","20918","List1B","white","woman","","true","6","","","","","","","","","",""
"null","CORRECT","","html-keyboard-response","318","1147996","0.0-18.0-17.0-0.0","20918","List1B","white","woman","","","","null","","","","","","","","",""
"1618.5999999642372","<img src=""portrait/BW2.jpg""style=""height:400px;""></img>","2","html-button-response","319","1149616","0.0-18.0-19.0","20918","List1B","white","woman","","true","2","","","","","","","","","",""
"null","CORRECT","","html-keyboard-response","320","1151129","0.0-18.0-20.0-0.0","20918","List1B","white","woman","","","","null","","","","","","","","",""
"1464.3999999761581","<img src=""portrait/WW1.jpg""style=""height:400px;""></img>","1","html-button-response","321","1152595","0.0-18.0-22.0","20918","List1B","white","woman","","true","1","","","","","","","","","",""
"null","CORRECT","","html-keyboard-response","322","1154115","0.0-18.0-23.0-0.0","20918","List1B","white","woman","","","","null","","","","","","","","",""
"1202.699999988079","<p>You got 8 out of 8 right first time. Press Continue.</p>","0","html-button-response","323","1155319","0.0-18.0-25.0","20918","List1B","white","woman","","","","","","","","","","","","",""
"null","<div style=""font-size:60px;"">+</div>","","html-keyboard-response","324","1156841","0.0-19.0-0.0","20918","List1B","white","woman","","","","null","","","","","","","","",""
"null","<img src=""stim_listB/challenge1.gif""style=""height:400px;""></stim_listB>","","html-keyboard-response","325","1158855","0.0-19.0-1.0","20918","List1B","white","woman","","","","null","","","","","","","","",""
"null","is challenging","","html-keyboard-response","326","1160869","0.0-19.0-2.0","20918","List1B","white","woman","","","","null","","","","","","","","",""
"4839.800000011921","","","survey-text","327","1165710","0.0-19.0-3.0","20918","List1B","white","woman","","","","","{""Q0"":""beth is challenging mike""}","<img src=""stim_listB/challenge1.gif""style=""height:400px;""></stim_listB>","is challenging","","","","","",""
"null","<div style=""font-size:60px;"">+</div>","","html-keyboard-response","328","1166213","0.0-19.0-0.1","20918","List1B","white","woman","","","","null","","","","","","","","",""
"null","<img src=""stim_listB/look7.gif""style=""height:400px;""></stim_listB>","","html-keyboard-response","329","1168225","0.0-19.0-1.1","20918","List1B","white","woman","","","","null","","","","","","","","",""
"null","is looking at","","html-keyboard-response","330","1170232","0.0-19.0-2.1","20918","List1B","white","woman","","","","null","","","","","","","","",""
"4107.300000011921","","","survey-text","331","1174342","0.0-19.0-3.1","20918","List1B","white","woman","","","","","{""Q0"":""beth is looking at jane""}","<img src=""stim_listB/look7.gif""style=""height:400px;""></stim_listB>","is looking at","","","","","",""
"null","<div style=""font-size:60px;"">+</div>","","html-keyboard-response","332","1174848","0.0-19.0-0.2","20918","List1B","white","woman","","","","null","","","","","","","","",""
"null","<img src=""stim_listB/kiss4.gif""style=""height:400px;""></stim_listB>","","html-keyboard-response","333","1176850","0.0-19.0-1.2","20918","List1B","white","woman","","","","null","","","","","","","","",""
"null","is being kissed by","","html-keyboard-response","334","1178851","0.0-19.0-2.2","20918","List1B","white","woman","","","","null","","","","","","","","",""
"5536.600000023842","","","survey-text","335","1184390","0.0-19.0-3.2","20918","List1B","white","woman","","","","","{""Q0"":""jane is being kissed by dave""}","<img src=""stim_listB/kiss4.gif""style=""height:400px;""></stim_listB>","is being kissed by","","","","","",""
"null","<div style=""font-size:60px;"">+</div>","","html-keyboard-response","336","1184890","0.0-19.0-0.3","20918","List1B","white","woman","","","","null","","","","","","","","",""
"null","<img src=""stim_listB/shout3.gif""style=""height:400px;""></stim_listB>","","html-keyboard-response","337","1186901","0.0-19.0-1.3","20918","List1B","white","woman","","","","null","","","","","","","","",""
"null","is shouting at","","html-keyboard-response","338","1188913","0.0-19.0-2.3","20918","List1B","white","woman","","","","null","","","","","","","","",""
"6611.400000035763","","","survey-text","339","1195526","0.0-19.0-3.3","20918","List1B","white","woman","","","","","{""Q0"":""jane is shouting at luke""}","<img src=""stim_listB/shout3.gif""style=""height:400px;""></stim_listB>","is shouting at","","","","","",""
"null","<div style=""font-size:60px;"">+</div>","","html-keyboard-response","340","1196027","0.0-19.0-0.4","20918","List1B","white","woman","","","","null","","","","","","","","",""
"null","<img src=""stim_listB/look2.gif""style=""height:400px;""></stim_listB>","","html-keyboard-response","341","1198040","0.0-19.0-1.4","20918","List1B","white","woman","","","","null","","","","","","","","",""
"null","is being looked at by","","html-keyboard-response","342","1200056","0.0-19.0-2.4","20918","List1B","white","woman","","","","null","","","","","","","","",""
"6860","","","survey-text","343","1206918","0.0-19.0-3.4","20918","List1B","white","woman","","","","","{""Q0"":""kate is being looked at by mike""}","<img src=""stim_listB/look2.gif""style=""height:400px;""></stim_listB>","is being looked at by","","","","","",""
"null","<div style=""font-size:60px;"">+</div>","","html-keyboard-response","344","1207424","0.0-19.0-0.5","20918","List1B","white","woman","","","","null","","","","","","","","",""
"null","<img src=""stim_listB/hug8.gif""style=""height:400px;""></stim_listB>","","html-keyboard-response","345","1209426","0.0-19.0-1.5","20918","List1B","white","woman","","","","null","","","","","","","","",""
"null","is being hugged by","","html-keyboard-response","346","1211439","0.0-19.0-2.5","20918","List1B","white","woman","","","","null","","","","","","","","",""
"7842.199999988079","","","survey-text","347","1219284","0.0-19.0-3.5","20918","List1B","white","woman","","","","","{""Q0"":""kate is being hugged by jane""}","<img src=""stim_listB/hug8.gif""style=""height:400px;""></stim_listB>","is being hugged by","","","","","",""
"null","<div style=""font-size:60px;"">+</div>","","html-keyboard-response","348","1219798","0.0-19.0-0.6","20918","List1B","white","woman","","","","null","","","","","","","","",""
"null","<img src=""stim_listB/look1.gif""style=""height:400px;""></stim_listB>","","html-keyboard-response","349","1221809","0.0-19.0-1.6","20918","List1B","white","woman","","","","null","","","","","","","","",""
"null","is looking at","","html-keyboard-response","350","1223825","0.0-19.0-2.6","20918","List1B","white","woman","","","","null","","","","","","","","",""
"4618.800000011921","","","survey-text","351","1228446","0.0-19.0-3.6","20918","List1B","white","woman","","","","","{""Q0"":""beth is looking at fred""}","<img src=""stim_listB/look1.gif""style=""height:400px;""></stim_listB>","is looking at","","","","","",""
"null","<div style=""font-size:60px;"">+</div>","","html-keyboard-response","352","1228960","0.0-19.0-0.7","20918","List1B","white","woman","","","","null","","","","","","","","",""
"null","<img src=""stim_listB/copy7.gif""style=""height:400px;""></stim_listB>","","html-keyboard-response","353","1230962","0.0-19.0-1.7","20918","List1B","white","woman","","","","null","","","","","","","","",""
"null","is copying","","html-keyboard-response","354","1232964","0.0-19.0-2.7","20918","List1B","white","woman","","","","null","","","","","","","","",""
"4488.300000011921","","","survey-text","355","1237454","0.0-19.0-3.7","20918","List1B","white","woman","","","","","{""Q0"":""jane is copying kate""}","<img src=""stim_listB/copy7.gif""style=""height:400px;""></stim_listB>","is copying","","","","","",""
"null","<div style=""font-size:60px;"">+</div>","","html-keyboard-response","356","1237964","0.0-19.0-0.8","20918","List1B","white","woman","","","","null","","","","","","","","",""
"null","<img src=""stim_listB/challenge7.gif""style=""height:400px;""></stim_listB>","","html-keyboard-response","357","1239979","0.0-19.0-1.8","20918","List1B","white","woman","","","","null","","","","","","","","",""
"null","is challenging","","html-keyboard-response","358","1241993","0.0-19.0-2.8","20918","List1B","white","woman","","","","null","","","","","","","","",""
"4282.899999976158","","","survey-text","359","1246278","0.0-19.0-3.8","20918","List1B","white","woman","","","","","{""Q0"":""jane is challenging kate""}","<img src=""stim_listB/challenge7.gif""style=""height:400px;""></stim_listB>","is challenging","","","","","",""
"null","<div style=""font-size:60px;"">+</div>","","html-keyboard-response","360","1246791","0.0-19.0-0.9","20918","List1B","white","woman","","","","null","","","","","","","","",""
"null","<img src=""stim_listB/look6.gif""style=""height:400px;""></stim_listB>","","html-keyboard-response","361","1248793","0.0-19.0-1.9","20918","List1B","white","woman","","","","null","","","","","","","","",""
"null","is being looked at by","","html-keyboard-response","362","1250809","0.0-19.0-2.9","20918","List1B","white","woman","","","","null","","","","","","","","",""
"6481.899999976158","","","survey-text","363","1257294","0.0-19.0-3.9","20918","List1B","white","woman","","","","","{""Q0"":""dave is being looked at by mike""}","<img src=""stim_listB/look6.gif""style=""height:400px;""></stim_listB>","is being looked at by","","","","","",""
"null","<div style=""font-size:60px;"">+</div>","","html-keyboard-response","364","1257804","0.0-19.0-0.10","20918","List1B","white","woman","","","","null","","","","","","","","",""
"null","<img src=""stim_listB/look5.gif""style=""height:400px;""></stim_listB>","","html-keyboard-response","365","1259808","0.0-19.0-1.10","20918","List1B","white","woman","","","","null","","","","","","","","",""
"null","is looking at","","html-keyboard-response","366","1261809","0.0-19.0-2.10","20918","List1B","white","woman","","","","null","","","","","","","","",""
"4987.600000023842","","","survey-text","367","1266799","0.0-19.0-3.10","20918","List1B","white","woman","","","","","{""Q0"":""fred is looking at luke""}","<img src=""stim_listB/look5.gif""style=""height:400px;""></stim_listB>","is looking at","","","","","",""
"null","<div style=""font-size:60px;"">+</div>","","html-keyboard-response","368","1267309","0.0-19.0-0.11","20918","List1B","white","woman","","","","null","","","","","","","","",""
"null","<img src=""stim_listB/shout2.gif""style=""height:400px;""></stim_listB>","","html-keyboard-response","369","1269321","0.0-19.0-1.11","20918","List1B","white","woman","","","","null","","","","","","","","",""
"null","is being shouted at by","","html-keyboard-response","370","1271337","0.0-19.0-2.11","20918","List1B","white","woman","","","","null","","","","","","","","",""
"6723","","","survey-text","371","1278062","0.0-19.0-3.11","20918","List1B","white","woman","","","","","{""Q0"":""mike is being shouted at by kate""}","<img src=""stim_listB/shout2.gif""style=""height:400px;""></stim_listB>","is being shouted at by","","","","","",""
"null","<div style=""font-size:60px;"">+</div>","","html-keyboard-response","372","1278563","0.0-19.0-0.12","20918","List1B","white","woman","","","","null","","","","","","","","",""
"null","<img src=""stim_listB/look3.gif""style=""height:400px;""></stim_listB>","","html-keyboard-response","373","1280566","0.0-19.0-1.12","20918","List1B","white","woman","","","","null","","","","","","","","",""
"null","is looking at","","html-keyboard-response","374","1282580","0.0-19.0-2.12","20918","List1B","white","woman","","","","null","","","","","","","","",""
"5463.899999976158","","","survey-text","375","1288046","0.0-19.0-3.12","20918","List1B","white","woman","","","","","{""Q0"":""jane is looking at luke""}","<img src=""stim_listB/look3.gif""style=""height:400px;""></stim_listB>","is looking at","","","","","",""
"null","<div style=""font-size:60px;"">+</div>","","html-keyboard-response","376","1288556","0.0-19.0-0.13","20918","List1B","white","woman","","","","null","","","","","","","","",""
"null","<img src=""stim_listB/greet3.gif""style=""height:400px;""></stim_listB>","","html-keyboard-response","377","1290558","0.0-19.0-1.13","20918","List1B","white","woman","","","","null","","","","","","","","",""
"null","is greeting","","html-keyboard-response","378","1292561","0.0-19.0-2.13","20918","List1B","white","woman","","","","null","","","","","","","","",""
"4386.800000011921","","","survey-text","379","1296950","0.0-19.0-3.13","20918","List1B","white","woman","","","","","{""Q0"":""jane is greeting dave""}","<img src=""stim_listB/greet3.gif""style=""height:400px;""></stim_listB>","is greeting","","","","","",""
"null","<div style=""font-size:60px;"">+</div>","","html-keyboard-response","380","1297465","0.0-19.0-0.14","20918","List1B","white","woman","","","","null","","","","","","","","",""
"null","<img src=""stim_listB/touch6.gif""style=""height:400px;""></stim_listB>","","html-keyboard-response","381","1299481","0.0-19.0-1.14","20918","List1B","white","woman","","","","null","","","","","","","","",""
"null","is being touched by","","html-keyboard-response","382","1301482","0.0-19.0-2.14","20918","List1B","white","woman","","","","null","","","","","","","","",""
"6441.800000011921","","","survey-text","383","1307926","0.0-19.0-3.14","20918","List1B","white","woman","","","","","{""Q0"":""fred is being touched by luke""}","<img src=""stim_listB/touch6.gif""style=""height:400px;""></stim_listB>","is being touched by","","","","","",""
"null","<div style=""font-size:60px;"">+</div>","","html-keyboard-response","384","1308434","0.0-19.0-0.15","20918","List1B","white","woman","","","","null","","","","","","","","",""
"null","<img src=""stim_listB/touch5.gif""style=""height:400px;""></stim_listB>","","html-keyboard-response","385","1310436","0.0-19.0-1.15","20918","List1B","white","woman","","","","null","","","","","","","","",""
"null","is touching","","html-keyboard-response","386","1312440","0.0-19.0-2.15","20918","List1B","white","woman","","","","null","","","","","","","","",""
"6795.699999988079","","","survey-text","387","1319238","0.0-19.0-3.15","20918","List1B","white","woman","","","","","{""Q0"":""mike is touching dave""}","<img src=""stim_listB/touch5.gif""style=""height:400px;""></stim_listB>","is touching","","","","","",""
"null","<div style=""font-size:60px;"">+</div>","","html-keyboard-response","388","1319739","0.0-19.0-0.16","20918","List1B","white","woman","","","","null","","","","","","","","",""
"null","<img src=""stim_listB/copy6.gif""style=""height:400px;""></stim_listB>","","html-keyboard-response","389","1321751","0.0-19.0-1.16","20918","List1B","white","woman","","","","null","","","","","","","","",""
"null","is being copied by","","html-keyboard-response","390","1323752","0.0-19.0-2.16","20918","List1B","white","woman","","","","null","","","","","","","","",""
"8365.399999976158","","","survey-text","391","1332120","0.0-19.0-3.16","20918","List1B","white","woman","","","","","{""Q0"":""dave is being copied by fred""}","<img src=""stim_listB/copy6.gif""style=""height:400px;""></stim_listB>","is being copied by","","","","","",""
"null","<div style=""font-size:60px;"">+</div>","","html-keyboard-response","392","1332634","0.0-19.0-0.17","20918","List1B","white","woman","","","","null","","","","","","","","",""
"null","<img src=""stim_listB/touch2.gif""style=""height:400px;""></stim_listB>","","html-keyboard-response","393","1334646","0.0-19.0-1.17","20918","List1B","white","woman","","","","null","","","","","","","","",""
"null","is being touched by","","html-keyboard-response","394","1336648","0.0-19.0-2.17","20918","List1B","white","woman","","","","null","","","","","","","","",""
"6380.699999988079","","","survey-text","395","1343029","0.0-19.0-3.17","20918","List1B","white","woman","","","","","{""Q0"":""fred is being touched by beth""}","<img src=""stim_listB/touch2.gif""style=""height:400px;""></stim_listB>","is being touched by","","","","","",""
"null","<div style=""font-size:60px;"">+</div>","","html-keyboard-response","396","1343530","0.0-19.0-0.18","20918","List1B","white","woman","","","","null","","","","","","","","",""
"null","<img src=""stim_listB/greet4.gif""style=""height:400px;""></stim_listB>","","html-keyboard-response","397","1345543","0.0-19.0-1.18","20918","List1B","white","woman","","","","null","","","","","","","","",""
"null","is being greeted by","","html-keyboard-response","398","1347556","0.0-19.0-2.18","20918","List1B","white","woman","","","","null","","","","","","","","",""
"6437.899999976158","","","survey-text","399","1353997","0.0-19.0-3.18","20918","List1B","white","woman","","","","","{""Q0"":""jane is being greeted by luke""}","<img src=""stim_listB/greet4.gif""style=""height:400px;""></stim_listB>","is being greeted by","","","","","",""
"null","<div style=""font-size:60px;"">+</div>","","html-keyboard-response","400","1354509","0.0-19.0-0.19","20918","List1B","white","woman","","","","null","","","","","","","","",""
"null","<img src=""stim_listB/shout4.gif""style=""height:400px;""></stim_listB>","","html-keyboard-response","401","1356526","0.0-19.0-1.19","20918","List1B","white","woman","","","","null","","","","","","","","",""
"null","is being shouted at by","","html-keyboard-response","402","1358529","0.0-19.0-2.19","20918","List1B","white","woman","","","","null","","","","","","","","",""
"6682","","","survey-text","403","1365214","0.0-19.0-3.19","20918","List1B","white","woman","","","","","{""Q0"":""jane is being shouted at by dave""}","<img src=""stim_listB/shout4.gif""style=""height:400px;""></stim_listB>","is being shouted at by","","","","","",""
"3277.300000011921","<p>Thank you for completing that task.</p><p>The final part of this session is a questionnaire that will take about 4 minutes.</p><p>Press Continue.</p>","0","html-button-response","404","1368492","0.0-20.0","20918","List1B","white","woman","","","","","","","","","","","","",""
"25432.599999964237","","","survey-text","405","1394941","0.0-21.0","20918","List1B","white","woman","","","","","{""Q0"":""46"",""Q1"":""english"",""Q2"":""english"",""Q3"":""United States"",""Q4"":""american"",""Q5"":""white"",""Q6"":""female""}","","","demographics","","","","",""
"2228.899999976158","<p>Have you lived in the USA for the last 5 years or more?</p>","0","html-button-response","406","1397171","0.0-22.0","20918","List1B","white","woman","","","","","","","","fiveyears","","","","",""
"1775.0999999642372","<p>Move the slider to show the extent to which you agree with the following statements.</p>","0","html-button-response","407","1399956","0.0-23.0","20918","List1B","white","woman","","","","","","","","","","","","",""
"7286.399999976158","","","html-slider-response","408","1408251","0.0-24.0-0.0-0.0","20918","List1B","white","woman","","","","","","","","survey_gender","35","","","I often think about the fact that I am my gender.","often"
"3824.5","","","html-slider-response","409","1412077","0.0-24.0-0.0-0.1","20918","List1B","white","woman","","","","","","","","survey_gender","76","","","Being around my friends gives me a good feeling.","filler"
"4506.5","","","html-slider-response","410","1416585","0.0-24.0-0.0-0.2","20918","List1B","white","woman","","","","","","","","survey_gender","86","","","I feel a bond with my gender.","bond"
"3550.699999988079","","","html-slider-response","411","1420137","0.0-24.0-0.0-0.3","20918","List1B","white","woman","","","","","","","","survey_gender","85","","","I feel solidarity with my friends.","filler"
"2785.599999964237","","","html-slider-response","412","1422924","0.0-24.0-0.0-0.4","20918","List1B","white","woman","","","","","","","","survey_gender","100","","","I consider myself a highly empathetic person.","filler"
"5008","","","html-slider-response","413","1427933","0.0-24.0-0.0-0.5","20918","List1B","white","woman","","","","","","","","survey_gender","7","","","Routine is not important to me.","filler"
"3066.300000011921","","","html-slider-response","414","1431001","0.0-24.0-0.0-0.6","20918","List1B","white","woman","","","","","","","","survey_gender","95","","","I feel a bond with my friends.","filler"
"3019","","","html-slider-response","415","1434021","0.0-24.0-0.0-0.7","20918","List1B","white","woman","","","","","","","","survey_gender","100","","","I often think about my actions.","filler"
"3895.300000011921","","","html-slider-response","416","1437918","0.0-24.0-0.0-0.8","20918","List1B","white","woman","","","","","","","","survey_gender","25","","","I am similar to the average person of my gender.","similar"
"3021.699999988079","","","html-slider-response","417","1440941","0.0-24.0-0.0-0.9","20918","List1B","white","woman","","","","","","","","survey_gender","89","","","I am glad to be my gender.","glad"
"5201","","","html-slider-response","418","1446143","0.0-24.0-0.0-0.10","20918","List1B","white","woman","","","","","","","","survey_gender","90","","","The fact that I am my gender is an important part of my identity.","identity"
"4403.600000023842","","","html-slider-response","419","1450548","0.0-24.0-0.0-0.11","20918","List1B","white","woman","","","","","","","","survey_gender","69","","","Being my gender is an important part of how I see myself.","important"
"4202.600000023842","","","html-slider-response","420","1454752","0.0-24.0-0.0-0.12","20918","List1B","white","woman","","","","","","","","survey_gender","76","","","I have a lot in common with the average person of my gender.","average"
"3130.600000023842","","","html-slider-response","421","1457884","0.0-24.0-0.0-0.13","20918","List1B","white","woman","","","","","","","","survey_gender","65","","","People of my gender have a lot in common with each other.","common"
"3646.2999999523163","","","html-slider-response","422","1461532","0.0-24.0-0.0-0.14","20918","List1B","white","woman","","","","","","","","survey_gender","100","","","I think that my gender has a lot to be proud of.","proud"
"2745.800000011921","","","html-slider-response","423","1464279","0.0-24.0-0.0-0.15","20918","List1B","white","woman","","","","","","","","survey_gender","100","","","I am glad to have the friends that I have.","filler"
"4721.900000035763","","","html-slider-response","424","1469002","0.0-24.0-0.0-0.16","20918","List1B","white","woman","","","","","","","","survey_gender","100","","","I feel committed to my gender.","committed"
"2488.600000023842","","","html-slider-response","425","1471493","0.0-24.0-0.0-0.17","20918","List1B","white","woman","","","","","","","","survey_gender","72","","","It is pleasant to be my gender.","pleasant"
"2467.400000035763","","","html-slider-response","426","1473961","0.0-24.0-0.0-0.18","20918","List1B","white","woman","","","","","","","","survey_gender","100","","","I feel solidarity with my gender.","solidarity"
"2571.899999976158","","","html-slider-response","427","1476534","0.0-24.0-0.0-0.19","20918","List1B","white","woman","","","","","","","","survey_gender","85","","","My friends understand me.","filler"
"2564.899999976158","","","html-slider-response","428","1479100","0.0-24.0-0.0-0.20","20918","List1B","white","woman","","","","","","","","survey_gender","85","","","I have a lot in common with my friends.","filler"
"5084","","","html-slider-response","429","1484185","0.0-24.0-0.0-0.21","20918","List1B","white","woman","","","","","","","","survey_gender","52","","","Being my gender gives me a good feeling.","feeling"
"2787.400000035763","","","html-slider-response","430","1486974","0.0-24.0-0.0-0.22","20918","List1B","white","woman","","","","","","","","survey_gender","100","","","I would say I am an animal person.","filler"
"2553.900000035763","","","html-slider-response","431","1489529","0.0-24.0-0.0-0.23","20918","List1B","white","woman","","","","","","","","survey_gender","82","","","My friends have a lot in common with each other.","filler"
"4880.700000047684","","","html-slider-response","432","1494411","0.0-24.0-0.0-0.24","20918","List1B","white","woman","","","","","","","","survey_gender","55","","","Most of the friends in my life are very similar to me.","filler"
"4684.900000035763","","","html-slider-response","433","1499097","0.0-24.0-0.0-0.25","20918","List1B","white","woman","","","","","","","","survey_gender","70","","","It is not always easy for people to know what I am thinking.","filler"
"9045.599999964237","","","html-slider-response","434","1508145","0.0-24.0-0.0-0.26","20918","List1B","white","woman","","","","","","","","survey_gender","89","","","Family is not more important to me than friendship.","filler"
"5220.099999964237","","","html-slider-response","435","1513366","0.0-24.0-0.0-0.27","20918","List1B","white","woman","","","","","","","","survey_gender","61","","","People of my gender are very similar to each other.","verysimilar"
"3389.7999999523163","","","html-slider-response","436","1516757","0.0-24.0-1.0-0.0","20918","List1B","white","woman","","","","","","","","survey_race","65","","","I have a lot in common with people of a similar age to me.","filler"
"4831.599999964237","","","html-slider-response","437","1521590","0.0-24.0-1.0-0.1","20918","List1B","white","woman","","","","","","","","survey_race","41","","","I feel committed to my race.","committed"
"3717.599999964237","","","html-slider-response","438","1525309","0.0-24.0-1.0-0.2","20918","List1B","white","woman","","","","","","","","survey_race","53","","","People of my race have a lot in common with each other.","common"
"4272.400000035763","","","html-slider-response","439","1529583","0.0-24.0-1.0-0.3","20918","List1B","white","woman","","","","","","","","survey_race","62","","","I often think about the fact that I am my race.","often"
"4639.899999976158","","","html-slider-response","440","1534224","0.0-24.0-1.0-0.4","20918","List1B","white","woman","","","","","","","","survey_race","81","","","It is pleasant to be my race.","pleasant"
"3156.800000011921","","","html-slider-response","441","1537383","0.0-24.0-1.0-0.5","20918","List1B","white","woman","","","","","","","","survey_race","100","","","The older I get, the wiser I feel.","filler"
"4855.199999988079","","","html-slider-response","442","1542239","0.0-24.0-1.0-0.6","20918","List1B","white","woman","","","","","","","","survey_race","41","","","I feel solidarity with my race.","solidarity"
"2991.899999976158","","","html-slider-response","443","1545232","0.0-24.0-1.0-0.7","20918","List1B","white","woman","","","","","","","","survey_race","31","","","I think that my race has a lot to be proud of.","proud"
"3876.600000023842","","","html-slider-response","444","1549110","0.0-24.0-1.0-0.8","20918","List1B","white","woman","","","","","","","","survey_race","24","","","Getting older does not worry me.","filler"
"3411.599999964237","","","html-slider-response","445","1552523","0.0-24.0-1.0-0.9","20918","List1B","white","woman","","","","","","","","survey_race","78","","","I am glad to be my age.","filler"
"2532.5","","","html-slider-response","446","1555057","0.0-24.0-1.0-0.10","20918","List1B","white","woman","","","","","","","","survey_race","100","","","I consider myself an introvert.","filler"
"2884.300000011921","","","html-slider-response","447","1557942","0.0-24.0-1.0-0.11","20918","List1B","white","woman","","","","","","","","survey_race","69","","","I have a lot in common with the average person of my race.","average"
"2936.699999988079","","","html-slider-response","448","1560880","0.0-24.0-1.0-0.12","20918","List1B","white","woman","","","","","","","","survey_race","68","","","I am glad to be the age I am.","filler"
"2711.899999976158","","","html-slider-response","449","1563593","0.0-24.0-1.0-0.13","20918","List1B","white","woman","","","","","","","","survey_race","62","","","Being my age gives me a good feeling.","filler"
"3704.900000035763","","","html-slider-response","450","1567299","0.0-24.0-1.0-0.14","20918","List1B","white","woman","","","","","","","","survey_race","36","","","I often think about the fact that I am my age.","filler"
"2418.699999988079","","","html-slider-response","451","1569719","0.0-24.0-1.0-0.15","20918","List1B","white","woman","","","","","","","","survey_race","32","","","I feel a bond with my race.","bond"
"3197.5","","","html-slider-response","452","1572918","0.0-24.0-1.0-0.16","20918","List1B","white","woman","","","","","","","","survey_race","68","","","I feel solidarity with people the same age as me.","filler"
"22155.599999964237","","","html-slider-response","453","1595075","0.0-24.0-1.0-0.17","20918","List1B","white","woman","","","","","","","","survey_race","66","","","I feel a bond with people the same age as me.","filler"
"8556.699999988079","","","html-slider-response","454","1603633","0.0-24.0-1.0-0.18","20918","List1B","white","woman","","","","","","","","survey_race","32","","","Being my race gives me a good feeling.","feeling"
"3011.600000023842","","","html-slider-response","455","1606646","0.0-24.0-1.0-0.19","20918","List1B","white","woman","","","","","","","","survey_race","61","","","I am glad to be my race.","glad"
"2571.5","","","html-slider-response","456","1609219","0.0-24.0-1.0-0.20","20918","List1B","white","woman","","","","","","","","survey_race","63","","","People my age have a lot in common with each other.","filler"
"3235.100000023842","","","html-slider-response","457","1612455","0.0-24.0-1.0-0.21","20918","List1B","white","woman","","","","","","","","survey_race","58","","","People of my race are very similar to each other.","verysimilar"
"4434.400000035763","","","html-slider-response","458","1616891","0.0-24.0-1.0-0.22","20918","List1B","white","woman","","","","","","","","survey_race","57","","","The fact that I am my race is an important part of my identity.","identity"
"4390.5","","","html-slider-response","459","1621283","0.0-24.0-1.0-0.23","20918","List1B","white","woman","","","","","","","","survey_race","38","","","My age is not an important part of who I am.","filler"
"2931.399999976158","","","html-slider-response","460","1624216","0.0-24.0-1.0-0.24","20918","List1B","white","woman","","","","","","","","survey_race","38","","","Being my race is an important part of how I see myself.","important"
"2866.900000035763","","","html-slider-response","461","1627084","0.0-24.0-1.0-0.25","20918","List1B","white","woman","","","","","","","","survey_race","30","","","I enjoy being in large groups.","filler"
"4168.300000011921","","","html-slider-response","462","1631253","0.0-24.0-1.0-0.26","20918","List1B","white","woman","","","","","","","","survey_race","61","","","I am similar to the average person of my race.","similar"
"4278.699999988079","","","html-slider-response","463","1635533","0.0-24.0-1.0-0.27","20918","List1B","white","woman","","","","","","","","survey_race","0","","","I consider myself an extrovert.","filler"
"10707.300000011921","","","survey-text","464","1646242","0.0-25.0","20918","List1B","white","woman","","","","","{""Q0"":""614ee347a57616853a7b1356""}","","","worker_id","","","","",""
"38229.69999998808","","","external-html","465","1684706","0.0-26.0","20918","List1B","white","woman","debrief.html","","","","","","","","","","","",""
