rt,stimulus,button_pressed,trial_type,trial_index,time_elapsed,internal_node_id,subject,list,ppt_race,ppt_gender,url,first_guess,correct,key_press,responses,image_type,phrase_type,test_part,response,stimulus1,stimulus2,question_type,survey_item
4417.3,Welcome to the experiment. Press Continue to begin.,0,html-button-response,0,4420,0.0-0.0,21283,List2B,white,man,,,,,,,,,,,,,
4815.4,,,external-html,1,10251,0.0-1.0,21283,List2B,white,man,consent.html,,,,,,,,,,,,
1814,"<p>On the next page, you will see portraits of 8 people and their names.</p><p>Your first task is to take a few minutes to memorise the names of these people.</p><p>You will have to recall their names during the rest of the experiment, so it is</p><p>essential that you try to memorise these people and their names as best as you can.</p><br><p><strong>You will then be tested on your memory of these names and portraits.</strong></p><br><p>The experiment will start after you have completed this memory test.</p><br><p>Ready?</p>",0,html-button-response,2,12067,0.0-2.0,21283,List2B,white,man,,,,,,,,,,,,,
1395.5,"<img src='img/portrait_matrix_list2.jpg' style='width:900px;height:500px;''></img><p>If you have memorised all the portraits and names and are ready to start, press Continue.</p><p><strong>Please note: Your memory of these faces will be tested 4 times during this experiment.</strong></p>",0,html-button-response,3,14466,0.0-3.0-0.0,21283,List2B,white,man,,,,,,,,,,,,,
4867.3,"<img src=""portrait/WW2.jpg""style=""height:400px;""></img>",3,html-button-response,4,20338,0.0-3.0-1.0,21283,List2B,white,man,,TRUE,3,,,,,,,,,,
null,CORRECT,,html-keyboard-response,5,21847,0.0-3.0-2.0-0.0,21283,List2B,white,man,,,,null,,,,,,,,,
2663.3,"<img src=""portrait/BM2.jpg""style=""height:400px;""></img>",5,html-button-response,6,24515,0.0-3.0-4.0,21283,List2B,white,man,,TRUE,5,,,,,,,,,,
null,CORRECT,,html-keyboard-response,7,26020,0.0-3.0-5.0-0.0,21283,List2B,white,man,,,,null,,,,,,,,,
10109,"<img src=""portrait/BW2.jpg""style=""height:400px;""></img>",1,html-button-response,8,36131,0.0-3.0-7.0,21283,List2B,white,man,,TRUE,2,,,,,,,,,,
3540.5,"<img src=""portrait/BW2.jpg""style=""height:400px;""></img>",2,html-button-response,9,40674,0.0-3.0-9.0-0.0,21283,List2B,white,man,,FALSE,2,,,,,,,,,,
null,CORRECT,,html-keyboard-response,10,42179,0.0-3.0-9.0-1.0-0.0,21283,List2B,white,man,,,,null,,,,,,,,,
4388.6,"<img src=""portrait/WW1.jpg""style=""height:400px;""></img>",1,html-button-response,11,46570,0.0-3.0-10.0,21283,List2B,white,man,,TRUE,1,,,,,,,,,,
null,CORRECT,,html-keyboard-response,12,48073,0.0-3.0-11.0-0.0,21283,List2B,white,man,,,,null,,,,,,,,,
9511.2,"<img src=""portrait/WM2.jpg""style=""height:400px;""></img>",7,html-button-response,13,57586,0.0-3.0-13.0,21283,List2B,white,man,,TRUE,7,,,,,,,,,,
null,CORRECT,,html-keyboard-response,14,59090,0.0-3.0-14.0-0.0,21283,List2B,white,man,,,,null,,,,,,,,,
2550.5,"<img src=""portrait/WM1.jpg""style=""height:400px;""></img>",6,html-button-response,15,61643,0.0-3.0-16.0,21283,List2B,white,man,,TRUE,6,,,,,,,,,,
null,CORRECT,,html-keyboard-response,16,63145,0.0-3.0-17.0-0.0,21283,List2B,white,man,,,,null,,,,,,,,,
1910.8,"<img src=""portrait/BM1.jpg""style=""height:400px;""></img>",4,html-button-response,17,65059,0.0-3.0-19.0,21283,List2B,white,man,,TRUE,4,,,,,,,,,,
null,CORRECT,,html-keyboard-response,18,66563,0.0-3.0-20.0-0.0,21283,List2B,white,man,,,,null,,,,,,,,,
6692.9,"<img src=""portrait/BW1.jpg""style=""height:400px;""></img>",0,html-button-response,19,73259,0.0-3.0-22.0,21283,List2B,white,man,,TRUE,0,,,,,,,,,,
null,CORRECT,,html-keyboard-response,20,74762,0.0-3.0-23.0-0.0,21283,List2B,white,man,,,,null,,,,,,,,,
2132.7,<p>You got 7 out of 8 right first time. Press Continue.</p>,0,html-button-response,21,76898,0.0-3.0-25.0,21283,List2B,white,man,,,,,,,,,,,,,
2740.8,"As you did not score 100%, the memory game will repeat. Press Continue.",0,html-button-response,22,80642,0.0-3.0-26.0-0.0,21283,List2B,white,man,,,,,,,,,,,,,
2214.9,"<img src='img/portrait_matrix_list2.jpg' style='width:900px;height:500px;''></img><p>If you have memorised all the portraits and names and are ready to start, press Continue.</p><p><strong>Please note: Your memory of these faces will be tested 4 times during this experiment.</strong></p>",0,html-button-response,23,83867,0.0-3.1-0.1,21283,List2B,white,man,,,,,,,,,,,,,
3642.1,"<img src=""portrait/WW2.jpg""style=""height:400px;""></img>",3,html-button-response,24,88515,0.0-3.1-1.1,21283,List2B,white,man,,TRUE,3,,,,,,,,,,
null,CORRECT,,html-keyboard-response,25,90029,0.0-3.1-2.1-0.1,21283,List2B,white,man,,,,null,,,,,,,,,
4866.2,"<img src=""portrait/BM2.jpg""style=""height:400px;""></img>",5,html-button-response,26,94899,0.0-3.1-4.1,21283,List2B,white,man,,TRUE,5,,,,,,,,,,
null,CORRECT,,html-keyboard-response,27,96440,0.0-3.1-5.1-0.1,21283,List2B,white,man,,,,null,,,,,,,,,
6639.9,"<img src=""portrait/BW2.jpg""style=""height:400px;""></img>",2,html-button-response,28,103082,0.0-3.1-7.1,21283,List2B,white,man,,TRUE,2,,,,,,,,,,
null,CORRECT,,html-keyboard-response,29,104610,0.0-3.1-8.1-0.1,21283,List2B,white,man,,,,null,,,,,,,,,
3550.8,"<img src=""portrait/WW1.jpg""style=""height:400px;""></img>",1,html-button-response,30,108162,0.0-3.1-10.1,21283,List2B,white,man,,TRUE,1,,,,,,,,,,
null,CORRECT,,html-keyboard-response,31,109679,0.0-3.1-11.1-0.1,21283,List2B,white,man,,,,null,,,,,,,,,
4105.4,"<img src=""portrait/WM2.jpg""style=""height:400px;""></img>",7,html-button-response,32,113786,0.0-3.1-13.1,21283,List2B,white,man,,TRUE,7,,,,,,,,,,
null,CORRECT,,html-keyboard-response,33,115290,0.0-3.1-14.1-0.1,21283,List2B,white,man,,,,null,,,,,,,,,
2670.3,"<img src=""portrait/WM1.jpg""style=""height:400px;""></img>",6,html-button-response,34,117962,0.0-3.1-16.1,21283,List2B,white,man,,TRUE,6,,,,,,,,,,
null,CORRECT,,html-keyboard-response,35,119465,0.0-3.1-17.1-0.1,21283,List2B,white,man,,,,null,,,,,,,,,
1734.3,"<img src=""portrait/BM1.jpg""style=""height:400px;""></img>",4,html-button-response,36,121202,0.0-3.1-19.1,21283,List2B,white,man,,TRUE,4,,,,,,,,,,
null,CORRECT,,html-keyboard-response,37,122705,0.0-3.1-20.1-0.1,21283,List2B,white,man,,,,null,,,,,,,,,
4575.4,"<img src=""portrait/BW1.jpg""style=""height:400px;""></img>",0,html-button-response,38,127282,0.0-3.1-22.1,21283,List2B,white,man,,TRUE,0,,,,,,,,,,
null,CORRECT,,html-keyboard-response,39,128785,0.0-3.1-23.1-0.1,21283,List2B,white,man,,,,null,,,,,,,,,
2007.4,<p>You got 8 out of 8 right first time. Press Continue.</p>,0,html-button-response,40,130794,0.0-3.1-25.1,21283,List2B,white,man,,,,,,,,,,,,,
45804.1,"<p>In this experiment, you will view photographs of the people from the memory game interacting.</p><p>By using the <strong>exact</strong> phrase given <i>after</i> the photograph appears and recalling the correct names of the people in the photographs, form a sentence describing the interaction. You do not need to capitalise names.</p><p>Type your answer in the space provided. Please complete every sentence before moving onto the next trial.</p><p>You will only have a few seconds to memorise each given photograph and phrase before you can respond, so try your best to focus.</p><p>An example is given below. Press 'Continue' when you are ready.</p><img src='img/speaking_example.jpg' style='width:800px;height:460px;''></img>",0,html-button-response,41,177601,0.0-4.0,21283,List2B,white,man,,,,,,,,,,,,,
3069.4,"<p>Before the experiment starts, you will watch two example trials. Press 'Continue'.</p>",0,html-button-response,42,181674,0.0-5.0,21283,List2B,white,man,,,,,,,,,,,,,
null,<img src='img/play_eg.gif' style='height:400px;''></img>,,html-keyboard-response,43,184677,0.0-6.0,21283,List2B,white,man,,,,null,,,,,,,,,
null,<p>is playing with</p>,,html-keyboard-response,44,186679,0.0-7.0,21283,List2B,white,man,,,,null,,,,,,,,,
5233.5,<p><b>Answer:</b> jane is playing with ruth</p>,0,html-button-response,45,191914,0.0-8.0,21283,List2B,white,man,,,,,,,,,,,,,
null,<img src='img/dance_eg.gif' style='height:400px;''></img>,,html-keyboard-response,46,194917,0.0-9.0,21283,List2B,white,man,,,,null,,,,,,,,,
null,<p>is being entertained by</p>,,html-keyboard-response,47,196918,0.0-10.0,21283,List2B,white,man,,,,null,,,,,,,,,
2401.5,<p><b>Answer:</b> fred is being entertained by mike</p>,0,html-button-response,48,199322,0.0-11.0,21283,List2B,white,man,,,,,,,,,,,,,
15069.5,"<p>Ready to start the experiment?</p><br><p><strong>Remember to describe the picture using a full sentence,</strong></p><p><strong>that combines the names of the people with the <i>exact</i> phrase given.</strong></p><p><strong>To receive full payment you must do this correctly.</strong></p><p><strong> You do not need to capitalise names or use punctuation.</strong></p><br><p>Press 'Continue' to begin.</p>",0,html-button-response,49,215393,0.0-12.0,21283,List2B,white,man,,,,,,,,,,,,,
null,"<div style=""font-size:60px;"">+</div>",,html-keyboard-response,50,216897,0.0-13.0-0.0,21283,List2B,white,man,,,,null,,,,,,,,,
null,"<img src=""stim_listB/touch6.gif""style=""height:400px;""></stim_listB>",,html-keyboard-response,51,218903,0.0-13.0-1.0,21283,List2B,white,man,,,,null,,,,,,,,,
null,is being touched by,,html-keyboard-response,52,220905,0.0-13.0-2.0,21283,List2B,white,man,,,,null,,,,,,,,,
18033.7,,,survey-text,53,238946,0.0-13.0-3.0,21283,List2B,white,man,,,,,"{""Q0"":""luke is playing with fred""}","<img src=""stim_listB/touch6.gif""style=""height:400px;""></stim_listB>",is being touched by,,,,,,
null,"<div style=""font-size:60px;"">+</div>",,html-keyboard-response,54,239448,0.0-13.0-0.1,21283,List2B,white,man,,,,null,,,,,,,,,
null,"<img src=""stim_listB/hug4.gif""style=""height:400px;""></stim_listB>",,html-keyboard-response,55,241450,0.0-13.0-1.1,21283,List2B,white,man,,,,null,,,,,,,,,
null,is being hugged by,,html-keyboard-response,56,243453,0.0-13.0-2.1,21283,List2B,white,man,,,,null,,,,,,,,,
20263.9,,,survey-text,57,263721,0.0-13.0-3.1,21283,List2B,white,man,,,,,"{""Q0"":""mike is playing with kate""}","<img src=""stim_listB/hug4.gif""style=""height:400px;""></stim_listB>",is being hugged by,,,,,,
null,"<div style=""font-size:60px;"">+</div>",,html-keyboard-response,58,264223,0.0-13.0-0.2,21283,List2B,white,man,,,,null,,,,,,,,,
null,"<img src=""stim_listB/look7.gif""style=""height:400px;""></stim_listB>",,html-keyboard-response,59,266227,0.0-13.0-1.2,21283,List2B,white,man,,,,null,,,,,,,,,
null,is looking at,,html-keyboard-response,60,268229,0.0-13.0-2.2,21283,List2B,white,man,,,,null,,,,,,,,,
25448.9,,,survey-text,61,293689,0.0-13.0-3.2,21283,List2B,white,man,,,,,"{""Q0"":""ruth is looking at beth""}","<img src=""stim_listB/look7.gif""style=""height:400px;""></stim_listB>",is looking at,,,,,,
null,"<div style=""font-size:60px;"">+</div>",,html-keyboard-response,62,294191,0.0-13.0-0.3,21283,List2B,white,man,,,,null,,,,,,,,,
null,"<img src=""stim_listB/oppose5.gif""style=""height:400px;""></stim_listB>",,html-keyboard-response,63,296195,0.0-13.0-1.3,21283,List2B,white,man,,,,null,,,,,,,,,
null,is opposing,,html-keyboard-response,64,298197,0.0-13.0-2.3,21283,List2B,white,man,,,,null,,,,,,,,,
27831.7,,,survey-text,65,326033,0.0-13.0-3.3,21283,List2B,white,man,,,,,"{""Q0"":""dave is opposing mike""}","<img src=""stim_listB/oppose5.gif""style=""height:400px;""></stim_listB>",is opposing,,,,,,
null,"<div style=""font-size:60px;"">+</div>",,html-keyboard-response,66,326535,0.0-13.0-0.4,21283,List2B,white,man,,,,null,,,,,,,,,
null,"<img src=""stim_listB/seduce3.gif""style=""height:400px;""></stim_listB>",,html-keyboard-response,67,328540,0.0-13.0-1.4,21283,List2B,white,man,,,,null,,,,,,,,,
null,is seducing,,html-keyboard-response,68,330541,0.0-13.0-2.4,21283,List2B,white,man,,,,null,,,,,,,,,
42959.6,,,survey-text,69,373505,0.0-13.0-3.4,21283,List2B,white,man,,,,,"{""Q0"":""fred is facing kate""}","<img src=""stim_listB/seduce3.gif""style=""height:400px;""></stim_listB>",is seducing,,,,,,
null,"<div style=""font-size:60px;"">+</div>",,html-keyboard-response,70,374006,0.0-13.0-0.5,21283,List2B,white,man,,,,null,,,,,,,,,
null,"<img src=""stim_listB/greet5.gif""style=""height:400px;""></stim_listB>",,html-keyboard-response,71,376010,0.0-13.0-1.5,21283,List2B,white,man,,,,null,,,,,,,,,
null,is greeting,,html-keyboard-response,72,378012,0.0-13.0-2.5,21283,List2B,white,man,,,,null,,,,,,,,,
36800.4,,,survey-text,73,414817,0.0-13.0-3.5,21283,List2B,white,man,,,,,"{""Q0"":""fred is greeting dave""}","<img src=""stim_listB/greet5.gif""style=""height:400px;""></stim_listB>",is greeting,,,,,,
null,"<div style=""font-size:60px;"">+</div>",,html-keyboard-response,74,415319,0.0-13.0-0.6,21283,List2B,white,man,,,,null,,,,,,,,,
null,"<img src=""stim_listB/kiss8.gif""style=""height:400px;""></stim_listB>",,html-keyboard-response,75,417336,0.0-13.0-1.6,21283,List2B,white,man,,,,null,,,,,,,,,
null,is being kissed by,,html-keyboard-response,76,419339,0.0-13.0-2.6,21283,List2B,white,man,,,,null,,,,,,,,,
52856.3,,,survey-text,77,472200,0.0-13.0-3.6,21283,List2B,white,man,,,,,"{""Q0"":""Jane  is being kissed by Kate""}","<img src=""stim_listB/kiss8.gif""style=""height:400px;""></stim_listB>",is being kissed by,,,,,,
null,"<div style=""font-size:60px;"">+</div>",,html-keyboard-response,78,472702,0.0-13.0-0.7,21283,List2B,white,man,,,,null,,,,,,,,,
null,"<img src=""stim_listB/kiss7.gif""style=""height:400px;""></stim_listB>",,html-keyboard-response,79,474707,0.0-13.0-1.7,21283,List2B,white,man,,,,null,,,,,,,,,
null,is kissing,,html-keyboard-response,80,476709,0.0-13.0-2.7,21283,List2B,white,man,,,,null,,,,,,,,,
93414.6,,,survey-text,81,570128,0.0-13.0-3.7,21283,List2B,white,man,,,,,"{""Q0"":""Beth is kissing Ruth""}","<img src=""stim_listB/kiss7.gif""style=""height:400px;""></stim_listB>",is kissing,,,,,,
null,"<div style=""font-size:60px;"">+</div>",,html-keyboard-response,82,570629,0.0-13.0-0.8,21283,List2B,white,man,,,,null,,,,,,,,,
null,"<img src=""stim_listB/hug2.gif""style=""height:400px;""></stim_listB>",,html-keyboard-response,83,572633,0.0-13.0-1.8,21283,List2B,white,man,,,,null,,,,,,,,,
null,is being hugged by,,html-keyboard-response,84,574636,0.0-13.0-2.8,21283,List2B,white,man,,,,null,,,,,,,,,
50942.4,,,survey-text,85,625583,0.0-13.0-3.8,21283,List2B,white,man,,,,,"{""Q0"":""Jane is being hugged Dave""}","<img src=""stim_listB/hug2.gif""style=""height:400px;""></stim_listB>",is being hugged by,,,,,,
null,"<div style=""font-size:60px;"">+</div>",,html-keyboard-response,86,626085,0.0-13.0-0.9,21283,List2B,white,man,,,,null,,,,,,,,,
null,"<img src=""stim_listB/challenge2.gif""style=""height:400px;""></stim_listB>",,html-keyboard-response,87,628090,0.0-13.0-1.9,21283,List2B,white,man,,,,null,,,,,,,,,
null,is being challenged by,,html-keyboard-response,88,630092,0.0-13.0-2.9,21283,List2B,white,man,,,,null,,,,,,,,,
49455,,,survey-text,89,679550,0.0-13.0-3.9,21283,List2B,white,man,,,,,"{""Q0"":""Luke is being challenged by Jane""}","<img src=""stim_listB/challenge2.gif""style=""height:400px;""></stim_listB>",is being challenged by,,,,,,
null,"<div style=""font-size:60px;"">+</div>",,html-keyboard-response,90,680052,0.0-13.0-0.10,21283,List2B,white,man,,,,null,,,,,,,,,
null,"<img src=""stim_listB/copy3.gif""style=""height:400px;""></stim_listB>",,html-keyboard-response,91,682056,0.0-13.0-1.10,21283,List2B,white,man,,,,null,,,,,,,,,
null,is copying,,html-keyboard-response,92,684059,0.0-13.0-2.10,21283,List2B,white,man,,,,null,,,,,,,,,
41886.2,,,survey-text,93,725951,0.0-13.0-3.10,21283,List2B,white,man,,,,,"{""Q0"":""Mike is smilling at Beth""}","<img src=""stim_listB/copy3.gif""style=""height:400px;""></stim_listB>",is copying,,,,,,
null,"<div style=""font-size:60px;"">+</div>",,html-keyboard-response,94,726452,0.0-13.0-0.11,21283,List2B,white,man,,,,null,,,,,,,,,
null,"<img src=""stim_listB/look3.gif""style=""height:400px;""></stim_listB>",,html-keyboard-response,95,728456,0.0-13.0-1.11,21283,List2B,white,man,,,,null,,,,,,,,,
null,is looking at,,html-keyboard-response,96,730457,0.0-13.0-2.11,21283,List2B,white,man,,,,null,,,,,,,,,
48481,,,survey-text,97,778942,0.0-13.0-3.11,21283,List2B,white,man,,,,,"{""Q0"":""Beth is looking at Fred""}","<img src=""stim_listB/look3.gif""style=""height:400px;""></stim_listB>",is looking at,,,,,,
null,"<div style=""font-size:60px;"">+</div>",,html-keyboard-response,98,779444,0.0-13.0-0.12,21283,List2B,white,man,,,,null,,,,,,,,,
null,"<img src=""stim_listB/touch5.gif""style=""height:400px;""></stim_listB>",,html-keyboard-response,99,781448,0.0-13.0-1.12,21283,List2B,white,man,,,,null,,,,,,,,,
null,is touching,,html-keyboard-response,100,783450,0.0-13.0-2.12,21283,List2B,white,man,,,,null,,,,,,,,,
47623.5,,,survey-text,101,831078,0.0-13.0-3.12,21283,List2B,white,man,,,,,"{""Q0"":""mike is touching Dave""}","<img src=""stim_listB/touch5.gif""style=""height:400px;""></stim_listB>",is touching,,,,,,
null,"<div style=""font-size:60px;"">+</div>",,html-keyboard-response,102,831580,0.0-13.0-0.13,21283,List2B,white,man,,,,null,,,,,,,,,
null,"<img src=""stim_listB/seduce8.gif""style=""height:400px;""></stim_listB>",,html-keyboard-response,103,833584,0.0-13.0-1.13,21283,List2B,white,man,,,,null,,,,,,,,,
null,is being seduced by,,html-keyboard-response,104,835587,0.0-13.0-2.13,21283,List2B,white,man,,,,null,,,,,,,,,
54950.1,,,survey-text,105,890541,0.0-13.0-3.13,21283,List2B,white,man,,,,,"{""Q0"":""Beth is laughing with Jane""}","<img src=""stim_listB/seduce8.gif""style=""height:400px;""></stim_listB>",is being seduced by,,,,,,
null,"<div style=""font-size:60px;"">+</div>",,html-keyboard-response,106,891043,0.0-13.0-0.14,21283,List2B,white,man,,,,null,,,,,,,,,
null,"<img src=""stim_listB/shout2.gif""style=""height:400px;""></stim_listB>",,html-keyboard-response,107,893048,0.0-13.0-1.14,21283,List2B,white,man,,,,null,,,,,,,,,
null,is being shouted at by,,html-keyboard-response,108,895050,0.0-13.0-2.14,21283,List2B,white,man,,,,null,,,,,,,,,
43237.8,,,survey-text,109,938293,0.0-13.0-3.14,21283,List2B,white,man,,,,,"{""Q0"":""Jane is being shouted by Dave""}","<img src=""stim_listB/shout2.gif""style=""height:400px;""></stim_listB>",is being shouted at by,,,,,,
null,"<div style=""font-size:60px;"">+</div>",,html-keyboard-response,110,938794,0.0-13.0-0.15,21283,List2B,white,man,,,,null,,,,,,,,,
null,"<img src=""stim_listB/copy5.gif""style=""height:400px;""></stim_listB>",,html-keyboard-response,111,940799,0.0-13.0-1.15,21283,List2B,white,man,,,,null,,,,,,,,,
null,is copying,,html-keyboard-response,112,942801,0.0-13.0-2.15,21283,List2B,white,man,,,,null,,,,,,,,,
34330.1,,,survey-text,113,977134,0.0-13.0-3.15,21283,List2B,white,man,,,,,"{""Q0"":""Dave is copying Fred""}","<img src=""stim_listB/copy5.gif""style=""height:400px;""></stim_listB>",is copying,,,,,,
null,"<div style=""font-size:60px;"">+</div>",,html-keyboard-response,114,977637,0.0-13.0-0.16,21283,List2B,white,man,,,,null,,,,,,,,,
null,"<img src=""stim_listB/kiss4.gif""style=""height:400px;""></stim_listB>",,html-keyboard-response,115,979641,0.0-13.0-1.16,21283,List2B,white,man,,,,null,,,,,,,,,
null,is being kissed by,,html-keyboard-response,116,981643,0.0-13.0-2.16,21283,List2B,white,man,,,,null,,,,,,,,,
59900.8,,,survey-text,117,1041549,0.0-13.0-3.16,21283,List2B,white,man,,,,,"{""Q0"":""Kate being kissed by mike""}","<img src=""stim_listB/kiss4.gif""style=""height:400px;""></stim_listB>",is being kissed by,,,,,,
null,"<div style=""font-size:60px;"">+</div>",,html-keyboard-response,118,1042051,0.0-13.0-0.17,21283,List2B,white,man,,,,null,,,,,,,,,
null,"<img src=""stim_listB/copy2.gif""style=""height:400px;""></stim_listB>",,html-keyboard-response,119,1044057,0.0-13.0-1.17,21283,List2B,white,man,,,,null,,,,,,,,,
null,is being copied by,,html-keyboard-response,120,1046059,0.0-13.0-2.17,21283,List2B,white,man,,,,null,,,,,,,,,
84076.8,,,survey-text,121,1130140,0.0-13.0-3.17,21283,List2B,white,man,,,,,"{""Q0"":""Luke is being copied by Jane""}","<img src=""stim_listB/copy2.gif""style=""height:400px;""></stim_listB>",is being copied by,,,,,,
null,"<div style=""font-size:60px;"">+</div>",,html-keyboard-response,122,1130661,0.0-13.0-0.18,21283,List2B,white,man,,,,null,,,,,,,,,
null,"<img src=""stim_listB/seduce6.gif""style=""height:400px;""></stim_listB>",,html-keyboard-response,123,1132672,0.0-13.0-1.18,21283,List2B,white,man,,,,null,,,,,,,,,
null,is being seduced by,,html-keyboard-response,124,1134683,0.0-13.0-2.18,21283,List2B,white,man,,,,null,,,,,,,,,
46923.5,,,survey-text,125,1181612,0.0-13.0-3.18,21283,List2B,white,man,,,,,"{""Q0"":""Fred is being seduced by Dave""}","<img src=""stim_listB/seduce6.gif""style=""height:400px;""></stim_listB>",is being seduced by,,,,,,
null,"<div style=""font-size:60px;"">+</div>",,html-keyboard-response,126,1182123,0.0-13.0-0.19,21283,List2B,white,man,,,,null,,,,,,,,,
null,"<img src=""stim_listB/look8.gif""style=""height:400px;""></stim_listB>",,html-keyboard-response,127,1184131,0.0-13.0-1.19,21283,List2B,white,man,,,,null,,,,,,,,,
null,is being looked at by,,html-keyboard-response,128,1186140,0.0-13.0-2.19,21283,List2B,white,man,,,,null,,,,,,,,,
53092.5,,,survey-text,129,1239235,0.0-13.0-3.19,21283,List2B,white,man,,,,,"{""Q0"":""Jane is being looked at by kate""}","<img src=""stim_listB/look8.gif""style=""height:400px;""></stim_listB>",is being looked at by,,,,,,
6029.8,"<img src='img/portrait_matrix_list2.jpg' style='width:900px;height:500px;''></img><p>If you have memorised all the portraits and names and are ready to start, press Continue.</p><p><strong>Please note: Your memory of these faces will be tested 4 times during this experiment.</strong></p>",0,html-button-response,130,1245266,0.0-14.0-0.0,21283,List2B,white,man,,,,,,,,,,,,,
2691.7,"<img src=""portrait/BM2.jpg""style=""height:400px;""></img>",5,html-button-response,131,1248963,0.0-14.0-1.0,21283,List2B,white,man,,TRUE,5,,,,,,,,,,
null,CORRECT,,html-keyboard-response,132,1250483,0.0-14.0-2.0-0.0,21283,List2B,white,man,,,,null,,,,,,,,,
3749.4,"<img src=""portrait/BW1.jpg""style=""height:400px;""></img>",0,html-button-response,133,1254235,0.0-14.0-4.0,21283,List2B,white,man,,TRUE,0,,,,,,,,,,
null,CORRECT,,html-keyboard-response,134,1255754,0.0-14.0-5.0-0.0,21283,List2B,white,man,,,,null,,,,,,,,,
1982.4,"<img src=""portrait/BW2.jpg""style=""height:400px;""></img>",2,html-button-response,135,1257739,0.0-14.0-7.0,21283,List2B,white,man,,TRUE,2,,,,,,,,,,
null,CORRECT,,html-keyboard-response,136,1259254,0.0-14.0-8.0-0.0,21283,List2B,white,man,,,,null,,,,,,,,,
2283,"<img src=""portrait/WM2.jpg""style=""height:400px;""></img>",7,html-button-response,137,1261539,0.0-14.0-10.0,21283,List2B,white,man,,TRUE,7,,,,,,,,,,
null,CORRECT,,html-keyboard-response,138,1263042,0.0-14.0-11.0-0.0,21283,List2B,white,man,,,,null,,,,,,,,,
2158.4,"<img src=""portrait/WW1.jpg""style=""height:400px;""></img>",1,html-button-response,139,1265202,0.0-14.0-13.0,21283,List2B,white,man,,TRUE,1,,,,,,,,,,
null,CORRECT,,html-keyboard-response,140,1266707,0.0-14.0-14.0-0.0,21283,List2B,white,man,,,,null,,,,,,,,,
2917.1,"<img src=""portrait/WW2.jpg""style=""height:400px;""></img>",3,html-button-response,141,1269626,0.0-14.0-16.0,21283,List2B,white,man,,TRUE,3,,,,,,,,,,
null,CORRECT,,html-keyboard-response,142,1271131,0.0-14.0-17.0-0.0,21283,List2B,white,man,,,,null,,,,,,,,,
3197.4,"<img src=""portrait/WM1.jpg""style=""height:400px;""></img>",6,html-button-response,143,1274330,0.0-14.0-19.0,21283,List2B,white,man,,TRUE,6,,,,,,,,,,
null,CORRECT,,html-keyboard-response,144,1275834,0.0-14.0-20.0-0.0,21283,List2B,white,man,,,,null,,,,,,,,,
1789.4,"<img src=""portrait/BM1.jpg""style=""height:400px;""></img>",4,html-button-response,145,1277626,0.0-14.0-22.0,21283,List2B,white,man,,TRUE,4,,,,,,,,,,
null,CORRECT,,html-keyboard-response,146,1279131,0.0-14.0-23.0-0.0,21283,List2B,white,man,,,,null,,,,,,,,,
1899.9,<p>You got 8 out of 8 right first time. Press Continue.</p>,0,html-button-response,147,1281034,0.0-14.0-25.0,21283,List2B,white,man,,,,,,,,,,,,,
null,"<div style=""font-size:60px;"">+</div>",,html-keyboard-response,148,1282537,0.0-15.0-0.0,21283,List2B,white,man,,,,null,,,,,,,,,
null,"<img src=""stim_listB/look2.gif""style=""height:400px;""></stim_listB>",,html-keyboard-response,149,1284541,0.0-15.0-1.0,21283,List2B,white,man,,,,null,,,,,,,,,
null,is being looked at by,,html-keyboard-response,150,1286544,0.0-15.0-2.0,21283,List2B,white,man,,,,null,,,,,,,,,
14350.2,,,survey-text,151,1300898,0.0-15.0-3.0,21283,List2B,white,man,,,,,"{""Q0"":""Dave is being looked at by Jane""}","<img src=""stim_listB/look2.gif""style=""height:400px;""></stim_listB>",is being looked at by,,,,,,
null,"<div style=""font-size:60px;"">+</div>",,html-keyboard-response,152,1301400,0.0-15.0-0.1,21283,List2B,white,man,,,,null,,,,,,,,,
null,"<img src=""stim_listB/greet2.gif""style=""height:400px;""></stim_listB>",,html-keyboard-response,153,1303405,0.0-15.0-1.1,21283,List2B,white,man,,,,null,,,,,,,,,
null,is being greeted by,,html-keyboard-response,154,1305407,0.0-15.0-2.1,21283,List2B,white,man,,,,null,,,,,,,,,
13360.9,,,survey-text,155,1318770,0.0-15.0-3.1,21283,List2B,white,man,,,,,"{""Q0"":""Luke is being greeted by jane""}","<img src=""stim_listB/greet2.gif""style=""height:400px;""></stim_listB>",is being greeted by,,,,,,
null,"<div style=""font-size:60px;"">+</div>",,html-keyboard-response,156,1319273,0.0-15.0-0.2,21283,List2B,white,man,,,,null,,,,,,,,,
null,"<img src=""stim_listB/shout8.gif""style=""height:400px;""></stim_listB>",,html-keyboard-response,157,1321277,0.0-15.0-1.2,21283,List2B,white,man,,,,null,,,,,,,,,
null,is being shouted at by,,html-keyboard-response,158,1323280,0.0-15.0-2.2,21283,List2B,white,man,,,,null,,,,,,,,,
17189.6,,,survey-text,159,1340475,0.0-15.0-3.2,21283,List2B,white,man,,,,,"{""Q0"":""Kate is being shouted by Beth""}","<img src=""stim_listB/shout8.gif""style=""height:400px;""></stim_listB>",is being shouted at by,,,,,,
null,"<div style=""font-size:60px;"">+</div>",,html-keyboard-response,160,1340976,0.0-15.0-0.3,21283,List2B,white,man,,,,null,,,,,,,,,
null,"<img src=""stim_listB/greet3.gif""style=""height:400px;""></stim_listB>",,html-keyboard-response,161,1342980,0.0-15.0-1.3,21283,List2B,white,man,,,,null,,,,,,,,,
null,is greeting,,html-keyboard-response,162,1344982,0.0-15.0-2.3,21283,List2B,white,man,,,,null,,,,,,,,,
17046.1,,,survey-text,163,1362034,0.0-15.0-3.3,21283,List2B,white,man,,,,,"{""Q0"":""Mike is greeting Beth""}","<img src=""stim_listB/greet3.gif""style=""height:400px;""></stim_listB>",is greeting,,,,,,
null,"<div style=""font-size:60px;"">+</div>",,html-keyboard-response,164,1362536,0.0-15.0-0.4,21283,List2B,white,man,,,,null,,,,,,,,,
null,"<img src=""stim_listB/hug3.gif""style=""height:400px;""></stim_listB>",,html-keyboard-response,165,1364542,0.0-15.0-1.4,21283,List2B,white,man,,,,null,,,,,,,,,
null,is hugging,,html-keyboard-response,166,1366544,0.0-15.0-2.4,21283,List2B,white,man,,,,null,,,,,,,,,
13296.7,,,survey-text,167,1379842,0.0-15.0-3.4,21283,List2B,white,man,,,,,"{""Q0"":""Beth is hugging Fred""}","<img src=""stim_listB/hug3.gif""style=""height:400px;""></stim_listB>",is hugging,,,,,,
null,"<div style=""font-size:60px;"">+</div>",,html-keyboard-response,168,1380344,0.0-15.0-0.5,21283,List2B,white,man,,,,null,,,,,,,,,
null,"<img src=""stim_listB/seduce1.gif""style=""height:400px;""></stim_listB>",,html-keyboard-response,169,1382348,0.0-15.0-1.5,21283,List2B,white,man,,,,null,,,,,,,,,
null,is seducing,,html-keyboard-response,170,1384349,0.0-15.0-2.5,21283,List2B,white,man,,,,null,,,,,,,,,
19398.6,,,survey-text,171,1403753,0.0-15.0-3.5,21283,List2B,white,man,,,,,"{""Q0"":""Jane is seducing Luke""}","<img src=""stim_listB/seduce1.gif""style=""height:400px;""></stim_listB>",is seducing,,,,,,
null,"<div style=""font-size:60px;"">+</div>",,html-keyboard-response,172,1404255,0.0-15.0-0.6,21283,List2B,white,man,,,,null,,,,,,,,,
null,"<img src=""stim_listB/greet7.gif""style=""height:400px;""></stim_listB>",,html-keyboard-response,173,1406260,0.0-15.0-1.6,21283,List2B,white,man,,,,null,,,,,,,,,
null,is greeting,,html-keyboard-response,174,1408263,0.0-15.0-2.6,21283,List2B,white,man,,,,null,,,,,,,,,
9334.1,,,survey-text,175,1417601,0.0-15.0-3.6,21283,List2B,white,man,,,,,"{""Q0"":""Beth is greeting Jane""}","<img src=""stim_listB/greet7.gif""style=""height:400px;""></stim_listB>",is greeting,,,,,,
null,"<div style=""font-size:60px;"">+</div>",,html-keyboard-response,176,1418103,0.0-15.0-0.7,21283,List2B,white,man,,,,null,,,,,,,,,
null,"<img src=""stim_listB/greet6.gif""style=""height:400px;""></stim_listB>",,html-keyboard-response,177,1420110,0.0-15.0-1.7,21283,List2B,white,man,,,,null,,,,,,,,,
null,is being greeted by,,html-keyboard-response,178,1422113,0.0-15.0-2.7,21283,List2B,white,man,,,,null,,,,,,,,,
12180.4,,,survey-text,179,1434297,0.0-15.0-3.7,21283,List2B,white,man,,,,,"{""Q0"":""Luke is being greeted by Mike""}","<img src=""stim_listB/greet6.gif""style=""height:400px;""></stim_listB>",is being greeted by,,,,,,
null,"<div style=""font-size:60px;"">+</div>",,html-keyboard-response,180,1434800,0.0-15.0-0.8,21283,List2B,white,man,,,,null,,,,,,,,,
null,"<img src=""stim_listB/oppose8.gif""style=""height:400px;""></stim_listB>",,html-keyboard-response,181,1436806,0.0-15.0-1.8,21283,List2B,white,man,,,,null,,,,,,,,,
null,is being opposed by,,html-keyboard-response,182,1438808,0.0-15.0-2.8,21283,List2B,white,man,,,,null,,,,,,,,,
16132.6,,,survey-text,183,1454945,0.0-15.0-3.8,21283,List2B,white,man,,,,,"{""Q0"":""Ruth is being opposed by Beth""}","<img src=""stim_listB/oppose8.gif""style=""height:400px;""></stim_listB>",is being opposed by,,,,,,
null,"<div style=""font-size:60px;"">+</div>",,html-keyboard-response,184,1455447,0.0-15.0-0.9,21283,List2B,white,man,,,,null,,,,,,,,,
null,"<img src=""stim_listB/kiss3.gif""style=""height:400px;""></stim_listB>",,html-keyboard-response,185,1457451,0.0-15.0-1.9,21283,List2B,white,man,,,,null,,,,,,,,,
null,is kissing,,html-keyboard-response,186,1459453,0.0-15.0-2.9,21283,List2B,white,man,,,,null,,,,,,,,,
10959.1,,,survey-text,187,1470417,0.0-15.0-3.9,21283,List2B,white,man,,,,,"{""Q0"":""Beth is kissing Fred""}","<img src=""stim_listB/kiss3.gif""style=""height:400px;""></stim_listB>",is kissing,,,,,,
null,"<div style=""font-size:60px;"">+</div>",,html-keyboard-response,188,1470919,0.0-15.0-0.10,21283,List2B,white,man,,,,null,,,,,,,,,
null,"<img src=""stim_listB/challenge7.gif""style=""height:400px;""></stim_listB>",,html-keyboard-response,189,1472924,0.0-15.0-1.10,21283,List2B,white,man,,,,null,,,,,,,,,
null,is challenging,,html-keyboard-response,190,1474927,0.0-15.0-2.10,21283,List2B,white,man,,,,null,,,,,,,,,
16011.7,,,survey-text,191,1490945,0.0-15.0-3.10,21283,List2B,white,man,,,,,"{""Q0"":""Beth is challenging Jane""}","<img src=""stim_listB/challenge7.gif""style=""height:400px;""></stim_listB>",is challenging,,,,,,
null,"<div style=""font-size:60px;"">+</div>",,html-keyboard-response,192,1491447,0.0-15.0-0.11,21283,List2B,white,man,,,,null,,,,,,,,,
null,"<img src=""stim_listB/copy4.gif""style=""height:400px;""></stim_listB>",,html-keyboard-response,193,1493452,0.0-15.0-1.11,21283,List2B,white,man,,,,null,,,,,,,,,
null,is being copied by,,html-keyboard-response,194,1495455,0.0-15.0-2.11,21283,List2B,white,man,,,,null,,,,,,,,,
15917.2,,,survey-text,195,1511377,0.0-15.0-3.11,21283,List2B,white,man,,,,,"{""Q0"":""Fred is being copied by Kate""}","<img src=""stim_listB/copy4.gif""style=""height:400px;""></stim_listB>",is being copied by,,,,,,
null,"<div style=""font-size:60px;"">+</div>",,html-keyboard-response,196,1511878,0.0-15.0-0.12,21283,List2B,white,man,,,,null,,,,,,,,,
null,"<img src=""stim_listB/touch4.gif""style=""height:400px;""></stim_listB>",,html-keyboard-response,197,1513883,0.0-15.0-1.12,21283,List2B,white,man,,,,null,,,,,,,,,
null,is being touched by,,html-keyboard-response,198,1515885,0.0-15.0-2.12,21283,List2B,white,man,,,,null,,,,,,,,,
42389.6,,,survey-text,199,1558280,0.0-15.0-3.12,21283,List2B,white,man,,,,,"{""Q0"":""Fred is being touched by Kate""}","<img src=""stim_listB/touch4.gif""style=""height:400px;""></stim_listB>",is being touched by,,,,,,
null,"<div style=""font-size:60px;"">+</div>",,html-keyboard-response,200,1558784,0.0-15.0-0.13,21283,List2B,white,man,,,,null,,,,,,,,,
null,"<img src=""stim_listB/greet1.gif""style=""height:400px;""></stim_listB>",,html-keyboard-response,201,1560795,0.0-15.0-1.13,21283,List2B,white,man,,,,null,,,,,,,,,
null,is greeting,,html-keyboard-response,202,1562810,0.0-15.0-2.13,21283,List2B,white,man,,,,null,,,,,,,,,
18666.4,,,survey-text,203,1581481,0.0-15.0-3.13,21283,List2B,white,man,,,,,"{""Q0"":""Dave is greeting Ruth""}","<img src=""stim_listB/greet1.gif""style=""height:400px;""></stim_listB>",is greeting,,,,,,
null,"<div style=""font-size:60px;"">+</div>",,html-keyboard-response,204,1581995,0.0-15.0-0.14,21283,List2B,white,man,,,,null,,,,,,,,,
null,"<img src=""stim_listB/touch3.gif""style=""height:400px;""></stim_listB>",,html-keyboard-response,205,1583999,0.0-15.0-1.14,21283,List2B,white,man,,,,null,,,,,,,,,
null,is touching,,html-keyboard-response,206,1586016,0.0-15.0-2.14,21283,List2B,white,man,,,,null,,,,,,,,,
7764.5,,,survey-text,207,1593785,0.0-15.0-3.14,21283,List2B,white,man,,,,,"{""Q0"":""Mike is touching Kate""}","<img src=""stim_listB/touch3.gif""style=""height:400px;""></stim_listB>",is touching,,,,,,
null,"<div style=""font-size:60px;"">+</div>",,html-keyboard-response,208,1594296,0.0-15.0-0.15,21283,List2B,white,man,,,,null,,,,,,,,,
null,"<img src=""stim_listB/look5.gif""style=""height:400px;""></stim_listB>",,html-keyboard-response,209,1596308,0.0-15.0-1.15,21283,List2B,white,man,,,,null,,,,,,,,,
null,is looking at,,html-keyboard-response,210,1598323,0.0-15.0-2.15,21283,List2B,white,man,,,,null,,,,,,,,,
17760.9,,,survey-text,211,1616088,0.0-15.0-3.15,21283,List2B,white,man,,,,,"{""Q0"":""Fred is looking at Luke""}","<img src=""stim_listB/look5.gif""style=""height:400px;""></stim_listB>",is looking at,,,,,,
null,"<div style=""font-size:60px;"">+</div>",,html-keyboard-response,212,1616590,0.0-15.0-0.16,21283,List2B,white,man,,,,null,,,,,,,,,
null,"<img src=""stim_listB/copy6.gif""style=""height:400px;""></stim_listB>",,html-keyboard-response,213,1618595,0.0-15.0-1.16,21283,List2B,white,man,,,,null,,,,,,,,,
null,is being copied by,,html-keyboard-response,214,1620597,0.0-15.0-2.16,21283,List2B,white,man,,,,null,,,,,,,,,
17038.9,,,survey-text,215,1637641,0.0-15.0-3.16,21283,List2B,white,man,,,,,"{""Q0"":""Luke is being copied by Mike""}","<img src=""stim_listB/copy6.gif""style=""height:400px;""></stim_listB>",is being copied by,,,,,,
null,"<div style=""font-size:60px;"">+</div>",,html-keyboard-response,216,1638142,0.0-15.0-0.17,21283,List2B,white,man,,,,null,,,,,,,,,
null,"<img src=""stim_listB/challenge6.gif""style=""height:400px;""></stim_listB>",,html-keyboard-response,217,1640147,0.0-15.0-1.17,21283,List2B,white,man,,,,null,,,,,,,,,
null,is being challenged by,,html-keyboard-response,218,1642149,0.0-15.0-2.17,21283,List2B,white,man,,,,null,,,,,,,,,
18385.1,,,survey-text,219,1660536,0.0-15.0-3.17,21283,List2B,white,man,,,,,"{""Q0"":""Luke is being challenged by Mike""}","<img src=""stim_listB/challenge6.gif""style=""height:400px;""></stim_listB>",is being challenged by,,,,,,
null,"<div style=""font-size:60px;"">+</div>",,html-keyboard-response,220,1661038,0.0-15.0-0.18,21283,List2B,white,man,,,,null,,,,,,,,,
null,"<img src=""stim_listB/look6.gif""style=""height:400px;""></stim_listB>",,html-keyboard-response,221,1663043,0.0-15.0-1.18,21283,List2B,white,man,,,,null,,,,,,,,,
null,is being looked at by,,html-keyboard-response,222,1665046,0.0-15.0-2.18,21283,List2B,white,man,,,,null,,,,,,,,,
8447.8,,,survey-text,223,1673496,0.0-15.0-3.18,21283,List2B,white,man,,,,,"{""Q0"":""Mike is being looked by Dave""}","<img src=""stim_listB/look6.gif""style=""height:400px;""></stim_listB>",is being looked at by,,,,,,
null,"<div style=""font-size:60px;"">+</div>",,html-keyboard-response,224,1673998,0.0-15.0-0.19,21283,List2B,white,man,,,,null,,,,,,,,,
null,"<img src=""stim_listB/seduce2.gif""style=""height:400px;""></stim_listB>",,html-keyboard-response,225,1676002,0.0-15.0-1.19,21283,List2B,white,man,,,,null,,,,,,,,,
null,is being seduced by,,html-keyboard-response,226,1678004,0.0-15.0-2.19,21283,List2B,white,man,,,,null,,,,,,,,,
10746,,,survey-text,227,1688752,0.0-15.0-3.19,21283,List2B,white,man,,,,,"{""Q0"":""Dave is being seduced by Ruth""}","<img src=""stim_listB/seduce2.gif""style=""height:400px;""></stim_listB>",is being seduced by,,,,,,
2822.3,"<img src='img/portrait_matrix_list2.jpg' style='width:900px;height:500px;''></img><p>If you have memorised all the portraits and names and are ready to start, press Continue.</p><p><strong>Please note: Your memory of these faces will be tested 4 times during this experiment.</strong></p>",0,html-button-response,228,1691576,0.0-16.0-0.0,21283,List2B,white,man,,,,,,,,,,,,,
3235.6,"<img src=""portrait/WM2.jpg""style=""height:400px;""></img>",7,html-button-response,229,1695817,0.0-16.0-1.0,21283,List2B,white,man,,TRUE,7,,,,,,,,,,
null,CORRECT,,html-keyboard-response,230,1697321,0.0-16.0-2.0-0.0,21283,List2B,white,man,,,,null,,,,,,,,,
1556.5,"<img src=""portrait/BM1.jpg""style=""height:400px;""></img>",4,html-button-response,231,1698880,0.0-16.0-4.0,21283,List2B,white,man,,TRUE,4,,,,,,,,,,
null,CORRECT,,html-keyboard-response,232,1700384,0.0-16.0-5.0-0.0,21283,List2B,white,man,,,,null,,,,,,,,,
2021.7,"<img src=""portrait/BM2.jpg""style=""height:400px;""></img>",5,html-button-response,233,1702408,0.0-16.0-7.0,21283,List2B,white,man,,TRUE,5,,,,,,,,,,
null,CORRECT,,html-keyboard-response,234,1703912,0.0-16.0-8.0-0.0,21283,List2B,white,man,,,,null,,,,,,,,,
1878.4,"<img src=""portrait/BW2.jpg""style=""height:400px;""></img>",2,html-button-response,235,1705792,0.0-16.0-10.0,21283,List2B,white,man,,TRUE,2,,,,,,,,,,
null,CORRECT,,html-keyboard-response,236,1707296,0.0-16.0-11.0-0.0,21283,List2B,white,man,,,,null,,,,,,,,,
1469.8,"<img src=""portrait/WW2.jpg""style=""height:400px;""></img>",3,html-button-response,237,1708768,0.0-16.0-13.0,21283,List2B,white,man,,TRUE,3,,,,,,,,,,
null,CORRECT,,html-keyboard-response,238,1710273,0.0-16.0-14.0-0.0,21283,List2B,white,man,,,,null,,,,,,,,,
2309,"<img src=""portrait/BW1.jpg""style=""height:400px;""></img>",0,html-button-response,239,1712584,0.0-16.0-16.0,21283,List2B,white,man,,TRUE,0,,,,,,,,,,
null,CORRECT,,html-keyboard-response,240,1714087,0.0-16.0-17.0-0.0,21283,List2B,white,man,,,,null,,,,,,,,,
2150.2,"<img src=""portrait/WW1.jpg""style=""height:400px;""></img>",1,html-button-response,241,1716240,0.0-16.0-19.0,21283,List2B,white,man,,TRUE,1,,,,,,,,,,
null,CORRECT,,html-keyboard-response,242,1717743,0.0-16.0-20.0-0.0,21283,List2B,white,man,,,,null,,,,,,,,,
4382.5,"<img src=""portrait/WM1.jpg""style=""height:400px;""></img>",6,html-button-response,243,1722128,0.0-16.0-22.0,21283,List2B,white,man,,TRUE,6,,,,,,,,,,
null,CORRECT,,html-keyboard-response,244,1723631,0.0-16.0-23.0-0.0,21283,List2B,white,man,,,,null,,,,,,,,,
1878.7,<p>You got 8 out of 8 right first time. Press Continue.</p>,0,html-button-response,245,1725512,0.0-16.0-25.0,21283,List2B,white,man,,,,,,,,,,,,,
null,"<div style=""font-size:60px;"">+</div>",,html-keyboard-response,246,1727016,0.0-17.0-0.0,21283,List2B,white,man,,,,null,,,,,,,,,
null,"<img src=""stim_listB/hug8.gif""style=""height:400px;""></stim_listB>",,html-keyboard-response,247,1729018,0.0-17.0-1.0,21283,List2B,white,man,,,,null,,,,,,,,,
null,is being hugged by,,html-keyboard-response,248,1731020,0.0-17.0-2.0,21283,List2B,white,man,,,,null,,,,,,,,,
12503,,,survey-text,249,1743528,0.0-17.0-3.0,21283,List2B,white,man,,,,,"{""Q0"":""Kate is being hugged by Jane""}","<img src=""stim_listB/hug8.gif""style=""height:400px;""></stim_listB>",is being hugged by,,,,,,
null,"<div style=""font-size:60px;"">+</div>",,html-keyboard-response,250,1744037,0.0-17.0-0.1,21283,List2B,white,man,,,,null,,,,,,,,,
null,"<img src=""stim_listB/oppose1.gif""style=""height:400px;""></stim_listB>",,html-keyboard-response,251,1746043,0.0-17.0-1.1,21283,List2B,white,man,,,,null,,,,,,,,,
null,is opposing,,html-keyboard-response,252,1748063,0.0-17.0-2.1,21283,List2B,white,man,,,,null,,,,,,,,,
15771.7,,,survey-text,253,1763839,0.0-17.0-3.1,21283,List2B,white,man,,,,,"{""Q0"":""Jane is opposing Dave""}","<img src=""stim_listB/oppose1.gif""style=""height:400px;""></stim_listB>",is opposing,,,,,,
null,"<div style=""font-size:60px;"">+</div>",,html-keyboard-response,254,1764341,0.0-17.0-0.2,21283,List2B,white,man,,,,null,,,,,,,,,
null,"<img src=""stim_listB/look1.gif""style=""height:400px;""></stim_listB>",,html-keyboard-response,255,1766345,0.0-17.0-1.2,21283,List2B,white,man,,,,null,,,,,,,,,
null,is looking at,,html-keyboard-response,256,1768347,0.0-17.0-2.2,21283,List2B,white,man,,,,null,,,,,,,,,
13927.5,,,survey-text,257,1782279,0.0-17.0-3.2,21283,List2B,white,man,,,,,"{""Q0"":""Luke is looking at Ruth""}","<img src=""stim_listB/look1.gif""style=""height:400px;""></stim_listB>",is looking at,,,,,,
null,"<div style=""font-size:60px;"">+</div>",,html-keyboard-response,258,1782780,0.0-17.0-0.3,21283,List2B,white,man,,,,null,,,,,,,,,
null,"<img src=""stim_listB/hug5.gif""style=""height:400px;""></stim_listB>",,html-keyboard-response,259,1784784,0.0-17.0-1.3,21283,List2B,white,man,,,,null,,,,,,,,,
null,is hugging,,html-keyboard-response,260,1786786,0.0-17.0-2.3,21283,List2B,white,man,,,,null,,,,,,,,,
11315.4,,,survey-text,261,1798103,0.0-17.0-3.3,21283,List2B,white,man,,,,,"{""Q0"":""Luke is hugging Fred""}","<img src=""stim_listB/hug5.gif""style=""height:400px;""></stim_listB>",is hugging,,,,,,
null,"<div style=""font-size:60px;"">+</div>",,html-keyboard-response,262,1798604,0.0-17.0-0.4,21283,List2B,white,man,,,,null,,,,,,,,,
null,"<img src=""stim_listB/seduce7.gif""style=""height:400px;""></stim_listB>",,html-keyboard-response,263,1800608,0.0-17.0-1.4,21283,List2B,white,man,,,,null,,,,,,,,,
null,is seducing,,html-keyboard-response,264,1802610,0.0-17.0-2.4,21283,List2B,white,man,,,,null,,,,,,,,,
10144.4,,,survey-text,265,1812759,0.0-17.0-3.4,21283,List2B,white,man,,,,,"{""Q0"":""Ruth is seducing Kate""}","<img src=""stim_listB/seduce7.gif""style=""height:400px;""></stim_listB>",is seducing,,,,,,
null,"<div style=""font-size:60px;"">+</div>",,html-keyboard-response,266,1813260,0.0-17.0-0.5,21283,List2B,white,man,,,,null,,,,,,,,,
null,"<img src=""stim_listB/oppose2.gif""style=""height:400px;""></stim_listB>",,html-keyboard-response,267,1815262,0.0-17.0-1.5,21283,List2B,white,man,,,,null,,,,,,,,,
null,is being opposed by,,html-keyboard-response,268,1817265,0.0-17.0-2.5,21283,List2B,white,man,,,,null,,,,,,,,,
21738.5,,,survey-text,269,1839007,0.0-17.0-3.5,21283,List2B,white,man,,,,,"{""Q0"":""Luke is being opposed by Ruth""}","<img src=""stim_listB/oppose2.gif""style=""height:400px;""></stim_listB>",is being opposed by,,,,,,
null,"<div style=""font-size:60px;"">+</div>",,html-keyboard-response,270,1839509,0.0-17.0-0.6,21283,List2B,white,man,,,,null,,,,,,,,,
null,"<img src=""stim_listB/hug7.gif""style=""height:400px;""></stim_listB>",,html-keyboard-response,271,1841512,0.0-17.0-1.6,21283,List2B,white,man,,,,null,,,,,,,,,
null,is hugging,,html-keyboard-response,272,1843513,0.0-17.0-2.6,21283,List2B,white,man,,,,null,,,,,,,,,
13897.5,,,survey-text,273,1857415,0.0-17.0-3.6,21283,List2B,white,man,,,,,"{""Q0"":""Beth is hugging Ruth""}","<img src=""stim_listB/hug7.gif""style=""height:400px;""></stim_listB>",is hugging,,,,,,
null,"<div style=""font-size:60px;"">+</div>",,html-keyboard-response,274,1857916,0.0-17.0-0.7,21283,List2B,white,man,,,,null,,,,,,,,,
null,"<img src=""stim_listB/oppose4.gif""style=""height:400px;""></stim_listB>",,html-keyboard-response,275,1859921,0.0-17.0-1.7,21283,List2B,white,man,,,,null,,,,,,,,,
null,is being opposed by,,html-keyboard-response,276,1861924,0.0-17.0-2.7,21283,List2B,white,man,,,,null,,,,,,,,,
18511.1,,,survey-text,277,1880439,0.0-17.0-3.7,21283,List2B,white,man,,,,,"{""Q0"":""Beth is being opposed by Fred""}","<img src=""stim_listB/oppose4.gif""style=""height:400px;""></stim_listB>",is being opposed by,,,,,,
null,"<div style=""font-size:60px;"">+</div>",,html-keyboard-response,278,1880941,0.0-17.0-0.8,21283,List2B,white,man,,,,null,,,,,,,,,
null,"<img src=""stim_listB/kiss6.gif""style=""height:400px;""></stim_listB>",,html-keyboard-response,279,1882945,0.0-17.0-1.8,21283,List2B,white,man,,,,null,,,,,,,,,
null,is being kissed by,,html-keyboard-response,280,1884948,0.0-17.0-2.8,21283,List2B,white,man,,,,null,,,,,,,,,
13342.6,,,survey-text,281,1898295,0.0-17.0-3.8,21283,List2B,white,man,,,,,"{""Q0"":""Mike is kissed by Dave""}","<img src=""stim_listB/kiss6.gif""style=""height:400px;""></stim_listB>",is being kissed by,,,,,,
null,"<div style=""font-size:60px;"">+</div>",,html-keyboard-response,282,1898797,0.0-17.0-0.9,21283,List2B,white,man,,,,null,,,,,,,,,
null,"<img src=""stim_listB/touch1.gif""style=""height:400px;""></stim_listB>",,html-keyboard-response,283,1900801,0.0-17.0-1.9,21283,List2B,white,man,,,,null,,,,,,,,,
null,is touching,,html-keyboard-response,284,1902803,0.0-17.0-2.9,21283,List2B,white,man,,,,null,,,,,,,,,
8295.6,,,survey-text,285,1911103,0.0-17.0-3.9,21283,List2B,white,man,,,,,"{""Q0"":""Dave is touching Jane""}","<img src=""stim_listB/touch1.gif""style=""height:400px;""></stim_listB>",is touching,,,,,,
null,"<div style=""font-size:60px;"">+</div>",,html-keyboard-response,286,1911605,0.0-17.0-0.10,21283,List2B,white,man,,,,null,,,,,,,,,
null,"<img src=""stim_listB/hug1.gif""style=""height:400px;""></stim_listB>",,html-keyboard-response,287,1913608,0.0-17.0-1.10,21283,List2B,white,man,,,,null,,,,,,,,,
null,is hugging,,html-keyboard-response,288,1915611,0.0-17.0-2.10,21283,List2B,white,man,,,,null,,,,,,,,,
11927.4,,,survey-text,289,1927543,0.0-17.0-3.10,21283,List2B,white,man,,,,,"{""Q0"":""Luke is hugging Ruth""}","<img src=""stim_listB/hug1.gif""style=""height:400px;""></stim_listB>",is hugging,,,,,,
null,"<div style=""font-size:60px;"">+</div>",,html-keyboard-response,290,1928044,0.0-17.0-0.11,21283,List2B,white,man,,,,null,,,,,,,,,
null,"<img src=""stim_listB/shout6.gif""style=""height:400px;""></stim_listB>",,html-keyboard-response,291,1930049,0.0-17.0-1.11,21283,List2B,white,man,,,,null,,,,,,,,,
null,is being shouted at by,,html-keyboard-response,292,1932052,0.0-17.0-2.11,21283,List2B,white,man,,,,null,,,,,,,,,
15598.7,,,survey-text,293,1947655,0.0-17.0-3.11,21283,List2B,white,man,,,,,"{""Q0"":""Mike is being shouted at by Dave""}","<img src=""stim_listB/shout6.gif""style=""height:400px;""></stim_listB>",is being shouted at by,,,,,,
null,"<div style=""font-size:60px;"">+</div>",,html-keyboard-response,294,1948157,0.0-17.0-0.12,21283,List2B,white,man,,,,null,,,,,,,,,
null,"<img src=""stim_listB/touch2.gif""style=""height:400px;""></stim_listB>",,html-keyboard-response,295,1950161,0.0-17.0-1.12,21283,List2B,white,man,,,,null,,,,,,,,,
null,is being touched by,,html-keyboard-response,296,1952164,0.0-17.0-2.12,21283,List2B,white,man,,,,null,,,,,,,,,
11078.6,,,survey-text,297,1963247,0.0-17.0-3.12,21283,List2B,white,man,,,,,"{""Q0"":""Luke is being touched by Ruth""}","<img src=""stim_listB/touch2.gif""style=""height:400px;""></stim_listB>",is being touched by,,,,,,
null,"<div style=""font-size:60px;"">+</div>",,html-keyboard-response,298,1963749,0.0-17.0-0.13,21283,List2B,white,man,,,,null,,,,,,,,,
null,"<img src=""stim_listB/seduce5.gif""style=""height:400px;""></stim_listB>",,html-keyboard-response,299,1965753,0.0-17.0-1.13,21283,List2B,white,man,,,,null,,,,,,,,,
null,is seducing,,html-keyboard-response,300,1967755,0.0-17.0-2.13,21283,List2B,white,man,,,,null,,,,,,,,,
14855.4,,,survey-text,301,1982615,0.0-17.0-3.13,21283,List2B,white,man,,,,,"{""Q0"":""Mike is seducing Luke""}","<img src=""stim_listB/seduce5.gif""style=""height:400px;""></stim_listB>",is seducing,,,,,,
null,"<div style=""font-size:60px;"">+</div>",,html-keyboard-response,302,1983116,0.0-17.0-0.14,21283,List2B,white,man,,,,null,,,,,,,,,
null,"<img src=""stim_listB/challenge4.gif""style=""height:400px;""></stim_listB>",,html-keyboard-response,303,1985122,0.0-17.0-1.14,21283,List2B,white,man,,,,null,,,,,,,,,
null,is being challenged by,,html-keyboard-response,304,1987125,0.0-17.0-2.14,21283,List2B,white,man,,,,null,,,,,,,,,
13357.3,,,survey-text,305,2000486,0.0-17.0-3.14,21283,List2B,white,man,,,,,"{""Q0"":""Fred is being challenged by Kate""}","<img src=""stim_listB/challenge4.gif""style=""height:400px;""></stim_listB>",is being challenged by,,,,,,
null,"<div style=""font-size:60px;"">+</div>",,html-keyboard-response,306,2000989,0.0-17.0-0.15,21283,List2B,white,man,,,,null,,,,,,,,,
null,"<img src=""stim_listB/oppose6.gif""style=""height:400px;""></stim_listB>",,html-keyboard-response,307,2002995,0.0-17.0-1.15,21283,List2B,white,man,,,,null,,,,,,,,,
null,is being opposed by,,html-keyboard-response,308,2004997,0.0-17.0-2.15,21283,List2B,white,man,,,,null,,,,,,,,,
11360.3,,,survey-text,309,2016366,0.0-17.0-3.15,21283,List2B,white,man,,,,,"{""Q0"":""Luke is being opposed by Fred""}","<img src=""stim_listB/oppose6.gif""style=""height:400px;""></stim_listB>",is being opposed by,,,,,,
null,"<div style=""font-size:60px;"">+</div>",,html-keyboard-response,310,2016868,0.0-17.0-0.16,21283,List2B,white,man,,,,null,,,,,,,,,
null,"<img src=""stim_listB/touch7.gif""style=""height:400px;""></stim_listB>",,html-keyboard-response,311,2018872,0.0-17.0-1.16,21283,List2B,white,man,,,,null,,,,,,,,,
null,is touching,,html-keyboard-response,312,2020875,0.0-17.0-2.16,21283,List2B,white,man,,,,null,,,,,,,,,
9455,,,survey-text,313,2030334,0.0-17.0-3.16,21283,List2B,white,man,,,,,"{""Q0"":""kate is touching Jane""}","<img src=""stim_listB/touch7.gif""style=""height:400px;""></stim_listB>",is touching,,,,,,
null,"<div style=""font-size:60px;"">+</div>",,html-keyboard-response,314,2030836,0.0-17.0-0.17,21283,List2B,white,man,,,,null,,,,,,,,,
null,"<img src=""stim_listB/shout1.gif""style=""height:400px;""></stim_listB>",,html-keyboard-response,315,2032842,0.0-17.0-1.17,21283,List2B,white,man,,,,null,,,,,,,,,
null,is shouting at,,html-keyboard-response,316,2034845,0.0-17.0-2.17,21283,List2B,white,man,,,,null,,,,,,,,,
12021.1,,,survey-text,317,2046870,0.0-17.0-3.17,21283,List2B,white,man,,,,,"{""Q0"":""Ruth  is shouting at Luke""}","<img src=""stim_listB/shout1.gif""style=""height:400px;""></stim_listB>",is shouting at,,,,,,
null,"<div style=""font-size:60px;"">+</div>",,html-keyboard-response,318,2047372,0.0-17.0-0.18,21283,List2B,white,man,,,,null,,,,,,,,,
null,"<img src=""stim_listB/kiss5.gif""style=""height:400px;""></stim_listB>",,html-keyboard-response,319,2049377,0.0-17.0-1.18,21283,List2B,white,man,,,,null,,,,,,,,,
null,is kissing,,html-keyboard-response,320,2051380,0.0-17.0-2.18,21283,List2B,white,man,,,,null,,,,,,,,,
9851.5,,,survey-text,321,2061238,0.0-17.0-3.18,21283,List2B,white,man,,,,,"{""Q0"":""Fred is kissing Luke""}","<img src=""stim_listB/kiss5.gif""style=""height:400px;""></stim_listB>",is kissing,,,,,,
null,"<div style=""font-size:60px;"">+</div>",,html-keyboard-response,322,2061740,0.0-17.0-0.19,21283,List2B,white,man,,,,null,,,,,,,,,
null,"<img src=""stim_listB/challenge5.gif""style=""height:400px;""></stim_listB>",,html-keyboard-response,323,2063744,0.0-17.0-1.19,21283,List2B,white,man,,,,null,,,,,,,,,
null,is challenging,,html-keyboard-response,324,2065746,0.0-17.0-2.19,21283,List2B,white,man,,,,null,,,,,,,,,
16870.4,,,survey-text,325,2082621,0.0-17.0-3.19,21283,List2B,white,man,,,,,"{""Q0"":""Fred is challenging Dave""}","<img src=""stim_listB/challenge5.gif""style=""height:400px;""></stim_listB>",is challenging,,,,,,
12662.3,"<img src='img/portrait_matrix_list2.jpg' style='width:900px;height:500px;''></img><p>If you have memorised all the portraits and names and are ready to start, press Continue.</p><p><strong>Please note: Your memory of these faces will be tested 4 times during this experiment.</strong></p>",0,html-button-response,326,2095285,0.0-18.0-0.0,21283,List2B,white,man,,,,,,,,,,,,,
2332.3,"<img src=""portrait/WW2.jpg""style=""height:400px;""></img>",3,html-button-response,327,2098629,0.0-18.0-1.0,21283,List2B,white,man,,TRUE,3,,,,,,,,,,
null,CORRECT,,html-keyboard-response,328,2100142,0.0-18.0-2.0-0.0,21283,List2B,white,man,,,,null,,,,,,,,,
2005.5,"<img src=""portrait/WM2.jpg""style=""height:400px;""></img>",7,html-button-response,329,2102149,0.0-18.0-4.0,21283,List2B,white,man,,TRUE,7,,,,,,,,,,
null,CORRECT,,html-keyboard-response,330,2103668,0.0-18.0-5.0-0.0,21283,List2B,white,man,,,,null,,,,,,,,,
1527.1,"<img src=""portrait/BM1.jpg""style=""height:400px;""></img>",4,html-button-response,331,2105197,0.0-18.0-7.0,21283,List2B,white,man,,TRUE,4,,,,,,,,,,
null,CORRECT,,html-keyboard-response,332,2106717,0.0-18.0-8.0-0.0,21283,List2B,white,man,,,,null,,,,,,,,,
4198.3,"<img src=""portrait/WM1.jpg""style=""height:400px;""></img>",6,html-button-response,333,2110917,0.0-18.0-10.0,21283,List2B,white,man,,TRUE,6,,,,,,,,,,
null,CORRECT,,html-keyboard-response,334,2112429,0.0-18.0-11.0-0.0,21283,List2B,white,man,,,,null,,,,,,,,,
3109.9,"<img src=""portrait/BW2.jpg""style=""height:400px;""></img>",2,html-button-response,335,2115541,0.0-18.0-13.0,21283,List2B,white,man,,TRUE,2,,,,,,,,,,
null,CORRECT,,html-keyboard-response,336,2117056,0.0-18.0-14.0-0.0,21283,List2B,white,man,,,,null,,,,,,,,,
2754.8,"<img src=""portrait/WW1.jpg""style=""height:400px;""></img>",1,html-button-response,337,2119813,0.0-18.0-16.0,21283,List2B,white,man,,TRUE,1,,,,,,,,,,
null,CORRECT,,html-keyboard-response,338,2121316,0.0-18.0-17.0-0.0,21283,List2B,white,man,,,,null,,,,,,,,,
2238.3,"<img src=""portrait/BM2.jpg""style=""height:400px;""></img>",5,html-button-response,339,2123557,0.0-18.0-19.0,21283,List2B,white,man,,TRUE,5,,,,,,,,,,
null,CORRECT,,html-keyboard-response,340,2125061,0.0-18.0-20.0-0.0,21283,List2B,white,man,,,,null,,,,,,,,,
2565.5,"<img src=""portrait/BW1.jpg""style=""height:400px;""></img>",0,html-button-response,341,2127629,0.0-18.0-22.0,21283,List2B,white,man,,TRUE,0,,,,,,,,,,
null,CORRECT,,html-keyboard-response,342,2129133,0.0-18.0-23.0-0.0,21283,List2B,white,man,,,,null,,,,,,,,,
1924.5,<p>You got 8 out of 8 right first time. Press Continue.</p>,0,html-button-response,343,2131061,0.0-18.0-25.0,21283,List2B,white,man,,,,,,,,,,,,,
null,"<div style=""font-size:60px;"">+</div>",,html-keyboard-response,344,2132566,0.0-19.0-0.0,21283,List2B,white,man,,,,null,,,,,,,,,
null,"<img src=""stim_listB/kiss2.gif""style=""height:400px;""></stim_listB>",,html-keyboard-response,345,2134571,0.0-19.0-1.0,21283,List2B,white,man,,,,null,,,,,,,,,
null,is being kissed by,,html-keyboard-response,346,2136574,0.0-19.0-2.0,21283,List2B,white,man,,,,null,,,,,,,,,
13017.3,,,survey-text,347,2149597,0.0-19.0-3.0,21283,List2B,white,man,,,,,"{""Q0"":""Dave is being kissed by Jane""}","<img src=""stim_listB/kiss2.gif""style=""height:400px;""></stim_listB>",is being kissed by,,,,,,
null,"<div style=""font-size:60px;"">+</div>",,html-keyboard-response,348,2150099,0.0-19.0-0.1,21283,List2B,white,man,,,,null,,,,,,,,,
null,"<img src=""stim_listB/shout3.gif""style=""height:400px;""></stim_listB>",,html-keyboard-response,349,2152102,0.0-19.0-1.1,21283,List2B,white,man,,,,null,,,,,,,,,
null,is shouting at,,html-keyboard-response,350,2154105,0.0-19.0-2.1,21283,List2B,white,man,,,,null,,,,,,,,,
9056,,,survey-text,351,2163165,0.0-19.0-3.1,21283,List2B,white,man,,,,,"{""Q0"":""Fred is shouting at Beth""}","<img src=""stim_listB/shout3.gif""style=""height:400px;""></stim_listB>",is shouting at,,,,,,
null,"<div style=""font-size:60px;"">+</div>",,html-keyboard-response,352,2163667,0.0-19.0-0.2,21283,List2B,white,man,,,,null,,,,,,,,,
null,"<img src=""stim_listB/touch8.gif""style=""height:400px;""></stim_listB>",,html-keyboard-response,353,2165672,0.0-19.0-1.2,21283,List2B,white,man,,,,null,,,,,,,,,
null,is being touched by,,html-keyboard-response,354,2167673,0.0-19.0-2.2,21283,List2B,white,man,,,,null,,,,,,,,,
9822.9,,,survey-text,355,2177501,0.0-19.0-3.2,21283,List2B,white,man,,,,,"{""Q0"":""Beth is being touched by Ruth""}","<img src=""stim_listB/touch8.gif""style=""height:400px;""></stim_listB>",is being touched by,,,,,,
null,"<div style=""font-size:60px;"">+</div>",,html-keyboard-response,356,2178002,0.0-19.0-0.3,21283,List2B,white,man,,,,null,,,,,,,,,
null,"<img src=""stim_listB/copy7.gif""style=""height:400px;""></stim_listB>",,html-keyboard-response,357,2180008,0.0-19.0-1.3,21283,List2B,white,man,,,,null,,,,,,,,,
null,is copying,,html-keyboard-response,358,2182011,0.0-19.0-2.3,21283,List2B,white,man,,,,null,,,,,,,,,
13318.9,,,survey-text,359,2195333,0.0-19.0-3.3,21283,List2B,white,man,,,,,"{""Q0"":""Jane is copying Beth""}","<img src=""stim_listB/copy7.gif""style=""height:400px;""></stim_listB>",is copying,,,,,,
null,"<div style=""font-size:60px;"">+</div>",,html-keyboard-response,360,2195835,0.0-19.0-0.4,21283,List2B,white,man,,,,null,,,,,,,,,
null,"<img src=""stim_listB/oppose3.gif""style=""height:400px;""></stim_listB>",,html-keyboard-response,361,2197839,0.0-19.0-1.4,21283,List2B,white,man,,,,null,,,,,,,,,
null,is opposing,,html-keyboard-response,362,2199841,0.0-19.0-2.4,21283,List2B,white,man,,,,null,,,,,,,,,
10743,,,survey-text,363,2210588,0.0-19.0-3.4,21283,List2B,white,man,,,,,"{""Q0"":""Kate is opposing Mike""}","<img src=""stim_listB/oppose3.gif""style=""height:400px;""></stim_listB>",is opposing,,,,,,
null,"<div style=""font-size:60px;"">+</div>",,html-keyboard-response,364,2211090,0.0-19.0-0.5,21283,List2B,white,man,,,,null,,,,,,,,,
null,"<img src=""stim_listB/kiss1.gif""style=""height:400px;""></stim_listB>",,html-keyboard-response,365,2213095,0.0-19.0-1.5,21283,List2B,white,man,,,,null,,,,,,,,,
null,is kissing,,html-keyboard-response,366,2215097,0.0-19.0-2.5,21283,List2B,white,man,,,,null,,,,,,,,,
9759.1,,,survey-text,367,2224860,0.0-19.0-3.5,21283,List2B,white,man,,,,,"{""Q0"":""Ruth is kissing Luke""}","<img src=""stim_listB/kiss1.gif""style=""height:400px;""></stim_listB>",is kissing,,,,,,
null,"<div style=""font-size:60px;"">+</div>",,html-keyboard-response,368,2225362,0.0-19.0-0.6,21283,List2B,white,man,,,,null,,,,,,,,,
null,"<img src=""stim_listB/challenge1.gif""style=""height:400px;""></stim_listB>",,html-keyboard-response,369,2227367,0.0-19.0-1.6,21283,List2B,white,man,,,,null,,,,,,,,,
null,is challenging,,html-keyboard-response,370,2229369,0.0-19.0-2.6,21283,List2B,white,man,,,,null,,,,,,,,,
12838.7,,,survey-text,371,2242213,0.0-19.0-3.6,21283,List2B,white,man,,,,,"{""Q0"":""Ruth is challenging Dave""}","<img src=""stim_listB/challenge1.gif""style=""height:400px;""></stim_listB>",is challenging,,,,,,
null,"<div style=""font-size:60px;"">+</div>",,html-keyboard-response,372,2242714,0.0-19.0-0.7,21283,List2B,white,man,,,,null,,,,,,,,,
null,"<img src=""stim_listB/greet8.gif""style=""height:400px;""></stim_listB>",,html-keyboard-response,373,2244720,0.0-19.0-1.7,21283,List2B,white,man,,,,null,,,,,,,,,
null,is being greeted by,,html-keyboard-response,374,2246722,0.0-19.0-2.7,21283,List2B,white,man,,,,null,,,,,,,,,
8621.7,,,survey-text,375,2255348,0.0-19.0-3.7,21283,List2B,white,man,,,,,"{""Q0"":""Ruth is greeted by kate""}","<img src=""stim_listB/greet8.gif""style=""height:400px;""></stim_listB>",is being greeted by,,,,,,
null,"<div style=""font-size:60px;"">+</div>",,html-keyboard-response,376,2255850,0.0-19.0-0.8,21283,List2B,white,man,,,,null,,,,,,,,,
null,"<img src=""stim_listB/hug6.gif""style=""height:400px;""></stim_listB>",,html-keyboard-response,377,2257855,0.0-19.0-1.8,21283,List2B,white,man,,,,null,,,,,,,,,
null,is being hugged by,,html-keyboard-response,378,2259858,0.0-19.0-2.8,21283,List2B,white,man,,,,null,,,,,,,,,
14830.3,,,survey-text,379,2274693,0.0-19.0-3.8,21283,List2B,white,man,,,,,"{""Q0"":""Mike is being hugged by Dave""}","<img src=""stim_listB/hug6.gif""style=""height:400px;""></stim_listB>",is being hugged by,,,,,,
null,"<div style=""font-size:60px;"">+</div>",,html-keyboard-response,380,2275194,0.0-19.0-0.9,21283,List2B,white,man,,,,null,,,,,,,,,
null,"<img src=""stim_listB/greet4.gif""style=""height:400px;""></stim_listB>",,html-keyboard-response,381,2277199,0.0-19.0-1.9,21283,List2B,white,man,,,,null,,,,,,,,,
null,is being greeted by,,html-keyboard-response,382,2279201,0.0-19.0-2.9,21283,List2B,white,man,,,,null,,,,,,,,,
13062.2,,,survey-text,383,2292268,0.0-19.0-3.9,21283,List2B,white,man,,,,,"{""Q0"":""Fred is being greeted by Kate""}","<img src=""stim_listB/greet4.gif""style=""height:400px;""></stim_listB>",is being greeted by,,,,,,
null,"<div style=""font-size:60px;"">+</div>",,html-keyboard-response,384,2292770,0.0-19.0-0.10,21283,List2B,white,man,,,,null,,,,,,,,,
null,"<img src=""stim_listB/shout5.gif""style=""height:400px;""></stim_listB>",,html-keyboard-response,385,2294774,0.0-19.0-1.10,21283,List2B,white,man,,,,null,,,,,,,,,
null,is shouting at,,html-keyboard-response,386,2296777,0.0-19.0-2.10,21283,List2B,white,man,,,,null,,,,,,,,,
14015.8,,,survey-text,387,2310804,0.0-19.0-3.10,21283,List2B,white,man,,,,,"{""Q0"":""Fred is shouting at Dave""}","<img src=""stim_listB/shout5.gif""style=""height:400px;""></stim_listB>",is shouting at,,,,,,
null,"<div style=""font-size:60px;"">+</div>",,html-keyboard-response,388,2311306,0.0-19.0-0.11,21283,List2B,white,man,,,,null,,,,,,,,,
null,"<img src=""stim_listB/challenge3.gif""style=""height:400px;""></stim_listB>",,html-keyboard-response,389,2313310,0.0-19.0-1.11,21283,List2B,white,man,,,,null,,,,,,,,,
null,is challenging,,html-keyboard-response,390,2315312,0.0-19.0-2.11,21283,List2B,white,man,,,,null,,,,,,,,,
10326.9,,,survey-text,391,2325644,0.0-19.0-3.11,21283,List2B,white,man,,,,,"{""Q0"":""Beth is challenging Mike""}","<img src=""stim_listB/challenge3.gif""style=""height:400px;""></stim_listB>",is challenging,,,,,,
null,"<div style=""font-size:60px;"">+</div>",,html-keyboard-response,392,2326146,0.0-19.0-0.12,21283,List2B,white,man,,,,null,,,,,,,,,
null,"<img src=""stim_listB/copy1.gif""style=""height:400px;""></stim_listB>",,html-keyboard-response,393,2328149,0.0-19.0-1.12,21283,List2B,white,man,,,,null,,,,,,,,,
null,is copying,,html-keyboard-response,394,2330151,0.0-19.0-2.12,21283,List2B,white,man,,,,null,,,,,,,,,
18640.9,,,survey-text,395,2348796,0.0-19.0-3.12,21283,List2B,white,man,,,,,"{""Q0"":""Ruth is copying Dave""}","<img src=""stim_listB/copy1.gif""style=""height:400px;""></stim_listB>",is copying,,,,,,
null,"<div style=""font-size:60px;"">+</div>",,html-keyboard-response,396,2349298,0.0-19.0-0.13,21283,List2B,white,man,,,,null,,,,,,,,,
null,"<img src=""stim_listB/shout7.gif""style=""height:400px;""></stim_listB>",,html-keyboard-response,397,2351302,0.0-19.0-1.13,21283,List2B,white,man,,,,null,,,,,,,,,
null,is shouting at,,html-keyboard-response,398,2353304,0.0-19.0-2.13,21283,List2B,white,man,,,,null,,,,,,,,,
11855,,,survey-text,399,2365164,0.0-19.0-3.13,21283,List2B,white,man,,,,,"{""Q0"":""Ruth is shouting at Beth""}","<img src=""stim_listB/shout7.gif""style=""height:400px;""></stim_listB>",is shouting at,,,,,,
null,"<div style=""font-size:60px;"">+</div>",,html-keyboard-response,400,2365665,0.0-19.0-0.14,21283,List2B,white,man,,,,null,,,,,,,,,
null,"<img src=""stim_listB/oppose7.gif""style=""height:400px;""></stim_listB>",,html-keyboard-response,401,2367669,0.0-19.0-1.14,21283,List2B,white,man,,,,null,,,,,,,,,
null,is opposing,,html-keyboard-response,402,2369671,0.0-19.0-2.14,21283,List2B,white,man,,,,null,,,,,,,,,
13287.5,,,survey-text,403,2382963,0.0-19.0-3.14,21283,List2B,white,man,,,,,"{""Q0"":""Kate is opposing Jane""}","<img src=""stim_listB/oppose7.gif""style=""height:400px;""></stim_listB>",is opposing,,,,,,
null,"<div style=""font-size:60px;"">+</div>",,html-keyboard-response,404,2383464,0.0-19.0-0.15,21283,List2B,white,man,,,,null,,,,,,,,,
null,"<img src=""stim_listB/challenge8.gif""style=""height:400px;""></stim_listB>",,html-keyboard-response,405,2385466,0.0-19.0-1.15,21283,List2B,white,man,,,,null,,,,,,,,,
null,is being challenged by,,html-keyboard-response,406,2387467,0.0-19.0-2.15,21283,List2B,white,man,,,,null,,,,,,,,,
23125.5,,,survey-text,407,2410595,0.0-19.0-3.15,21283,List2B,white,man,,,,,"{""Q0"":""Kate is being challenged by Ruth""}","<img src=""stim_listB/challenge8.gif""style=""height:400px;""></stim_listB>",is being challenged by,,,,,,
null,"<div style=""font-size:60px;"">+</div>",,html-keyboard-response,408,2411096,0.0-19.0-0.16,21283,List2B,white,man,,,,null,,,,,,,,,
null,"<img src=""stim_listB/copy8.gif""style=""height:400px;""></stim_listB>",,html-keyboard-response,409,2413101,0.0-19.0-1.16,21283,List2B,white,man,,,,null,,,,,,,,,
null,is being copied by,,html-keyboard-response,410,2415104,0.0-19.0-2.16,21283,List2B,white,man,,,,null,,,,,,,,,
17655.2,,,survey-text,411,2432763,0.0-19.0-3.16,21283,List2B,white,man,,,,,"{""Q0"":""Ruth is being copied by Kate""}","<img src=""stim_listB/copy8.gif""style=""height:400px;""></stim_listB>",is being copied by,,,,,,
null,"<div style=""font-size:60px;"">+</div>",,html-keyboard-response,412,2433265,0.0-19.0-0.17,21283,List2B,white,man,,,,null,,,,,,,,,
null,"<img src=""stim_listB/seduce4.gif""style=""height:400px;""></stim_listB>",,html-keyboard-response,413,2435269,0.0-19.0-1.17,21283,List2B,white,man,,,,null,,,,,,,,,
null,is being seduced by,,html-keyboard-response,414,2437271,0.0-19.0-2.17,21283,List2B,white,man,,,,null,,,,,,,,,
15022.9,,,survey-text,415,2452299,0.0-19.0-3.17,21283,List2B,white,man,,,,,"{""Q0"":""Mike is being seduced by Beth""}","<img src=""stim_listB/seduce4.gif""style=""height:400px;""></stim_listB>",is being seduced by,,,,,,
null,"<div style=""font-size:60px;"">+</div>",,html-keyboard-response,416,2452800,0.0-19.0-0.18,21283,List2B,white,man,,,,null,,,,,,,,,
null,"<img src=""stim_listB/look4.gif""style=""height:400px;""></stim_listB>",,html-keyboard-response,417,2454805,0.0-19.0-1.18,21283,List2B,white,man,,,,null,,,,,,,,,
null,is being looked at by,,html-keyboard-response,418,2456807,0.0-19.0-2.18,21283,List2B,white,man,,,,null,,,,,,,,,
15799.3,,,survey-text,419,2472611,0.0-19.0-3.18,21283,List2B,white,man,,,,,"{""Q0"":""Mike is being looked at by kate""}","<img src=""stim_listB/look4.gif""style=""height:400px;""></stim_listB>",is being looked at by,,,,,,
null,"<div style=""font-size:60px;"">+</div>",,html-keyboard-response,420,2473114,0.0-19.0-0.19,21283,List2B,white,man,,,,null,,,,,,,,,
null,"<img src=""stim_listB/shout4.gif""style=""height:400px;""></stim_listB>",,html-keyboard-response,421,2475119,0.0-19.0-1.19,21283,List2B,white,man,,,,null,,,,,,,,,
null,is being shouted at by,,html-keyboard-response,422,2477121,0.0-19.0-2.19,21283,List2B,white,man,,,,null,,,,,,,,,
9828.4,,,survey-text,423,2486955,0.0-19.0-3.19,21283,List2B,white,man,,,,,"{""Q0"":""Mike is being shouted by Kate""}","<img src=""stim_listB/shout4.gif""style=""height:400px;""></stim_listB>",is being shouted at by,,,,,,
2302.5,<p>Thank you for completing that task.</p><p>The final part of this session is a questionnaire that will take about 4 minutes.</p><p>Press Continue.</p>,0,html-button-response,424,2489259,0.0-20.0,21283,List2B,white,man,,,,,,,,,,,,,
52613.4,,,survey-text,425,2542883,0.0-21.0,21283,List2B,white,man,,,,,"{""Q0"":""37"",""Q1"":""English"",""Q2"":""English"",""Q3"":""United State of America"",""Q4"":""America"",""Q5"":""White"",""Q6"":""Male""}",,,demographics,,,,,
3669.7,<p>Have you lived in the USA for the last 5 years or more?</p>,0,html-button-response,426,2546555,0.0-22.0,21283,List2B,white,man,,,,,,,,fiveyears,,,,,
3619.7,<p>Move the slider to show the extent to which you agree with the following statements.</p>,0,html-button-response,427,2551179,0.0-23.0,21283,List2B,white,man,,,,,,,,,,,,,
4536.8,,,html-slider-response,428,2556723,0.0-24.0-0.0-0.0,21283,List2B,white,man,,,,,,,,survey_gender,100,,,My friends understand me.,filler
8053.4,,,html-slider-response,429,2564778,0.0-24.0-0.0-0.1,21283,List2B,white,man,,,,,,,,survey_gender,97,,,People of my gender have a lot in common with each other.,common
5301.8,,,html-slider-response,430,2570082,0.0-24.0-0.0-0.2,21283,List2B,white,man,,,,,,,,survey_gender,100,,,Being my gender gives me a good feeling.,feeling
3910.2,,,html-slider-response,431,2573994,0.0-24.0-0.0-0.3,21283,List2B,white,man,,,,,,,,survey_gender,91,,,I have a lot in common with the average person of my gender.,average
3750.2,,,html-slider-response,432,2577746,0.0-24.0-0.0-0.4,21283,List2B,white,man,,,,,,,,survey_gender,95,,,People of my gender are very similar to each other.,verysimilar
3374,,,html-slider-response,433,2581122,0.0-24.0-0.0-0.5,21283,List2B,white,man,,,,,,,,survey_gender,84,,,I am glad to have the friends that I have.,filler
2998.2,,,html-slider-response,434,2584122,0.0-24.0-0.0-0.6,21283,List2B,white,man,,,,,,,,survey_gender,97,,,I feel solidarity with my friends.,filler
3534.5,,,html-slider-response,435,2587658,0.0-24.0-0.0-0.7,21283,List2B,white,man,,,,,,,,survey_gender,81,,,It is pleasant to be my gender.,pleasant
6894.2,,,html-slider-response,436,2594554,0.0-24.0-0.0-0.8,21283,List2B,white,man,,,,,,,,survey_gender,86,,,Routine is not important to me.,filler
4525.8,,,html-slider-response,437,2599082,0.0-24.0-0.0-0.9,21283,List2B,white,man,,,,,,,,survey_gender,98,,,I am glad to be my gender.,glad
10389.9,,,html-slider-response,438,2609474,0.0-24.0-0.0-0.10,21283,List2B,white,man,,,,,,,,survey_gender,99,,,The fact that I am my gender is an important part of my identity.,identity
6085.4,,,html-slider-response,439,2615562,0.0-24.0-0.0-0.11,21283,List2B,white,man,,,,,,,,survey_gender,99,,,Being around my friends gives me a good feeling.,filler
6853.9,,,html-slider-response,440,2622418,0.0-24.0-0.0-0.12,21283,List2B,white,man,,,,,,,,survey_gender,95,,,I consider myself a highly empathetic person.,filler
4773.8,,,html-slider-response,441,2627193,0.0-24.0-0.0-0.13,21283,List2B,white,man,,,,,,,,survey_gender,93,,,Most of the friends in my life are very similar to me.,filler
3374.2,,,html-slider-response,442,2630569,0.0-24.0-0.0-0.14,21283,List2B,white,man,,,,,,,,survey_gender,100,,,My friends have a lot in common with each other.,filler
4222.2,,,html-slider-response,443,2634793,0.0-24.0-0.0-0.15,21283,List2B,white,man,,,,,,,,survey_gender,93,,,I have a lot in common with my friends.,filler
3350.1,,,html-slider-response,444,2638145,0.0-24.0-0.0-0.16,21283,List2B,white,man,,,,,,,,survey_gender,85,,,I feel solidarity with my gender.,solidarity
4462.1,,,html-slider-response,445,2642609,0.0-24.0-0.0-0.17,21283,List2B,white,man,,,,,,,,survey_gender,97,,,It is not always easy for people to know what I am thinking.,filler
7782.2,,,html-slider-response,446,2650394,0.0-24.0-0.0-0.18,21283,List2B,white,man,,,,,,,,survey_gender,37,,,I would say I am an animal person.,filler
9237.6,,,html-slider-response,447,2659634,0.0-24.0-0.0-0.19,21283,List2B,white,man,,,,,,,,survey_gender,11,,,Family is not more important to me than friendship.,filler
5037.9,,,html-slider-response,448,2664674,0.0-24.0-0.0-0.20,21283,List2B,white,man,,,,,,,,survey_gender,100,,,I often think about the fact that I am my gender.,often
4045.8,,,html-slider-response,449,2668722,0.0-24.0-0.0-0.21,21283,List2B,white,man,,,,,,,,survey_gender,70,,,I often think about my actions.,filler
8741.8,,,html-slider-response,450,2677465,0.0-24.0-0.0-0.22,21283,List2B,white,man,,,,,,,,survey_gender,89,,,I am similar to the average person of my gender.,similar
5133.8,,,html-slider-response,451,2682601,0.0-24.0-0.0-0.23,21283,List2B,white,man,,,,,,,,survey_gender,100,,,Being my gender is an important part of how I see myself.,important
7190.1,,,html-slider-response,452,2689793,0.0-24.0-0.0-0.24,21283,List2B,white,man,,,,,,,,survey_gender,85,,,I feel a bond with my gender.,bond
2214.2,,,html-slider-response,453,2692009,0.0-24.0-0.0-0.25,21283,List2B,white,man,,,,,,,,survey_gender,83,,,I feel a bond with my friends.,filler
3670.5,,,html-slider-response,454,2695681,0.0-24.0-0.0-0.26,21283,List2B,white,man,,,,,,,,survey_gender,91,,,I think that my gender has a lot to be proud of.,proud
2318.2,,,html-slider-response,455,2698001,0.0-24.0-0.0-0.27,21283,List2B,white,man,,,,,,,,survey_gender,97,,,I feel committed to my gender.,committed
3638.7,,,html-slider-response,456,2701641,0.0-24.0-1.0-0.0,21283,List2B,white,man,,,,,,,,survey_race,88,,,People of my race have a lot in common with each other.,common
68045.5,,,html-slider-response,457,2769688,0.0-24.0-1.0-0.1,21283,List2B,white,man,,,,,,,,survey_race,68,,,I often think about the fact that I am my race.,often
3613.9,,,html-slider-response,458,2773304,0.0-24.0-1.0-0.2,21283,List2B,white,man,,,,,,,,survey_race,82,,,People my age have a lot in common with each other.,filler
2822.6,,,html-slider-response,459,2776128,0.0-24.0-1.0-0.3,21283,List2B,white,man,,,,,,,,survey_race,88,,,I am glad to be my race.,glad
2870,,,html-slider-response,460,2779000,0.0-24.0-1.0-0.4,21283,List2B,white,man,,,,,,,,survey_race,92,,,Being my race is an important part of how I see myself.,important
2718.5,,,html-slider-response,461,2781720,0.0-24.0-1.0-0.5,21283,List2B,white,man,,,,,,,,survey_race,96,,,Being my age gives me a good feeling.,filler
1717.9,,,html-slider-response,462,2783440,0.0-24.0-1.0-0.6,21283,List2B,white,man,,,,,,,,survey_race,95,,,Being my race gives me a good feeling.,feeling
2686.8,,,html-slider-response,463,2786128,0.0-24.0-1.0-0.7,21283,List2B,white,man,,,,,,,,survey_race,90,,,I feel a bond with people the same age as me.,filler
2245.9,,,html-slider-response,464,2788376,0.0-24.0-1.0-0.8,21283,List2B,white,man,,,,,,,,survey_race,89,,,I feel solidarity with people the same age as me.,filler
2558.5,,,html-slider-response,465,2790936,0.0-24.0-1.0-0.9,21283,List2B,white,man,,,,,,,,survey_race,97,,,My age is not an important part of who I am.,filler
6878.7,,,html-slider-response,466,2797816,0.0-24.0-1.0-0.10,21283,List2B,white,man,,,,,,,,survey_race,76,,,I often think about the fact that I am my age.,filler
2013.8,,,html-slider-response,467,2799832,0.0-24.0-1.0-0.11,21283,List2B,white,man,,,,,,,,survey_race,86,,,I feel solidarity with my race.,solidarity
2622.6,,,html-slider-response,468,2802456,0.0-24.0-1.0-0.12,21283,List2B,white,man,,,,,,,,survey_race,89,,,I feel committed to my race.,committed
6854.7,,,html-slider-response,469,2809312,0.0-24.0-1.0-0.13,21283,List2B,white,man,,,,,,,,survey_race,92,,,The fact that I am my race is an important part of my identity.,identity
5461.9,,,html-slider-response,470,2814776,0.0-24.0-1.0-0.14,21283,List2B,white,man,,,,,,,,survey_race,79,,,I am glad to be the age I am.,filler
4606,,,html-slider-response,471,2819384,0.0-24.0-1.0-0.15,21283,List2B,white,man,,,,,,,,survey_race,60,,,I consider myself an extrovert.,filler
4318,,,html-slider-response,472,2823704,0.0-24.0-1.0-0.16,21283,List2B,white,man,,,,,,,,survey_race,65,,,I think that my race has a lot to be proud of.,proud
2766.1,,,html-slider-response,473,2826472,0.0-24.0-1.0-0.17,21283,List2B,white,man,,,,,,,,survey_race,81,,,I have a lot in common with the average person of my race.,average
2438.1,,,html-slider-response,474,2828913,0.0-24.0-1.0-0.18,21283,List2B,white,man,,,,,,,,survey_race,80,,,I am glad to be my age.,filler
3390.5,,,html-slider-response,475,2832305,0.0-24.0-1.0-0.19,21283,List2B,white,man,,,,,,,,survey_race,77,,,I am similar to the average person of my race.,similar
2598.1,,,html-slider-response,476,2834905,0.0-24.0-1.0-0.20,21283,List2B,white,man,,,,,,,,survey_race,84,,,I have a lot in common with people of a similar age to me.,filler
3694.3,,,html-slider-response,477,2838601,0.0-24.0-1.0-0.21,21283,List2B,white,man,,,,,,,,survey_race,0,,,I consider myself an introvert.,filler
2454.2,,,html-slider-response,478,2841057,0.0-24.0-1.0-0.22,21283,List2B,white,man,,,,,,,,survey_race,80,,,People of my race are very similar to each other.,verysimilar
4254.7,,,html-slider-response,479,2845313,0.0-24.0-1.0-0.23,21283,List2B,white,man,,,,,,,,survey_race,76,,,I enjoy being in large groups.,filler
3510,,,html-slider-response,480,2848825,0.0-24.0-1.0-0.24,21283,List2B,white,man,,,,,,,,survey_race,90,,,"The older I get, the wiser I feel.",filler
8645.6,,,html-slider-response,481,2857472,0.0-24.0-1.0-0.25,21283,List2B,white,man,,,,,,,,survey_race,54,,,Getting older does not worry me.,filler
2957.9,,,html-slider-response,482,2860433,0.0-24.0-1.0-0.26,21283,List2B,white,man,,,,,,,,survey_race,100,,,It is pleasant to be my race.,pleasant
3118.4,,,html-slider-response,483,2863552,0.0-24.0-1.0-0.27,21283,List2B,white,man,,,,,,,,survey_race,77,,,I feel a bond with my race.,bond
9685.9,,,survey-text,484,2873241,0.0-25.0,21283,List2B,white,man,,,,,"{""Q0"":""ccc""}",,,worker_id,,,,,
5805.3,,,external-html,485,2880777,0.0-26.0,21283,List2B,white,man,debrief.html,,,,,,,,,,,,
