"rt","stimulus","button_pressed","trial_type","trial_index","time_elapsed","internal_node_id","subject","list","ppt_race","ppt_gender","url","first_guess","correct","key_press","responses","image_type","phrase_type","test_part","response","stimulus1","stimulus2","question_type","survey_item"
"4018.5999999046326","Welcome to the experiment. Press Continue to begin.","0","html-button-response","0","4022","0.0-0.0","21702","List1A","white","man","","","","","","","","","","","","",""
"24519.399999976158","","","external-html","1","30238","0.0-1.0","21702","List1A","white","man","consent.html","","","","","","","","","","","",""
"42549.59999990463","<p>On the next page, you will see portraits of 8 people and their names.</p><p>Your first task is to take a few minutes to memorise the names of these people.</p><p>You will have to recall their names during the rest of the experiment, so it is</p><p>essential that you try to memorise these people and their names as best as you can.</p><br><p><strong>You will then be tested on your memory of these names and portraits.</strong></p><br><p>The experiment will start after you have completed this memory test.</p><br><p>Ready?</p>","0","html-button-response","2","72789","0.0-2.0","21702","List1A","white","man","","","","","","","","","","","","",""
"49724.60000002384","<img src='img/portrait_matrix_list1.jpg' style='width:900px;height:500px;''></img><p>If you have memorised all the portraits and names and are ready to start, press Continue.</p><p><strong>Please note: Your memory of these faces will be tested 4 times during this experiment.</strong></p>","0","html-button-response","3","123525","0.0-3.0-0.0","21702","List1A","white","man","","","","","","","","","","","","",""
"30755.899999976158","<img src=""portrait/BW2.jpg""style=""height:400px;""></img>","2","html-button-response","4","155294","0.0-3.0-1.0","21702","List1A","white","man","","true","2","","","","","","","","","",""
"null","CORRECT","","html-keyboard-response","5","156813","0.0-3.0-2.0-0.0","21702","List1A","white","man","","","","null","","","","","","","","",""
"11475.899999976158","<img src=""portrait/WM1.jpg""style=""height:400px;""></img>","6","html-button-response","6","168293","0.0-3.0-4.0","21702","List1A","white","man","","true","6","","","","","","","","","",""
"null","CORRECT","","html-keyboard-response","7","169815","0.0-3.0-5.0-0.0","21702","List1A","white","man","","","","null","","","","","","","","",""
"6259.399999976158","<img src=""portrait/BW1.jpg""style=""height:400px;""></img>","0","html-button-response","8","176077","0.0-3.0-7.0","21702","List1A","white","man","","true","0","","","","","","","","","",""
"null","CORRECT","","html-keyboard-response","9","177581","0.0-3.0-8.0-0.0","21702","List1A","white","man","","","","null","","","","","","","","",""
"7134.800000071526","<img src=""portrait/WW2.jpg""style=""height:400px;""></img>","3","html-button-response","10","184717","0.0-3.0-10.0","21702","List1A","white","man","","true","3","","","","","","","","","",""
"null","CORRECT","","html-keyboard-response","11","186241","0.0-3.0-11.0-0.0","21702","List1A","white","man","","","","null","","","","","","","","",""
"5634.200000047684","<img src=""portrait/WW1.jpg""style=""height:400px;""></img>","1","html-button-response","12","191877","0.0-3.0-13.0","21702","List1A","white","man","","true","1","","","","","","","","","",""
"null","CORRECT","","html-keyboard-response","13","193396","0.0-3.0-14.0-0.0","21702","List1A","white","man","","","","null","","","","","","","","",""
"6991.100000023842","<img src=""portrait/BM1.jpg""style=""height:400px;""></img>","4","html-button-response","14","200389","0.0-3.0-16.0","21702","List1A","white","man","","true","4","","","","","","","","","",""
"null","CORRECT","","html-keyboard-response","15","201911","0.0-3.0-17.0-0.0","21702","List1A","white","man","","","","null","","","","","","","","",""
"9788.200000047684","<img src=""portrait/BM2.jpg""style=""height:400px;""></img>","5","html-button-response","16","211701","0.0-3.0-19.0","21702","List1A","white","man","","true","5","","","","","","","","","",""
"null","CORRECT","","html-keyboard-response","17","213219","0.0-3.0-20.0-0.0","21702","List1A","white","man","","","","null","","","","","","","","",""
"6168.100000023842","<img src=""portrait/WM2.jpg""style=""height:400px;""></img>","7","html-button-response","18","219389","0.0-3.0-22.0","21702","List1A","white","man","","true","7","","","","","","","","","",""
"null","CORRECT","","html-keyboard-response","19","220893","0.0-3.0-23.0-0.0","21702","List1A","white","man","","","","null","","","","","","","","",""
"5332.899999976158","<p>You got 8 out of 8 right first time. Press Continue.</p>","0","html-button-response","20","226229","0.0-3.0-25.0","21702","List1A","white","man","","","","","","","","","","","","",""
"25071.399999976158","<p>In this experiment, you will view photographs of the people from the memory game interacting.</p><p>By using the <strong>exact</strong> phrase given <i>after</i> the photograph appears and recalling the correct names of the people in the photographs, form a sentence describing the interaction. You do not need to capitalise names.</p><p>Type your answer in the space provided. Please complete every sentence before moving onto the next trial.</p><p>You will only have a few seconds to memorise each given photograph and phrase before you can respond, so try your best to focus.</p><p>An example is given below. Press 'Continue' when you are ready.</p><img src='img/speaking_example.jpg' style='width:800px;height:460px;''></img>","0","html-button-response","21","252309","0.0-4.0","21702","List1A","white","man","","","","","","","","","","","","",""
"2397.7000000476837","<p>Before the experiment starts, you will watch two example trials. Press 'Continue'.</p>","0","html-button-response","22","255709","0.0-5.0","21702","List1A","white","man","","","","","","","","","","","","",""
"null","<img src='img/play_eg.gif' style='height:400px;''></img>","","html-keyboard-response","23","258716","0.0-6.0","21702","List1A","white","man","","","","null","","","","","","","","",""
"null","<p>is playing with</p>","","html-keyboard-response","24","260718","0.0-7.0","21702","List1A","white","man","","","","null","","","","","","","","",""
"3381.4000000953674","<p><b>Answer:</b> kate is playing with beth</p>","0","html-button-response","25","264101","0.0-8.0","21702","List1A","white","man","","","","","","","","","","","","",""
"null","<img src='img/dance_eg.gif' style='height:400px;''></img>","","html-keyboard-response","26","267123","0.0-9.0","21702","List1A","white","man","","","","null","","","","","","","","",""
"null","<p>is being entertained by</p>","","html-keyboard-response","27","269126","0.0-10.0","21702","List1A","white","man","","","","null","","","","","","","","",""
"30150.399999976158","<p><b>Answer:</b> luke is being entertained by dave</p>","0","html-button-response","28","299278","0.0-11.0","21702","List1A","white","man","","","","","","","","","","","","",""
"2629.899999976158","<p>Ready to start the experiment?</p><br><p><strong>Remember to describe the picture using a full sentence,</strong></p><p><strong>that combines the names of the people with the <i>exact</i> phrase given.</strong></p><p><strong>To receive full payment you must do this correctly.</strong></p><p><strong> You do not need to capitalise names or use punctuation.</strong></p><br><p>Press 'Continue' to begin.</p>","0","html-button-response","29","302910","0.0-12.0","21702","List1A","white","man","","","","","","","","","","","","",""
"null","<div style=""font-size:60px;"">+</div>","","html-keyboard-response","30","304419","0.0-13.0-0.0","21702","List1A","white","man","","","","null","","","","","","","","",""
"null","<img src=""stim_listA/challenge6.gif""style=""height:400px;""></stim_listA>","","html-keyboard-response","31","306428","0.0-13.0-1.0","21702","List1A","white","man","","","","null","","","","","","","","",""
"null","is being challenged by","","html-keyboard-response","32","308429","0.0-13.0-2.0","21702","List1A","white","man","","","","null","","","","","","","","",""
"118315","","","survey-text","33","426750","0.0-13.0-3.0","21702","List1A","white","man","","","","","{""Q0"":""luke is being entertained by dave""}","<img src=""stim_listA/challenge6.gif""style=""height:400px;""></stim_listA>","is being challenged by","","","","","",""
"null","<div style=""font-size:60px;"">+</div>","","html-keyboard-response","34","427252","0.0-13.0-0.1","21702","List1A","white","man","","","","null","","","","","","","","",""
"null","<img src=""stim_listA/look4.gif""style=""height:400px;""></stim_listA>","","html-keyboard-response","35","429254","0.0-13.0-1.1","21702","List1A","white","man","","","","null","","","","","","","","",""
"null","is being looked at by","","html-keyboard-response","36","431266","0.0-13.0-2.1","21702","List1A","white","man","","","","null","","","","","","","","",""
"102289.79999995232","","","survey-text","37","533557","0.0-13.0-3.1","21702","List1A","white","man","","","","","{""Q0"":""jane is being entertained by dave""}","<img src=""stim_listA/look4.gif""style=""height:400px;""></stim_listA>","is being looked at by","","","","","",""
"null","<div style=""font-size:60px;"">+</div>","","html-keyboard-response","38","534073","0.0-13.0-0.2","21702","List1A","white","man","","","","null","","","","","","","","",""
"null","<img src=""stim_listA/touch7.gif""style=""height:400px;""></stim_listA>","","html-keyboard-response","39","536076","0.0-13.0-1.2","21702","List1A","white","man","","","","null","","","","","","","","",""
"null","is touching","","html-keyboard-response","40","538082","0.0-13.0-2.2","21702","List1A","white","man","","","","null","","","","","","","","",""
"39207.89999997616","","","survey-text","41","577293","0.0-13.0-3.2","21702","List1A","white","man","","","","","{""Q0"":""jane is being entertained by kate is touching""}","<img src=""stim_listA/touch7.gif""style=""height:400px;""></stim_listA>","is touching","","","","","",""
"null","<div style=""font-size:60px;"">+</div>","","html-keyboard-response","42","577797","0.0-13.0-0.3","21702","List1A","white","man","","","","null","","","","","","","","",""
"null","<img src=""stim_listA/oppose1.gif""style=""height:400px;""></stim_listA>","","html-keyboard-response","43","579817","0.0-13.0-1.3","21702","List1A","white","man","","","","null","","","","","","","","",""
"null","is opposing","","html-keyboard-response","44","581822","0.0-13.0-2.3","21702","List1A","white","man","","","","null","","","","","","","","",""
"21836.100000023842","","","survey-text","45","603661","0.0-13.0-3.3","21702","List1A","white","man","","","","","{""Q0"":""jane is being entertained by kate is opposing""}","<img src=""stim_listA/oppose1.gif""style=""height:400px;""></stim_listA>","is opposing","","","","","",""
"null","<div style=""font-size:60px;"">+</div>","","html-keyboard-response","46","604173","0.0-13.0-0.4","21702","List1A","white","man","","","","null","","","","","","","","",""
"null","<img src=""stim_listA/shout7.gif""style=""height:400px;""></stim_listA>","","html-keyboard-response","47","606191","0.0-13.0-1.4","21702","List1A","white","man","","","","null","","","","","","","","",""
"null","is shouting at","","html-keyboard-response","48","608195","0.0-13.0-2.4","21702","List1A","white","man","","","","null","","","","","","","","",""
"14998.200000047684","","","survey-text","49","623197","0.0-13.0-3.4","21702","List1A","white","man","","","","","{""Q0"":""is shouting at""}","<img src=""stim_listA/shout7.gif""style=""height:400px;""></stim_listA>","is shouting at","","","","","",""
"null","<div style=""font-size:60px;"">+</div>","","html-keyboard-response","50","623714","0.0-13.0-0.5","21702","List1A","white","man","","","","null","","","","","","","","",""
"null","<img src=""stim_listA/look6.gif""style=""height:400px;""></stim_listA>","","html-keyboard-response","51","625719","0.0-13.0-1.5","21702","List1A","white","man","","","","null","","","","","","","","",""
"null","is being looked at by","","html-keyboard-response","52","627726","0.0-13.0-2.5","21702","List1A","white","man","","","","null","","","","","","","","",""
"22203.5","","","survey-text","53","649934","0.0-13.0-3.5","21702","List1A","white","man","","","","","{""Q0"":""is being looked at by""}","<img src=""stim_listA/look6.gif""style=""height:400px;""></stim_listA>","is being looked at by","","","","","",""
"null","<div style=""font-size:60px;"">+</div>","","html-keyboard-response","54","650449","0.0-13.0-0.6","21702","List1A","white","man","","","","null","","","","","","","","",""
"null","<img src=""stim_listA/hug7.gif""style=""height:400px;""></stim_listA>","","html-keyboard-response","55","652455","0.0-13.0-1.6","21702","List1A","white","man","","","","null","","","","","","","","",""
"null","is hugging","","html-keyboard-response","56","654462","0.0-13.0-2.6","21702","List1A","white","man","","","","null","","","","","","","","",""
"27211.600000023842","","","survey-text","57","681677","0.0-13.0-3.6","21702","List1A","white","man","","","","","{""Q0"":""is hugging""}","<img src=""stim_listA/hug7.gif""style=""height:400px;""></stim_listA>","is hugging","","","","","",""
"null","<div style=""font-size:60px;"">+</div>","","html-keyboard-response","58","682190","0.0-13.0-0.7","21702","List1A","white","man","","","","null","","","","","","","","",""
"null","<img src=""stim_listA/shout3.gif""style=""height:400px;""></stim_listA>","","html-keyboard-response","59","684194","0.0-13.0-1.7","21702","List1A","white","man","","","","null","","","","","","","","",""
"null","is shouting at","","html-keyboard-response","60","686200","0.0-13.0-2.7","21702","List1A","white","man","","","","null","","","","","","","","",""
"27921.699999928474","","","survey-text","61","714127","0.0-13.0-3.7","21702","List1A","white","man","","","","","{""Q0"":""is shotting at""}","<img src=""stim_listA/shout3.gif""style=""height:400px;""></stim_listA>","is shouting at","","","","","",""
"null","<div style=""font-size:60px;"">+</div>","","html-keyboard-response","62","714629","0.0-13.0-0.8","21702","List1A","white","man","","","","null","","","","","","","","",""
"null","<img src=""stim_listA/touch4.gif""style=""height:400px;""></stim_listA>","","html-keyboard-response","63","716633","0.0-13.0-1.8","21702","List1A","white","man","","","","null","","","","","","","","",""
"null","is being touched by","","html-keyboard-response","64","718640","0.0-13.0-2.8","21702","List1A","white","man","","","","null","","","","","","","","",""
"81833.89999997616","","","survey-text","65","800478","0.0-13.0-3.8","21702","List1A","white","man","","","","","{""Q0"":""is being tuched by""}","<img src=""stim_listA/touch4.gif""style=""height:400px;""></stim_listA>","is being touched by","","","","","",""
"null","<div style=""font-size:60px;"">+</div>","","html-keyboard-response","66","800993","0.0-13.0-0.9","21702","List1A","white","man","","","","null","","","","","","","","",""
"null","<img src=""stim_listA/hug5.gif""style=""height:400px;""></stim_listA>","","html-keyboard-response","67","803011","0.0-13.0-1.9","21702","List1A","white","man","","","","null","","","","","","","","",""
"null","is hugging","","html-keyboard-response","68","805032","0.0-13.0-2.9","21702","List1A","white","man","","","","null","","","","","","","","",""
"11706.899999976158","","","survey-text","69","816742","0.0-13.0-3.9","21702","List1A","white","man","","","","","{""Q0"":""is hugging""}","<img src=""stim_listA/hug5.gif""style=""height:400px;""></stim_listA>","is hugging","","","","","",""
"null","<div style=""font-size:60px;"">+</div>","","html-keyboard-response","70","817245","0.0-13.0-0.10","21702","List1A","white","man","","","","null","","","","","","","","",""
"null","<img src=""stim_listA/kiss1.gif""style=""height:400px;""></stim_listA>","","html-keyboard-response","71","819265","0.0-13.0-1.10","21702","List1A","white","man","","","","null","","","","","","","","",""
"null","is kissing","","html-keyboard-response","72","821270","0.0-13.0-2.10","21702","List1A","white","man","","","","null","","","","","","","","",""
"11267.899999976158","","","survey-text","73","832542","0.0-13.0-3.10","21702","List1A","white","man","","","","","{""Q0"":""is kissing""}","<img src=""stim_listA/kiss1.gif""style=""height:400px;""></stim_listA>","is kissing","","","","","",""
"null","<div style=""font-size:60px;"">+</div>","","html-keyboard-response","74","833050","0.0-13.0-0.11","21702","List1A","white","man","","","","null","","","","","","","","",""
"null","<img src=""stim_listA/shout5.gif""style=""height:400px;""></stim_listA>","","html-keyboard-response","75","835054","0.0-13.0-1.11","21702","List1A","white","man","","","","null","","","","","","","","",""
"null","is shouting at","","html-keyboard-response","76","837059","0.0-13.0-2.11","21702","List1A","white","man","","","","null","","","","","","","","",""
"16047.600000023842","","","survey-text","77","853110","0.0-13.0-3.11","21702","List1A","white","man","","","","","{""Q0"":""is shouting""}","<img src=""stim_listA/shout5.gif""style=""height:400px;""></stim_listA>","is shouting at","","","","","",""
"null","<div style=""font-size:60px;"">+</div>","","html-keyboard-response","78","853613","0.0-13.0-0.12","21702","List1A","white","man","","","","null","","","","","","","","",""
"null","<img src=""stim_listA/oppose5.gif""style=""height:400px;""></stim_listA>","","html-keyboard-response","79","855618","0.0-13.0-1.12","21702","List1A","white","man","","","","null","","","","","","","","",""
"null","is opposing","","html-keyboard-response","80","857623","0.0-13.0-2.12","21702","List1A","white","man","","","","null","","","","","","","","",""
"27480.600000023842","","","survey-text","81","885110","0.0-13.0-3.12","21702","List1A","white","man","","","","","{""Q0"":""is opposing""}","<img src=""stim_listA/oppose5.gif""style=""height:400px;""></stim_listA>","is opposing","","","","","",""
"null","<div style=""font-size:60px;"">+</div>","","html-keyboard-response","82","885618","0.0-13.0-0.13","21702","List1A","white","man","","","","null","","","","","","","","",""
"null","<img src=""stim_listA/touch3.gif""style=""height:400px;""></stim_listA>","","html-keyboard-response","83","887623","0.0-13.0-1.13","21702","List1A","white","man","","","","null","","","","","","","","",""
"null","is touching","","html-keyboard-response","84","889629","0.0-13.0-2.13","21702","List1A","white","man","","","","null","","","","","","","","",""
"14125.700000047684","","","survey-text","85","903757","0.0-13.0-3.13","21702","List1A","white","man","","","","","{""Q0"":""is touching""}","<img src=""stim_listA/touch3.gif""style=""height:400px;""></stim_listA>","is touching","","","","","",""
"null","<div style=""font-size:60px;"">+</div>","","html-keyboard-response","86","904260","0.0-13.0-0.14","21702","List1A","white","man","","","","null","","","","","","","","",""
"null","<img src=""stim_listA/look1.gif""style=""height:400px;""></stim_listA>","","html-keyboard-response","87","906265","0.0-13.0-1.14","21702","List1A","white","man","","","","null","","","","","","","","",""
"null","is looking at","","html-keyboard-response","88","908270","0.0-13.0-2.14","21702","List1A","white","man","","","","null","","","","","","","","",""
"18083.799999952316","","","survey-text","89","926357","0.0-13.0-3.14","21702","List1A","white","man","","","","","{""Q0"":""kissing""}","<img src=""stim_listA/look1.gif""style=""height:400px;""></stim_listA>","is looking at","","","","","",""
"null","<div style=""font-size:60px;"">+</div>","","html-keyboard-response","90","926865","0.0-13.0-0.15","21702","List1A","white","man","","","","null","","","","","","","","",""
"null","<img src=""stim_listA/challenge4.gif""style=""height:400px;""></stim_listA>","","html-keyboard-response","91","928884","0.0-13.0-1.15","21702","List1A","white","man","","","","null","","","","","","","","",""
"null","is being challenged by","","html-keyboard-response","92","930889","0.0-13.0-2.15","21702","List1A","white","man","","","","null","","","","","","","","",""
"46236.60000002384","","","survey-text","93","977134","0.0-13.0-3.15","21702","List1A","white","man","","","","","{""Q0"":""is being challengedby""}","<img src=""stim_listA/challenge4.gif""style=""height:400px;""></stim_listA>","is being challenged by","","","","","",""
"null","<div style=""font-size:60px;"">+</div>","","html-keyboard-response","94","977642","0.0-13.0-0.16","21702","List1A","white","man","","","","null","","","","","","","","",""
"null","<img src=""stim_listA/seduce2.gif""style=""height:400px;""></stim_listA>","","html-keyboard-response","95","979646","0.0-13.0-1.16","21702","List1A","white","man","","","","null","","","","","","","","",""
"null","is being seduced by","","html-keyboard-response","96","981651","0.0-13.0-2.16","21702","List1A","white","man","","","","null","","","","","","","","",""
"23485.300000071526","","","survey-text","97","1005142","0.0-13.0-3.16","21702","List1A","white","man","","","","","{""Q0"":""is being seduced by""}","<img src=""stim_listA/seduce2.gif""style=""height:400px;""></stim_listA>","is being seduced by","","","","","",""
"null","<div style=""font-size:60px;"">+</div>","","html-keyboard-response","98","1005659","0.0-13.0-0.17","21702","List1A","white","man","","","","null","","","","","","","","",""
"null","<img src=""stim_listA/kiss6.gif""style=""height:400px;""></stim_listA>","","html-keyboard-response","99","1007664","0.0-13.0-1.17","21702","List1A","white","man","","","","null","","","","","","","","",""
"null","is being kissed by","","html-keyboard-response","100","1009669","0.0-13.0-2.17","21702","List1A","white","man","","","","null","","","","","","","","",""
"19755.100000023842","","","survey-text","101","1029430","0.0-13.0-3.17","21702","List1A","white","man","","","","","{""Q0"":""is being kissed by""}","<img src=""stim_listA/kiss6.gif""style=""height:400px;""></stim_listA>","is being kissed by","","","","","",""
"null","<div style=""font-size:60px;"">+</div>","","html-keyboard-response","102","1029944","0.0-13.0-0.18","21702","List1A","white","man","","","","null","","","","","","","","",""
"null","<img src=""stim_listA/kiss3.gif""style=""height:400px;""></stim_listA>","","html-keyboard-response","103","1031950","0.0-13.0-1.18","21702","List1A","white","man","","","","null","","","","","","","","",""
"null","is kissing","","html-keyboard-response","104","1033955","0.0-13.0-2.18","21702","List1A","white","man","","","","null","","","","","","","","",""
"6038.400000095367","","","survey-text","105","1039998","0.0-13.0-3.18","21702","List1A","white","man","","","","","{""Q0"":""is kissing""}","<img src=""stim_listA/kiss3.gif""style=""height:400px;""></stim_listA>","is kissing","","","","","",""
"null","<div style=""font-size:60px;"">+</div>","","html-keyboard-response","106","1040501","0.0-13.0-0.19","21702","List1A","white","man","","","","null","","","","","","","","",""
"null","<img src=""stim_listA/challenge8.gif""style=""height:400px;""></stim_listA>","","html-keyboard-response","107","1042506","0.0-13.0-1.19","21702","List1A","white","man","","","","null","","","","","","","","",""
"null","is being challenged by","","html-keyboard-response","108","1044513","0.0-13.0-2.19","21702","List1A","white","man","","","","null","","","","","","","","",""
"26210.100000023842","","","survey-text","109","1070726","0.0-13.0-3.19","21702","List1A","white","man","","","","","{""Q0"":""is being challenged by""}","<img src=""stim_listA/challenge8.gif""style=""height:400px;""></stim_listA>","is being challenged by","","","","","",""
"21150.200000047684","<img src='img/portrait_matrix_list1.jpg' style='width:900px;height:500px;''></img><p>If you have memorised all the portraits and names and are ready to start, press Continue.</p><p><strong>Please note: Your memory of these faces will be tested 4 times during this experiment.</strong></p>","0","html-button-response","110","1091878","0.0-14.0-0.0","21702","List1A","white","man","","","","","","","","","","","","",""
"9926.600000023842","<img src=""portrait/BW1.jpg""style=""height:400px;""></img>","0","html-button-response","111","1102814","0.0-14.0-1.0","21702","List1A","white","man","","true","0","","","","","","","","","",""
"null","CORRECT","","html-keyboard-response","112","1104317","0.0-14.0-2.0-0.0","21702","List1A","white","man","","","","null","","","","","","","","",""
"3181.2999999523163","<img src=""portrait/BM2.jpg""style=""height:400px;""></img>","5","html-button-response","113","1107502","0.0-14.0-4.0","21702","List1A","white","man","","true","5","","","","","","","","","",""
"null","CORRECT","","html-keyboard-response","114","1109011","0.0-14.0-5.0-0.0","21702","List1A","white","man","","","","null","","","","","","","","",""
"7560.200000047684","<img src=""portrait/WW1.jpg""style=""height:400px;""></img>","1","html-button-response","115","1116575","0.0-14.0-7.0","21702","List1A","white","man","","true","1","","","","","","","","","",""
"null","CORRECT","","html-keyboard-response","116","1118101","0.0-14.0-8.0-0.0","21702","List1A","white","man","","","","null","","","","","","","","",""
"3702.600000023842","<img src=""portrait/BW2.jpg""style=""height:400px;""></img>","2","html-button-response","117","1121806","0.0-14.0-10.0","21702","List1A","white","man","","true","2","","","","","","","","","",""
"null","CORRECT","","html-keyboard-response","118","1123332","0.0-14.0-11.0-0.0","21702","List1A","white","man","","","","null","","","","","","","","",""
"6037.700000047684","<img src=""portrait/WW2.jpg""style=""height:400px;""></img>","3","html-button-response","119","1129374","0.0-14.0-13.0","21702","List1A","white","man","","true","3","","","","","","","","","",""
"null","CORRECT","","html-keyboard-response","120","1130898","0.0-14.0-14.0-0.0","21702","List1A","white","man","","","","null","","","","","","","","",""
"5554.100000023842","<img src=""portrait/WM1.jpg""style=""height:400px;""></img>","5","html-button-response","121","1136454","0.0-14.0-16.0","21702","List1A","white","man","","true","6","","","","","","","","","",""
"3911.5","<img src=""portrait/WM1.jpg""style=""height:400px;""></img>","6","html-button-response","122","1141374","0.0-14.0-18.0-0.0","21702","List1A","white","man","","false","6","","","","","","","","","",""
"null","CORRECT","","html-keyboard-response","123","1142909","0.0-14.0-18.0-1.0-0.0","21702","List1A","white","man","","","","null","","","","","","","","",""
"4366.399999976158","<img src=""portrait/BM1.jpg""style=""height:400px;""></img>","4","html-button-response","124","1147278","0.0-14.0-19.0","21702","List1A","white","man","","true","4","","","","","","","","","",""
"null","CORRECT","","html-keyboard-response","125","1148784","0.0-14.0-20.0-0.0","21702","List1A","white","man","","","","null","","","","","","","","",""
"3834.600000023842","<img src=""portrait/WM2.jpg""style=""height:400px;""></img>","7","html-button-response","126","1152622","0.0-14.0-22.0","21702","List1A","white","man","","true","7","","","","","","","","","",""
"null","CORRECT","","html-keyboard-response","127","1154147","0.0-14.0-23.0-0.0","21702","List1A","white","man","","","","null","","","","","","","","",""
"2575.2999999523163","<p>You got 7 out of 8 right first time. Press Continue.</p>","0","html-button-response","128","1156726","0.0-14.0-25.0","21702","List1A","white","man","","","","","","","","","","","","",""
"3165.5","As you did not score 100%, the memory game will repeat. Press Continue.","0","html-button-response","129","1160894","0.0-14.0-26.0-0.0","21702","List1A","white","man","","","","","","","","","","","","",""
"15116.600000023842","<img src='img/portrait_matrix_list1.jpg' style='width:900px;height:500px;''></img><p>If you have memorised all the portraits and names and are ready to start, press Continue.</p><p><strong>Please note: Your memory of these faces will be tested 4 times during this experiment.</strong></p>","0","html-button-response","130","1177014","0.0-14.1-0.1","21702","List1A","white","man","","","","","","","","","","","","",""
"5250.100000023842","<img src=""portrait/BW1.jpg""style=""height:400px;""></img>","0","html-button-response","131","1183270","0.0-14.1-1.1","21702","List1A","white","man","","true","0","","","","","","","","","",""
"null","CORRECT","","html-keyboard-response","132","1184799","0.0-14.1-2.1-0.1","21702","List1A","white","man","","","","null","","","","","","","","",""
"4188.899999976158","<img src=""portrait/BM2.jpg""style=""height:400px;""></img>","5","html-button-response","133","1188990","0.0-14.1-4.1","21702","List1A","white","man","","true","5","","","","","","","","","",""
"null","CORRECT","","html-keyboard-response","134","1190525","0.0-14.1-5.1-0.1","21702","List1A","white","man","","","","null","","","","","","","","",""
"5607.399999976158","<img src=""portrait/WW1.jpg""style=""height:400px;""></img>","1","html-button-response","135","1196134","0.0-14.1-7.1","21702","List1A","white","man","","true","1","","","","","","","","","",""
"null","CORRECT","","html-keyboard-response","136","1197643","0.0-14.1-8.1-0.1","21702","List1A","white","man","","","","null","","","","","","","","",""
"3688.600000023842","<img src=""portrait/BW2.jpg""style=""height:400px;""></img>","2","html-button-response","137","1201334","0.0-14.1-10.1","21702","List1A","white","man","","true","2","","","","","","","","","",""
"null","CORRECT","","html-keyboard-response","138","1202847","0.0-14.1-11.1-0.1","21702","List1A","white","man","","","","null","","","","","","","","",""
"3229.399999976158","<img src=""portrait/WW2.jpg""style=""height:400px;""></img>","3","html-button-response","139","1206078","0.0-14.1-13.1","21702","List1A","white","man","","true","3","","","","","","","","","",""
"null","CORRECT","","html-keyboard-response","140","1207605","0.0-14.1-14.1-0.1","21702","List1A","white","man","","","","null","","","","","","","","",""
"6134.299999952316","<img src=""portrait/WM1.jpg""style=""height:400px;""></img>","6","html-button-response","141","1213742","0.0-14.1-16.1","21702","List1A","white","man","","true","6","","","","","","","","","",""
"null","CORRECT","","html-keyboard-response","142","1215274","0.0-14.1-17.1-0.1","21702","List1A","white","man","","","","null","","","","","","","","",""
"3946.3000000715256","<img src=""portrait/BM1.jpg""style=""height:400px;""></img>","4","html-button-response","143","1219222","0.0-14.1-19.1","21702","List1A","white","man","","true","4","","","","","","","","","",""
"null","CORRECT","","html-keyboard-response","144","1220734","0.0-14.1-20.1-0.1","21702","List1A","white","man","","","","null","","","","","","","","",""
"2854.600000023842","<img src=""portrait/WM2.jpg""style=""height:400px;""></img>","7","html-button-response","145","1223590","0.0-14.1-22.1","21702","List1A","white","man","","true","7","","","","","","","","","",""
"null","CORRECT","","html-keyboard-response","146","1225114","0.0-14.1-23.1-0.1","21702","List1A","white","man","","","","null","","","","","","","","",""
"2529.6999999284744","<p>You got 8 out of 8 right first time. Press Continue.</p>","0","html-button-response","147","1227646","0.0-14.1-25.1","21702","List1A","white","man","","","","","","","","","","","","",""
"null","<div style=""font-size:60px;"">+</div>","","html-keyboard-response","148","1229150","0.0-15.0-0.0","21702","List1A","white","man","","","","null","","","","","","","","",""
"null","<img src=""stim_listA/shout6.gif""style=""height:400px;""></stim_listA>","","html-keyboard-response","149","1231154","0.0-15.0-1.0","21702","List1A","white","man","","","","null","","","","","","","","",""
"null","is being shouted at by","","html-keyboard-response","150","1233159","0.0-15.0-2.0","21702","List1A","white","man","","","","null","","","","","","","","",""
"56976.60000002384","","","survey-text","151","1290142","0.0-15.0-3.0","21702","List1A","white","man","","","","","{""Q0"":""is being looking at by ""}","<img src=""stim_listA/shout6.gif""style=""height:400px;""></stim_listA>","is being shouted at by","","","","","",""
"null","<div style=""font-size:60px;"">+</div>","","html-keyboard-response","152","1290657","0.0-15.0-0.1","21702","List1A","white","man","","","","null","","","","","","","","",""
"null","<img src=""stim_listA/oppose6.gif""style=""height:400px;""></stim_listA>","","html-keyboard-response","153","1292661","0.0-15.0-1.1","21702","List1A","white","man","","","","null","","","","","","","","",""
"null","is being opposed by","","html-keyboard-response","154","1294667","0.0-15.0-2.1","21702","List1A","white","man","","","","null","","","","","","","","",""
"29799.100000023842","","","survey-text","155","1324470","0.0-15.0-3.1","21702","List1A","white","man","","","","","{""Q0"":""is being opposed by""}","<img src=""stim_listA/oppose6.gif""style=""height:400px;""></stim_listA>","is being opposed by","","","","","",""
"null","<div style=""font-size:60px;"">+</div>","","html-keyboard-response","156","1324979","0.0-15.0-0.2","21702","List1A","white","man","","","","null","","","","","","","","",""
"null","<img src=""stim_listA/copy4.gif""style=""height:400px;""></stim_listA>","","html-keyboard-response","157","1326984","0.0-15.0-1.2","21702","List1A","white","man","","","","null","","","","","","","","",""
"null","is being copied by","","html-keyboard-response","158","1328990","0.0-15.0-2.2","21702","List1A","white","man","","","","null","","","","","","","","",""
"17780.299999952316","","","survey-text","159","1346774","0.0-15.0-3.2","21702","List1A","white","man","","","","","{""Q0"":""is being copied by""}","<img src=""stim_listA/copy4.gif""style=""height:400px;""></stim_listA>","is being copied by","","","","","",""
"null","<div style=""font-size:60px;"">+</div>","","html-keyboard-response","160","1347280","0.0-15.0-0.3","21702","List1A","white","man","","","","null","","","","","","","","",""
"null","<img src=""stim_listA/copy5.gif""style=""height:400px;""></stim_listA>","","html-keyboard-response","161","1349293","0.0-15.0-1.3","21702","List1A","white","man","","","","null","","","","","","","","",""
"null","is copying","","html-keyboard-response","162","1351308","0.0-15.0-2.3","21702","List1A","white","man","","","","null","","","","","","","","",""
"11708.5","","","survey-text","163","1363022","0.0-15.0-3.3","21702","List1A","white","man","","","","","{""Q0"":""is copying""}","<img src=""stim_listA/copy5.gif""style=""height:400px;""></stim_listA>","is copying","","","","","",""
"null","<div style=""font-size:60px;"">+</div>","","html-keyboard-response","164","1363535","0.0-15.0-0.4","21702","List1A","white","man","","","","null","","","","","","","","",""
"null","<img src=""stim_listA/touch5.gif""style=""height:400px;""></stim_listA>","","html-keyboard-response","165","1365554","0.0-15.0-1.4","21702","List1A","white","man","","","","null","","","","","","","","",""
"null","is touching","","html-keyboard-response","166","1367559","0.0-15.0-2.4","21702","List1A","white","man","","","","null","","","","","","","","",""
"23171.399999976158","","","survey-text","167","1390734","0.0-15.0-3.4","21702","List1A","white","man","","","","","{""Q0"":""is touching""}","<img src=""stim_listA/touch5.gif""style=""height:400px;""></stim_listA>","is touching","","","","","",""
"null","<div style=""font-size:60px;"">+</div>","","html-keyboard-response","168","1391251","0.0-15.0-0.5","21702","List1A","white","man","","","","null","","","","","","","","",""
"null","<img src=""stim_listA/challenge2.gif""style=""height:400px;""></stim_listA>","","html-keyboard-response","169","1393257","0.0-15.0-1.5","21702","List1A","white","man","","","","null","","","","","","","","",""
"null","is being challenged by","","html-keyboard-response","170","1395263","0.0-15.0-2.5","21702","List1A","white","man","","","","null","","","","","","","","",""
"16690.299999952316","","","survey-text","171","1411958","0.0-15.0-3.5","21702","List1A","white","man","","","","","{""Q0"":""is being challenged by""}","<img src=""stim_listA/challenge2.gif""style=""height:400px;""></stim_listA>","is being challenged by","","","","","",""
"null","<div style=""font-size:60px;"">+</div>","","html-keyboard-response","172","1412475","0.0-15.0-0.6","21702","List1A","white","man","","","","null","","","","","","","","",""
"null","<img src=""stim_listA/oppose7.gif""style=""height:400px;""></stim_listA>","","html-keyboard-response","173","1414479","0.0-15.0-1.6","21702","List1A","white","man","","","","null","","","","","","","","",""
"null","is opposing","","html-keyboard-response","174","1416483","0.0-15.0-2.6","21702","List1A","white","man","","","","null","","","","","","","","",""
"9252","","","survey-text","175","1425742","0.0-15.0-3.6","21702","List1A","white","man","","","","","{""Q0"":""is opposing""}","<img src=""stim_listA/oppose7.gif""style=""height:400px;""></stim_listA>","is opposing","","","","","",""
"null","<div style=""font-size:60px;"">+</div>","","html-keyboard-response","176","1426245","0.0-15.0-0.7","21702","List1A","white","man","","","","null","","","","","","","","",""
"null","<img src=""stim_listA/challenge3.gif""style=""height:400px;""></stim_listA>","","html-keyboard-response","177","1428248","0.0-15.0-1.7","21702","List1A","white","man","","","","null","","","","","","","","",""
"null","is challenging","","html-keyboard-response","178","1430253","0.0-15.0-2.7","21702","List1A","white","man","","","","null","","","","","","","","",""
"21340.899999976158","","","survey-text","179","1451598","0.0-15.0-3.7","21702","List1A","white","man","","","","","{""Q0"":""is challenging""}","<img src=""stim_listA/challenge3.gif""style=""height:400px;""></stim_listA>","is challenging","","","","","",""
"null","<div style=""font-size:60px;"">+</div>","","html-keyboard-response","180","1452106","0.0-15.0-0.8","21702","List1A","white","man","","","","null","","","","","","","","",""
"null","<img src=""stim_listA/greet4.gif""style=""height:400px;""></stim_listA>","","html-keyboard-response","181","1454124","0.0-15.0-1.8","21702","List1A","white","man","","","","null","","","","","","","","",""
"null","is being greeted by","","html-keyboard-response","182","1456130","0.0-15.0-2.8","21702","List1A","white","man","","","","null","","","","","","","","",""
"17439.100000023842","","","survey-text","183","1473574","0.0-15.0-3.8","21702","List1A","white","man","","","","","{""Q0"":""is being greeted by""}","<img src=""stim_listA/greet4.gif""style=""height:400px;""></stim_listA>","is being greeted by","","","","","",""
"null","<div style=""font-size:60px;"">+</div>","","html-keyboard-response","184","1474086","0.0-15.0-0.9","21702","List1A","white","man","","","","null","","","","","","","","",""
"null","<img src=""stim_listA/look2.gif""style=""height:400px;""></stim_listA>","","html-keyboard-response","185","1476105","0.0-15.0-1.9","21702","List1A","white","man","","","","null","","","","","","","","",""
"null","is being looked at by","","html-keyboard-response","186","1478111","0.0-15.0-2.9","21702","List1A","white","man","","","","null","","","","","","","","",""
"36635.199999928474","","","survey-text","187","1514750","0.0-15.0-3.9","21702","List1A","white","man","","","","","{""Q0"":""is being looked at by""}","<img src=""stim_listA/look2.gif""style=""height:400px;""></stim_listA>","is being looked at by","","","","","",""
"null","<div style=""font-size:60px;"">+</div>","","html-keyboard-response","188","1515265","0.0-15.0-0.10","21702","List1A","white","man","","","","null","","","","","","","","",""
"null","<img src=""stim_listA/kiss4.gif""style=""height:400px;""></stim_listA>","","html-keyboard-response","189","1517271","0.0-15.0-1.10","21702","List1A","white","man","","","","null","","","","","","","","",""
"null","is being kissed by","","html-keyboard-response","190","1519275","0.0-15.0-2.10","21702","List1A","white","man","","","","null","","","","","","","","",""
"23820.799999952316","","","survey-text","191","1543103","0.0-15.0-3.10","21702","List1A","white","man","","","","","{""Q0"":""is being kissed by""}","<img src=""stim_listA/kiss4.gif""style=""height:400px;""></stim_listA>","is being kissed by","","","","","",""
"null","<div style=""font-size:60px;"">+</div>","","html-keyboard-response","192","1543618","0.0-15.0-0.11","21702","List1A","white","man","","","","null","","","","","","","","",""
"null","<img src=""stim_listA/challenge5.gif""style=""height:400px;""></stim_listA>","","html-keyboard-response","193","1545634","0.0-15.0-1.11","21702","List1A","white","man","","","","null","","","","","","","","",""
"null","is challenging","","html-keyboard-response","194","1547639","0.0-15.0-2.11","21702","List1A","white","man","","","","null","","","","","","","","",""
"15758.200000047684","","","survey-text","195","1563398","0.0-15.0-3.11","21702","List1A","white","man","","","","","{""Q0"":""is challenging""}","<img src=""stim_listA/challenge5.gif""style=""height:400px;""></stim_listA>","is challenging","","","","","",""
"null","<div style=""font-size:60px;"">+</div>","","html-keyboard-response","196","1563904","0.0-15.0-0.12","21702","List1A","white","man","","","","null","","","","","","","","",""
"null","<img src=""stim_listA/shout1.gif""style=""height:400px;""></stim_listA>","","html-keyboard-response","197","1565908","0.0-15.0-1.12","21702","List1A","white","man","","","","null","","","","","","","","",""
"null","is shouting at","","html-keyboard-response","198","1567914","0.0-15.0-2.12","21702","List1A","white","man","","","","null","","","","","","","","",""
"18423.400000095367","","","survey-text","199","1586342","0.0-15.0-3.12","21702","List1A","white","man","","","","","{""Q0"":""is challenging""}","<img src=""stim_listA/shout1.gif""style=""height:400px;""></stim_listA>","is shouting at","","","","","",""
"null","<div style=""font-size:60px;"">+</div>","","html-keyboard-response","200","1586859","0.0-15.0-0.13","21702","List1A","white","man","","","","null","","","","","","","","",""
"null","<img src=""stim_listA/look3.gif""style=""height:400px;""></stim_listA>","","html-keyboard-response","201","1588864","0.0-15.0-1.13","21702","List1A","white","man","","","","null","","","","","","","","",""
"null","is looking at","","html-keyboard-response","202","1590869","0.0-15.0-2.13","21702","List1A","white","man","","","","null","","","","","","","","",""
"9164.699999928474","","","survey-text","203","1600038","0.0-15.0-3.13","21702","List1A","white","man","","","","","{""Q0"":""is looking at""}","<img src=""stim_listA/look3.gif""style=""height:400px;""></stim_listA>","is looking at","","","","","",""
"null","<div style=""font-size:60px;"">+</div>","","html-keyboard-response","204","1600543","0.0-15.0-0.14","21702","List1A","white","man","","","","null","","","","","","","","",""
"null","<img src=""stim_listA/greet7.gif""style=""height:400px;""></stim_listA>","","html-keyboard-response","205","1602550","0.0-15.0-1.14","21702","List1A","white","man","","","","null","","","","","","","","",""
"null","is greeting","","html-keyboard-response","206","1604553","0.0-15.0-2.14","21702","List1A","white","man","","","","null","","","","","","","","",""
"15212","","","survey-text","207","1619774","0.0-15.0-3.14","21702","List1A","white","man","","","","","{""Q0"":""is greeting""}","<img src=""stim_listA/greet7.gif""style=""height:400px;""></stim_listA>","is greeting","","","","","",""
"null","<div style=""font-size:60px;"">+</div>","","html-keyboard-response","208","1620290","0.0-15.0-0.15","21702","List1A","white","man","","","","null","","","","","","","","",""
"null","<img src=""stim_listA/copy7.gif""style=""height:400px;""></stim_listA>","","html-keyboard-response","209","1622294","0.0-15.0-1.15","21702","List1A","white","man","","","","null","","","","","","","","",""
"null","is copying","","html-keyboard-response","210","1624299","0.0-15.0-2.15","21702","List1A","white","man","","","","null","","","","","","","","",""
"25670.5","","","survey-text","211","1649973","0.0-15.0-3.15","21702","List1A","white","man","","","","","{""Q0"":""is copying""}","<img src=""stim_listA/copy7.gif""style=""height:400px;""></stim_listA>","is copying","","","","","",""
"null","<div style=""font-size:60px;"">+</div>","","html-keyboard-response","212","1650477","0.0-15.0-0.16","21702","List1A","white","man","","","","null","","","","","","","","",""
"null","<img src=""stim_listA/hug3.gif""style=""height:400px;""></stim_listA>","","html-keyboard-response","213","1652481","0.0-15.0-1.16","21702","List1A","white","man","","","","null","","","","","","","","",""
"null","is hugging","","html-keyboard-response","214","1654486","0.0-15.0-2.16","21702","List1A","white","man","","","","null","","","","","","","","",""
"12283.600000023842","","","survey-text","215","1666774","0.0-15.0-3.16","21702","List1A","white","man","","","","","{""Q0"":""is hugging""}","<img src=""stim_listA/hug3.gif""style=""height:400px;""></stim_listA>","is hugging","","","","","",""
"null","<div style=""font-size:60px;"">+</div>","","html-keyboard-response","216","1667285","0.0-15.0-0.17","21702","List1A","white","man","","","","null","","","","","","","","",""
"null","<img src=""stim_listA/hug4.gif""style=""height:400px;""></stim_listA>","","html-keyboard-response","217","1669289","0.0-15.0-1.17","21702","List1A","white","man","","","","null","","","","","","","","",""
"null","is being hugged by","","html-keyboard-response","218","1671295","0.0-15.0-2.17","21702","List1A","white","man","","","","null","","","","","","","","",""
"18250.700000047684","","","survey-text","219","1689550","0.0-15.0-3.17","21702","List1A","white","man","","","","","{""Q0"":""is being hugged by""}","<img src=""stim_listA/hug4.gif""style=""height:400px;""></stim_listA>","is being hugged by","","","","","",""
"null","<div style=""font-size:60px;"">+</div>","","html-keyboard-response","220","1690055","0.0-15.0-0.18","21702","List1A","white","man","","","","null","","","","","","","","",""
"null","<img src=""stim_listA/look7.gif""style=""height:400px;""></stim_listA>","","html-keyboard-response","221","1692060","0.0-15.0-1.18","21702","List1A","white","man","","","","null","","","","","","","","",""
"null","is looking at","","html-keyboard-response","222","1694065","0.0-15.0-2.18","21702","List1A","white","man","","","","null","","","","","","","","",""
"14837.100000023842","","","survey-text","223","1708910","0.0-15.0-3.18","21702","List1A","white","man","","","","","{""Q0"":""is looking at""}","<img src=""stim_listA/look7.gif""style=""height:400px;""></stim_listA>","is looking at","","","","","",""
"null","<div style=""font-size:60px;"">+</div>","","html-keyboard-response","224","1709415","0.0-15.0-0.19","21702","List1A","white","man","","","","null","","","","","","","","",""
"null","<img src=""stim_listA/copy2.gif""style=""height:400px;""></stim_listA>","","html-keyboard-response","225","1711420","0.0-15.0-1.19","21702","List1A","white","man","","","","null","","","","","","","","",""
"null","is being copied by","","html-keyboard-response","226","1713424","0.0-15.0-2.19","21702","List1A","white","man","","","","null","","","","","","","","",""
"18834.100000023842","","","survey-text","227","1732262","0.0-15.0-3.19","21702","List1A","white","man","","","","","{""Q0"":""is being copied by""}","<img src=""stim_listA/copy2.gif""style=""height:400px;""></stim_listA>","is being copied by","","","","","",""
"13975","<img src='img/portrait_matrix_list1.jpg' style='width:900px;height:500px;''></img><p>If you have memorised all the portraits and names and are ready to start, press Continue.</p><p><strong>Please note: Your memory of these faces will be tested 4 times during this experiment.</strong></p>","0","html-button-response","228","1746237","0.0-16.0-0.0","21702","List1A","white","man","","","","","","","","","","","","",""
"6176.799999952316","<img src=""portrait/WW2.jpg""style=""height:400px;""></img>","3","html-button-response","229","1753422","0.0-16.0-1.0","21702","List1A","white","man","","true","3","","","","","","","","","",""
"null","CORRECT","","html-keyboard-response","230","1754947","0.0-16.0-2.0-0.0","21702","List1A","white","man","","","","null","","","","","","","","",""
"3439.5","<img src=""portrait/BW1.jpg""style=""height:400px;""></img>","0","html-button-response","231","1758390","0.0-16.0-4.0","21702","List1A","white","man","","true","0","","","","","","","","","",""
"null","CORRECT","","html-keyboard-response","232","1759897","0.0-16.0-5.0-0.0","21702","List1A","white","man","","","","null","","","","","","","","",""
"2761.399999976158","<img src=""portrait/WM1.jpg""style=""height:400px;""></img>","6","html-button-response","233","1762662","0.0-16.0-7.0","21702","List1A","white","man","","true","6","","","","","","","","","",""
"null","CORRECT","","html-keyboard-response","234","1764182","0.0-16.0-8.0-0.0","21702","List1A","white","man","","","","null","","","","","","","","",""
"3709.6999999284744","<img src=""portrait/BW2.jpg""style=""height:400px;""></img>","2","html-button-response","235","1767894","0.0-16.0-10.0","21702","List1A","white","man","","true","2","","","","","","","","","",""
"null","CORRECT","","html-keyboard-response","236","1769417","0.0-16.0-11.0-0.0","21702","List1A","white","man","","","","null","","","","","","","","",""
"2930.6999999284744","<img src=""portrait/BM2.jpg""style=""height:400px;""></img>","5","html-button-response","237","1772349","0.0-16.0-13.0","21702","List1A","white","man","","true","5","","","","","","","","","",""
"null","CORRECT","","html-keyboard-response","238","1773872","0.0-16.0-14.0-0.0","21702","List1A","white","man","","","","null","","","","","","","","",""
"2771.6999999284744","<img src=""portrait/WM2.jpg""style=""height:400px;""></img>","7","html-button-response","239","1776646","0.0-16.0-16.0","21702","List1A","white","man","","true","7","","","","","","","","","",""
"null","CORRECT","","html-keyboard-response","240","1778166","0.0-16.0-17.0-0.0","21702","List1A","white","man","","","","null","","","","","","","","",""
"3333.6999999284744","<img src=""portrait/BM1.jpg""style=""height:400px;""></img>","4","html-button-response","241","1781502","0.0-16.0-19.0","21702","List1A","white","man","","true","4","","","","","","","","","",""
"null","CORRECT","","html-keyboard-response","242","1783023","0.0-16.0-20.0-0.0","21702","List1A","white","man","","","","null","","","","","","","","",""
"6571.699999928474","<img src=""portrait/WW1.jpg""style=""height:400px;""></img>","1","html-button-response","243","1789598","0.0-16.0-22.0","21702","List1A","white","man","","true","1","","","","","","","","","",""
"null","CORRECT","","html-keyboard-response","244","1791125","0.0-16.0-23.0-0.0","21702","List1A","white","man","","","","null","","","","","","","","",""
"2390.100000023842","<p>You got 8 out of 8 right first time. Press Continue.</p>","0","html-button-response","245","1793518","0.0-16.0-25.0","21702","List1A","white","man","","","","","","","","","","","","",""
"null","<div style=""font-size:60px;"">+</div>","","html-keyboard-response","246","1795037","0.0-17.0-0.0","21702","List1A","white","man","","","","null","","","","","","","","",""
"null","<img src=""stim_listA/copy6.gif""style=""height:400px;""></stim_listA>","","html-keyboard-response","247","1797051","0.0-17.0-1.0","21702","List1A","white","man","","","","null","","","","","","","","",""
"null","is being copied by","","html-keyboard-response","248","1799057","0.0-17.0-2.0","21702","List1A","white","man","","","","null","","","","","","","","",""
"15665.299999952316","","","survey-text","249","1814726","0.0-17.0-3.0","21702","List1A","white","man","","","","","{""Q0"":""is being copied by""}","<img src=""stim_listA/copy6.gif""style=""height:400px;""></stim_listA>","is being copied by","","","","","",""
"null","<div style=""font-size:60px;"">+</div>","","html-keyboard-response","250","1815231","0.0-17.0-0.1","21702","List1A","white","man","","","","null","","","","","","","","",""
"null","<img src=""stim_listA/hug2.gif""style=""height:400px;""></stim_listA>","","html-keyboard-response","251","1817235","0.0-17.0-1.1","21702","List1A","white","man","","","","null","","","","","","","","",""
"null","is being hugged by","","html-keyboard-response","252","1819240","0.0-17.0-2.1","21702","List1A","white","man","","","","null","","","","","","","","",""
"18681.900000095367","","","survey-text","253","1837926","0.0-17.0-3.1","21702","List1A","white","man","","","","","{""Q0"":""is being hugged by""}","<img src=""stim_listA/hug2.gif""style=""height:400px;""></stim_listA>","is being hugged by","","","","","",""
"null","<div style=""font-size:60px;"">+</div>","","html-keyboard-response","254","1838432","0.0-17.0-0.2","21702","List1A","white","man","","","","null","","","","","","","","",""
"null","<img src=""stim_listA/oppose3.gif""style=""height:400px;""></stim_listA>","","html-keyboard-response","255","1840436","0.0-17.0-1.2","21702","List1A","white","man","","","","null","","","","","","","","",""
"null","is opposing","","html-keyboard-response","256","1842441","0.0-17.0-2.2","21702","List1A","white","man","","","","null","","","","","","","","",""
"12457.100000023842","","","survey-text","257","1854902","0.0-17.0-3.2","21702","List1A","white","man","","","","","{""Q0"":""is opposing""}","<img src=""stim_listA/oppose3.gif""style=""height:400px;""></stim_listA>","is opposing","","","","","",""
"null","<div style=""font-size:60px;"">+</div>","","html-keyboard-response","258","1855410","0.0-17.0-0.3","21702","List1A","white","man","","","","null","","","","","","","","",""
"null","<img src=""stim_listA/shout8.gif""style=""height:400px;""></stim_listA>","","html-keyboard-response","259","1857430","0.0-17.0-1.3","21702","List1A","white","man","","","","null","","","","","","","","",""
"null","is being shouted at by","","html-keyboard-response","260","1859435","0.0-17.0-2.3","21702","List1A","white","man","","","","null","","","","","","","","",""
"19231","","","survey-text","261","1878670","0.0-17.0-3.3","21702","List1A","white","man","","","","","{""Q0"":""is being shouted at by""}","<img src=""stim_listA/shout8.gif""style=""height:400px;""></stim_listA>","is being shouted at by","","","","","",""
"null","<div style=""font-size:60px;"">+</div>","","html-keyboard-response","262","1879176","0.0-17.0-0.4","21702","List1A","white","man","","","","null","","","","","","","","",""
"null","<img src=""stim_listA/shout2.gif""style=""height:400px;""></stim_listA>","","html-keyboard-response","263","1881180","0.0-17.0-1.4","21702","List1A","white","man","","","","null","","","","","","","","",""
"null","is being shouted at by","","html-keyboard-response","264","1883186","0.0-17.0-2.4","21702","List1A","white","man","","","","null","","","","","","","","",""
"19449","","","survey-text","265","1902639","0.0-17.0-3.4","21702","List1A","white","man","","","","","{""Q0"":""is being shouted at by""}","<img src=""stim_listA/shout2.gif""style=""height:400px;""></stim_listA>","is being shouted at by","","","","","",""
"null","<div style=""font-size:60px;"">+</div>","","html-keyboard-response","266","1903147","0.0-17.0-0.5","21702","List1A","white","man","","","","null","","","","","","","","",""
"null","<img src=""stim_listA/challenge1.gif""style=""height:400px;""></stim_listA>","","html-keyboard-response","267","1905167","0.0-17.0-1.5","21702","List1A","white","man","","","","null","","","","","","","","",""
"null","is challenging","","html-keyboard-response","268","1907173","0.0-17.0-2.5","21702","List1A","white","man","","","","null","","","","","","","","",""
"19317.699999928474","","","survey-text","269","1926494","0.0-17.0-3.5","21702","List1A","white","man","","","","","{""Q0"":""is challenging""}","<img src=""stim_listA/challenge1.gif""style=""height:400px;""></stim_listA>","is challenging","","","","","",""
"null","<div style=""font-size:60px;"">+</div>","","html-keyboard-response","270","1927003","0.0-17.0-0.6","21702","List1A","white","man","","","","null","","","","","","","","",""
"null","<img src=""stim_listA/touch1.gif""style=""height:400px;""></stim_listA>","","html-keyboard-response","271","1929022","0.0-17.0-1.6","21702","List1A","white","man","","","","null","","","","","","","","",""
"null","is touching","","html-keyboard-response","272","1931027","0.0-17.0-2.6","21702","List1A","white","man","","","","null","","","","","","","","",""
"13373.699999928474","","","survey-text","273","1944407","0.0-17.0-3.6","21702","List1A","white","man","","","","","{""Q0"":""is touching""}","<img src=""stim_listA/touch1.gif""style=""height:400px;""></stim_listA>","is touching","","","","","",""
"null","<div style=""font-size:60px;"">+</div>","","html-keyboard-response","274","1944913","0.0-17.0-0.7","21702","List1A","white","man","","","","null","","","","","","","","",""
"null","<img src=""stim_listA/challenge7.gif""style=""height:400px;""></stim_listA>","","html-keyboard-response","275","1946919","0.0-17.0-1.7","21702","List1A","white","man","","","","null","","","","","","","","",""
"null","is challenging","","html-keyboard-response","276","1948925","0.0-17.0-2.7","21702","List1A","white","man","","","","null","","","","","","","","",""
"11572.399999976158","","","survey-text","277","1960502","0.0-17.0-3.7","21702","List1A","white","man","","","","","{""Q0"":""is challenging""}","<img src=""stim_listA/challenge7.gif""style=""height:400px;""></stim_listA>","is challenging","","","","","",""
"null","<div style=""font-size:60px;"">+</div>","","html-keyboard-response","278","1961014","0.0-17.0-0.8","21702","List1A","white","man","","","","null","","","","","","","","",""
"null","<img src=""stim_listA/seduce7.gif""style=""height:400px;""></stim_listA>","","html-keyboard-response","279","1963034","0.0-17.0-1.8","21702","List1A","white","man","","","","null","","","","","","","","",""
"null","is seducing","","html-keyboard-response","280","1965039","0.0-17.0-2.8","21702","List1A","white","man","","","","null","","","","","","","","",""
"16531.299999952316","","","survey-text","281","1981574","0.0-17.0-3.8","21702","List1A","white","man","","","","","{""Q0"":""is seducing""}","<img src=""stim_listA/seduce7.gif""style=""height:400px;""></stim_listA>","is seducing","","","","","",""
"null","<div style=""font-size:60px;"">+</div>","","html-keyboard-response","282","1982096","0.0-17.0-0.9","21702","List1A","white","man","","","","null","","","","","","","","",""
"null","<img src=""stim_listA/kiss8.gif""style=""height:400px;""></stim_listA>","","html-keyboard-response","283","1984100","0.0-17.0-1.9","21702","List1A","white","man","","","","null","","","","","","","","",""
"null","is being kissed by","","html-keyboard-response","284","1986107","0.0-17.0-2.9","21702","List1A","white","man","","","","null","","","","","","","","",""
"17568.699999928474","","","survey-text","285","2003679","0.0-17.0-3.9","21702","List1A","white","man","","","","","{""Q0"":""is being kissed by""}","<img src=""stim_listA/kiss8.gif""style=""height:400px;""></stim_listA>","is being kissed by","","","","","",""
"null","<div style=""font-size:60px;"">+</div>","","html-keyboard-response","286","2004195","0.0-17.0-0.10","21702","List1A","white","man","","","","null","","","","","","","","",""
"null","<img src=""stim_listA/seduce8.gif""style=""height:400px;""></stim_listA>","","html-keyboard-response","287","2006215","0.0-17.0-1.10","21702","List1A","white","man","","","","null","","","","","","","","",""
"null","is being seduced by","","html-keyboard-response","288","2008220","0.0-17.0-2.10","21702","List1A","white","man","","","","null","","","","","","","","",""
"15895.899999976158","","","survey-text","289","2024119","0.0-17.0-3.10","21702","List1A","white","man","","","","","{""Q0"":""is being sheduced by""}","<img src=""stim_listA/seduce8.gif""style=""height:400px;""></stim_listA>","is being seduced by","","","","","",""
"null","<div style=""font-size:60px;"">+</div>","","html-keyboard-response","290","2024626","0.0-17.0-0.11","21702","List1A","white","man","","","","null","","","","","","","","",""
"null","<img src=""stim_listA/touch6.gif""style=""height:400px;""></stim_listA>","","html-keyboard-response","291","2026630","0.0-17.0-1.11","21702","List1A","white","man","","","","null","","","","","","","","",""
"null","is being touched by","","html-keyboard-response","292","2028636","0.0-17.0-2.11","21702","List1A","white","man","","","","null","","","","","","","","",""
"17790.399999976158","","","survey-text","293","2046431","0.0-17.0-3.11","21702","List1A","white","man","","","","","{""Q0"":""is being touched by""}","<img src=""stim_listA/touch6.gif""style=""height:400px;""></stim_listA>","is being touched by","","","","","",""
"null","<div style=""font-size:60px;"">+</div>","","html-keyboard-response","294","2046949","0.0-17.0-0.12","21702","List1A","white","man","","","","null","","","","","","","","",""
"null","<img src=""stim_listA/kiss5.gif""style=""height:400px;""></stim_listA>","","html-keyboard-response","295","2048967","0.0-17.0-1.12","21702","List1A","white","man","","","","null","","","","","","","","",""
"null","is kissing","","html-keyboard-response","296","2050973","0.0-17.0-2.12","21702","List1A","white","man","","","","null","","","","","","","","",""
"8845.899999976158","","","survey-text","297","2059822","0.0-17.0-3.12","21702","List1A","white","man","","","","","{""Q0"":""is kissing""}","<img src=""stim_listA/kiss5.gif""style=""height:400px;""></stim_listA>","is kissing","","","","","",""
"null","<div style=""font-size:60px;"">+</div>","","html-keyboard-response","298","2060325","0.0-17.0-0.13","21702","List1A","white","man","","","","null","","","","","","","","",""
"null","<img src=""stim_listA/hug8.gif""style=""height:400px;""></stim_listA>","","html-keyboard-response","299","2062330","0.0-17.0-1.13","21702","List1A","white","man","","","","null","","","","","","","","",""
"null","is being hugged by","","html-keyboard-response","300","2064336","0.0-17.0-2.13","21702","List1A","white","man","","","","null","","","","","","","","",""
"17002.900000095367","","","survey-text","301","2081343","0.0-17.0-3.13","21702","List1A","white","man","","","","","{""Q0"":""is being hugged by""}","<img src=""stim_listA/hug8.gif""style=""height:400px;""></stim_listA>","is being hugged by","","","","","",""
"null","<div style=""font-size:60px;"">+</div>","","html-keyboard-response","302","2081857","0.0-17.0-0.14","21702","List1A","white","man","","","","null","","","","","","","","",""
"null","<img src=""stim_listA/seduce6.gif""style=""height:400px;""></stim_listA>","","html-keyboard-response","303","2083862","0.0-17.0-1.14","21702","List1A","white","man","","","","null","","","","","","","","",""
"null","is being seduced by","","html-keyboard-response","304","2085868","0.0-17.0-2.14","21702","List1A","white","man","","","","null","","","","","","","","",""
"17677.799999952316","","","survey-text","305","2103551","0.0-17.0-3.14","21702","List1A","white","man","","","","","{""Q0"":""is being shduced by""}","<img src=""stim_listA/seduce6.gif""style=""height:400px;""></stim_listA>","is being seduced by","","","","","",""
"null","<div style=""font-size:60px;"">+</div>","","html-keyboard-response","306","2104055","0.0-17.0-0.15","21702","List1A","white","man","","","","null","","","","","","","","",""
"null","<img src=""stim_listA/copy8.gif""style=""height:400px;""></stim_listA>","","html-keyboard-response","307","2106081","0.0-17.0-1.15","21702","List1A","white","man","","","","null","","","","","","","","",""
"null","is being copied by","","html-keyboard-response","308","2108084","0.0-17.0-2.15","21702","List1A","white","man","","","","null","","","","","","","","",""
"18461.300000071526","","","survey-text","309","2126550","0.0-17.0-3.15","21702","List1A","white","man","","","","","{""Q0"":""is being coiped by""}","<img src=""stim_listA/copy8.gif""style=""height:400px;""></stim_listA>","is being copied by","","","","","",""
"null","<div style=""font-size:60px;"">+</div>","","html-keyboard-response","310","2127058","0.0-17.0-0.16","21702","List1A","white","man","","","","null","","","","","","","","",""
"null","<img src=""stim_listA/copy3.gif""style=""height:400px;""></stim_listA>","","html-keyboard-response","311","2129078","0.0-17.0-1.16","21702","List1A","white","man","","","","null","","","","","","","","",""
"null","is copying","","html-keyboard-response","312","2131084","0.0-17.0-2.16","21702","List1A","white","man","","","","null","","","","","","","","",""
"9181.399999976158","","","survey-text","313","2140269","0.0-17.0-3.16","21702","List1A","white","man","","","","","{""Q0"":""is copying""}","<img src=""stim_listA/copy3.gif""style=""height:400px;""></stim_listA>","is copying","","","","","",""
"null","<div style=""font-size:60px;"">+</div>","","html-keyboard-response","314","2140773","0.0-17.0-0.17","21702","List1A","white","man","","","","null","","","","","","","","",""
"null","<img src=""stim_listA/seduce3.gif""style=""height:400px;""></stim_listA>","","html-keyboard-response","315","2142778","0.0-17.0-1.17","21702","List1A","white","man","","","","null","","","","","","","","",""
"null","is seducing","","html-keyboard-response","316","2144783","0.0-17.0-2.17","21702","List1A","white","man","","","","null","","","","","","","","",""
"9116.800000071526","","","survey-text","317","2153909","0.0-17.0-3.17","21702","List1A","white","man","","","","","{""Q0"":""is seducing""}","<img src=""stim_listA/seduce3.gif""style=""height:400px;""></stim_listA>","is seducing","","","","","",""
"null","<div style=""font-size:60px;"">+</div>","","html-keyboard-response","318","2154418","0.0-17.0-0.18","21702","List1A","white","man","","","","null","","","","","","","","",""
"null","<img src=""stim_listA/touch2.gif""style=""height:400px;""></stim_listA>","","html-keyboard-response","319","2156423","0.0-17.0-1.18","21702","List1A","white","man","","","","null","","","","","","","","",""
"null","is being touched by","","html-keyboard-response","320","2158429","0.0-17.0-2.18","21702","List1A","white","man","","","","null","","","","","","","","",""
"4988.899999976158","","","survey-text","321","2163421","0.0-17.0-3.18","21702","List1A","white","man","","","","","{""Q0"":""is touching""}","<img src=""stim_listA/touch2.gif""style=""height:400px;""></stim_listA>","is being touched by","","","","","",""
"null","<div style=""font-size:60px;"">+</div>","","html-keyboard-response","322","2163926","0.0-17.0-0.19","21702","List1A","white","man","","","","null","","","","","","","","",""
"null","<img src=""stim_listA/look5.gif""style=""height:400px;""></stim_listA>","","html-keyboard-response","323","2165931","0.0-17.0-1.19","21702","List1A","white","man","","","","null","","","","","","","","",""
"null","is looking at","","html-keyboard-response","324","2167937","0.0-17.0-2.19","21702","List1A","white","man","","","","null","","","","","","","","",""
"5232.5","","","survey-text","325","2173174","0.0-17.0-3.19","21702","List1A","white","man","","","","","{""Q0"":""is looking at""}","<img src=""stim_listA/look5.gif""style=""height:400px;""></stim_listA>","is looking at","","","","","",""
"6823","<img src='img/portrait_matrix_list1.jpg' style='width:900px;height:500px;''></img><p>If you have memorised all the portraits and names and are ready to start, press Continue.</p><p><strong>Please note: Your memory of these faces will be tested 4 times during this experiment.</strong></p>","0","html-button-response","326","2179998","0.0-18.0-0.0","21702","List1A","white","man","","","","","","","","","","","","",""
"8725.600000023842","<img src=""portrait/BM1.jpg""style=""height:400px;""></img>","4","html-button-response","327","2189726","0.0-18.0-1.0","21702","List1A","white","man","","true","4","","","","","","","","","",""
"null","CORRECT","","html-keyboard-response","328","2191250","0.0-18.0-2.0-0.0","21702","List1A","white","man","","","","null","","","","","","","","",""
"2295.7999999523163","<img src=""portrait/WM1.jpg""style=""height:400px;""></img>","6","html-button-response","329","2193550","0.0-18.0-4.0","21702","List1A","white","man","","true","6","","","","","","","","","",""
"null","CORRECT","","html-keyboard-response","330","2195059","0.0-18.0-5.0-0.0","21702","List1A","white","man","","","","null","","","","","","","","",""
"3401.399999976158","<img src=""portrait/WW1.jpg""style=""height:400px;""></img>","1","html-button-response","331","2198462","0.0-18.0-7.0","21702","List1A","white","man","","true","1","","","","","","","","","",""
"null","CORRECT","","html-keyboard-response","332","2199972","0.0-18.0-8.0-0.0","21702","List1A","white","man","","","","null","","","","","","","","",""
"4761.200000047684","<img src=""portrait/BW1.jpg""style=""height:400px;""></img>","0","html-button-response","333","2204735","0.0-18.0-10.0","21702","List1A","white","man","","true","0","","","","","","","","","",""
"null","CORRECT","","html-keyboard-response","334","2206266","0.0-18.0-11.0-0.0","21702","List1A","white","man","","","","null","","","","","","","","",""
"3745.7999999523163","<img src=""portrait/WW2.jpg""style=""height:400px;""></img>","3","html-button-response","335","2210015","0.0-18.0-13.0","21702","List1A","white","man","","true","3","","","","","","","","","",""
"null","CORRECT","","html-keyboard-response","336","2211546","0.0-18.0-14.0-0.0","21702","List1A","white","man","","","","null","","","","","","","","",""
"4586.399999976158","<img src=""portrait/WM2.jpg""style=""height:400px;""></img>","7","html-button-response","337","2216134","0.0-18.0-16.0","21702","List1A","white","man","","true","7","","","","","","","","","",""
"null","CORRECT","","html-keyboard-response","338","2217644","0.0-18.0-17.0-0.0","21702","List1A","white","man","","","","null","","","","","","","","",""
"3335.399999976158","<img src=""portrait/BM2.jpg""style=""height:400px;""></img>","5","html-button-response","339","2220983","0.0-18.0-19.0","21702","List1A","white","man","","true","5","","","","","","","","","",""
"null","CORRECT","","html-keyboard-response","340","2222488","0.0-18.0-20.0-0.0","21702","List1A","white","man","","","","null","","","","","","","","",""
"3372.2999999523163","<img src=""portrait/BW2.jpg""style=""height:400px;""></img>","2","html-button-response","341","2225862","0.0-18.0-22.0","21702","List1A","white","man","","true","2","","","","","","","","","",""
"null","CORRECT","","html-keyboard-response","342","2227380","0.0-18.0-23.0-0.0","21702","List1A","white","man","","","","null","","","","","","","","",""
"1560.3999999761581","<p>You got 8 out of 8 right first time. Press Continue.</p>","0","html-button-response","343","2228942","0.0-18.0-25.0","21702","List1A","white","man","","","","","","","","","","","","",""
"null","<div style=""font-size:60px;"">+</div>","","html-keyboard-response","344","2230456","0.0-19.0-0.0","21702","List1A","white","man","","","","null","","","","","","","","",""
"null","<img src=""stim_listA/look8.gif""style=""height:400px;""></stim_listA>","","html-keyboard-response","345","2232460","0.0-19.0-1.0","21702","List1A","white","man","","","","null","","","","","","","","",""
"null","is being looked at by","","html-keyboard-response","346","2234464","0.0-19.0-2.0","21702","List1A","white","man","","","","null","","","","","","","","",""
"9919.300000071526","","","survey-text","347","2244390","0.0-19.0-3.0","21702","List1A","white","man","","","","","{""Q0"":""is being looking by""}","<img src=""stim_listA/look8.gif""style=""height:400px;""></stim_listA>","is being looked at by","","","","","",""
"null","<div style=""font-size:60px;"">+</div>","","html-keyboard-response","348","2244901","0.0-19.0-0.1","21702","List1A","white","man","","","","null","","","","","","","","",""
"null","<img src=""stim_listA/oppose4.gif""style=""height:400px;""></stim_listA>","","html-keyboard-response","349","2246920","0.0-19.0-1.1","21702","List1A","white","man","","","","null","","","","","","","","",""
"null","is being opposed by","","html-keyboard-response","350","2248925","0.0-19.0-2.1","21702","List1A","white","man","","","","null","","","","","","","","",""
"10878.299999952316","","","survey-text","351","2259807","0.0-19.0-3.1","21702","List1A","white","man","","","","","{""Q0"":""is being opposied""}","<img src=""stim_listA/oppose4.gif""style=""height:400px;""></stim_listA>","is being opposed by","","","","","",""
"null","<div style=""font-size:60px;"">+</div>","","html-keyboard-response","352","2260322","0.0-19.0-0.2","21702","List1A","white","man","","","","null","","","","","","","","",""
"null","<img src=""stim_listA/shout4.gif""style=""height:400px;""></stim_listA>","","html-keyboard-response","353","2262341","0.0-19.0-1.2","21702","List1A","white","man","","","","null","","","","","","","","",""
"null","is being shouted at by","","html-keyboard-response","354","2264347","0.0-19.0-2.2","21702","List1A","white","man","","","","null","","","","","","","","",""
"11009.399999976158","","","survey-text","355","2275360","0.0-19.0-3.2","21702","List1A","white","man","","","","","{""Q0"":""is being shouted""}","<img src=""stim_listA/shout4.gif""style=""height:400px;""></stim_listA>","is being shouted at by","","","","","",""
"null","<div style=""font-size:60px;"">+</div>","","html-keyboard-response","356","2275874","0.0-19.0-0.3","21702","List1A","white","man","","","","null","","","","","","","","",""
"null","<img src=""stim_listA/seduce1.gif""style=""height:400px;""></stim_listA>","","html-keyboard-response","357","2277893","0.0-19.0-1.3","21702","List1A","white","man","","","","null","","","","","","","","",""
"null","is seducing","","html-keyboard-response","358","2279898","0.0-19.0-2.3","21702","List1A","white","man","","","","null","","","","","","","","",""
"9234.400000095367","","","survey-text","359","2289132","0.0-19.0-3.3","21702","List1A","white","man","","","","","{""Q0"":""is sheduing""}","<img src=""stim_listA/seduce1.gif""style=""height:400px;""></stim_listA>","is seducing","","","","","",""
"null","<div style=""font-size:60px;"">+</div>","","html-keyboard-response","360","2289636","0.0-19.0-0.4","21702","List1A","white","man","","","","null","","","","","","","","",""
"null","<img src=""stim_listA/hug1.gif""style=""height:400px;""></stim_listA>","","html-keyboard-response","361","2291640","0.0-19.0-1.4","21702","List1A","white","man","","","","null","","","","","","","","",""
"null","is hugging","","html-keyboard-response","362","2293644","0.0-19.0-2.4","21702","List1A","white","man","","","","null","","","","","","","","",""
"3892.3000000715256","","","survey-text","363","2297540","0.0-19.0-3.4","21702","List1A","white","man","","","","","{""Q0"":""is hugging""}","<img src=""stim_listA/hug1.gif""style=""height:400px;""></stim_listA>","is hugging","","","","","",""
"null","<div style=""font-size:60px;"">+</div>","","html-keyboard-response","364","2298054","0.0-19.0-0.5","21702","List1A","white","man","","","","null","","","","","","","","",""
"null","<img src=""stim_listA/greet5.gif""style=""height:400px;""></stim_listA>","","html-keyboard-response","365","2300073","0.0-19.0-1.5","21702","List1A","white","man","","","","null","","","","","","","","",""
"null","is greeting","","html-keyboard-response","366","2302079","0.0-19.0-2.5","21702","List1A","white","man","","","","null","","","","","","","","",""
"9082","","","survey-text","367","2311165","0.0-19.0-3.5","21702","List1A","white","man","","","","","{""Q0"":""is grating""}","<img src=""stim_listA/greet5.gif""style=""height:400px;""></stim_listA>","is greeting","","","","","",""
"null","<div style=""font-size:60px;"">+</div>","","html-keyboard-response","368","2311671","0.0-19.0-0.6","21702","List1A","white","man","","","","null","","","","","","","","",""
"null","<img src=""stim_listA/seduce5.gif""style=""height:400px;""></stim_listA>","","html-keyboard-response","369","2313688","0.0-19.0-1.6","21702","List1A","white","man","","","","null","","","","","","","","",""
"null","is seducing","","html-keyboard-response","370","2315694","0.0-19.0-2.6","21702","List1A","white","man","","","","null","","","","","","","","",""
"12614.5","","","survey-text","371","2328316","0.0-19.0-3.6","21702","List1A","white","man","","","","","{""Q0"":""is shducing""}","<img src=""stim_listA/seduce5.gif""style=""height:400px;""></stim_listA>","is seducing","","","","","",""
"null","<div style=""font-size:60px;"">+</div>","","html-keyboard-response","372","2328824","0.0-19.0-0.7","21702","List1A","white","man","","","","null","","","","","","","","",""
"null","<img src=""stim_listA/greet2.gif""style=""height:400px;""></stim_listA>","","html-keyboard-response","373","2330830","0.0-19.0-1.7","21702","List1A","white","man","","","","null","","","","","","","","",""
"null","is being greeted by","","html-keyboard-response","374","2332836","0.0-19.0-2.7","21702","List1A","white","man","","","","null","","","","","","","","",""
"8709.200000047684","","","survey-text","375","2341548","0.0-19.0-3.7","21702","List1A","white","man","","","","","{""Q0"":""is being greeted by""}","<img src=""stim_listA/greet2.gif""style=""height:400px;""></stim_listA>","is being greeted by","","","","","",""
"null","<div style=""font-size:60px;"">+</div>","","html-keyboard-response","376","2342056","0.0-19.0-0.8","21702","List1A","white","man","","","","null","","","","","","","","",""
"null","<img src=""stim_listA/oppose8.gif""style=""height:400px;""></stim_listA>","","html-keyboard-response","377","2344063","0.0-19.0-1.8","21702","List1A","white","man","","","","null","","","","","","","","",""
"null","is being opposed by","","html-keyboard-response","378","2346067","0.0-19.0-2.8","21702","List1A","white","man","","","","null","","","","","","","","",""
"16241.299999952316","","","survey-text","379","2362319","0.0-19.0-3.8","21702","List1A","white","man","","","","","{""Q0"":""is being opposied by""}","<img src=""stim_listA/oppose8.gif""style=""height:400px;""></stim_listA>","is being opposed by","","","","","",""
"null","<div style=""font-size:60px;"">+</div>","","html-keyboard-response","380","2362835","0.0-19.0-0.9","21702","List1A","white","man","","","","null","","","","","","","","",""
"null","<img src=""stim_listA/greet6.gif""style=""height:400px;""></stim_listA>","","html-keyboard-response","381","2364839","0.0-19.0-1.9","21702","List1A","white","man","","","","null","","","","","","","","",""
"null","is being greeted by","","html-keyboard-response","382","2366846","0.0-19.0-2.9","21702","List1A","white","man","","","","null","","","","","","","","",""
"7835.600000023842","","","survey-text","383","2374687","0.0-19.0-3.9","21702","List1A","white","man","","","","","{""Q0"":""is being greeted by""}","<img src=""stim_listA/greet6.gif""style=""height:400px;""></stim_listA>","is being greeted by","","","","","",""
"null","<div style=""font-size:60px;"">+</div>","","html-keyboard-response","384","2375201","0.0-19.0-0.10","21702","List1A","white","man","","","","null","","","","","","","","",""
"null","<img src=""stim_listA/kiss2.gif""style=""height:400px;""></stim_listA>","","html-keyboard-response","385","2377205","0.0-19.0-1.10","21702","List1A","white","man","","","","null","","","","","","","","",""
"null","is being kissed by","","html-keyboard-response","386","2379210","0.0-19.0-2.10","21702","List1A","white","man","","","","null","","","","","","","","",""
"27614.199999928474","","","survey-text","387","2406830","0.0-19.0-3.10","21702","List1A","white","man","","","","","{""Q0"":""is being kising by""}","<img src=""stim_listA/kiss2.gif""style=""height:400px;""></stim_listA>","is being kissed by","","","","","",""
"null","<div style=""font-size:60px;"">+</div>","","html-keyboard-response","388","2407333","0.0-19.0-0.11","21702","List1A","white","man","","","","null","","","","","","","","",""
"null","<img src=""stim_listA/touch8.gif""style=""height:400px;""></stim_listA>","","html-keyboard-response","389","2409337","0.0-19.0-1.11","21702","List1A","white","man","","","","null","","","","","","","","",""
"null","is being touched by","","html-keyboard-response","390","2411343","0.0-19.0-2.11","21702","List1A","white","man","","","","null","","","","","","","","",""
"79955.5","","","survey-text","391","2491302","0.0-19.0-3.11","21702","List1A","white","man","","","","","{""Q0"":""is being truching by""}","<img src=""stim_listA/touch8.gif""style=""height:400px;""></stim_listA>","is being touched by","","","","","",""
"null","<div style=""font-size:60px;"">+</div>","","html-keyboard-response","392","2491803","0.0-19.0-0.12","21702","List1A","white","man","","","","null","","","","","","","","",""
"null","<img src=""stim_listA/seduce4.gif""style=""height:400px;""></stim_listA>","","html-keyboard-response","393","2493820","0.0-19.0-1.12","21702","List1A","white","man","","","","null","","","","","","","","",""
"null","is being seduced by","","html-keyboard-response","394","2495824","0.0-19.0-2.12","21702","List1A","white","man","","","","null","","","","","","","","",""
"11743","","","survey-text","395","2507574","0.0-19.0-3.12","21702","List1A","white","man","","","","","{""Q0"":""is being sheducing""}","<img src=""stim_listA/seduce4.gif""style=""height:400px;""></stim_listA>","is being seduced by","","","","","",""
"null","<div style=""font-size:60px;"">+</div>","","html-keyboard-response","396","2508076","0.0-19.0-0.13","21702","List1A","white","man","","","","null","","","","","","","","",""
"null","<img src=""stim_listA/copy1.gif""style=""height:400px;""></stim_listA>","","html-keyboard-response","397","2510080","0.0-19.0-1.13","21702","List1A","white","man","","","","null","","","","","","","","",""
"null","is copying","","html-keyboard-response","398","2512087","0.0-19.0-2.13","21702","List1A","white","man","","","","null","","","","","","","","",""
"5787.299999952316","","","survey-text","399","2517878","0.0-19.0-3.13","21702","List1A","white","man","","","","","{""Q0"":""s copying""}","<img src=""stim_listA/copy1.gif""style=""height:400px;""></stim_listA>","is copying","","","","","",""
"null","<div style=""font-size:60px;"">+</div>","","html-keyboard-response","400","2518400","0.0-19.0-0.14","21702","List1A","white","man","","","","null","","","","","","","","",""
"null","<img src=""stim_listA/kiss7.gif""style=""height:400px;""></stim_listA>","","html-keyboard-response","401","2520404","0.0-19.0-1.14","21702","List1A","white","man","","","","null","","","","","","","","",""
"null","is kissing","","html-keyboard-response","402","2522409","0.0-19.0-2.14","21702","List1A","white","man","","","","null","","","","","","","","",""
"4463.400000095367","","","survey-text","403","2526878","0.0-19.0-3.14","21702","List1A","white","man","","","","","{""Q0"":""is kissing""}","<img src=""stim_listA/kiss7.gif""style=""height:400px;""></stim_listA>","is kissing","","","","","",""
"null","<div style=""font-size:60px;"">+</div>","","html-keyboard-response","404","2527382","0.0-19.0-0.15","21702","List1A","white","man","","","","null","","","","","","","","",""
"null","<img src=""stim_listA/greet1.gif""style=""height:400px;""></stim_listA>","","html-keyboard-response","405","2529388","0.0-19.0-1.15","21702","List1A","white","man","","","","null","","","","","","","","",""
"null","is greeting","","html-keyboard-response","406","2531393","0.0-19.0-2.15","21702","List1A","white","man","","","","null","","","","","","","","",""
"16395.599999904633","","","survey-text","407","2547792","0.0-19.0-3.15","21702","List1A","white","man","","","","","{""Q0"":""is greeting""}","<img src=""stim_listA/greet1.gif""style=""height:400px;""></stim_listA>","is greeting","","","","","",""
"null","<div style=""font-size:60px;"">+</div>","","html-keyboard-response","408","2548300","0.0-19.0-0.16","21702","List1A","white","man","","","","null","","","","","","","","",""
"null","<img src=""stim_listA/greet3.gif""style=""height:400px;""></stim_listA>","","html-keyboard-response","409","2550304","0.0-19.0-1.16","21702","List1A","white","man","","","","null","","","","","","","","",""
"null","is greeting","","html-keyboard-response","410","2552310","0.0-19.0-2.16","21702","List1A","white","man","","","","null","","","","","","","","",""
"5052.5","","","survey-text","411","2557367","0.0-19.0-3.16","21702","List1A","white","man","","","","","{""Q0"":""is greeting""}","<img src=""stim_listA/greet3.gif""style=""height:400px;""></stim_listA>","is greeting","","","","","",""
"null","<div style=""font-size:60px;"">+</div>","","html-keyboard-response","412","2557870","0.0-19.0-0.17","21702","List1A","white","man","","","","null","","","","","","","","",""
"null","<img src=""stim_listA/oppose2.gif""style=""height:400px;""></stim_listA>","","html-keyboard-response","413","2559875","0.0-19.0-1.17","21702","List1A","white","man","","","","null","","","","","","","","",""
"null","is being opposed by","","html-keyboard-response","414","2561880","0.0-19.0-2.17","21702","List1A","white","man","","","","null","","","","","","","","",""
"9324.100000143051","","","survey-text","415","2571208","0.0-19.0-3.17","21702","List1A","white","man","","","","","{""Q0"":""is being opposied""}","<img src=""stim_listA/oppose2.gif""style=""height:400px;""></stim_listA>","is being opposed by","","","","","",""
"null","<div style=""font-size:60px;"">+</div>","","html-keyboard-response","416","2571722","0.0-19.0-0.18","21702","List1A","white","man","","","","null","","","","","","","","",""
"null","<img src=""stim_listA/hug6.gif""style=""height:400px;""></stim_listA>","","html-keyboard-response","417","2573741","0.0-19.0-1.18","21702","List1A","white","man","","","","null","","","","","","","","",""
"null","is being hugged by","","html-keyboard-response","418","2575747","0.0-19.0-2.18","21702","List1A","white","man","","","","null","","","","","","","","",""
"33441.200000047684","","","survey-text","419","2609191","0.0-19.0-3.18","21702","List1A","white","man","","","","","{""Q0"":""is being hugged by""}","<img src=""stim_listA/hug6.gif""style=""height:400px;""></stim_listA>","is being hugged by","","","","","",""
"null","<div style=""font-size:60px;"">+</div>","","html-keyboard-response","420","2609708","0.0-19.0-0.19","21702","List1A","white","man","","","","null","","","","","","","","",""
"null","<img src=""stim_listA/greet8.gif""style=""height:400px;""></stim_listA>","","html-keyboard-response","421","2611728","0.0-19.0-1.19","21702","List1A","white","man","","","","null","","","","","","","","",""
"null","is being greeted by","","html-keyboard-response","422","2613733","0.0-19.0-2.19","21702","List1A","white","man","","","","null","","","","","","","","",""
"9792.799999952316","","","survey-text","423","2623534","0.0-19.0-3.19","21702","List1A","white","man","","","","","{""Q0"":""is being greeted by""}","<img src=""stim_listA/greet8.gif""style=""height:400px;""></stim_listA>","is being greeted by","","","","","",""
"2502.7999999523163","<p>Thank you for completing that task.</p><p>The final part of this session is a questionnaire that will take about 4 minutes.</p><p>Press Continue.</p>","0","html-button-response","424","2626038","0.0-20.0","21702","List1A","white","man","","","","","","","","","","","","",""
"32790.5","","","survey-text","425","2659847","0.0-21.0","21702","List1A","white","man","","","","","{""Q0"":""40"",""Q1"":""english"",""Q2"":""english"",""Q3"":""usa"",""Q4"":""usa"",""Q5"":""white"",""Q6"":""male""}","","","demographics","","","","",""
"4988.700000047684","<p>Have you lived in the USA for the last 5 years or more?</p>","0","html-button-response","426","2664838","0.0-22.0","21702","List1A","white","man","","","","","","","","fiveyears","","","","",""
"1753.5","<p>Move the slider to show the extent to which you agree with the following statements.</p>","0","html-button-response","427","2667598","0.0-23.0","21702","List1A","white","man","","","","","","","","","","","","",""
"3920.0999999046326","","","html-slider-response","428","2672543","0.0-24.0-0.0-0.0","21702","List1A","white","man","","","","","","","","survey_race","79","","","I am similar to the average person of my race.","similar"
"1533.9000000953674","","","html-slider-response","429","2674078","0.0-24.0-0.0-0.1","21702","List1A","white","man","","","","","","","","survey_race","79","","","I enjoy being in large groups.","filler"
"2735.2000000476837","","","html-slider-response","430","2676814","0.0-24.0-0.0-0.2","21702","List1A","white","man","","","","","","","","survey_race","74","","","I often think about the fact that I am my age.","filler"
"1319","","","html-slider-response","431","2678134","0.0-24.0-0.0-0.3","21702","List1A","white","man","","","","","","","","survey_race","70","","","I have a lot in common with the average person of my race.","average"
"1191.0999999046326","","","html-slider-response","432","2679326","0.0-24.0-0.0-0.4","21702","List1A","white","man","","","","","","","","survey_race","77","","","People of my race are very similar to each other.","verysimilar"
"1383.2000000476837","","","html-slider-response","433","2680710","0.0-24.0-0.0-0.5","21702","List1A","white","man","","","","","","","","survey_race","71","","","People of my race have a lot in common with each other.","common"
"1319.2000000476837","","","html-slider-response","434","2682030","0.0-24.0-0.0-0.6","21702","List1A","white","man","","","","","","","","survey_race","65","","","I think that my race has a lot to be proud of.","proud"
"1191.0999999046326","","","html-slider-response","435","2683222","0.0-24.0-0.0-0.7","21702","List1A","white","man","","","","","","","","survey_race","73","","","I feel solidarity with people the same age as me.","filler"
"1951.0999999046326","","","html-slider-response","436","2685174","0.0-24.0-0.0-0.8","21702","List1A","white","man","","","","","","","","survey_race","72","","","I feel solidarity with my race.","solidarity"
"1559.2999999523163","","","html-slider-response","437","2686735","0.0-24.0-0.0-0.9","21702","List1A","white","man","","","","","","","","survey_race","67","","","People my age have a lot in common with each other.","filler"
"1598.8999998569489","","","html-slider-response","438","2688334","0.0-24.0-0.0-0.10","21702","List1A","white","man","","","","","","","","survey_race","72","","","I consider myself an extrovert.","filler"
"1399.2999999523163","","","html-slider-response","439","2689735","0.0-24.0-0.0-0.11","21702","List1A","white","man","","","","","","","","survey_race","71","","","Getting older does not worry me.","filler"
"1382.0999999046326","","","html-slider-response","440","2691118","0.0-24.0-0.0-0.12","21702","List1A","white","man","","","","","","","","survey_race","70","","","I consider myself an introvert.","filler"
"1495.3000001907349","","","html-slider-response","441","2692615","0.0-24.0-0.0-0.13","21702","List1A","white","man","","","","","","","","survey_race","69","","","The fact that I am my race is an important part of my identity.","identity"
"1190.5","","","html-slider-response","442","2693806","0.0-24.0-0.0-0.14","21702","List1A","white","man","","","","","","","","survey_race","70","","","I feel a bond with people the same age as me.","filler"
"1334.8999998569489","","","html-slider-response","443","2695142","0.0-24.0-0.0-0.15","21702","List1A","white","man","","","","","","","","survey_race","67","","","It is pleasant to be my race.","pleasant"
"1023","","","html-slider-response","444","2696166","0.0-24.0-0.0-0.16","21702","List1A","white","man","","","","","","","","survey_race","68","","","I am glad to be the age I am.","filler"
"1623.1000001430511","","","html-slider-response","445","2697790","0.0-24.0-0.0-0.17","21702","List1A","white","man","","","","","","","","survey_race","72","","","Being my race gives me a good feeling.","feeling"
"2151.2999999523163","","","html-slider-response","446","2699943","0.0-24.0-0.0-0.18","21702","List1A","white","man","","","","","","","","survey_race","69","","","Being my age gives me a good feeling.","filler"
"1294.4000000953674","","","html-slider-response","447","2701238","0.0-24.0-0.0-0.19","21702","List1A","white","man","","","","","","","","survey_race","80","","","I am glad to be my race.","glad"
"2111.2000000476837","","","html-slider-response","448","2703351","0.0-24.0-0.0-0.20","21702","List1A","white","man","","","","","","","","survey_race","68","","","I have a lot in common with people of a similar age to me.","filler"
"1726.5","","","html-slider-response","449","2705078","0.0-24.0-0.0-0.21","21702","List1A","white","man","","","","","","","","survey_race","69","","","The older I get, the wiser I feel.","filler"
"2039","","","html-slider-response","450","2707118","0.0-24.0-0.0-0.22","21702","List1A","white","man","","","","","","","","survey_race","75","","","I feel a bond with my race.","bond"
"1375.1000001430511","","","html-slider-response","451","2708494","0.0-24.0-0.0-0.23","21702","List1A","white","man","","","","","","","","survey_race","60","","","I often think about the fact that I am my race.","often"
"1311.2999999523163","","","html-slider-response","452","2709807","0.0-24.0-0.0-0.24","21702","List1A","white","man","","","","","","","","survey_race","69","","","I am glad to be my age.","filler"
"2438.7999999523163","","","html-slider-response","453","2712246","0.0-24.0-0.0-0.25","21702","List1A","white","man","","","","","","","","survey_race","68","","","My age is not an important part of who I am.","filler"
"1686","","","html-slider-response","454","2713934","0.0-24.0-0.0-0.26","21702","List1A","white","man","","","","","","","","survey_race","67","","","Being my race is an important part of how I see myself.","important"
"1606.7999999523163","","","html-slider-response","455","2715542","0.0-24.0-0.0-0.27","21702","List1A","white","man","","","","","","","","survey_race","72","","","I feel committed to my race.","committed"
"1550.4000000953674","","","html-slider-response","456","2717094","0.0-24.0-1.0-0.0","21702","List1A","white","man","","","","","","","","survey_gender","61","","","I am glad to have the friends that I have.","filler"
"1375.3999998569489","","","html-slider-response","457","2718470","0.0-24.0-1.0-0.1","21702","List1A","white","man","","","","","","","","survey_gender","67","","","My friends understand me.","filler"
"1687.0999999046326","","","html-slider-response","458","2720158","0.0-24.0-1.0-0.2","21702","List1A","white","man","","","","","","","","survey_gender","66","","","I consider myself a highly empathetic person.","filler"
"1550.2999999523163","","","html-slider-response","459","2721710","0.0-24.0-1.0-0.3","21702","List1A","white","man","","","","","","","","survey_gender","71","","","Being my gender gives me a good feeling.","feeling"
"2231.100000143051","","","html-slider-response","460","2723942","0.0-24.0-1.0-0.4","21702","List1A","white","man","","","","","","","","survey_gender","66","","","I feel committed to my gender.","committed"
"1263.1000001430511","","","html-slider-response","461","2725206","0.0-24.0-1.0-0.5","21702","List1A","white","man","","","","","","","","survey_gender","68","","","I often think about the fact that I am my gender.","often"
"1351.0999999046326","","","html-slider-response","462","2726558","0.0-24.0-1.0-0.6","21702","List1A","white","man","","","","","","","","survey_gender","70","","","The fact that I am my gender is an important part of my identity.","identity"
"1335","","","html-slider-response","463","2727894","0.0-24.0-1.0-0.7","21702","List1A","white","man","","","","","","","","survey_gender","84","","","I would say I am an animal person.","filler"
"1199.2000000476837","","","html-slider-response","464","2729094","0.0-24.0-1.0-0.8","21702","List1A","white","man","","","","","","","","survey_gender","66","","","Family is not more important to me than friendship.","filler"
"1231.0999999046326","","","html-slider-response","465","2730326","0.0-24.0-1.0-0.9","21702","List1A","white","man","","","","","","","","survey_gender","73","","","My friends have a lot in common with each other.","filler"
"1494","","","html-slider-response","466","2731822","0.0-24.0-1.0-0.10","21702","List1A","white","man","","","","","","","","survey_gender","76","","","I have a lot in common with the average person of my gender.","average"
"1327","","","html-slider-response","467","2733150","0.0-24.0-1.0-0.11","21702","List1A","white","man","","","","","","","","survey_gender","76","","","I feel solidarity with my gender.","solidarity"
"1423.4000000953674","","","html-slider-response","468","2734574","0.0-24.0-1.0-0.12","21702","List1A","white","man","","","","","","","","survey_gender","64","","","Routine is not important to me.","filler"
"3718.4000000953674","","","html-slider-response","469","2738294","0.0-24.0-1.0-0.13","21702","List1A","white","man","","","","","","","","survey_gender","46","","","I am glad to be my gender.","glad"
"1382.9000000953674","","","html-slider-response","470","2739678","0.0-24.0-1.0-0.14","21702","List1A","white","man","","","","","","","","survey_gender","58","","","I often think about my actions.","filler"
"1510.7000000476837","","","html-slider-response","471","2741190","0.0-24.0-1.0-0.15","21702","List1A","white","man","","","","","","","","survey_gender","63","","","It is not always easy for people to know what I am thinking.","filler"
"2247.5","","","html-slider-response","472","2743439","0.0-24.0-1.0-0.16","21702","List1A","white","man","","","","","","","","survey_gender","69","","","I feel solidarity with my friends.","filler"
"1717.8999998569489","","","html-slider-response","473","2745158","0.0-24.0-1.0-0.17","21702","List1A","white","man","","","","","","","","survey_gender","66","","","I feel a bond with my gender.","bond"
"1423.3999998569489","","","html-slider-response","474","2746582","0.0-24.0-1.0-0.18","21702","List1A","white","man","","","","","","","","survey_gender","65","","","Being my gender is an important part of how I see myself.","important"
"1470","","","html-slider-response","475","2748054","0.0-24.0-1.0-0.19","21702","List1A","white","man","","","","","","","","survey_gender","71","","","I have a lot in common with my friends.","filler"
"1534.2999999523163","","","html-slider-response","476","2749590","0.0-24.0-1.0-0.20","21702","List1A","white","man","","","","","","","","survey_gender","62","","","People of my gender are very similar to each other.","verysimilar"
"1479","","","html-slider-response","477","2751070","0.0-24.0-1.0-0.21","21702","List1A","white","man","","","","","","","","survey_gender","67","","","It is pleasant to be my gender.","pleasant"
"1319.1000001430511","","","html-slider-response","478","2752390","0.0-24.0-1.0-0.22","21702","List1A","white","man","","","","","","","","survey_gender","66","","","I feel a bond with my friends.","filler"
"3447.2000000476837","","","html-slider-response","479","2755838","0.0-24.0-1.0-0.23","21702","List1A","white","man","","","","","","","","survey_gender","60","","","I am similar to the average person of my gender.","similar"
"1622.7999999523163","","","html-slider-response","480","2757462","0.0-24.0-1.0-0.24","21702","List1A","white","man","","","","","","","","survey_gender","71","","","People of my gender have a lot in common with each other.","common"
"14119.200000047684","","","html-slider-response","481","2771582","0.0-24.0-1.0-0.25","21702","List1A","white","man","","","","","","","","survey_gender","60","","","I think that my gender has a lot to be proud of.","proud"
