rt,stimulus,button_pressed,trial_type,trial_index,time_elapsed,internal_node_id,subject,list,ppt_race,ppt_gender,url,first_guess,correct,key_press,responses,image_type,phrase_type,test_part,response,stimulus1,stimulus2,question_type,survey_item
92737.8,Welcome to the experiment. Press Continue to begin.,0,html-button-response,0,92745,0.0-0.0,22058,List1A,white,woman,,,,,,,,,,,,,
42134.8,,,external-html,1,136112,0.0-1.0,22058,List1A,white,woman,consent.html,,,,,,,,,,,,
3276.9,"<p>On the next page, you will see portraits of 8 people and their names.</p><p>Your first task is to take a few minutes to memorise the names of these people.</p><p>You will have to recall their names during the rest of the experiment, so it is</p><p>essential that you try to memorise these people and their names as best as you can.</p><br><p><strong>You will then be tested on your memory of these names and portraits.</strong></p><br><p>The experiment will start after you have completed this memory test.</p><br><p>Ready?</p>",0,html-button-response,2,139391,0.0-2.0,22058,List1A,white,woman,,,,,,,,,,,,,
25048.8,"<img src='img/portrait_matrix_list1.jpg' style='width:900px;height:500px;''></img><p>If you have memorised all the portraits and names and are ready to start, press Continue.</p><p><strong>Please note: Your memory of these faces will be tested 4 times during this experiment.</strong></p>",0,html-button-response,3,165445,0.0-3.0-0.0,22058,List1A,white,woman,,,,,,,,,,,,,
4743.4,"<img src=""portrait/WW2.jpg""style=""height:400px;""></img>",3,html-button-response,4,171194,0.0-3.0-1.0,22058,List1A,white,woman,,TRUE,3,,,,,,,,,,
null,CORRECT,,html-keyboard-response,5,172700,0.0-3.0-2.0-0.0,22058,List1A,white,woman,,,,null,,,,,,,,,
2915.5,"<img src=""portrait/BM1.jpg""style=""height:400px;""></img>",4,html-button-response,6,175618,0.0-3.0-4.0,22058,List1A,white,woman,,TRUE,4,,,,,,,,,,
null,CORRECT,,html-keyboard-response,7,177131,0.0-3.0-5.0-0.0,22058,List1A,white,woman,,,,null,,,,,,,,,
1423.5,"<img src=""portrait/WM2.jpg""style=""height:400px;""></img>",7,html-button-response,8,178557,0.0-3.0-7.0,22058,List1A,white,woman,,TRUE,7,,,,,,,,,,
null,CORRECT,,html-keyboard-response,9,180061,0.0-3.0-8.0-0.0,22058,List1A,white,woman,,,,null,,,,,,,,,
1874.3,"<img src=""portrait/BW2.jpg""style=""height:400px;""></img>",2,html-button-response,10,181937,0.0-3.0-10.0,22058,List1A,white,woman,,TRUE,2,,,,,,,,,,
null,CORRECT,,html-keyboard-response,11,183445,0.0-3.0-11.0-0.0,22058,List1A,white,woman,,,,null,,,,,,,,,
1436.7,"<img src=""portrait/WW1.jpg""style=""height:400px;""></img>",1,html-button-response,12,184884,0.0-3.0-13.0,22058,List1A,white,woman,,TRUE,1,,,,,,,,,,
null,CORRECT,,html-keyboard-response,13,186394,0.0-3.0-14.0-0.0,22058,List1A,white,woman,,,,null,,,,,,,,,
1178.9,"<img src=""portrait/BW1.jpg""style=""height:400px;""></img>",0,html-button-response,14,187575,0.0-3.0-16.0,22058,List1A,white,woman,,TRUE,0,,,,,,,,,,
null,CORRECT,,html-keyboard-response,15,189082,0.0-3.0-17.0-0.0,22058,List1A,white,woman,,,,null,,,,,,,,,
2379.7,"<img src=""portrait/BM2.jpg""style=""height:400px;""></img>",6,html-button-response,16,191464,0.0-3.0-19.0,22058,List1A,white,woman,,TRUE,5,,,,,,,,,,
2280.2,"<img src=""portrait/BM2.jpg""style=""height:400px;""></img>",5,html-button-response,17,194749,0.0-3.0-21.0-0.0,22058,List1A,white,woman,,FALSE,5,,,,,,,,,,
null,CORRECT,,html-keyboard-response,18,196257,0.0-3.0-21.0-1.0-0.0,22058,List1A,white,woman,,,,null,,,,,,,,,
1308.8,"<img src=""portrait/WM1.jpg""style=""height:400px;""></img>",6,html-button-response,19,197568,0.0-3.0-22.0,22058,List1A,white,woman,,TRUE,6,,,,,,,,,,
null,CORRECT,,html-keyboard-response,20,199079,0.0-3.0-23.0-0.0,22058,List1A,white,woman,,,,null,,,,,,,,,
1147,<p>You got 7 out of 8 right first time. Press Continue.</p>,0,html-button-response,21,200228,0.0-3.0-25.0,22058,List1A,white,woman,,,,,,,,,,,,,
1513.1,"As you did not score 100%, the memory game will repeat. Press Continue.",0,html-button-response,22,202747,0.0-3.0-26.0-0.0,22058,List1A,white,woman,,,,,,,,,,,,,
4165.4,"<img src='img/portrait_matrix_list1.jpg' style='width:900px;height:500px;''></img><p>If you have memorised all the portraits and names and are ready to start, press Continue.</p><p><strong>Please note: Your memory of these faces will be tested 4 times during this experiment.</strong></p>",0,html-button-response,23,207920,0.0-3.1-0.1,22058,List1A,white,woman,,,,,,,,,,,,,
1377.1,"<img src=""portrait/WW2.jpg""style=""height:400px;""></img>",3,html-button-response,24,210303,0.0-3.1-1.1,22058,List1A,white,woman,,TRUE,3,,,,,,,,,,
null,CORRECT,,html-keyboard-response,25,211809,0.0-3.1-2.1-0.1,22058,List1A,white,woman,,,,null,,,,,,,,,
2261,"<img src=""portrait/BM1.jpg""style=""height:400px;""></img>",4,html-button-response,26,214073,0.0-3.1-4.1,22058,List1A,white,woman,,TRUE,4,,,,,,,,,,
null,CORRECT,,html-keyboard-response,27,215583,0.0-3.1-5.1-0.1,22058,List1A,white,woman,,,,null,,,,,,,,,
1067.4,"<img src=""portrait/WM2.jpg""style=""height:400px;""></img>",7,html-button-response,28,216652,0.0-3.1-7.1,22058,List1A,white,woman,,TRUE,7,,,,,,,,,,
null,CORRECT,,html-keyboard-response,29,218160,0.0-3.1-8.1-0.1,22058,List1A,white,woman,,,,null,,,,,,,,,
2080.9,"<img src=""portrait/BW2.jpg""style=""height:400px;""></img>",2,html-button-response,30,220243,0.0-3.1-10.1,22058,List1A,white,woman,,TRUE,2,,,,,,,,,,
null,CORRECT,,html-keyboard-response,31,221753,0.0-3.1-11.1-0.1,22058,List1A,white,woman,,,,null,,,,,,,,,
877.2,"<img src=""portrait/WW1.jpg""style=""height:400px;""></img>",1,html-button-response,32,222632,0.0-3.1-13.1,22058,List1A,white,woman,,TRUE,1,,,,,,,,,,
null,CORRECT,,html-keyboard-response,33,224139,0.0-3.1-14.1-0.1,22058,List1A,white,woman,,,,null,,,,,,,,,
630,"<img src=""portrait/BW1.jpg""style=""height:400px;""></img>",0,html-button-response,34,224771,0.0-3.1-16.1,22058,List1A,white,woman,,TRUE,0,,,,,,,,,,
null,CORRECT,,html-keyboard-response,35,226280,0.0-3.1-17.1-0.1,22058,List1A,white,woman,,,,null,,,,,,,,,
936.1,"<img src=""portrait/BM2.jpg""style=""height:400px;""></img>",5,html-button-response,36,227218,0.0-3.1-19.1,22058,List1A,white,woman,,TRUE,5,,,,,,,,,,
null,CORRECT,,html-keyboard-response,37,228726,0.0-3.1-20.1-0.1,22058,List1A,white,woman,,,,null,,,,,,,,,
1177.7,"<img src=""portrait/WM1.jpg""style=""height:400px;""></img>",6,html-button-response,38,229906,0.0-3.1-22.1,22058,List1A,white,woman,,TRUE,6,,,,,,,,,,
null,CORRECT,,html-keyboard-response,39,231413,0.0-3.1-23.1-0.1,22058,List1A,white,woman,,,,null,,,,,,,,,
973.7,<p>You got 8 out of 8 right first time. Press Continue.</p>,0,html-button-response,40,232389,0.0-3.1-25.1,22058,List1A,white,woman,,,,,,,,,,,,,
8102.4,"<p>In this experiment, you will view photographs of the people from the memory game interacting.</p><p>By using the <strong>exact</strong> phrase given <i>after</i> the photograph appears and recalling the correct names of the people in the photographs, form a sentence describing the interaction. You do not need to capitalise names.</p><p>Type your answer in the space provided. Please complete every sentence before moving onto the next trial.</p><p>You will only have a few seconds to memorise each given photograph and phrase before you can respond, so try your best to focus.</p><p>An example is given below. Press 'Continue' when you are ready.</p><img src='img/speaking_example.jpg' style='width:800px;height:460px;''></img>",0,html-button-response,41,241497,0.0-4.0,22058,List1A,white,woman,,,,,,,,,,,,,
1293.2,"<p>Before the experiment starts, you will watch two example trials. Press 'Continue'.</p>",0,html-button-response,42,243796,0.0-5.0,22058,List1A,white,woman,,,,,,,,,,,,,
null,<img src='img/play_eg.gif' style='height:400px;''></img>,,html-keyboard-response,43,246803,0.0-6.0,22058,List1A,white,woman,,,,null,,,,,,,,,
null,<p>is playing with</p>,,html-keyboard-response,44,248806,0.0-7.0,22058,List1A,white,woman,,,,null,,,,,,,,,
1055.3,<p><b>Answer:</b> kate is playing with beth</p>,0,html-button-response,45,249862,0.0-8.0,22058,List1A,white,woman,,,,,,,,,,,,,
null,<img src='img/dance_eg.gif' style='height:400px;''></img>,,html-keyboard-response,46,252871,0.0-9.0,22058,List1A,white,woman,,,,null,,,,,,,,,
null,<p>is being entertained by</p>,,html-keyboard-response,47,254878,0.0-10.0,22058,List1A,white,woman,,,,null,,,,,,,,,
878.3,<p><b>Answer:</b> luke is being entertained by dave</p>,0,html-button-response,48,255757,0.0-11.0,22058,List1A,white,woman,,,,,,,,,,,,,
1156.4,"<p>Ready to start the experiment?</p><br><p><strong>Remember to describe the picture using a full sentence,</strong></p><p><strong>that combines the names of the people with the <i>exact</i> phrase given.</strong></p><p><strong>To receive full payment you must do this correctly.</strong></p><p><strong> You do not need to capitalise names or use punctuation.</strong></p><br><p>Press 'Continue' to begin.</p>",0,html-button-response,49,257916,0.0-12.0,22058,List1A,white,woman,,,,,,,,,,,,,
null,"<div style=""font-size:60px;"">+</div>",,html-keyboard-response,50,259423,0.0-13.0-0.0,22058,List1A,white,woman,,,,null,,,,,,,,,
null,"<img src=""stim_listA/seduce5.gif""style=""height:400px;""></stim_listA>",,html-keyboard-response,51,261426,0.0-13.0-1.0,22058,List1A,white,woman,,,,null,,,,,,,,,
null,is seducing,,html-keyboard-response,52,263429,0.0-13.0-2.0,22058,List1A,white,woman,,,,null,,,,,,,,,
13150.3,,,survey-text,53,276584,0.0-13.0-3.0,22058,List1A,white,woman,,,,,"{""Q0"":""fred is seducing dave""}","<img src=""stim_listA/seduce5.gif""style=""height:400px;""></stim_listA>",is seducing,,,,,,
null,"<div style=""font-size:60px;"">+</div>",,html-keyboard-response,54,277088,0.0-13.0-0.1,22058,List1A,white,woman,,,,null,,,,,,,,,
null,"<img src=""stim_listA/hug5.gif""style=""height:400px;""></stim_listA>",,html-keyboard-response,55,279091,0.0-13.0-1.1,22058,List1A,white,woman,,,,null,,,,,,,,,
null,is hugging,,html-keyboard-response,56,281094,0.0-13.0-2.1,22058,List1A,white,woman,,,,null,,,,,,,,,
6531.7,,,survey-text,57,287629,0.0-13.0-3.1,22058,List1A,white,woman,,,,,"{""Q0"":""luke is hugging fred""}","<img src=""stim_listA/hug5.gif""style=""height:400px;""></stim_listA>",is hugging,,,,,,
null,"<div style=""font-size:60px;"">+</div>",,html-keyboard-response,58,288131,0.0-13.0-0.2,22058,List1A,white,woman,,,,null,,,,,,,,,
null,"<img src=""stim_listA/greet3.gif""style=""height:400px;""></stim_listA>",,html-keyboard-response,59,290134,0.0-13.0-1.2,22058,List1A,white,woman,,,,null,,,,,,,,,
null,is greeting,,html-keyboard-response,60,292136,0.0-13.0-2.2,22058,List1A,white,woman,,,,null,,,,,,,,,
6679,,,survey-text,61,298821,0.0-13.0-3.2,22058,List1A,white,woman,,,,,"{""Q0"":""dave is greeting ruth""}","<img src=""stim_listA/greet3.gif""style=""height:400px;""></stim_listA>",is greeting,,,,,,
null,"<div style=""font-size:60px;"">+</div>",,html-keyboard-response,62,299323,0.0-13.0-0.3,22058,List1A,white,woman,,,,null,,,,,,,,,
null,"<img src=""stim_listA/oppose5.gif""style=""height:400px;""></stim_listA>",,html-keyboard-response,63,301325,0.0-13.0-1.3,22058,List1A,white,woman,,,,null,,,,,,,,,
null,is opposing,,html-keyboard-response,64,303328,0.0-13.0-2.3,22058,List1A,white,woman,,,,null,,,,,,,,,
7201.5,,,survey-text,65,310532,0.0-13.0-3.3,22058,List1A,white,woman,,,,,"{""Q0"":""dave is opposing mike""}","<img src=""stim_listA/oppose5.gif""style=""height:400px;""></stim_listA>",is opposing,,,,,,
null,"<div style=""font-size:60px;"">+</div>",,html-keyboard-response,66,311037,0.0-13.0-0.4,22058,List1A,white,woman,,,,null,,,,,,,,,
null,"<img src=""stim_listA/seduce3.gif""style=""height:400px;""></stim_listA>",,html-keyboard-response,67,313040,0.0-13.0-1.4,22058,List1A,white,woman,,,,null,,,,,,,,,
null,is seducing,,html-keyboard-response,68,315043,0.0-13.0-2.4,22058,List1A,white,woman,,,,null,,,,,,,,,
7091.5,,,survey-text,69,322137,0.0-13.0-3.4,22058,List1A,white,woman,,,,,"{""Q0"":""mike is seducing jane""}","<img src=""stim_listA/seduce3.gif""style=""height:400px;""></stim_listA>",is seducing,,,,,,
null,"<div style=""font-size:60px;"">+</div>",,html-keyboard-response,70,322642,0.0-13.0-0.5,22058,List1A,white,woman,,,,null,,,,,,,,,
null,"<img src=""stim_listA/shout8.gif""style=""height:400px;""></stim_listA>",,html-keyboard-response,71,324645,0.0-13.0-1.5,22058,List1A,white,woman,,,,null,,,,,,,,,
null,is being shouted at by,,html-keyboard-response,72,326647,0.0-13.0-2.5,22058,List1A,white,woman,,,,null,,,,,,,,,
8107.9,,,survey-text,73,334759,0.0-13.0-3.5,22058,List1A,white,woman,,,,,"{""Q0"":""beth is being shouted at by jane""}","<img src=""stim_listA/shout8.gif""style=""height:400px;""></stim_listA>",is being shouted at by,,,,,,
null,"<div style=""font-size:60px;"">+</div>",,html-keyboard-response,74,335262,0.0-13.0-0.6,22058,List1A,white,woman,,,,null,,,,,,,,,
null,"<img src=""stim_listA/copy8.gif""style=""height:400px;""></stim_listA>",,html-keyboard-response,75,337265,0.0-13.0-1.6,22058,List1A,white,woman,,,,null,,,,,,,,,
null,is being copied by,,html-keyboard-response,76,339268,0.0-13.0-2.6,22058,List1A,white,woman,,,,null,,,,,,,,,
4803.4,,,survey-text,77,344075,0.0-13.0-3.6,22058,List1A,white,woman,,,,,"{""Q0"":""beth is being copied by jane""}","<img src=""stim_listA/copy8.gif""style=""height:400px;""></stim_listA>",is being copied by,,,,,,
null,"<div style=""font-size:60px;"">+</div>",,html-keyboard-response,78,344579,0.0-13.0-0.7,22058,List1A,white,woman,,,,null,,,,,,,,,
null,"<img src=""stim_listA/copy7.gif""style=""height:400px;""></stim_listA>",,html-keyboard-response,79,346582,0.0-13.0-1.7,22058,List1A,white,woman,,,,null,,,,,,,,,
null,is copying,,html-keyboard-response,80,348585,0.0-13.0-2.7,22058,List1A,white,woman,,,,null,,,,,,,,,
6551.1,,,survey-text,81,355140,0.0-13.0-3.7,22058,List1A,white,woman,,,,,"{""Q0"":""jane is copying ruth""}","<img src=""stim_listA/copy7.gif""style=""height:400px;""></stim_listA>",is copying,,,,,,
null,"<div style=""font-size:60px;"">+</div>",,html-keyboard-response,82,355644,0.0-13.0-0.8,22058,List1A,white,woman,,,,null,,,,,,,,,
null,"<img src=""stim_listA/seduce2.gif""style=""height:400px;""></stim_listA>",,html-keyboard-response,83,357647,0.0-13.0-1.8,22058,List1A,white,woman,,,,null,,,,,,,,,
null,is being seduced by,,html-keyboard-response,84,359650,0.0-13.0-2.8,22058,List1A,white,woman,,,,null,,,,,,,,,
6430,,,survey-text,85,366083,0.0-13.0-3.8,22058,List1A,white,woman,,,,,"{""Q0"":""beth is being seduced by mike""}","<img src=""stim_listA/seduce2.gif""style=""height:400px;""></stim_listA>",is being seduced by,,,,,,
null,"<div style=""font-size:60px;"">+</div>",,html-keyboard-response,86,366587,0.0-13.0-0.9,22058,List1A,white,woman,,,,null,,,,,,,,,
null,"<img src=""stim_listA/greet8.gif""style=""height:400px;""></stim_listA>",,html-keyboard-response,87,368590,0.0-13.0-1.9,22058,List1A,white,woman,,,,null,,,,,,,,,
null,is being greeted by,,html-keyboard-response,88,370592,0.0-13.0-2.9,22058,List1A,white,woman,,,,null,,,,,,,,,
5230.7,,,survey-text,89,375827,0.0-13.0-3.9,22058,List1A,white,woman,,,,,"{""Q0"":""ruth is being greeted by beth""}","<img src=""stim_listA/greet8.gif""style=""height:400px;""></stim_listA>",is being greeted by,,,,,,
null,"<div style=""font-size:60px;"">+</div>",,html-keyboard-response,90,376329,0.0-13.0-0.10,22058,List1A,white,woman,,,,null,,,,,,,,,
null,"<img src=""stim_listA/touch4.gif""style=""height:400px;""></stim_listA>",,html-keyboard-response,91,378336,0.0-13.0-1.10,22058,List1A,white,woman,,,,null,,,,,,,,,
null,is being touched by,,html-keyboard-response,92,380339,0.0-13.0-2.10,22058,List1A,white,woman,,,,null,,,,,,,,,
6950.9,,,survey-text,93,387294,0.0-13.0-3.10,22058,List1A,white,woman,,,,,"{""Q0"":""mike is being touched by ruth""}","<img src=""stim_listA/touch4.gif""style=""height:400px;""></stim_listA>",is being touched by,,,,,,
null,"<div style=""font-size:60px;"">+</div>",,html-keyboard-response,94,387796,0.0-13.0-0.11,22058,List1A,white,woman,,,,null,,,,,,,,,
null,"<img src=""stim_listA/greet4.gif""style=""height:400px;""></stim_listA>",,html-keyboard-response,95,389802,0.0-13.0-1.11,22058,List1A,white,woman,,,,null,,,,,,,,,
null,is being greeted by,,html-keyboard-response,96,391805,0.0-13.0-2.11,22058,List1A,white,woman,,,,null,,,,,,,,,
6967.6,,,survey-text,97,398776,0.0-13.0-3.11,22058,List1A,white,woman,,,,,"{""Q0"":""luke is being greeted by jane""}","<img src=""stim_listA/greet4.gif""style=""height:400px;""></stim_listA>",is being greeted by,,,,,,
null,"<div style=""font-size:60px;"">+</div>",,html-keyboard-response,98,399278,0.0-13.0-0.12,22058,List1A,white,woman,,,,null,,,,,,,,,
null,"<img src=""stim_listA/hug1.gif""style=""height:400px;""></stim_listA>",,html-keyboard-response,99,401284,0.0-13.0-1.12,22058,List1A,white,woman,,,,null,,,,,,,,,
null,is hugging,,html-keyboard-response,100,403287,0.0-13.0-2.12,22058,List1A,white,woman,,,,null,,,,,,,,,
12995.5,,,survey-text,101,416287,0.0-13.0-3.12,22058,List1A,white,woman,,,,,"{""Q0"":""fred is being hugged by beth""}","<img src=""stim_listA/hug1.gif""style=""height:400px;""></stim_listA>",is hugging,,,,,,
null,"<div style=""font-size:60px;"">+</div>",,html-keyboard-response,102,416790,0.0-13.0-0.13,22058,List1A,white,woman,,,,null,,,,,,,,,
null,"<img src=""stim_listA/oppose3.gif""style=""height:400px;""></stim_listA>",,html-keyboard-response,103,418793,0.0-13.0-1.13,22058,List1A,white,woman,,,,null,,,,,,,,,
null,is opposing,,html-keyboard-response,104,420795,0.0-13.0-2.13,22058,List1A,white,woman,,,,null,,,,,,,,,
8054.6,,,survey-text,105,428854,0.0-13.0-3.13,22058,List1A,white,woman,,,,,"{""Q0"":""dave is opposing jane""}","<img src=""stim_listA/oppose3.gif""style=""height:400px;""></stim_listA>",is opposing,,,,,,
null,"<div style=""font-size:60px;"">+</div>",,html-keyboard-response,106,429358,0.0-13.0-0.14,22058,List1A,white,woman,,,,null,,,,,,,,,
null,"<img src=""stim_listA/kiss2.gif""style=""height:400px;""></stim_listA>",,html-keyboard-response,107,431361,0.0-13.0-1.14,22058,List1A,white,woman,,,,null,,,,,,,,,
null,is being kissed by,,html-keyboard-response,108,433364,0.0-13.0-2.14,22058,List1A,white,woman,,,,null,,,,,,,,,
6031.8,,,survey-text,109,439400,0.0-13.0-3.14,22058,List1A,white,woman,,,,,"{""Q0"":""mike is being kissed by kate""}","<img src=""stim_listA/kiss2.gif""style=""height:400px;""></stim_listA>",is being kissed by,,,,,,
null,"<div style=""font-size:60px;"">+</div>",,html-keyboard-response,110,439902,0.0-13.0-0.15,22058,List1A,white,woman,,,,null,,,,,,,,,
null,"<img src=""stim_listA/copy4.gif""style=""height:400px;""></stim_listA>",,html-keyboard-response,111,441909,0.0-13.0-1.15,22058,List1A,white,woman,,,,null,,,,,,,,,
null,is being copied by,,html-keyboard-response,112,443912,0.0-13.0-2.15,22058,List1A,white,woman,,,,null,,,,,,,,,
4433.5,,,survey-text,113,448349,0.0-13.0-3.15,22058,List1A,white,woman,,,,,"{""Q0"":""luke is being copied by jane""}","<img src=""stim_listA/copy4.gif""style=""height:400px;""></stim_listA>",is being copied by,,,,,,
null,"<div style=""font-size:60px;"">+</div>",,html-keyboard-response,114,448852,0.0-13.0-0.16,22058,List1A,white,woman,,,,null,,,,,,,,,
null,"<img src=""stim_listA/kiss1.gif""style=""height:400px;""></stim_listA>",,html-keyboard-response,115,450854,0.0-13.0-1.16,22058,List1A,white,woman,,,,null,,,,,,,,,
null,is kissing,,html-keyboard-response,116,452857,0.0-13.0-2.16,22058,List1A,white,woman,,,,null,,,,,,,,,
10594.3,,,survey-text,117,463455,0.0-13.0-3.16,22058,List1A,white,woman,,,,,"{""Q0"":""fred is being kissed by beth""}","<img src=""stim_listA/kiss1.gif""style=""height:400px;""></stim_listA>",is kissing,,,,,,
null,"<div style=""font-size:60px;"">+</div>",,html-keyboard-response,118,463957,0.0-13.0-0.17,22058,List1A,white,woman,,,,null,,,,,,,,,
null,"<img src=""stim_listA/touch2.gif""style=""height:400px;""></stim_listA>",,html-keyboard-response,119,465960,0.0-13.0-1.17,22058,List1A,white,woman,,,,null,,,,,,,,,
null,is being touched by,,html-keyboard-response,120,467962,0.0-13.0-2.17,22058,List1A,white,woman,,,,null,,,,,,,,,
7863.8,,,survey-text,121,475830,0.0-13.0-3.17,22058,List1A,white,woman,,,,,"{""Q0"":""beth is being touched by fred""}","<img src=""stim_listA/touch2.gif""style=""height:400px;""></stim_listA>",is being touched by,,,,,,
null,"<div style=""font-size:60px;"">+</div>",,html-keyboard-response,122,476334,0.0-13.0-0.18,22058,List1A,white,woman,,,,null,,,,,,,,,
null,"<img src=""stim_listA/copy3.gif""style=""height:400px;""></stim_listA>",,html-keyboard-response,123,478336,0.0-13.0-1.18,22058,List1A,white,woman,,,,null,,,,,,,,,
null,is copying,,html-keyboard-response,124,480339,0.0-13.0-2.18,22058,List1A,white,woman,,,,null,,,,,,,,,
6420.1,,,survey-text,125,486763,0.0-13.0-3.18,22058,List1A,white,woman,,,,,"{""Q0"":""dave is copying ruth""}","<img src=""stim_listA/copy3.gif""style=""height:400px;""></stim_listA>",is copying,,,,,,
null,"<div style=""font-size:60px;"">+</div>",,html-keyboard-response,126,487265,0.0-13.0-0.19,22058,List1A,white,woman,,,,null,,,,,,,,,
null,"<img src=""stim_listA/greet5.gif""style=""height:400px;""></stim_listA>",,html-keyboard-response,127,489273,0.0-13.0-1.19,22058,List1A,white,woman,,,,null,,,,,,,,,
null,is greeting,,html-keyboard-response,128,491276,0.0-13.0-2.19,22058,List1A,white,woman,,,,null,,,,,,,,,
6222.4,,,survey-text,129,497502,0.0-13.0-3.19,22058,List1A,white,woman,,,,,"{""Q0"":""ruth is greeting luke""}","<img src=""stim_listA/greet5.gif""style=""height:400px;""></stim_listA>",is greeting,,,,,,
131227.5,"<img src='img/portrait_matrix_list1.jpg' style='width:900px;height:500px;''></img><p>If you have memorised all the portraits and names and are ready to start, press Continue.</p><p><strong>Please note: Your memory of these faces will be tested 4 times during this experiment.</strong></p>",0,html-button-response,130,628737,0.0-14.0-0.0,22058,List1A,white,woman,,,,,,,,,,,,,
3271.1,"<img src=""portrait/WM1.jpg""style=""height:400px;""></img>",6,html-button-response,131,633014,0.0-14.0-1.0,22058,List1A,white,woman,,TRUE,6,,,,,,,,,,
null,CORRECT,,html-keyboard-response,132,634524,0.0-14.0-2.0-0.0,22058,List1A,white,woman,,,,null,,,,,,,,,
1760.2,"<img src=""portrait/BW2.jpg""style=""height:400px;""></img>",2,html-button-response,133,636289,0.0-14.0-4.0,22058,List1A,white,woman,,TRUE,2,,,,,,,,,,
null,CORRECT,,html-keyboard-response,134,637799,0.0-14.0-5.0-0.0,22058,List1A,white,woman,,,,null,,,,,,,,,
1551.8,"<img src=""portrait/WW1.jpg""style=""height:400px;""></img>",1,html-button-response,135,639354,0.0-14.0-7.0,22058,List1A,white,woman,,TRUE,1,,,,,,,,,,
null,CORRECT,,html-keyboard-response,136,640864,0.0-14.0-8.0-0.0,22058,List1A,white,woman,,,,null,,,,,,,,,
2701.7,"<img src=""portrait/BW1.jpg""style=""height:400px;""></img>",0,html-button-response,137,643568,0.0-14.0-10.0,22058,List1A,white,woman,,TRUE,0,,,,,,,,,,
null,CORRECT,,html-keyboard-response,138,645078,0.0-14.0-11.0-0.0,22058,List1A,white,woman,,,,null,,,,,,,,,
2089.4,"<img src=""portrait/BM1.jpg""style=""height:400px;""></img>",4,html-button-response,139,647171,0.0-14.0-13.0,22058,List1A,white,woman,,TRUE,4,,,,,,,,,,
null,CORRECT,,html-keyboard-response,140,648677,0.0-14.0-14.0-0.0,22058,List1A,white,woman,,,,null,,,,,,,,,
1816.5,"<img src=""portrait/WM2.jpg""style=""height:400px;""></img>",7,html-button-response,141,650497,0.0-14.0-16.0,22058,List1A,white,woman,,TRUE,7,,,,,,,,,,
null,CORRECT,,html-keyboard-response,142,652004,0.0-14.0-17.0-0.0,22058,List1A,white,woman,,,,null,,,,,,,,,
1352.9,"<img src=""portrait/WW2.jpg""style=""height:400px;""></img>",3,html-button-response,143,653360,0.0-14.0-19.0,22058,List1A,white,woman,,TRUE,3,,,,,,,,,,
null,CORRECT,,html-keyboard-response,144,654866,0.0-14.0-20.0-0.0,22058,List1A,white,woman,,,,null,,,,,,,,,
1157.8,"<img src=""portrait/BM2.jpg""style=""height:400px;""></img>",5,html-button-response,145,656027,0.0-14.0-22.0,22058,List1A,white,woman,,TRUE,5,,,,,,,,,,
null,CORRECT,,html-keyboard-response,146,657536,0.0-14.0-23.0-0.0,22058,List1A,white,woman,,,,null,,,,,,,,,
1006.6,<p>You got 8 out of 8 right first time. Press Continue.</p>,0,html-button-response,147,658545,0.0-14.0-25.0,22058,List1A,white,woman,,,,,,,,,,,,,
null,"<div style=""font-size:60px;"">+</div>",,html-keyboard-response,148,660050,0.0-15.0-0.0,22058,List1A,white,woman,,,,null,,,,,,,,,
null,"<img src=""stim_listA/copy1.gif""style=""height:400px;""></stim_listA>",,html-keyboard-response,149,662052,0.0-15.0-1.0,22058,List1A,white,woman,,,,null,,,,,,,,,
null,is copying,,html-keyboard-response,150,664055,0.0-15.0-2.0,22058,List1A,white,woman,,,,null,,,,,,,,,
5828.2,,,survey-text,151,669887,0.0-15.0-3.0,22058,List1A,white,woman,,,,,"{""Q0"":""beth is copying mike""}","<img src=""stim_listA/copy1.gif""style=""height:400px;""></stim_listA>",is copying,,,,,,
null,"<div style=""font-size:60px;"">+</div>",,html-keyboard-response,152,670389,0.0-15.0-0.1,22058,List1A,white,woman,,,,null,,,,,,,,,
null,"<img src=""stim_listA/kiss5.gif""style=""height:400px;""></stim_listA>",,html-keyboard-response,153,672392,0.0-15.0-1.1,22058,List1A,white,woman,,,,null,,,,,,,,,
null,is kissing,,html-keyboard-response,154,674394,0.0-15.0-2.1,22058,List1A,white,woman,,,,null,,,,,,,,,
5237.7,,,survey-text,155,679636,0.0-15.0-3.1,22058,List1A,white,woman,,,,,"{""Q0"":""luke is kissing fred""}","<img src=""stim_listA/kiss5.gif""style=""height:400px;""></stim_listA>",is kissing,,,,,,
null,"<div style=""font-size:60px;"">+</div>",,html-keyboard-response,156,680138,0.0-15.0-0.2,22058,List1A,white,woman,,,,null,,,,,,,,,
null,"<img src=""stim_listA/challenge6.gif""style=""height:400px;""></stim_listA>",,html-keyboard-response,157,682144,0.0-15.0-1.2,22058,List1A,white,woman,,,,null,,,,,,,,,
null,is being challenged by,,html-keyboard-response,158,684147,0.0-15.0-2.2,22058,List1A,white,woman,,,,null,,,,,,,,,
4733.7,,,survey-text,159,688885,0.0-15.0-3.2,22058,List1A,white,woman,,,,,"{""Q0"":""fred is being challenged by dave""}","<img src=""stim_listA/challenge6.gif""style=""height:400px;""></stim_listA>",is being challenged by,,,,,,
null,"<div style=""font-size:60px;"">+</div>",,html-keyboard-response,160,689388,0.0-15.0-0.3,22058,List1A,white,woman,,,,null,,,,,,,,,
null,"<img src=""stim_listA/look8.gif""style=""height:400px;""></stim_listA>",,html-keyboard-response,161,691392,0.0-15.0-1.3,22058,List1A,white,woman,,,,null,,,,,,,,,
null,is being looked at by,,html-keyboard-response,162,693394,0.0-15.0-2.3,22058,List1A,white,woman,,,,null,,,,,,,,,
4495.9,,,survey-text,163,697894,0.0-15.0-3.3,22058,List1A,white,woman,,,,,"{""Q0"":""ruth is being looked at by kate""}","<img src=""stim_listA/look8.gif""style=""height:400px;""></stim_listA>",is being looked at by,,,,,,
null,"<div style=""font-size:60px;"">+</div>",,html-keyboard-response,164,698399,0.0-15.0-0.4,22058,List1A,white,woman,,,,null,,,,,,,,,
null,"<img src=""stim_listA/shout6.gif""style=""height:400px;""></stim_listA>",,html-keyboard-response,165,700408,0.0-15.0-1.4,22058,List1A,white,woman,,,,null,,,,,,,,,
null,is being shouted at by,,html-keyboard-response,166,702410,0.0-15.0-2.4,22058,List1A,white,woman,,,,null,,,,,,,,,
4776.6,,,survey-text,167,707191,0.0-15.0-3.4,22058,List1A,white,woman,,,,,"{""Q0"":""dave is being shouted at by mike""}","<img src=""stim_listA/shout6.gif""style=""height:400px;""></stim_listA>",is being shouted at by,,,,,,
null,"<div style=""font-size:60px;"">+</div>",,html-keyboard-response,168,707694,0.0-15.0-0.5,22058,List1A,white,woman,,,,null,,,,,,,,,
null,"<img src=""stim_listA/greet7.gif""style=""height:400px;""></stim_listA>",,html-keyboard-response,169,709701,0.0-15.0-1.5,22058,List1A,white,woman,,,,null,,,,,,,,,
null,is greeting,,html-keyboard-response,170,711704,0.0-15.0-2.5,22058,List1A,white,woman,,,,null,,,,,,,,,
7857.6,,,survey-text,171,719566,0.0-15.0-3.5,22058,List1A,white,woman,,,,,"{""Q0"":""kate is being greeted by ruth""}","<img src=""stim_listA/greet7.gif""style=""height:400px;""></stim_listA>",is greeting,,,,,,
null,"<div style=""font-size:60px;"">+</div>",,html-keyboard-response,172,720069,0.0-15.0-0.6,22058,List1A,white,woman,,,,null,,,,,,,,,
null,"<img src=""stim_listA/look4.gif""style=""height:400px;""></stim_listA>",,html-keyboard-response,173,722072,0.0-15.0-1.6,22058,List1A,white,woman,,,,null,,,,,,,,,
null,is being looked at by,,html-keyboard-response,174,724075,0.0-15.0-2.6,22058,List1A,white,woman,,,,null,,,,,,,,,
4985.5,,,survey-text,175,729064,0.0-15.0-3.6,22058,List1A,white,woman,,,,,"{""Q0"":""ruth is being looked at by dave""}","<img src=""stim_listA/look4.gif""style=""height:400px;""></stim_listA>",is being looked at by,,,,,,
null,"<div style=""font-size:60px;"">+</div>",,html-keyboard-response,176,729567,0.0-15.0-0.7,22058,List1A,white,woman,,,,null,,,,,,,,,
null,"<img src=""stim_listA/shout3.gif""style=""height:400px;""></stim_listA>",,html-keyboard-response,177,731575,0.0-15.0-1.7,22058,List1A,white,woman,,,,null,,,,,,,,,
null,is shouting at,,html-keyboard-response,178,733578,0.0-15.0-2.7,22058,List1A,white,woman,,,,null,,,,,,,,,
5042.8,,,survey-text,179,738625,0.0-15.0-3.7,22058,List1A,white,woman,,,,,"{""Q0"":""ruth is being shouted at by luke""}","<img src=""stim_listA/shout3.gif""style=""height:400px;""></stim_listA>",is shouting at,,,,,,
null,"<div style=""font-size:60px;"">+</div>",,html-keyboard-response,180,739128,0.0-15.0-0.8,22058,List1A,white,woman,,,,null,,,,,,,,,
null,"<img src=""stim_listA/oppose4.gif""style=""height:400px;""></stim_listA>",,html-keyboard-response,181,741130,0.0-15.0-1.8,22058,List1A,white,woman,,,,null,,,,,,,,,
null,is being opposed by,,html-keyboard-response,182,743133,0.0-15.0-2.8,22058,List1A,white,woman,,,,null,,,,,,,,,
5967.2,,,survey-text,183,749105,0.0-15.0-3.8,22058,List1A,white,woman,,,,,"{""Q0"":""ruth is being opposed by luke""}","<img src=""stim_listA/oppose4.gif""style=""height:400px;""></stim_listA>",is being opposed by,,,,,,
null,"<div style=""font-size:60px;"">+</div>",,html-keyboard-response,184,749607,0.0-15.0-0.9,22058,List1A,white,woman,,,,null,,,,,,,,,
null,"<img src=""stim_listA/kiss6.gif""style=""height:400px;""></stim_listA>",,html-keyboard-response,185,751615,0.0-15.0-1.9,22058,List1A,white,woman,,,,null,,,,,,,,,
null,is being kissed by,,html-keyboard-response,186,753618,0.0-15.0-2.9,22058,List1A,white,woman,,,,null,,,,,,,,,
6222.4,,,survey-text,187,759845,0.0-15.0-3.9,22058,List1A,white,woman,,,,,"{""Q0"":""mike is being kissed by dave""}","<img src=""stim_listA/kiss6.gif""style=""height:400px;""></stim_listA>",is being kissed by,,,,,,
null,"<div style=""font-size:60px;"">+</div>",,html-keyboard-response,188,760348,0.0-15.0-0.10,22058,List1A,white,woman,,,,null,,,,,,,,,
null,"<img src=""stim_listA/touch1.gif""style=""height:400px;""></stim_listA>",,html-keyboard-response,189,762354,0.0-15.0-1.10,22058,List1A,white,woman,,,,null,,,,,,,,,
null,is touching,,html-keyboard-response,190,764357,0.0-15.0-2.10,22058,List1A,white,woman,,,,null,,,,,,,,,
3395.5,,,survey-text,191,767757,0.0-15.0-3.10,22058,List1A,white,woman,,,,,"{""Q0"":""mike is touching kate""}","<img src=""stim_listA/touch1.gif""style=""height:400px;""></stim_listA>",is touching,,,,,,
null,"<div style=""font-size:60px;"">+</div>",,html-keyboard-response,192,768260,0.0-15.0-0.11,22058,List1A,white,woman,,,,null,,,,,,,,,
null,"<img src=""stim_listA/oppose2.gif""style=""height:400px;""></stim_listA>",,html-keyboard-response,193,770267,0.0-15.0-1.11,22058,List1A,white,woman,,,,null,,,,,,,,,
null,is being opposed by,,html-keyboard-response,194,772273,0.0-15.0-2.11,22058,List1A,white,woman,,,,null,,,,,,,,,
7101.3,,,survey-text,195,779379,0.0-15.0-3.11,22058,List1A,white,woman,,,,,"{""Q0"":""beth is being opposed by fred""}","<img src=""stim_listA/oppose2.gif""style=""height:400px;""></stim_listA>",is being opposed by,,,,,,
null,"<div style=""font-size:60px;"">+</div>",,html-keyboard-response,196,779883,0.0-15.0-0.12,22058,List1A,white,woman,,,,null,,,,,,,,,
null,"<img src=""stim_listA/look5.gif""style=""height:400px;""></stim_listA>",,html-keyboard-response,197,781888,0.0-15.0-1.12,22058,List1A,white,woman,,,,null,,,,,,,,,
null,is looking at,,html-keyboard-response,198,783891,0.0-15.0-2.12,22058,List1A,white,woman,,,,null,,,,,,,,,
3765.7,,,survey-text,199,787661,0.0-15.0-3.12,22058,List1A,white,woman,,,,,"{""Q0"":""fred is looking at luke""}","<img src=""stim_listA/look5.gif""style=""height:400px;""></stim_listA>",is looking at,,,,,,
null,"<div style=""font-size:60px;"">+</div>",,html-keyboard-response,200,788163,0.0-15.0-0.13,22058,List1A,white,woman,,,,null,,,,,,,,,
null,"<img src=""stim_listA/hug7.gif""style=""height:400px;""></stim_listA>",,html-keyboard-response,201,790166,0.0-15.0-1.13,22058,List1A,white,woman,,,,null,,,,,,,,,
null,is hugging,,html-keyboard-response,202,792169,0.0-15.0-2.13,22058,List1A,white,woman,,,,null,,,,,,,,,
2833.9,,,survey-text,203,795006,0.0-15.0-3.13,22058,List1A,white,woman,,,,,"{""Q0"":""beth is hugging ruth""}","<img src=""stim_listA/hug7.gif""style=""height:400px;""></stim_listA>",is hugging,,,,,,
null,"<div style=""font-size:60px;"">+</div>",,html-keyboard-response,204,795507,0.0-15.0-0.14,22058,List1A,white,woman,,,,null,,,,,,,,,
null,"<img src=""stim_listA/shout1.gif""style=""height:400px;""></stim_listA>",,html-keyboard-response,205,797510,0.0-15.0-1.14,22058,List1A,white,woman,,,,null,,,,,,,,,
null,is shouting at,,html-keyboard-response,206,799512,0.0-15.0-2.14,22058,List1A,white,woman,,,,null,,,,,,,,,
3091.5,,,survey-text,207,802607,0.0-15.0-3.14,22058,List1A,white,woman,,,,,"{""Q0"":""fred is shouting at beth""}","<img src=""stim_listA/shout1.gif""style=""height:400px;""></stim_listA>",is shouting at,,,,,,
null,"<div style=""font-size:60px;"">+</div>",,html-keyboard-response,208,803109,0.0-15.0-0.15,22058,List1A,white,woman,,,,null,,,,,,,,,
null,"<img src=""stim_listA/touch7.gif""style=""height:400px;""></stim_listA>",,html-keyboard-response,209,805114,0.0-15.0-1.15,22058,List1A,white,woman,,,,null,,,,,,,,,
null,is touching,,html-keyboard-response,210,807119,0.0-15.0-2.15,22058,List1A,white,woman,,,,null,,,,,,,,,
3627.4,,,survey-text,211,810750,0.0-15.0-3.15,22058,List1A,white,woman,,,,,"{""Q0"":""kate is touching ruth""}","<img src=""stim_listA/touch7.gif""style=""height:400px;""></stim_listA>",is touching,,,,,,
null,"<div style=""font-size:60px;"">+</div>",,html-keyboard-response,212,811251,0.0-15.0-0.16,22058,List1A,white,woman,,,,null,,,,,,,,,
null,"<img src=""stim_listA/greet2.gif""style=""height:400px;""></stim_listA>",,html-keyboard-response,213,813253,0.0-15.0-1.16,22058,List1A,white,woman,,,,null,,,,,,,,,
null,is being greeted by,,html-keyboard-response,214,815256,0.0-15.0-2.16,22058,List1A,white,woman,,,,null,,,,,,,,,
4812.1,,,survey-text,215,820071,0.0-15.0-3.16,22058,List1A,white,woman,,,,,"{""Q0"":""kate is being greeted by fred""}","<img src=""stim_listA/greet2.gif""style=""height:400px;""></stim_listA>",is being greeted by,,,,,,
null,"<div style=""font-size:60px;"">+</div>",,html-keyboard-response,216,820574,0.0-15.0-0.17,22058,List1A,white,woman,,,,null,,,,,,,,,
null,"<img src=""stim_listA/hug6.gif""style=""height:400px;""></stim_listA>",,html-keyboard-response,217,822576,0.0-15.0-1.17,22058,List1A,white,woman,,,,null,,,,,,,,,
null,is being hugged by,,html-keyboard-response,218,824579,0.0-15.0-2.17,22058,List1A,white,woman,,,,null,,,,,,,,,
3959.2,,,survey-text,219,828541,0.0-15.0-3.17,22058,List1A,white,woman,,,,,"{""Q0"":""dave is being hugged by mike""}","<img src=""stim_listA/hug6.gif""style=""height:400px;""></stim_listA>",is being hugged by,,,,,,
null,"<div style=""font-size:60px;"">+</div>",,html-keyboard-response,220,829044,0.0-15.0-0.18,22058,List1A,white,woman,,,,null,,,,,,,,,
null,"<img src=""stim_listA/seduce1.gif""style=""height:400px;""></stim_listA>",,html-keyboard-response,221,831046,0.0-15.0-1.18,22058,List1A,white,woman,,,,null,,,,,,,,,
null,is seducing,,html-keyboard-response,222,833049,0.0-15.0-2.18,22058,List1A,white,woman,,,,null,,,,,,,,,
3379.7,,,survey-text,223,836431,0.0-15.0-3.18,22058,List1A,white,woman,,,,,"{""Q0"":""fred is seducing kate""}","<img src=""stim_listA/seduce1.gif""style=""height:400px;""></stim_listA>",is seducing,,,,,,
null,"<div style=""font-size:60px;"">+</div>",,html-keyboard-response,224,836932,0.0-15.0-0.19,22058,List1A,white,woman,,,,null,,,,,,,,,
null,"<img src=""stim_listA/oppose7.gif""style=""height:400px;""></stim_listA>",,html-keyboard-response,225,838935,0.0-15.0-1.19,22058,List1A,white,woman,,,,null,,,,,,,,,
null,is opposing,,html-keyboard-response,226,840938,0.0-15.0-2.19,22058,List1A,white,woman,,,,null,,,,,,,,,
4559.2,,,survey-text,227,845501,0.0-15.0-3.19,22058,List1A,white,woman,,,,,"{""Q0"":""kate is opposing ruth""}","<img src=""stim_listA/oppose7.gif""style=""height:400px;""></stim_listA>",is opposing,,,,,,
76324.8,"<img src='img/portrait_matrix_list1.jpg' style='width:900px;height:500px;''></img><p>If you have memorised all the portraits and names and are ready to start, press Continue.</p><p><strong>Please note: Your memory of these faces will be tested 4 times during this experiment.</strong></p>",0,html-button-response,228,921830,0.0-16.0-0.0,22058,List1A,white,woman,,,,,,,,,,,,,
2040.8,"<img src=""portrait/WM1.jpg""style=""height:400px;""></img>",6,html-button-response,229,924874,0.0-16.0-1.0,22058,List1A,white,woman,,TRUE,6,,,,,,,,,,
null,CORRECT,,html-keyboard-response,230,926384,0.0-16.0-2.0-0.0,22058,List1A,white,woman,,,,null,,,,,,,,,
1405.2,"<img src=""portrait/BW1.jpg""style=""height:400px;""></img>",0,html-button-response,231,927791,0.0-16.0-4.0,22058,List1A,white,woman,,TRUE,0,,,,,,,,,,
null,CORRECT,,html-keyboard-response,232,929299,0.0-16.0-5.0-0.0,22058,List1A,white,woman,,,,null,,,,,,,,,
1995.5,"<img src=""portrait/WW2.jpg""style=""height:400px;""></img>",3,html-button-response,233,931297,0.0-16.0-7.0,22058,List1A,white,woman,,TRUE,3,,,,,,,,,,
null,CORRECT,,html-keyboard-response,234,932805,0.0-16.0-8.0-0.0,22058,List1A,white,woman,,,,null,,,,,,,,,
2398.4,"<img src=""portrait/BM2.jpg""style=""height:400px;""></img>",5,html-button-response,235,935205,0.0-16.0-10.0,22058,List1A,white,woman,,TRUE,5,,,,,,,,,,
null,CORRECT,,html-keyboard-response,236,936712,0.0-16.0-11.0-0.0,22058,List1A,white,woman,,,,null,,,,,,,,,
923.2,"<img src=""portrait/BW2.jpg""style=""height:400px;""></img>",2,html-button-response,237,937636,0.0-16.0-13.0,22058,List1A,white,woman,,TRUE,2,,,,,,,,,,
null,CORRECT,,html-keyboard-response,238,939144,0.0-16.0-14.0-0.0,22058,List1A,white,woman,,,,null,,,,,,,,,
1614.9,"<img src=""portrait/WM2.jpg""style=""height:400px;""></img>",7,html-button-response,239,940761,0.0-16.0-16.0,22058,List1A,white,woman,,TRUE,7,,,,,,,,,,
null,CORRECT,,html-keyboard-response,240,942267,0.0-16.0-17.0-0.0,22058,List1A,white,woman,,,,null,,,,,,,,,
2245.5,"<img src=""portrait/WW1.jpg""style=""height:400px;""></img>",1,html-button-response,241,944515,0.0-16.0-19.0,22058,List1A,white,woman,,TRUE,1,,,,,,,,,,
null,CORRECT,,html-keyboard-response,242,946023,0.0-16.0-20.0-0.0,22058,List1A,white,woman,,,,null,,,,,,,,,
1273.9,"<img src=""portrait/BM1.jpg""style=""height:400px;""></img>",4,html-button-response,243,947299,0.0-16.0-22.0,22058,List1A,white,woman,,TRUE,4,,,,,,,,,,
null,CORRECT,,html-keyboard-response,244,948810,0.0-16.0-23.0-0.0,22058,List1A,white,woman,,,,null,,,,,,,,,
858.8,<p>You got 8 out of 8 right first time. Press Continue.</p>,0,html-button-response,245,949670,0.0-16.0-25.0,22058,List1A,white,woman,,,,,,,,,,,,,
null,"<div style=""font-size:60px;"">+</div>",,html-keyboard-response,246,951178,0.0-17.0-0.0,22058,List1A,white,woman,,,,null,,,,,,,,,
null,"<img src=""stim_listA/challenge3.gif""style=""height:400px;""></stim_listA>",,html-keyboard-response,247,953181,0.0-17.0-1.0,22058,List1A,white,woman,,,,null,,,,,,,,,
null,is challenging,,html-keyboard-response,248,955184,0.0-17.0-2.0,22058,List1A,white,woman,,,,null,,,,,,,,,
5413.6,,,survey-text,249,960600,0.0-17.0-3.0,22058,List1A,white,woman,,,,,"{""Q0"":""ruth is challenging dave""}","<img src=""stim_listA/challenge3.gif""style=""height:400px;""></stim_listA>",is challenging,,,,,,
null,"<div style=""font-size:60px;"">+</div>",,html-keyboard-response,250,961105,0.0-17.0-0.1,22058,List1A,white,woman,,,,null,,,,,,,,,
null,"<img src=""stim_listA/kiss3.gif""style=""height:400px;""></stim_listA>",,html-keyboard-response,251,963108,0.0-17.0-1.1,22058,List1A,white,woman,,,,null,,,,,,,,,
null,is kissing,,html-keyboard-response,252,965111,0.0-17.0-2.1,22058,List1A,white,woman,,,,null,,,,,,,,,
4295.4,,,survey-text,253,969409,0.0-17.0-3.1,22058,List1A,white,woman,,,,,"{""Q0"":""ruth is kissing luke""}","<img src=""stim_listA/kiss3.gif""style=""height:400px;""></stim_listA>",is kissing,,,,,,
null,"<div style=""font-size:60px;"">+</div>",,html-keyboard-response,254,969911,0.0-17.0-0.2,22058,List1A,white,woman,,,,null,,,,,,,,,
null,"<img src=""stim_listA/kiss7.gif""style=""height:400px;""></stim_listA>",,html-keyboard-response,255,971914,0.0-17.0-1.2,22058,List1A,white,woman,,,,null,,,,,,,,,
null,is kissing,,html-keyboard-response,256,973917,0.0-17.0-2.2,22058,List1A,white,woman,,,,null,,,,,,,,,
5418.7,,,survey-text,257,979339,0.0-17.0-3.2,22058,List1A,white,woman,,,,,"{""Q0"":""beth is kissing ruth""}","<img src=""stim_listA/kiss7.gif""style=""height:400px;""></stim_listA>",is kissing,,,,,,
null,"<div style=""font-size:60px;"">+</div>",,html-keyboard-response,258,979842,0.0-17.0-0.3,22058,List1A,white,woman,,,,null,,,,,,,,,
null,"<img src=""stim_listA/shout2.gif""style=""height:400px;""></stim_listA>",,html-keyboard-response,259,981847,0.0-17.0-1.3,22058,List1A,white,woman,,,,null,,,,,,,,,
null,is being shouted at by,,html-keyboard-response,260,983850,0.0-17.0-2.3,22058,List1A,white,woman,,,,null,,,,,,,,,
4746.8,,,survey-text,261,988600,0.0-17.0-3.3,22058,List1A,white,woman,,,,,"{""Q0"":""kate is being shouted at by mike""}","<img src=""stim_listA/shout2.gif""style=""height:400px;""></stim_listA>",is being shouted at by,,,,,,
null,"<div style=""font-size:60px;"">+</div>",,html-keyboard-response,262,989103,0.0-17.0-0.4,22058,List1A,white,woman,,,,null,,,,,,,,,
null,"<img src=""stim_listA/hug2.gif""style=""height:400px;""></stim_listA>",,html-keyboard-response,263,991106,0.0-17.0-1.4,22058,List1A,white,woman,,,,null,,,,,,,,,
null,is being hugged by,,html-keyboard-response,264,993109,0.0-17.0-2.4,22058,List1A,white,woman,,,,null,,,,,,,,,
4267,,,survey-text,265,997379,0.0-17.0-3.4,22058,List1A,white,woman,,,,,"{""Q0"":""kate is being hugged by mike""}","<img src=""stim_listA/hug2.gif""style=""height:400px;""></stim_listA>",is being hugged by,,,,,,
null,"<div style=""font-size:60px;"">+</div>",,html-keyboard-response,266,997881,0.0-17.0-0.5,22058,List1A,white,woman,,,,null,,,,,,,,,
null,"<img src=""stim_listA/challenge5.gif""style=""height:400px;""></stim_listA>",,html-keyboard-response,267,999884,0.0-17.0-1.5,22058,List1A,white,woman,,,,null,,,,,,,,,
null,is challenging,,html-keyboard-response,268,1001886,0.0-17.0-2.5,22058,List1A,white,woman,,,,null,,,,,,,,,
3157.4,,,survey-text,269,1005047,0.0-17.0-3.5,22058,List1A,white,woman,,,,,"{""Q0"":""luke is challenging mike""}","<img src=""stim_listA/challenge5.gif""style=""height:400px;""></stim_listA>",is challenging,,,,,,
null,"<div style=""font-size:60px;"">+</div>",,html-keyboard-response,270,1005549,0.0-17.0-0.6,22058,List1A,white,woman,,,,null,,,,,,,,,
null,"<img src=""stim_listA/shout4.gif""style=""height:400px;""></stim_listA>",,html-keyboard-response,271,1007552,0.0-17.0-1.6,22058,List1A,white,woman,,,,null,,,,,,,,,
null,is being shouted at by,,html-keyboard-response,272,1009555,0.0-17.0-2.6,22058,List1A,white,woman,,,,null,,,,,,,,,
4244.2,,,survey-text,273,1013802,0.0-17.0-3.6,22058,List1A,white,woman,,,,,"{""Q0"":""jane is being shouted at by dave""}","<img src=""stim_listA/shout4.gif""style=""height:400px;""></stim_listA>",is being shouted at by,,,,,,
null,"<div style=""font-size:60px;"">+</div>",,html-keyboard-response,274,1014304,0.0-17.0-0.7,22058,List1A,white,woman,,,,null,,,,,,,,,
null,"<img src=""stim_listA/challenge7.gif""style=""height:400px;""></stim_listA>",,html-keyboard-response,275,1016306,0.0-17.0-1.7,22058,List1A,white,woman,,,,null,,,,,,,,,
null,is challenging,,html-keyboard-response,276,1018309,0.0-17.0-2.7,22058,List1A,white,woman,,,,null,,,,,,,,,
3674.7,,,survey-text,277,1021987,0.0-17.0-3.7,22058,List1A,white,woman,,,,,"{""Q0"":""kate is challenging ruth""}","<img src=""stim_listA/challenge7.gif""style=""height:400px;""></stim_listA>",is challenging,,,,,,
null,"<div style=""font-size:60px;"">+</div>",,html-keyboard-response,278,1022489,0.0-17.0-0.8,22058,List1A,white,woman,,,,null,,,,,,,,,
null,"<img src=""stim_listA/touch5.gif""style=""height:400px;""></stim_listA>",,html-keyboard-response,279,1024492,0.0-17.0-1.8,22058,List1A,white,woman,,,,null,,,,,,,,,
null,is touching,,html-keyboard-response,280,1026494,0.0-17.0-2.8,22058,List1A,white,woman,,,,null,,,,,,,,,
3159.3,,,survey-text,281,1029657,0.0-17.0-3.8,22058,List1A,white,woman,,,,,"{""Q0"":""mike is touching dave""}","<img src=""stim_listA/touch5.gif""style=""height:400px;""></stim_listA>",is touching,,,,,,
null,"<div style=""font-size:60px;"">+</div>",,html-keyboard-response,282,1030159,0.0-17.0-0.9,22058,List1A,white,woman,,,,null,,,,,,,,,
null,"<img src=""stim_listA/challenge4.gif""style=""height:400px;""></stim_listA>",,html-keyboard-response,283,1032166,0.0-17.0-1.9,22058,List1A,white,woman,,,,null,,,,,,,,,
null,is being challenged by,,html-keyboard-response,284,1034169,0.0-17.0-2.9,22058,List1A,white,woman,,,,null,,,,,,,,,
6937.3,,,survey-text,285,1041110,0.0-17.0-3.9,22058,List1A,white,woman,,,,,"{""Q0"":""kate is touching luke""}","<img src=""stim_listA/challenge4.gif""style=""height:400px;""></stim_listA>",is being challenged by,,,,,,
null,"<div style=""font-size:60px;"">+</div>",,html-keyboard-response,286,1041612,0.0-17.0-0.10,22058,List1A,white,woman,,,,null,,,,,,,,,
null,"<img src=""stim_listA/seduce4.gif""style=""height:400px;""></stim_listA>",,html-keyboard-response,287,1043614,0.0-17.0-1.10,22058,List1A,white,woman,,,,null,,,,,,,,,
null,is being seduced by,,html-keyboard-response,288,1045617,0.0-17.0-2.10,22058,List1A,white,woman,,,,null,,,,,,,,,
4470.7,,,survey-text,289,1050091,0.0-17.0-3.10,22058,List1A,white,woman,,,,,"{""Q0"":""ruth is being seduced by dave""}","<img src=""stim_listA/seduce4.gif""style=""height:400px;""></stim_listA>",is being seduced by,,,,,,
null,"<div style=""font-size:60px;"">+</div>",,html-keyboard-response,290,1050592,0.0-17.0-0.11,22058,List1A,white,woman,,,,null,,,,,,,,,
null,"<img src=""stim_listA/shout7.gif""style=""height:400px;""></stim_listA>",,html-keyboard-response,291,1052595,0.0-17.0-1.11,22058,List1A,white,woman,,,,null,,,,,,,,,
null,is shouting at,,html-keyboard-response,292,1054598,0.0-17.0-2.11,22058,List1A,white,woman,,,,null,,,,,,,,,
3532.8,,,survey-text,293,1058134,0.0-17.0-3.11,22058,List1A,white,woman,,,,,"{""Q0"":""beth is shouting at ruth""}","<img src=""stim_listA/shout7.gif""style=""height:400px;""></stim_listA>",is shouting at,,,,,,
null,"<div style=""font-size:60px;"">+</div>",,html-keyboard-response,294,1058639,0.0-17.0-0.12,22058,List1A,white,woman,,,,null,,,,,,,,,
null,"<img src=""stim_listA/hug3.gif""style=""height:400px;""></stim_listA>",,html-keyboard-response,295,1060641,0.0-17.0-1.12,22058,List1A,white,woman,,,,null,,,,,,,,,
null,is hugging,,html-keyboard-response,296,1062644,0.0-17.0-2.12,22058,List1A,white,woman,,,,null,,,,,,,,,
3432.4,,,survey-text,297,1066081,0.0-17.0-3.12,22058,List1A,white,woman,,,,,"{""Q0"":""luke is hugging ruth""}","<img src=""stim_listA/hug3.gif""style=""height:400px;""></stim_listA>",is hugging,,,,,,
null,"<div style=""font-size:60px;"">+</div>",,html-keyboard-response,298,1066583,0.0-17.0-0.13,22058,List1A,white,woman,,,,null,,,,,,,,,
null,"<img src=""stim_listA/challenge2.gif""style=""height:400px;""></stim_listA>",,html-keyboard-response,299,1068589,0.0-17.0-1.13,22058,List1A,white,woman,,,,null,,,,,,,,,
null,is being challenged by,,html-keyboard-response,300,1070594,0.0-17.0-2.13,22058,List1A,white,woman,,,,null,,,,,,,,,
4976.1,,,survey-text,301,1075574,0.0-17.0-3.13,22058,List1A,white,woman,,,,,"{""Q0"":""fred is being challenged by kate""}","<img src=""stim_listA/challenge2.gif""style=""height:400px;""></stim_listA>",is being challenged by,,,,,,
null,"<div style=""font-size:60px;"">+</div>",,html-keyboard-response,302,1076078,0.0-17.0-0.14,22058,List1A,white,woman,,,,null,,,,,,,,,
null,"<img src=""stim_listA/look1.gif""style=""height:400px;""></stim_listA>",,html-keyboard-response,303,1078081,0.0-17.0-1.14,22058,List1A,white,woman,,,,null,,,,,,,,,
null,is looking at,,html-keyboard-response,304,1080083,0.0-17.0-2.14,22058,List1A,white,woman,,,,null,,,,,,,,,
4396.4,,,survey-text,305,1084483,0.0-17.0-3.14,22058,List1A,white,woman,,,,,"{""Q0"":""fred is looking at beth""}","<img src=""stim_listA/look1.gif""style=""height:400px;""></stim_listA>",is looking at,,,,,,
null,"<div style=""font-size:60px;"">+</div>",,html-keyboard-response,306,1084986,0.0-17.0-0.15,22058,List1A,white,woman,,,,null,,,,,,,,,
null,"<img src=""stim_listA/kiss4.gif""style=""height:400px;""></stim_listA>",,html-keyboard-response,307,1086992,0.0-17.0-1.15,22058,List1A,white,woman,,,,null,,,,,,,,,
null,is being kissed by,,html-keyboard-response,308,1088994,0.0-17.0-2.15,22058,List1A,white,woman,,,,null,,,,,,,,,
4073.4,,,survey-text,309,1093071,0.0-17.0-3.15,22058,List1A,white,woman,,,,,"{""Q0"":""jane is being kissed by dave""}","<img src=""stim_listA/kiss4.gif""style=""height:400px;""></stim_listA>",is being kissed by,,,,,,
null,"<div style=""font-size:60px;"">+</div>",,html-keyboard-response,310,1093575,0.0-17.0-0.16,22058,List1A,white,woman,,,,null,,,,,,,,,
null,"<img src=""stim_listA/look6.gif""style=""height:400px;""></stim_listA>",,html-keyboard-response,311,1095578,0.0-17.0-1.16,22058,List1A,white,woman,,,,null,,,,,,,,,
null,is being looked at by,,html-keyboard-response,312,1097582,0.0-17.0-2.16,22058,List1A,white,woman,,,,null,,,,,,,,,
4204.9,,,survey-text,313,1101791,0.0-17.0-3.16,22058,List1A,white,woman,,,,,"{""Q0"":""dave is being looked at by mike""}","<img src=""stim_listA/look6.gif""style=""height:400px;""></stim_listA>",is being looked at by,,,,,,
null,"<div style=""font-size:60px;"">+</div>",,html-keyboard-response,314,1102294,0.0-17.0-0.17,22058,List1A,white,woman,,,,null,,,,,,,,,
null,"<img src=""stim_listA/challenge1.gif""style=""height:400px;""></stim_listA>",,html-keyboard-response,315,1104297,0.0-17.0-1.17,22058,List1A,white,woman,,,,null,,,,,,,,,
null,is challenging,,html-keyboard-response,316,1106300,0.0-17.0-2.17,22058,List1A,white,woman,,,,null,,,,,,,,,
3681.9,,,survey-text,317,1109985,0.0-17.0-3.17,22058,List1A,white,woman,,,,,"{""Q0"":""mike is challenging beth""}","<img src=""stim_listA/challenge1.gif""style=""height:400px;""></stim_listA>",is challenging,,,,,,
null,"<div style=""font-size:60px;"">+</div>",,html-keyboard-response,318,1110488,0.0-17.0-0.18,22058,List1A,white,woman,,,,null,,,,,,,,,
null,"<img src=""stim_listA/look7.gif""style=""height:400px;""></stim_listA>",,html-keyboard-response,319,1112494,0.0-17.0-1.18,22058,List1A,white,woman,,,,null,,,,,,,,,
null,is looking at,,html-keyboard-response,320,1114497,0.0-17.0-2.18,22058,List1A,white,woman,,,,null,,,,,,,,,
4557.5,,,survey-text,321,1119058,0.0-17.0-3.18,22058,List1A,white,woman,,,,,"{""Q0"":""beth is looking at ruth""}","<img src=""stim_listA/look7.gif""style=""height:400px;""></stim_listA>",is looking at,,,,,,
null,"<div style=""font-size:60px;"">+</div>",,html-keyboard-response,322,1119560,0.0-17.0-0.19,22058,List1A,white,woman,,,,null,,,,,,,,,
null,"<img src=""stim_listA/touch6.gif""style=""height:400px;""></stim_listA>",,html-keyboard-response,323,1121567,0.0-17.0-1.19,22058,List1A,white,woman,,,,null,,,,,,,,,
null,is being touched by,,html-keyboard-response,324,1123570,0.0-17.0-2.19,22058,List1A,white,woman,,,,null,,,,,,,,,
4591.7,,,survey-text,325,1128166,0.0-17.0-3.19,22058,List1A,white,woman,,,,,"{""Q0"":""luke is being touched by fred""}","<img src=""stim_listA/touch6.gif""style=""height:400px;""></stim_listA>",is being touched by,,,,,,
375481.2,"<img src='img/portrait_matrix_list1.jpg' style='width:900px;height:500px;''></img><p>If you have memorised all the portraits and names and are ready to start, press Continue.</p><p><strong>Please note: Your memory of these faces will be tested 4 times during this experiment.</strong></p>",0,html-button-response,326,1503661,0.0-18.0-0.0,22058,List1A,white,woman,,,,,,,,,,,,,
1730.3,"<img src=""portrait/WW1.jpg""style=""height:400px;""></img>",1,html-button-response,327,1506400,0.0-18.0-1.0,22058,List1A,white,woman,,TRUE,1,,,,,,,,,,
null,CORRECT,,html-keyboard-response,328,1507907,0.0-18.0-2.0-0.0,22058,List1A,white,woman,,,,null,,,,,,,,,
7885.7,"<img src=""portrait/BW1.jpg""style=""height:400px;""></img>",0,html-button-response,329,1515795,0.0-18.0-4.0,22058,List1A,white,woman,,TRUE,0,,,,,,,,,,
null,CORRECT,,html-keyboard-response,330,1517305,0.0-18.0-5.0-0.0,22058,List1A,white,woman,,,,null,,,,,,,,,
1459.3,"<img src=""portrait/BM1.jpg""style=""height:400px;""></img>",4,html-button-response,331,1518767,0.0-18.0-7.0,22058,List1A,white,woman,,TRUE,4,,,,,,,,,,
null,CORRECT,,html-keyboard-response,332,1520278,0.0-18.0-8.0-0.0,22058,List1A,white,woman,,,,null,,,,,,,,,
1242.2,"<img src=""portrait/WM2.jpg""style=""height:400px;""></img>",7,html-button-response,333,1521523,0.0-18.0-10.0,22058,List1A,white,woman,,TRUE,7,,,,,,,,,,
null,CORRECT,,html-keyboard-response,334,1523029,0.0-18.0-11.0-0.0,22058,List1A,white,woman,,,,null,,,,,,,,,
1593,"<img src=""portrait/BW2.jpg""style=""height:400px;""></img>",2,html-button-response,335,1524625,0.0-18.0-13.0,22058,List1A,white,woman,,TRUE,2,,,,,,,,,,
null,CORRECT,,html-keyboard-response,336,1526135,0.0-18.0-14.0-0.0,22058,List1A,white,woman,,,,null,,,,,,,,,
2042.6,"<img src=""portrait/BM2.jpg""style=""height:400px;""></img>",5,html-button-response,337,1528180,0.0-18.0-16.0,22058,List1A,white,woman,,TRUE,5,,,,,,,,,,
null,CORRECT,,html-keyboard-response,338,1529688,0.0-18.0-17.0-0.0,22058,List1A,white,woman,,,,null,,,,,,,,,
1189.1,"<img src=""portrait/WM1.jpg""style=""height:400px;""></img>",6,html-button-response,339,1530880,0.0-18.0-19.0,22058,List1A,white,woman,,TRUE,6,,,,,,,,,,
null,CORRECT,,html-keyboard-response,340,1532387,0.0-18.0-20.0-0.0,22058,List1A,white,woman,,,,null,,,,,,,,,
1449.4,"<img src=""portrait/WW2.jpg""style=""height:400px;""></img>",3,html-button-response,341,1533839,0.0-18.0-22.0,22058,List1A,white,woman,,TRUE,3,,,,,,,,,,
null,CORRECT,,html-keyboard-response,342,1535348,0.0-18.0-23.0-0.0,22058,List1A,white,woman,,,,null,,,,,,,,,
907.7,<p>You got 8 out of 8 right first time. Press Continue.</p>,0,html-button-response,343,1536258,0.0-18.0-25.0,22058,List1A,white,woman,,,,,,,,,,,,,
null,"<div style=""font-size:60px;"">+</div>",,html-keyboard-response,344,1537768,0.0-19.0-0.0,22058,List1A,white,woman,,,,null,,,,,,,,,
null,"<img src=""stim_listA/challenge8.gif""style=""height:400px;""></stim_listA>",,html-keyboard-response,345,1539771,0.0-19.0-1.0,22058,List1A,white,woman,,,,null,,,,,,,,,
null,is being challenged by,,html-keyboard-response,346,1541774,0.0-19.0-2.0,22058,List1A,white,woman,,,,null,,,,,,,,,
6825.1,,,survey-text,347,1548604,0.0-19.0-3.0,22058,List1A,white,woman,,,,,"{""Q0"":""beth is being challenged by jane""}","<img src=""stim_listA/challenge8.gif""style=""height:400px;""></stim_listA>",is being challenged by,,,,,,
null,"<div style=""font-size:60px;"">+</div>",,html-keyboard-response,348,1549108,0.0-19.0-0.1,22058,List1A,white,woman,,,,null,,,,,,,,,
null,"<img src=""stim_listA/copy5.gif""style=""height:400px;""></stim_listA>",,html-keyboard-response,349,1551114,0.0-19.0-1.1,22058,List1A,white,woman,,,,null,,,,,,,,,
null,is copying,,html-keyboard-response,350,1553117,0.0-19.0-2.1,22058,List1A,white,woman,,,,null,,,,,,,,,
13064.9,,,survey-text,351,1566186,0.0-19.0-3.1,22058,List1A,white,woman,,,,,"{""Q0"":""luke is coping fred""}","<img src=""stim_listA/copy5.gif""style=""height:400px;""></stim_listA>",is copying,,,,,,
null,"<div style=""font-size:60px;"">+</div>",,html-keyboard-response,352,1566690,0.0-19.0-0.2,22058,List1A,white,woman,,,,null,,,,,,,,,
null,"<img src=""stim_listA/seduce6.gif""style=""height:400px;""></stim_listA>",,html-keyboard-response,353,1568693,0.0-19.0-1.2,22058,List1A,white,woman,,,,null,,,,,,,,,
null,is being seduced by,,html-keyboard-response,354,1570695,0.0-19.0-2.2,22058,List1A,white,woman,,,,null,,,,,,,,,
8134.1,,,survey-text,355,1578833,0.0-19.0-3.2,22058,List1A,white,woman,,,,,"{""Q0"":""luke is being seduced by mike""}","<img src=""stim_listA/seduce6.gif""style=""height:400px;""></stim_listA>",is being seduced by,,,,,,
null,"<div style=""font-size:60px;"">+</div>",,html-keyboard-response,356,1579336,0.0-19.0-0.3,22058,List1A,white,woman,,,,null,,,,,,,,,
null,"<img src=""stim_listA/copy6.gif""style=""height:400px;""></stim_listA>",,html-keyboard-response,357,1581342,0.0-19.0-1.3,22058,List1A,white,woman,,,,null,,,,,,,,,
null,is being copied by,,html-keyboard-response,358,1583345,0.0-19.0-2.3,22058,List1A,white,woman,,,,null,,,,,,,,,
4552,,,survey-text,359,1587901,0.0-19.0-3.3,22058,List1A,white,woman,,,,,"{""Q0"":""fred is being copied by dave""}","<img src=""stim_listA/copy6.gif""style=""height:400px;""></stim_listA>",is being copied by,,,,,,
null,"<div style=""font-size:60px;"">+</div>",,html-keyboard-response,360,1588404,0.0-19.0-0.4,22058,List1A,white,woman,,,,null,,,,,,,,,
null,"<img src=""stim_listA/copy2.gif""style=""height:400px;""></stim_listA>",,html-keyboard-response,361,1590410,0.0-19.0-1.4,22058,List1A,white,woman,,,,null,,,,,,,,,
null,is being copied by,,html-keyboard-response,362,1592413,0.0-19.0-2.4,22058,List1A,white,woman,,,,null,,,,,,,,,
5200.4,,,survey-text,363,1597617,0.0-19.0-3.4,22058,List1A,white,woman,,,,,"{""Q0"":""kate is being copied by fred""}","<img src=""stim_listA/copy2.gif""style=""height:400px;""></stim_listA>",is being copied by,,,,,,
null,"<div style=""font-size:60px;"">+</div>",,html-keyboard-response,364,1598120,0.0-19.0-0.5,22058,List1A,white,woman,,,,null,,,,,,,,,
null,"<img src=""stim_listA/seduce7.gif""style=""height:400px;""></stim_listA>",,html-keyboard-response,365,1600128,0.0-19.0-1.5,22058,List1A,white,woman,,,,null,,,,,,,,,
null,is seducing,,html-keyboard-response,366,1602130,0.0-19.0-2.5,22058,List1A,white,woman,,,,null,,,,,,,,,
2925.1,,,survey-text,367,1605059,0.0-19.0-3.5,22058,List1A,white,woman,,,,,"{""Q0"":""jane is seducing beth""}","<img src=""stim_listA/seduce7.gif""style=""height:400px;""></stim_listA>",is seducing,,,,,,
null,"<div style=""font-size:60px;"">+</div>",,html-keyboard-response,368,1605561,0.0-19.0-0.6,22058,List1A,white,woman,,,,null,,,,,,,,,
null,"<img src=""stim_listA/greet1.gif""style=""height:400px;""></stim_listA>",,html-keyboard-response,369,1607564,0.0-19.0-1.6,22058,List1A,white,woman,,,,null,,,,,,,,,
null,is greeting,,html-keyboard-response,370,1609567,0.0-19.0-2.6,22058,List1A,white,woman,,,,null,,,,,,,,,
3762.4,,,survey-text,371,1613333,0.0-19.0-3.6,22058,List1A,white,woman,,,,,"{""Q0"":""mike is greeting beth""}","<img src=""stim_listA/greet1.gif""style=""height:400px;""></stim_listA>",is greeting,,,,,,
null,"<div style=""font-size:60px;"">+</div>",,html-keyboard-response,372,1613836,0.0-19.0-0.7,22058,List1A,white,woman,,,,null,,,,,,,,,
null,"<img src=""stim_listA/shout5.gif""style=""height:400px;""></stim_listA>",,html-keyboard-response,373,1615842,0.0-19.0-1.7,22058,List1A,white,woman,,,,null,,,,,,,,,
null,is shouting at,,html-keyboard-response,374,1617846,0.0-19.0-2.7,22058,List1A,white,woman,,,,null,,,,,,,,,
3896.3,,,survey-text,375,1621746,0.0-19.0-3.7,22058,List1A,white,woman,,,,,"{""Q0"":""luke is shouting at fred""}","<img src=""stim_listA/shout5.gif""style=""height:400px;""></stim_listA>",is shouting at,,,,,,
null,"<div style=""font-size:60px;"">+</div>",,html-keyboard-response,376,1622249,0.0-19.0-0.8,22058,List1A,white,woman,,,,null,,,,,,,,,
null,"<img src=""stim_listA/oppose6.gif""style=""height:400px;""></stim_listA>",,html-keyboard-response,377,1624254,0.0-19.0-1.8,22058,List1A,white,woman,,,,null,,,,,,,,,
null,is being opposed by,,html-keyboard-response,378,1626259,0.0-19.0-2.8,22058,List1A,white,woman,,,,null,,,,,,,,,
5895,,,survey-text,379,1632158,0.0-19.0-3.8,22058,List1A,white,woman,,,,,"{""Q0"":""fred is being opposed by luke""}","<img src=""stim_listA/oppose6.gif""style=""height:400px;""></stim_listA>",is being opposed by,,,,,,
null,"<div style=""font-size:60px;"">+</div>",,html-keyboard-response,380,1632661,0.0-19.0-0.9,22058,List1A,white,woman,,,,null,,,,,,,,,
null,"<img src=""stim_listA/hug8.gif""style=""height:400px;""></stim_listA>",,html-keyboard-response,381,1634668,0.0-19.0-1.9,22058,List1A,white,woman,,,,null,,,,,,,,,
null,is being hugged by,,html-keyboard-response,382,1636671,0.0-19.0-2.9,22058,List1A,white,woman,,,,null,,,,,,,,,
6582,,,survey-text,383,1643257,0.0-19.0-3.9,22058,List1A,white,woman,,,,,"{""Q0"":""kate is being hugged by jane""}","<img src=""stim_listA/hug8.gif""style=""height:400px;""></stim_listA>",is being hugged by,,,,,,
null,"<div style=""font-size:60px;"">+</div>",,html-keyboard-response,384,1643760,0.0-19.0-0.10,22058,List1A,white,woman,,,,null,,,,,,,,,
null,"<img src=""stim_listA/oppose8.gif""style=""height:400px;""></stim_listA>",,html-keyboard-response,385,1645763,0.0-19.0-1.10,22058,List1A,white,woman,,,,null,,,,,,,,,
null,is being opposed by,,html-keyboard-response,386,1647765,0.0-19.0-2.10,22058,List1A,white,woman,,,,null,,,,,,,,,
5147.6,,,survey-text,387,1652919,0.0-19.0-3.10,22058,List1A,white,woman,,,,,"{""Q0"":""ruth is being opposed by beth""}","<img src=""stim_listA/oppose8.gif""style=""height:400px;""></stim_listA>",is being opposed by,,,,,,
null,"<div style=""font-size:60px;"">+</div>",,html-keyboard-response,388,1653421,0.0-19.0-0.11,22058,List1A,white,woman,,,,null,,,,,,,,,
null,"<img src=""stim_listA/oppose1.gif""style=""height:400px;""></stim_listA>",,html-keyboard-response,389,1655428,0.0-19.0-1.11,22058,List1A,white,woman,,,,null,,,,,,,,,
null,is opposing,,html-keyboard-response,390,1657430,0.0-19.0-2.11,22058,List1A,white,woman,,,,null,,,,,,,,,
3766.7,,,survey-text,391,1661200,0.0-19.0-3.11,22058,List1A,white,woman,,,,,"{""Q0"":""mike is opposing kate""}","<img src=""stim_listA/oppose1.gif""style=""height:400px;""></stim_listA>",is opposing,,,,,,
null,"<div style=""font-size:60px;"">+</div>",,html-keyboard-response,392,1661703,0.0-19.0-0.12,22058,List1A,white,woman,,,,null,,,,,,,,,
null,"<img src=""stim_listA/hug4.gif""style=""height:400px;""></stim_listA>",,html-keyboard-response,393,1663706,0.0-19.0-1.12,22058,List1A,white,woman,,,,null,,,,,,,,,
null,is being hugged by,,html-keyboard-response,394,1665708,0.0-19.0-2.12,22058,List1A,white,woman,,,,null,,,,,,,,,
5307.5,,,survey-text,395,1671020,0.0-19.0-3.12,22058,List1A,white,woman,,,,,"{""Q0"":""jane is being hugged by dave""}","<img src=""stim_listA/hug4.gif""style=""height:400px;""></stim_listA>",is being hugged by,,,,,,
null,"<div style=""font-size:60px;"">+</div>",,html-keyboard-response,396,1671524,0.0-19.0-0.13,22058,List1A,white,woman,,,,null,,,,,,,,,
null,"<img src=""stim_listA/kiss8.gif""style=""height:400px;""></stim_listA>",,html-keyboard-response,397,1673528,0.0-19.0-1.13,22058,List1A,white,woman,,,,null,,,,,,,,,
null,is being kissed by,,html-keyboard-response,398,1675535,0.0-19.0-2.13,22058,List1A,white,woman,,,,null,,,,,,,,,
4405.9,,,survey-text,399,1679945,0.0-19.0-3.13,22058,List1A,white,woman,,,,,"{""Q0"":""kate is being kissed by jane""}","<img src=""stim_listA/kiss8.gif""style=""height:400px;""></stim_listA>",is being kissed by,,,,,,
null,"<div style=""font-size:60px;"">+</div>",,html-keyboard-response,400,1680448,0.0-19.0-0.14,22058,List1A,white,woman,,,,null,,,,,,,,,
null,"<img src=""stim_listA/touch3.gif""style=""height:400px;""></stim_listA>",,html-keyboard-response,401,1682451,0.0-19.0-1.14,22058,List1A,white,woman,,,,null,,,,,,,,,
null,is touching,,html-keyboard-response,402,1684453,0.0-19.0-2.14,22058,List1A,white,woman,,,,null,,,,,,,,,
6469,,,survey-text,403,1690926,0.0-19.0-3.14,22058,List1A,white,woman,,,,,"{""Q0"":""jane is touching dave""}","<img src=""stim_listA/touch3.gif""style=""height:400px;""></stim_listA>",is touching,,,,,,
null,"<div style=""font-size:60px;"">+</div>",,html-keyboard-response,404,1691430,0.0-19.0-0.15,22058,List1A,white,woman,,,,null,,,,,,,,,
null,"<img src=""stim_listA/touch8.gif""style=""height:400px;""></stim_listA>",,html-keyboard-response,405,1693434,0.0-19.0-1.15,22058,List1A,white,woman,,,,null,,,,,,,,,
null,is being touched by,,html-keyboard-response,406,1695437,0.0-19.0-2.15,22058,List1A,white,woman,,,,null,,,,,,,,,
8856.1,,,survey-text,407,1704298,0.0-19.0-3.15,22058,List1A,white,woman,,,,,"{""Q0"":""ruth is being touched by beth""}","<img src=""stim_listA/touch8.gif""style=""height:400px;""></stim_listA>",is being touched by,,,,,,
null,"<div style=""font-size:60px;"">+</div>",,html-keyboard-response,408,1704800,0.0-19.0-0.16,22058,List1A,white,woman,,,,null,,,,,,,,,
null,"<img src=""stim_listA/greet6.gif""style=""height:400px;""></stim_listA>",,html-keyboard-response,409,1706803,0.0-19.0-1.16,22058,List1A,white,woman,,,,null,,,,,,,,,
null,is being greeted by,,html-keyboard-response,410,1708806,0.0-19.0-2.16,22058,List1A,white,woman,,,,null,,,,,,,,,
6553.8,,,survey-text,411,1715363,0.0-19.0-3.16,22058,List1A,white,woman,,,,,"{""Q0"":""luke is being greeted by jane""}","<img src=""stim_listA/greet6.gif""style=""height:400px;""></stim_listA>",is being greeted by,,,,,,
null,"<div style=""font-size:60px;"">+</div>",,html-keyboard-response,412,1715865,0.0-19.0-0.17,22058,List1A,white,woman,,,,null,,,,,,,,,
null,"<img src=""stim_listA/seduce8.gif""style=""height:400px;""></stim_listA>",,html-keyboard-response,413,1717867,0.0-19.0-1.17,22058,List1A,white,woman,,,,null,,,,,,,,,
null,is being seduced by,,html-keyboard-response,414,1719870,0.0-19.0-2.17,22058,List1A,white,woman,,,,null,,,,,,,,,
8193.8,,,survey-text,415,1728067,0.0-19.0-3.17,22058,List1A,white,woman,,,,,"{""Q0"":""ruth is being seduced by kate""}","<img src=""stim_listA/seduce8.gif""style=""height:400px;""></stim_listA>",is being seduced by,,,,,,
null,"<div style=""font-size:60px;"">+</div>",,html-keyboard-response,416,1728569,0.0-19.0-0.18,22058,List1A,white,woman,,,,null,,,,,,,,,
null,"<img src=""stim_listA/look3.gif""style=""height:400px;""></stim_listA>",,html-keyboard-response,417,1730575,0.0-19.0-1.18,22058,List1A,white,woman,,,,null,,,,,,,,,
null,is looking at,,html-keyboard-response,418,1732578,0.0-19.0-2.18,22058,List1A,white,woman,,,,null,,,,,,,,,
4569,,,survey-text,419,1737150,0.0-19.0-3.18,22058,List1A,white,woman,,,,,"{""Q0"":""luke is looking at ruth ""}","<img src=""stim_listA/look3.gif""style=""height:400px;""></stim_listA>",is looking at,,,,,,
null,"<div style=""font-size:60px;"">+</div>",,html-keyboard-response,420,1737651,0.0-19.0-0.19,22058,List1A,white,woman,,,,null,,,,,,,,,
null,"<img src=""stim_listA/look2.gif""style=""height:400px;""></stim_listA>",,html-keyboard-response,421,1739654,0.0-19.0-1.19,22058,List1A,white,woman,,,,null,,,,,,,,,
null,is being looked at by,,html-keyboard-response,422,1741657,0.0-19.0-2.19,22058,List1A,white,woman,,,,null,,,,,,,,,
6361.3,,,survey-text,423,1748021,0.0-19.0-3.19,22058,List1A,white,woman,,,,,"{""Q0"":""kate is being looked at by mike]""}","<img src=""stim_listA/look2.gif""style=""height:400px;""></stim_listA>",is being looked at by,,,,,,
2996.3,<p>Thank you for completing that task.</p><p>The final part of this session is a questionnaire that will take about 4 minutes.</p><p>Press Continue.</p>,0,html-button-response,424,1751020,0.0-20.0,22058,List1A,white,woman,,,,,,,,,,,,,
24279.6,,,survey-text,425,1776314,0.0-21.0,22058,List1A,white,woman,,,,,"{""Q0"":""20"",""Q1"":""english"",""Q2"":""english"",""Q3"":""united states"",""Q4"":""white"",""Q5"":""white"",""Q6"":""female""}",,,demographics,,,,,
1811.4,<p>Have you lived in the USA for the last 5 years or more?</p>,0,html-button-response,426,1778130,0.0-22.0,22058,List1A,white,woman,,,,,,,,fiveyears,,,,,
1717.8,<p>Move the slider to show the extent to which you agree with the following statements.</p>,0,html-button-response,427,1780853,0.0-23.0,22058,List1A,white,woman,,,,,,,,,,,,,
5174.8,,,html-slider-response,428,1787036,0.0-24.0-0.0-0.0,22058,List1A,white,woman,,,,,,,,survey_race,81,,,I often think about the fact that I am my age.,filler
2207.2,,,html-slider-response,429,1789246,0.0-24.0-0.0-0.1,22058,List1A,white,woman,,,,,,,,survey_race,84,,,I often think about the fact that I am my race.,often
1587.5,,,html-slider-response,430,1790836,0.0-24.0-0.0-0.2,22058,List1A,white,woman,,,,,,,,survey_race,86,,,I feel solidarity with my race.,solidarity
2640.8,,,html-slider-response,431,1793479,0.0-24.0-0.0-0.3,22058,List1A,white,woman,,,,,,,,survey_race,78,,,I feel solidarity with people the same age as me.,filler
2308.5,,,html-slider-response,432,1795789,0.0-24.0-0.0-0.4,22058,List1A,white,woman,,,,,,,,survey_race,82,,,"The older I get, the wiser I feel.",filler
7478.5,,,html-slider-response,433,1803270,0.0-24.0-0.0-0.5,22058,List1A,white,woman,,,,,,,,survey_race,38,,,I am similar to the average person of my race.,similar
3461,,,html-slider-response,434,1806734,0.0-24.0-0.0-0.6,22058,List1A,white,woman,,,,,,,,survey_race,33,,,I think that my race has a lot to be proud of.,proud
1816.3,,,html-slider-response,435,1808552,0.0-24.0-0.0-0.7,22058,List1A,white,woman,,,,,,,,survey_race,63,,,Being my age gives me a good feeling.,filler
14391,,,html-slider-response,436,1822946,0.0-24.0-0.0-0.8,22058,List1A,white,woman,,,,,,,,survey_race,36,,,My age is not an important part of who I am.,filler
2656.4,,,html-slider-response,437,1825605,0.0-24.0-0.0-0.9,22058,List1A,white,woman,,,,,,,,survey_race,73,,,I have a lot in common with people of a similar age to me.,filler
2397,,,html-slider-response,438,1828004,0.0-24.0-0.0-0.10,22058,List1A,white,woman,,,,,,,,survey_race,40,,,People of my race are very similar to each other.,verysimilar
3193.4,,,html-slider-response,439,1831200,0.0-24.0-0.0-0.11,22058,List1A,white,woman,,,,,,,,survey_race,34,,,Being my race gives me a good feeling.,feeling
1963.3,,,html-slider-response,440,1833166,0.0-24.0-0.0-0.12,22058,List1A,white,woman,,,,,,,,survey_race,38,,,I enjoy being in large groups.,filler
3413.3,,,html-slider-response,441,1836581,0.0-24.0-0.0-0.13,22058,List1A,white,woman,,,,,,,,survey_race,55,,,I feel a bond with my race.,bond
2593,,,html-slider-response,442,1839176,0.0-24.0-0.0-0.14,22058,List1A,white,woman,,,,,,,,survey_race,26,,,Getting older does not worry me.,filler
3052.1,,,html-slider-response,443,1842231,0.0-24.0-0.0-0.15,22058,List1A,white,woman,,,,,,,,survey_race,37,,,It is pleasant to be my race.,pleasant
2749.1,,,html-slider-response,444,1844982,0.0-24.0-0.0-0.16,22058,List1A,white,woman,,,,,,,,survey_race,72,,,I am glad to be the age I am.,filler
2263.8,,,html-slider-response,445,1847249,0.0-24.0-0.0-0.17,22058,List1A,white,woman,,,,,,,,survey_race,42,,,Being my race is an important part of how I see myself.,important
4150.9,,,html-slider-response,446,1851402,0.0-24.0-0.0-0.18,22058,List1A,white,woman,,,,,,,,survey_race,62,,,The fact that I am my race is an important part of my identity.,identity
2684.7,,,html-slider-response,447,1854090,0.0-24.0-0.0-0.19,22058,List1A,white,woman,,,,,,,,survey_race,43,,,I feel committed to my race.,committed
3084.5,,,html-slider-response,448,1857177,0.0-24.0-0.0-0.20,22058,List1A,white,woman,,,,,,,,survey_race,47,,,I am glad to be my race.,glad
3201.9,,,html-slider-response,449,1860381,0.0-24.0-0.0-0.21,22058,List1A,white,woman,,,,,,,,survey_race,28,,,I consider myself an extrovert.,filler
2573.9,,,html-slider-response,450,1862957,0.0-24.0-0.0-0.22,22058,List1A,white,woman,,,,,,,,survey_race,87,,,I am glad to be my age.,filler
7585.5,,,html-slider-response,451,1870545,0.0-24.0-0.0-0.23,22058,List1A,white,woman,,,,,,,,survey_race,66,,,People of my race have a lot in common with each other.,common
3065.1,,,html-slider-response,452,1873613,0.0-24.0-0.0-0.24,22058,List1A,white,woman,,,,,,,,survey_race,53,,,I have a lot in common with the average person of my race.,average
1668,,,html-slider-response,453,1875283,0.0-24.0-0.0-0.25,22058,List1A,white,woman,,,,,,,,survey_race,80,,,I feel a bond with people the same age as me.,filler
2665.6,,,html-slider-response,454,1877951,0.0-24.0-0.0-0.26,22058,List1A,white,woman,,,,,,,,survey_race,75,,,I consider myself an introvert.,filler
3702.7,,,html-slider-response,455,1881656,0.0-24.0-0.0-0.27,22058,List1A,white,woman,,,,,,,,survey_race,75,,,People my age have a lot in common with each other.,filler
1767.7,,,html-slider-response,456,1883426,0.0-24.0-1.0-0.0,22058,List1A,white,woman,,,,,,,,survey_gender,80,,,I am glad to have the friends that I have.,filler
1844.4,,,html-slider-response,457,1885272,0.0-24.0-1.0-0.1,22058,List1A,white,woman,,,,,,,,survey_gender,74,,,I am similar to the average person of my gender.,similar
1607.5,,,html-slider-response,458,1886882,0.0-24.0-1.0-0.2,22058,List1A,white,woman,,,,,,,,survey_gender,79,,,Being my gender gives me a good feeling.,feeling
3398.4,,,html-slider-response,459,1890282,0.0-24.0-1.0-0.3,22058,List1A,white,woman,,,,,,,,survey_gender,78,,,My friends have a lot in common with each other.,filler
1824,,,html-slider-response,460,1892108,0.0-24.0-1.0-0.4,22058,List1A,white,woman,,,,,,,,survey_gender,78,,,It is pleasant to be my gender.,pleasant
1723.5,,,html-slider-response,461,1893834,0.0-24.0-1.0-0.5,22058,List1A,white,woman,,,,,,,,survey_gender,74,,,I often think about the fact that I am my gender.,often
1455.4,,,html-slider-response,462,1895292,0.0-24.0-1.0-0.6,22058,List1A,white,woman,,,,,,,,survey_gender,77,,,I feel committed to my gender.,committed
4102.6,,,html-slider-response,463,1899397,0.0-24.0-1.0-0.7,22058,List1A,white,woman,,,,,,,,survey_gender,30,,,It is not always easy for people to know what I am thinking.,filler
7525.3,,,html-slider-response,464,1906925,0.0-24.0-1.0-0.8,22058,List1A,white,woman,,,,,,,,survey_gender,17,,,Family is not more important to me than friendship.,filler
2366.4,,,html-slider-response,465,1909295,0.0-24.0-1.0-0.9,22058,List1A,white,woman,,,,,,,,survey_gender,74,,,I would say I am an animal person.,filler
2236.6,,,html-slider-response,466,1911534,0.0-24.0-1.0-0.10,22058,List1A,white,woman,,,,,,,,survey_gender,75,,,I think that my gender has a lot to be proud of.,proud
1631.6,,,html-slider-response,467,1913168,0.0-24.0-1.0-0.11,22058,List1A,white,woman,,,,,,,,survey_gender,78,,,I feel a bond with my friends.,filler
2012.2,,,html-slider-response,468,1915182,0.0-24.0-1.0-0.12,22058,List1A,white,woman,,,,,,,,survey_gender,77,,,People of my gender are very similar to each other.,verysimilar
2768.9,,,html-slider-response,469,1917953,0.0-24.0-1.0-0.13,22058,List1A,white,woman,,,,,,,,survey_gender,8,,,Routine is not important to me.,filler
2244.7,,,html-slider-response,470,1920200,0.0-24.0-1.0-0.14,22058,List1A,white,woman,,,,,,,,survey_gender,78,,,My friends understand me.,filler
4207.1,,,html-slider-response,471,1924409,0.0-24.0-1.0-0.15,22058,List1A,white,woman,,,,,,,,survey_gender,79,,,I have a lot in common with the average person of my gender.,average
1791.5,,,html-slider-response,472,1926203,0.0-24.0-1.0-0.16,22058,List1A,white,woman,,,,,,,,survey_gender,76,,,I often think about my actions.,filler
2500.9,,,html-slider-response,473,1928706,0.0-24.0-1.0-0.17,22058,List1A,white,woman,,,,,,,,survey_gender,79,,,Being around my friends gives me a good feeling.,filler
1495.9,,,html-slider-response,474,1930204,0.0-24.0-1.0-0.18,22058,List1A,white,woman,,,,,,,,survey_gender,77,,,I feel a bond with my gender.,bond
1671.7,,,html-slider-response,475,1931878,0.0-24.0-1.0-0.19,22058,List1A,white,woman,,,,,,,,survey_gender,82,,,Being my gender is an important part of how I see myself.,important
2557.3,,,html-slider-response,476,1934437,0.0-24.0-1.0-0.20,22058,List1A,white,woman,,,,,,,,survey_gender,77,,,Most of the friends in my life are very similar to me.,filler
1760,,,html-slider-response,477,1936200,0.0-24.0-1.0-0.21,22058,List1A,white,woman,,,,,,,,survey_gender,79,,,People of my gender have a lot in common with each other.,common
1964.1,,,html-slider-response,478,1938166,0.0-24.0-1.0-0.22,22058,List1A,white,woman,,,,,,,,survey_gender,78,,,I am glad to be my gender.,glad
3037.4,,,html-slider-response,479,1941206,0.0-24.0-1.0-0.23,22058,List1A,white,woman,,,,,,,,survey_gender,72,,,I consider myself a highly empathetic person.,filler
1959.2,,,html-slider-response,480,1943168,0.0-24.0-1.0-0.24,22058,List1A,white,woman,,,,,,,,survey_gender,82,,,I feel solidarity with my gender.,solidarity
1607.9,,,html-slider-response,481,1944778,0.0-24.0-1.0-0.25,22058,List1A,white,woman,,,,,,,,survey_gender,81,,,The fact that I am my gender is an important part of my identity.,identity
1459.6,,,html-slider-response,482,1946239,0.0-24.0-1.0-0.26,22058,List1A,white,woman,,,,,,,,survey_gender,78,,,I have a lot in common with my friends.,filler
1920.2,,,html-slider-response,483,1948162,0.0-24.0-1.0-0.27,22058,List1A,white,woman,,,,,,,,survey_gender,80,,,I feel solidarity with my friends.,filler
5754.6,,,survey-text,484,1953920,0.0-25.0,22058,List1A,white,woman,,,,,"{""Q0"":""ccc""}",,,worker_id,,,,,
1969.1,,,external-html,485,1956115,0.0-26.0,22058,List1A,white,woman,debrief.html,,,,,,,,,,,,
