"rt","stimulus","button_pressed","trial_type","trial_index","time_elapsed","internal_node_id","subject","list","ppt_race","ppt_gender","url","first_guess","correct","key_press","responses","image_type","phrase_type","test_part","response","stimulus1","stimulus2","question_type","survey_item"
"7183.400000095367","Welcome to the experiment. Press Continue to begin.","0","html-button-response","0","7187","0.0-0.0","22237","List1B","white","man","","","","","","","","","","","","",""
"26425.800000190735","","","external-html","1","34891","0.0-1.0","22237","List1B","white","man","consent.html","","","","","","","","","","","",""
"28213.099999904633","<p>On the next page, you will see portraits of 8 people and their names.</p><p>Your first task is to take a few minutes to memorise the names of these people.</p><p>You will have to recall their names during the rest of the experiment, so it is</p><p>essential that you try to memorise these people and their names as best as you can.</p><br><p><strong>You will then be tested on your memory of these names and portraits.</strong></p><br><p>The experiment will start after you have completed this memory test.</p><br><p>Ready?</p>","0","html-button-response","2","63107","0.0-2.0","22237","List1B","white","man","","","","","","","","","","","","",""
"24235.799999713898","<img src='img/portrait_matrix_list1.jpg' style='width:900px;height:500px;''></img><p>If you have memorised all the portraits and names and are ready to start, press Continue.</p><p><strong>Please note: Your memory of these faces will be tested 4 times during this experiment.</strong></p>","0","html-button-response","3","88361","0.0-3.0-0.0","22237","List1B","white","man","","","","","","","","","","","","",""
"14806.5","<img src=""portrait/BM1.jpg""style=""height:400px;""></img>","4","html-button-response","4","104184","0.0-3.0-1.0","22237","List1B","white","man","","true","4","","","","","","","","","",""
"null","CORRECT","","html-keyboard-response","5","105690","0.0-3.0-2.0-0.0","22237","List1B","white","man","","","","null","","","","","","","","",""
"7956.799999713898","<img src=""portrait/BM2.jpg""style=""height:400px;""></img>","5","html-button-response","6","113649","0.0-3.0-4.0","22237","List1B","white","man","","true","5","","","","","","","","","",""
"null","CORRECT","","html-keyboard-response","7","115168","0.0-3.0-5.0-0.0","22237","List1B","white","man","","","","null","","","","","","","","",""
"8184.5","<img src=""portrait/WM2.jpg""style=""height:400px;""></img>","7","html-button-response","8","123354","0.0-3.0-7.0","22237","List1B","white","man","","true","7","","","","","","","","","",""
"null","CORRECT","","html-keyboard-response","9","124863","0.0-3.0-8.0-0.0","22237","List1B","white","man","","","","null","","","","","","","","",""
"5290.200000286102","<img src=""portrait/BW2.jpg""style=""height:400px;""></img>","2","html-button-response","10","130155","0.0-3.0-10.0","22237","List1B","white","man","","true","2","","","","","","","","","",""
"null","CORRECT","","html-keyboard-response","11","131666","0.0-3.0-11.0-0.0","22237","List1B","white","man","","","","null","","","","","","","","",""
"11828.299999713898","<img src=""portrait/BW1.jpg""style=""height:400px;""></img>","0","html-button-response","12","143496","0.0-3.0-13.0","22237","List1B","white","man","","true","0","","","","","","","","","",""
"null","CORRECT","","html-keyboard-response","13","145010","0.0-3.0-14.0-0.0","22237","List1B","white","man","","","","null","","","","","","","","",""
"8460.5","<img src=""portrait/WW1.jpg""style=""height:400px;""></img>","1","html-button-response","14","153472","0.0-3.0-16.0","22237","List1B","white","man","","true","1","","","","","","","","","",""
"null","CORRECT","","html-keyboard-response","15","154974","0.0-3.0-17.0-0.0","22237","List1B","white","man","","","","null","","","","","","","","",""
"11695","<img src=""portrait/WM1.jpg""style=""height:400px;""></img>","5","html-button-response","16","166670","0.0-3.0-19.0","22237","List1B","white","man","","true","6","","","","","","","","","",""
"6867.39999961853","<img src=""portrait/WM1.jpg""style=""height:400px;""></img>","6","html-button-response","17","174546","0.0-3.0-21.0-0.0","22237","List1B","white","man","","false","6","","","","","","","","","",""
"null","CORRECT","","html-keyboard-response","18","176064","0.0-3.0-21.0-1.0-0.0","22237","List1B","white","man","","","","null","","","","","","","","",""
"9306.300000190735","<img src=""portrait/WW2.jpg""style=""height:400px;""></img>","3","html-button-response","19","185372","0.0-3.0-22.0","22237","List1B","white","man","","true","3","","","","","","","","","",""
"null","CORRECT","","html-keyboard-response","20","186883","0.0-3.0-23.0-0.0","22237","List1B","white","man","","","","null","","","","","","","","",""
"2352.1000003814697","<p>You got 7 out of 8 right first time. Press Continue.</p>","0","html-button-response","21","189236","0.0-3.0-25.0","22237","List1B","white","man","","","","","","","","","","","","",""
"4355.900000095367","As you did not score 100%, the memory game will repeat. Press Continue.","0","html-button-response","22","194608","0.0-3.0-26.0-0.0","22237","List1B","white","man","","","","","","","","","","","","",""
"3071.4000000953674","<img src='img/portrait_matrix_list1.jpg' style='width:900px;height:500px;''></img><p>If you have memorised all the portraits and names and are ready to start, press Continue.</p><p><strong>Please note: Your memory of these faces will be tested 4 times during this experiment.</strong></p>","0","html-button-response","23","198693","0.0-3.1-0.1","22237","List1B","white","man","","","","","","","","","","","","",""
"6956.5","<img src=""portrait/BM1.jpg""style=""height:400px;""></img>","4","html-button-response","24","206662","0.0-3.1-1.1","22237","List1B","white","man","","true","4","","","","","","","","","",""
"null","CORRECT","","html-keyboard-response","25","208189","0.0-3.1-2.1-0.1","22237","List1B","white","man","","","","null","","","","","","","","",""
"6012.599999904633","<img src=""portrait/BM2.jpg""style=""height:400px;""></img>","5","html-button-response","26","214203","0.0-3.1-4.1","22237","List1B","white","man","","true","5","","","","","","","","","",""
"null","CORRECT","","html-keyboard-response","27","215725","0.0-3.1-5.1-0.1","22237","List1B","white","man","","","","null","","","","","","","","",""
"7931.699999809265","<img src=""portrait/WM2.jpg""style=""height:400px;""></img>","7","html-button-response","28","223659","0.0-3.1-7.1","22237","List1B","white","man","","true","7","","","","","","","","","",""
"null","CORRECT","","html-keyboard-response","29","225179","0.0-3.1-8.1-0.1","22237","List1B","white","man","","","","null","","","","","","","","",""
"4249.299999713898","<img src=""portrait/BW2.jpg""style=""height:400px;""></img>","2","html-button-response","30","229430","0.0-3.1-10.1","22237","List1B","white","man","","true","2","","","","","","","","","",""
"null","CORRECT","","html-keyboard-response","31","230933","0.0-3.1-11.1-0.1","22237","List1B","white","man","","","","null","","","","","","","","",""
"8052.5","<img src=""portrait/BW1.jpg""style=""height:400px;""></img>","0","html-button-response","32","238986","0.0-3.1-13.1","22237","List1B","white","man","","true","0","","","","","","","","","",""
"null","CORRECT","","html-keyboard-response","33","240501","0.0-3.1-14.1-0.1","22237","List1B","white","man","","","","null","","","","","","","","",""
"6854.400000095367","<img src=""portrait/WW1.jpg""style=""height:400px;""></img>","1","html-button-response","34","247356","0.0-3.1-16.1","22237","List1B","white","man","","true","1","","","","","","","","","",""
"null","CORRECT","","html-keyboard-response","35","248874","0.0-3.1-17.1-0.1","22237","List1B","white","man","","","","null","","","","","","","","",""
"10773.400000095367","<img src=""portrait/WM1.jpg""style=""height:400px;""></img>","6","html-button-response","36","259648","0.0-3.1-19.1","22237","List1B","white","man","","true","6","","","","","","","","","",""
"null","CORRECT","","html-keyboard-response","37","261159","0.0-3.1-20.1-0.1","22237","List1B","white","man","","","","null","","","","","","","","",""
"5858.599999904633","<img src=""portrait/WW2.jpg""style=""height:400px;""></img>","3","html-button-response","38","267019","0.0-3.1-22.1","22237","List1B","white","man","","true","3","","","","","","","","","",""
"null","CORRECT","","html-keyboard-response","39","268529","0.0-3.1-23.1-0.1","22237","List1B","white","man","","","","null","","","","","","","","",""
"2224","<p>You got 8 out of 8 right first time. Press Continue.</p>","0","html-button-response","40","270754","0.0-3.1-25.1","22237","List1B","white","man","","","","","","","","","","","","",""
"42017.90000009537","<p>In this experiment, you will view photographs of the people from the memory game interacting.</p><p>By using the <strong>exact</strong> phrase given <i>after</i> the photograph appears and recalling the correct names of the people in the photographs, form a sentence describing the interaction. You do not need to capitalise names.</p><p>Type your answer in the space provided. Please complete every sentence before moving onto the next trial.</p><p>You will only have a few seconds to memorise each given photograph and phrase before you can respond, so try your best to focus.</p><p>An example is given below. Press 'Continue' when you are ready.</p><img src='img/speaking_example.jpg' style='width:800px;height:460px;''></img>","0","html-button-response","41","313770","0.0-4.0","22237","List1B","white","man","","","","","","","","","","","","",""
"7488.099999904633","<p>Before the experiment starts, you will watch two example trials. Press 'Continue'.</p>","0","html-button-response","42","322270","0.0-5.0","22237","List1B","white","man","","","","","","","","","","","","",""
"null","<img src='img/play_eg.gif' style='height:400px;''></img>","","html-keyboard-response","43","325302","0.0-6.0","22237","List1B","white","man","","","","null","","","","","","","","",""
"null","<p>is playing with</p>","","html-keyboard-response","44","327303","0.0-7.0","22237","List1B","white","man","","","","null","","","","","","","","",""
"4932","<p><b>Answer:</b> kate is playing with beth</p>","0","html-button-response","45","332236","0.0-8.0","22237","List1B","white","man","","","","","","","","","","","","",""
"null","<img src='img/dance_eg.gif' style='height:400px;''></img>","","html-keyboard-response","46","335254","0.0-9.0","22237","List1B","white","man","","","","null","","","","","","","","",""
"null","<p>is being entertained by</p>","","html-keyboard-response","47","337261","0.0-10.0","22237","List1B","white","man","","","","null","","","","","","","","",""
"3610.4000000953674","<p><b>Answer:</b> luke is being entertained by dave</p>","0","html-button-response","48","340873","0.0-11.0","22237","List1B","white","man","","","","","","","","","","","","",""
"12426.300000190735","<p>Ready to start the experiment?</p><br><p><strong>Remember to describe the picture using a full sentence,</strong></p><p><strong>that combines the names of the people with the <i>exact</i> phrase given.</strong></p><p><strong>To receive full payment you must do this correctly.</strong></p><p><strong> You do not need to capitalise names or use punctuation.</strong></p><br><p>Press 'Continue' to begin.</p>","0","html-button-response","49","354301","0.0-12.0","22237","List1B","white","man","","","","","","","","","","","","",""
"null","<div style=""font-size:60px;"">+</div>","","html-keyboard-response","50","355812","0.0-13.0-0.0","22237","List1B","white","man","","","","null","","","","","","","","",""
"null","<img src=""stim_listB/hug3.gif""style=""height:400px;""></stim_listB>","","html-keyboard-response","51","357826","0.0-13.0-1.0","22237","List1B","white","man","","","","null","","","","","","","","",""
"null","is hugging","","html-keyboard-response","52","359832","0.0-13.0-2.0","22237","List1B","white","man","","","","null","","","","","","","","",""
"40350.90000009537","","","survey-text","53","400198","0.0-13.0-3.0","22237","List1B","white","man","","","","","{""Q0"":""luke is dancing with mike""}","<img src=""stim_listB/hug3.gif""style=""height:400px;""></stim_listB>","is hugging","","","","","",""
"null","<div style=""font-size:60px;"">+</div>","","html-keyboard-response","54","400704","0.0-13.0-0.1","22237","List1B","white","man","","","","null","","","","","","","","",""
"null","<img src=""stim_listB/hug7.gif""style=""height:400px;""></stim_listB>","","html-keyboard-response","55","402707","0.0-13.0-1.1","22237","List1B","white","man","","","","null","","","","","","","","",""
"null","is hugging","","html-keyboard-response","56","404717","0.0-13.0-2.1","22237","List1B","white","man","","","","null","","","","","","","","",""
"25212","","","survey-text","57","429931","0.0-13.0-3.1","22237","List1B","white","man","","","","","{""Q0"":""beth is hugging with kate""}","<img src=""stim_listB/hug7.gif""style=""height:400px;""></stim_listB>","is hugging","","","","","",""
"null","<div style=""font-size:60px;"">+</div>","","html-keyboard-response","58","430433","0.0-13.0-0.2","22237","List1B","white","man","","","","null","","","","","","","","",""
"null","<img src=""stim_listB/kiss2.gif""style=""height:400px;""></stim_listB>","","html-keyboard-response","59","432448","0.0-13.0-1.2","22237","List1B","white","man","","","","null","","","","","","","","",""
"null","is being kissed by","","html-keyboard-response","60","434450","0.0-13.0-2.2","22237","List1B","white","man","","","","null","","","","","","","","",""
"30410.699999809265","","","survey-text","61","464865","0.0-13.0-3.2","22237","List1B","white","man","","","","","{""Q0"":""kate is kissing mike""}","<img src=""stim_listB/kiss2.gif""style=""height:400px;""></stim_listB>","is being kissed by","","","","","",""
"null","<div style=""font-size:60px;"">+</div>","","html-keyboard-response","62","465377","0.0-13.0-0.3","22237","List1B","white","man","","","","null","","","","","","","","",""
"null","<img src=""stim_listB/greet6.gif""style=""height:400px;""></stim_listB>","","html-keyboard-response","63","467393","0.0-13.0-1.3","22237","List1B","white","man","","","","null","","","","","","","","",""
"null","is being greeted by","","html-keyboard-response","64","469394","0.0-13.0-2.3","22237","List1B","white","man","","","","null","","","","","","","","",""
"65562.5","","","survey-text","65","534959","0.0-13.0-3.3","22237","List1B","white","man","","","","","{""Q0"":""fred is saying hi to dave""}","<img src=""stim_listB/greet6.gif""style=""height:400px;""></stim_listB>","is being greeted by","","","","","",""
"null","<div style=""font-size:60px;"">+</div>","","html-keyboard-response","66","535466","0.0-13.0-0.4","22237","List1B","white","man","","","","null","","","","","","","","",""
"null","<img src=""stim_listB/greet1.gif""style=""height:400px;""></stim_listB>","","html-keyboard-response","67","537469","0.0-13.0-1.4","22237","List1B","white","man","","","","null","","","","","","","","",""
"null","is greeting","","html-keyboard-response","68","539485","0.0-13.0-2.4","22237","List1B","white","man","","","","null","","","","","","","","",""
"69620.09999990463","","","survey-text","69","609107","0.0-13.0-3.4","22237","List1B","white","man","","","","","{""Q0"":""beth  waving to mike""}","<img src=""stim_listB/greet1.gif""style=""height:400px;""></stim_listB>","is greeting","","","","","",""
"null","<div style=""font-size:60px;"">+</div>","","html-keyboard-response","70","609623","0.0-13.0-0.5","22237","List1B","white","man","","","","null","","","","","","","","",""
"null","<img src=""stim_listB/shout6.gif""style=""height:400px;""></stim_listB>","","html-keyboard-response","71","611627","0.0-13.0-1.5","22237","List1B","white","man","","","","null","","","","","","","","",""
"null","is being shouted at by","","html-keyboard-response","72","613643","0.0-13.0-2.5","22237","List1B","white","man","","","","null","","","","","","","","",""
"46443.40000009537","","","survey-text","73","660088","0.0-13.0-3.5","22237","List1B","white","man","","","","","{""Q0"":""ruth is playing with fred""}","<img src=""stim_listB/shout6.gif""style=""height:400px;""></stim_listB>","is being shouted at by","","","","","",""
"null","<div style=""font-size:60px;"">+</div>","","html-keyboard-response","74","660593","0.0-13.0-0.6","22237","List1B","white","man","","","","null","","","","","","","","",""
"null","<img src=""stim_listB/hug1.gif""style=""height:400px;""></stim_listB>","","html-keyboard-response","75","662610","0.0-13.0-1.6","22237","List1B","white","man","","","","null","","","","","","","","",""
"null","is hugging","","html-keyboard-response","76","664626","0.0-13.0-2.6","22237","List1B","white","man","","","","null","","","","","","","","",""
"22505.699999809265","","","survey-text","77","687134","0.0-13.0-3.6","22237","List1B","white","man","","","","","{""Q0"":""fred is hugging beth""}","<img src=""stim_listB/hug1.gif""style=""height:400px;""></stim_listB>","is hugging","","","","","",""
"null","<div style=""font-size:60px;"">+</div>","","html-keyboard-response","78","687636","0.0-13.0-0.7","22237","List1B","white","man","","","","null","","","","","","","","",""
"null","<img src=""stim_listB/oppose8.gif""style=""height:400px;""></stim_listB>","","html-keyboard-response","79","689652","0.0-13.0-1.7","22237","List1B","white","man","","","","null","","","","","","","","",""
"null","is being opposed by","","html-keyboard-response","80","691665","0.0-13.0-2.7","22237","List1B","white","man","","","","null","","","","","","","","",""
"45794.5","","","survey-text","81","737462","0.0-13.0-3.7","22237","List1B","white","man","","","","","{""Q0"":""jane is opposing beth""}","<img src=""stim_listB/oppose8.gif""style=""height:400px;""></stim_listB>","is being opposed by","","","","","",""
"null","<div style=""font-size:60px;"">+</div>","","html-keyboard-response","82","737968","0.0-13.0-0.8","22237","List1B","white","man","","","","null","","","","","","","","",""
"null","<img src=""stim_listB/kiss7.gif""style=""height:400px;""></stim_listB>","","html-keyboard-response","83","739970","0.0-13.0-1.8","22237","List1B","white","man","","","","null","","","","","","","","",""
"null","is kissing","","html-keyboard-response","84","741985","0.0-13.0-2.8","22237","List1B","white","man","","","","null","","","","","","","","",""
"28965.799999713898","","","survey-text","85","770953","0.0-13.0-3.8","22237","List1B","white","man","","","","","{""Q0"":""jane is kissing beth""}","<img src=""stim_listB/kiss7.gif""style=""height:400px;""></stim_listB>","is kissing","","","","","",""
"null","<div style=""font-size:60px;"">+</div>","","html-keyboard-response","86","771463","0.0-13.0-0.9","22237","List1B","white","man","","","","null","","","","","","","","",""
"null","<img src=""stim_listB/seduce2.gif""style=""height:400px;""></stim_listB>","","html-keyboard-response","87","773479","0.0-13.0-1.9","22237","List1B","white","man","","","","null","","","","","","","","",""
"null","is being seduced by","","html-keyboard-response","88","775481","0.0-13.0-2.9","22237","List1B","white","man","","","","null","","","","","","","","",""
"146997.90000009537","","","survey-text","89","922482","0.0-13.0-3.9","22237","List1B","white","man","","","","","{""Q0"":""beth is seducing jane""}","<img src=""stim_listB/seduce2.gif""style=""height:400px;""></stim_listB>","is being seduced by","","","","","",""
"null","<div style=""font-size:60px;"">+</div>","","html-keyboard-response","90","922998","0.0-13.0-0.10","22237","List1B","white","man","","","","null","","","","","","","","",""
"null","<img src=""stim_listB/touch8.gif""style=""height:400px;""></stim_listB>","","html-keyboard-response","91","925011","0.0-13.0-1.10","22237","List1B","white","man","","","","null","","","","","","","","",""
"null","is being touched by","","html-keyboard-response","92","927018","0.0-13.0-2.10","22237","List1B","white","man","","","","null","","","","","","","","",""
"45250.2999997139","","","survey-text","93","972271","0.0-13.0-3.10","22237","List1B","white","man","","","","","{""Q0"":""beth is playing jane""}","<img src=""stim_listB/touch8.gif""style=""height:400px;""></stim_listB>","is being touched by","","","","","",""
"null","<div style=""font-size:60px;"">+</div>","","html-keyboard-response","94","972781","0.0-13.0-0.11","22237","List1B","white","man","","","","null","","","","","","","","",""
"null","<img src=""stim_listB/touch4.gif""style=""height:400px;""></stim_listB>","","html-keyboard-response","95","974798","0.0-13.0-1.11","22237","List1B","white","man","","","","null","","","","","","","","",""
"null","is being touched by","","html-keyboard-response","96","976814","0.0-13.0-2.11","22237","List1B","white","man","","","","null","","","","","","","","",""
"61460.2999997139","","","survey-text","97","1038277","0.0-13.0-3.11","22237","List1B","white","man","","","","","{""Q0"":""jane is being touched by luke""}","<img src=""stim_listB/touch4.gif""style=""height:400px;""></stim_listB>","is being touched by","","","","","",""
"null","<div style=""font-size:60px;"">+</div>","","html-keyboard-response","98","1038786","0.0-13.0-0.12","22237","List1B","white","man","","","","null","","","","","","","","",""
"null","<img src=""stim_listB/look4.gif""style=""height:400px;""></stim_listB>","","html-keyboard-response","99","1040789","0.0-13.0-1.12","22237","List1B","white","man","","","","null","","","","","","","","",""
"null","is being looked at by","","html-keyboard-response","100","1042803","0.0-13.0-2.12","22237","List1B","white","man","","","","null","","","","","","","","",""
"58526.09999990463","","","survey-text","101","1101331","0.0-13.0-3.12","22237","List1B","white","man","","","","","{""Q0"":"" jane being looked at luke""}","<img src=""stim_listB/look4.gif""style=""height:400px;""></stim_listB>","is being looked at by","","","","","",""
"null","<div style=""font-size:60px;"">+</div>","","html-keyboard-response","102","1101838","0.0-13.0-0.13","22237","List1B","white","man","","","","null","","","","","","","","",""
"null","<img src=""stim_listB/copy2.gif""style=""height:400px;""></stim_listB>","","html-keyboard-response","103","1103841","0.0-13.0-1.13","22237","List1B","white","man","","","","null","","","","","","","","",""
"null","is being copied by","","html-keyboard-response","104","1105846","0.0-13.0-2.13","22237","List1B","white","man","","","","null","","","","","","","","",""
"44642.199999809265","","","survey-text","105","1150490","0.0-13.0-3.13","22237","List1B","white","man","","","","","{""Q0"":""fred is being copied dave""}","<img src=""stim_listB/copy2.gif""style=""height:400px;""></stim_listB>","is being copied by","","","","","",""
"null","<div style=""font-size:60px;"">+</div>","","html-keyboard-response","106","1150991","0.0-13.0-0.14","22237","List1B","white","man","","","","null","","","","","","","","",""
"null","<img src=""stim_listB/copy1.gif""style=""height:400px;""></stim_listB>","","html-keyboard-response","107","1152993","0.0-13.0-1.14","22237","List1B","white","man","","","","null","","","","","","","","",""
"null","is copying","","html-keyboard-response","108","1155006","0.0-13.0-2.14","22237","List1B","white","man","","","","null","","","","","","","","",""
"44003.800000190735","","","survey-text","109","1199012","0.0-13.0-3.14","22237","List1B","white","man","","","","","{""Q0"":""mike is copying beth""}","<img src=""stim_listB/copy1.gif""style=""height:400px;""></stim_listB>","is copying","","","","","",""
"null","<div style=""font-size:60px;"">+</div>","","html-keyboard-response","110","1199523","0.0-13.0-0.15","22237","List1B","white","man","","","","null","","","","","","","","",""
"null","<img src=""stim_listB/seduce1.gif""style=""height:400px;""></stim_listB>","","html-keyboard-response","111","1201526","0.0-13.0-1.15","22237","List1B","white","man","","","","null","","","","","","","","",""
"null","is seducing","","html-keyboard-response","112","1203541","0.0-13.0-2.15","22237","List1B","white","man","","","","null","","","","","","","","",""
"76882.60000038147","","","survey-text","113","1280426","0.0-13.0-3.15","22237","List1B","white","man","","","","","{""Q0"":""kate is seducing fred""}","<img src=""stim_listB/seduce1.gif""style=""height:400px;""></stim_listB>","is seducing","","","","","",""
"null","<div style=""font-size:60px;"">+</div>","","html-keyboard-response","114","1280935","0.0-13.0-0.16","22237","List1B","white","man","","","","null","","","","","","","","",""
"null","<img src=""stim_listB/challenge8.gif""style=""height:400px;""></stim_listB>","","html-keyboard-response","115","1282949","0.0-13.0-1.16","22237","List1B","white","man","","","","null","","","","","","","","",""
"null","is being challenged by","","html-keyboard-response","116","1284960","0.0-13.0-2.16","22237","List1B","white","man","","","","null","","","","","","","","",""
"60617","","","survey-text","117","1345579","0.0-13.0-3.16","22237","List1B","white","man","","","","","{""Q0"":""kate is being challenged by beth""}","<img src=""stim_listB/challenge8.gif""style=""height:400px;""></stim_listB>","is being challenged by","","","","","",""
"null","<div style=""font-size:60px;"">+</div>","","html-keyboard-response","118","1346090","0.0-13.0-0.17","22237","List1B","white","man","","","","null","","","","","","","","",""
"null","<img src=""stim_listB/hug5.gif""style=""height:400px;""></stim_listB>","","html-keyboard-response","119","1348106","0.0-13.0-1.17","22237","List1B","white","man","","","","null","","","","","","","","",""
"null","is hugging","","html-keyboard-response","120","1350108","0.0-13.0-2.17","22237","List1B","white","man","","","","null","","","","","","","","",""
"47656.199999809265","","","survey-text","121","1397766","0.0-13.0-3.17","22237","List1B","white","man","","","","","{""Q0"":""luke is hugging fred""}","<img src=""stim_listB/hug5.gif""style=""height:400px;""></stim_listB>","is hugging","","","","","",""
"null","<div style=""font-size:60px;"">+</div>","","html-keyboard-response","122","1398273","0.0-13.0-0.18","22237","List1B","white","man","","","","null","","","","","","","","",""
"null","<img src=""stim_listB/kiss4.gif""style=""height:400px;""></stim_listB>","","html-keyboard-response","123","1400275","0.0-13.0-1.18","22237","List1B","white","man","","","","null","","","","","","","","",""
"null","is being kissed by","","html-keyboard-response","124","1402291","0.0-13.0-2.18","22237","List1B","white","man","","","","null","","","","","","","","",""
"60593.800000190735","","","survey-text","125","1462887","0.0-13.0-3.18","22237","List1B","white","man","","","","","{""Q0"":"" dave is being kissed by jane""}","<img src=""stim_listB/kiss4.gif""style=""height:400px;""></stim_listB>","is being kissed by","","","","","",""
"null","<div style=""font-size:60px;"">+</div>","","html-keyboard-response","126","1463395","0.0-13.0-0.19","22237","List1B","white","man","","","","null","","","","","","","","",""
"null","<img src=""stim_listB/greet7.gif""style=""height:400px;""></stim_listB>","","html-keyboard-response","127","1465402","0.0-13.0-1.19","22237","List1B","white","man","","","","null","","","","","","","","",""
"null","is greeting","","html-keyboard-response","128","1467403","0.0-13.0-2.19","22237","List1B","white","man","","","","null","","","","","","","","",""
"64933.09999990463","","","survey-text","129","1532338","0.0-13.0-3.19","22237","List1B","white","man","","","","","{""Q0"":""ruth is greeting kate""}","<img src=""stim_listB/greet7.gif""style=""height:400px;""></stim_listB>","is greeting","","","","","",""
"71257.59999990463","<img src='img/portrait_matrix_list1.jpg' style='width:900px;height:500px;''></img><p>If you have memorised all the portraits and names and are ready to start, press Continue.</p><p><strong>Please note: Your memory of these faces will be tested 4 times during this experiment.</strong></p>","0","html-button-response","130","1603597","0.0-14.0-0.0","22237","List1B","white","man","","","","","","","","","","","","",""
"12917.400000095367","<img src=""portrait/WM1.jpg""style=""height:400px;""></img>","6","html-button-response","131","1617521","0.0-14.0-1.0","22237","List1B","white","man","","true","6","","","","","","","","","",""
"null","CORRECT","","html-keyboard-response","132","1619032","0.0-14.0-2.0-0.0","22237","List1B","white","man","","","","null","","","","","","","","",""
"6165.200000286102","<img src=""portrait/WW2.jpg""style=""height:400px;""></img>","3","html-button-response","133","1625199","0.0-14.0-4.0","22237","List1B","white","man","","true","3","","","","","","","","","",""
"null","CORRECT","","html-keyboard-response","134","1626703","0.0-14.0-5.0-0.0","22237","List1B","white","man","","","","null","","","","","","","","",""
"4918.299999713898","<img src=""portrait/WW1.jpg""style=""height:400px;""></img>","1","html-button-response","135","1631623","0.0-14.0-7.0","22237","List1B","white","man","","true","1","","","","","","","","","",""
"null","CORRECT","","html-keyboard-response","136","1633136","0.0-14.0-8.0-0.0","22237","List1B","white","man","","","","null","","","","","","","","",""
"6725.300000190735","<img src=""portrait/BM2.jpg""style=""height:400px;""></img>","5","html-button-response","137","1639863","0.0-14.0-10.0","22237","List1B","white","man","","true","5","","","","","","","","","",""
"null","CORRECT","","html-keyboard-response","138","1641367","0.0-14.0-11.0-0.0","22237","List1B","white","man","","","","null","","","","","","","","",""
"5276","<img src=""portrait/BW2.jpg""style=""height:400px;""></img>","2","html-button-response","139","1646645","0.0-14.0-13.0","22237","List1B","white","man","","true","2","","","","","","","","","",""
"null","CORRECT","","html-keyboard-response","140","1648158","0.0-14.0-14.0-0.0","22237","List1B","white","man","","","","null","","","","","","","","",""
"5116.299999713898","<img src=""portrait/BW1.jpg""style=""height:400px;""></img>","4","html-button-response","141","1653276","0.0-14.0-16.0","22237","List1B","white","man","","true","0","","","","","","","","","",""
"8094.299999713898","<img src=""portrait/BW1.jpg""style=""height:400px;""></img>","0","html-button-response","142","1662374","0.0-14.0-18.0-0.0","22237","List1B","white","man","","false","0","","","","","","","","","",""
"null","CORRECT","","html-keyboard-response","143","1663896","0.0-14.0-18.0-1.0-0.0","22237","List1B","white","man","","","","null","","","","","","","","",""
"7456.599999904633","<img src=""portrait/BM1.jpg""style=""height:400px;""></img>","4","html-button-response","144","1671355","0.0-14.0-19.0","22237","List1B","white","man","","true","4","","","","","","","","","",""
"null","CORRECT","","html-keyboard-response","145","1672868","0.0-14.0-20.0-0.0","22237","List1B","white","man","","","","null","","","","","","","","",""
"5414.799999713898","<img src=""portrait/WM2.jpg""style=""height:400px;""></img>","7","html-button-response","146","1678285","0.0-14.0-22.0","22237","List1B","white","man","","true","7","","","","","","","","","",""
"null","CORRECT","","html-keyboard-response","147","1679803","0.0-14.0-23.0-0.0","22237","List1B","white","man","","","","null","","","","","","","","",""
"4033.0999999046326","<p>You got 7 out of 8 right first time. Press Continue.</p>","0","html-button-response","148","1683838","0.0-14.0-25.0","22237","List1B","white","man","","","","","","","","","","","","",""
"5538.39999961853","As you did not score 100%, the memory game will repeat. Press Continue.","0","html-button-response","149","1690392","0.0-14.0-26.0-0.0","22237","List1B","white","man","","","","","","","","","","","","",""
"5554.200000286102","<img src='img/portrait_matrix_list1.jpg' style='width:900px;height:500px;''></img><p>If you have memorised all the portraits and names and are ready to start, press Continue.</p><p><strong>Please note: Your memory of these faces will be tested 4 times during this experiment.</strong></p>","0","html-button-response","150","1696956","0.0-14.1-0.1","22237","List1B","white","man","","","","","","","","","","","","",""
"6828","<img src=""portrait/WM1.jpg""style=""height:400px;""></img>","6","html-button-response","151","1704789","0.0-14.1-1.1","22237","List1B","white","man","","true","6","","","","","","","","","",""
"null","CORRECT","","html-keyboard-response","152","1706311","0.0-14.1-2.1-0.1","22237","List1B","white","man","","","","null","","","","","","","","",""
"6026.89999961853","<img src=""portrait/WW2.jpg""style=""height:400px;""></img>","3","html-button-response","153","1712339","0.0-14.1-4.1","22237","List1B","white","man","","true","3","","","","","","","","","",""
"null","CORRECT","","html-keyboard-response","154","1713848","0.0-14.1-5.1-0.1","22237","List1B","white","man","","","","null","","","","","","","","",""
"4574.699999809265","<img src=""portrait/WW1.jpg""style=""height:400px;""></img>","1","html-button-response","155","1718424","0.0-14.1-7.1","22237","List1B","white","man","","true","1","","","","","","","","","",""
"null","CORRECT","","html-keyboard-response","156","1719933","0.0-14.1-8.1-0.1","22237","List1B","white","man","","","","null","","","","","","","","",""
"10693.599999904633","<img src=""portrait/BM2.jpg""style=""height:400px;""></img>","5","html-button-response","157","1730628","0.0-14.1-10.1","22237","List1B","white","man","","true","5","","","","","","","","","",""
"null","CORRECT","","html-keyboard-response","158","1732138","0.0-14.1-11.1-0.1","22237","List1B","white","man","","","","null","","","","","","","","",""
"6780.599999904633","<img src=""portrait/BW2.jpg""style=""height:400px;""></img>","2","html-button-response","159","1738920","0.0-14.1-13.1","22237","List1B","white","man","","true","2","","","","","","","","","",""
"null","CORRECT","","html-keyboard-response","160","1740425","0.0-14.1-14.1-0.1","22237","List1B","white","man","","","","null","","","","","","","","",""
"7396.5","<img src=""portrait/BW1.jpg""style=""height:400px;""></img>","0","html-button-response","161","1747823","0.0-14.1-16.1","22237","List1B","white","man","","true","0","","","","","","","","","",""
"null","CORRECT","","html-keyboard-response","162","1749342","0.0-14.1-17.1-0.1","22237","List1B","white","man","","","","null","","","","","","","","",""
"7213","<img src=""portrait/BM1.jpg""style=""height:400px;""></img>","4","html-button-response","163","1756556","0.0-14.1-19.1","22237","List1B","white","man","","true","4","","","","","","","","","",""
"null","CORRECT","","html-keyboard-response","164","1758078","0.0-14.1-20.1-0.1","22237","List1B","white","man","","","","null","","","","","","","","",""
"3989.699999809265","<img src=""portrait/WM2.jpg""style=""height:400px;""></img>","7","html-button-response","165","1762069","0.0-14.1-22.1","22237","List1B","white","man","","true","7","","","","","","","","","",""
"null","CORRECT","","html-keyboard-response","166","1763597","0.0-14.1-23.1-0.1","22237","List1B","white","man","","","","null","","","","","","","","",""
"2375.7000002861023","<p>You got 8 out of 8 right first time. Press Continue.</p>","0","html-button-response","167","1765974","0.0-14.1-25.1","22237","List1B","white","man","","","","","","","","","","","","",""
"null","<div style=""font-size:60px;"">+</div>","","html-keyboard-response","168","1767483","0.0-15.0-0.0","22237","List1B","white","man","","","","null","","","","","","","","",""
"null","<img src=""stim_listB/look1.gif""style=""height:400px;""></stim_listB>","","html-keyboard-response","169","1769499","0.0-15.0-1.0","22237","List1B","white","man","","","","null","","","","","","","","",""
"null","is looking at","","html-keyboard-response","170","1771515","0.0-15.0-2.0","22237","List1B","white","man","","","","null","","","","","","","","",""
"48902.09999990463","","","survey-text","171","1820419","0.0-15.0-3.0","22237","List1B","white","man","","","","","{""Q0"":""fred is looking at beth""}","<img src=""stim_listB/look1.gif""style=""height:400px;""></stim_listB>","is looking at","","","","","",""
"null","<div style=""font-size:60px;"">+</div>","","html-keyboard-response","172","1820932","0.0-15.0-0.1","22237","List1B","white","man","","","","null","","","","","","","","",""
"null","<img src=""stim_listB/kiss8.gif""style=""height:400px;""></stim_listB>","","html-keyboard-response","173","1822948","0.0-15.0-1.1","22237","List1B","white","man","","","","null","","","","","","","","",""
"null","is being kissed by","","html-keyboard-response","174","1824951","0.0-15.0-2.1","22237","List1B","white","man","","","","null","","","","","","","","",""
"54608.5","","","survey-text","175","1879562","0.0-15.0-3.1","22237","List1B","white","man","","","","","{""Q0"":""kate is being kissed by jane""}","<img src=""stim_listB/kiss8.gif""style=""height:400px;""></stim_listB>","is being kissed by","","","","","",""
"null","<div style=""font-size:60px;"">+</div>","","html-keyboard-response","176","1880068","0.0-15.0-0.2","22237","List1B","white","man","","","","null","","","","","","","","",""
"null","<img src=""stim_listB/challenge1.gif""style=""height:400px;""></stim_listB>","","html-keyboard-response","177","1882085","0.0-15.0-1.2","22237","List1B","white","man","","","","null","","","","","","","","",""
"null","is challenging","","html-keyboard-response","178","1884087","0.0-15.0-2.2","22237","List1B","white","man","","","","null","","","","","","","","",""
"66481.09999990463","","","survey-text","179","1950570","0.0-15.0-3.2","22237","List1B","white","man","","","","","{""Q0"":""mike is challenging beth""}","<img src=""stim_listB/challenge1.gif""style=""height:400px;""></stim_listB>","is challenging","","","","","",""
"null","<div style=""font-size:60px;"">+</div>","","html-keyboard-response","180","1951075","0.0-15.0-0.3","22237","List1B","white","man","","","","null","","","","","","","","",""
"null","<img src=""stim_listB/oppose7.gif""style=""height:400px;""></stim_listB>","","html-keyboard-response","181","1953078","0.0-15.0-1.3","22237","List1B","white","man","","","","null","","","","","","","","",""
"null","is opposing","","html-keyboard-response","182","1955094","0.0-15.0-2.3","22237","List1B","white","man","","","","null","","","","","","","","",""
"60198.40000009537","","","survey-text","183","2015294","0.0-15.0-3.3","22237","List1B","white","man","","","","","{""Q0"":""kate is opposing jane""}","<img src=""stim_listB/oppose7.gif""style=""height:400px;""></stim_listB>","is opposing","","","","","",""
"null","<div style=""font-size:60px;"">+</div>","","html-keyboard-response","184","2015799","0.0-15.0-0.4","22237","List1B","white","man","","","","null","","","","","","","","",""
"null","<img src=""stim_listB/copy5.gif""style=""height:400px;""></stim_listB>","","html-keyboard-response","185","2017816","0.0-15.0-1.4","22237","List1B","white","man","","","","null","","","","","","","","",""
"null","is copying","","html-keyboard-response","186","2019817","0.0-15.0-2.4","22237","List1B","white","man","","","","null","","","","","","","","",""
"64712.2000002861","","","survey-text","187","2084531","0.0-15.0-3.4","22237","List1B","white","man","","","","","{""Q0"":""luke is copying mike""}","<img src=""stim_listB/copy5.gif""style=""height:400px;""></stim_listB>","is copying","","","","","",""
"null","<div style=""font-size:60px;"">+</div>","","html-keyboard-response","188","2085037","0.0-15.0-0.5","22237","List1B","white","man","","","","null","","","","","","","","",""
"null","<img src=""stim_listB/hug8.gif""style=""height:400px;""></stim_listB>","","html-keyboard-response","189","2087040","0.0-15.0-1.5","22237","List1B","white","man","","","","null","","","","","","","","",""
"null","is being hugged by","","html-keyboard-response","190","2089055","0.0-15.0-2.5","22237","List1B","white","man","","","","null","","","","","","","","",""
"44038.800000190735","","","survey-text","191","2133096","0.0-15.0-3.5","22237","List1B","white","man","","","","","{""Q0"":""kate is being hugged by jane""}","<img src=""stim_listB/hug8.gif""style=""height:400px;""></stim_listB>","is being hugged by","","","","","",""
"null","<div style=""font-size:60px;"">+</div>","","html-keyboard-response","192","2133604","0.0-15.0-0.6","22237","List1B","white","man","","","","null","","","","","","","","",""
"null","<img src=""stim_listB/oppose6.gif""style=""height:400px;""></stim_listB>","","html-keyboard-response","193","2135620","0.0-15.0-1.6","22237","List1B","white","man","","","","null","","","","","","","","",""
"null","is being opposed by","","html-keyboard-response","194","2137622","0.0-15.0-2.6","22237","List1B","white","man","","","","null","","","","","","","","",""
"57066","","","survey-text","195","2194690","0.0-15.0-3.6","22237","List1B","white","man","","","","","{""Q0"":""luke is being opposed by fred""}","<img src=""stim_listB/oppose6.gif""style=""height:400px;""></stim_listB>","is being opposed by","","","","","",""
"null","<div style=""font-size:60px;"">+</div>","","html-keyboard-response","196","2195193","0.0-15.0-0.7","22237","List1B","white","man","","","","null","","","","","","","","",""
"null","<img src=""stim_listB/hug4.gif""style=""height:400px;""></stim_listB>","","html-keyboard-response","197","2197202","0.0-15.0-1.7","22237","List1B","white","man","","","","null","","","","","","","","",""
"null","is being hugged by","","html-keyboard-response","198","2199209","0.0-15.0-2.7","22237","List1B","white","man","","","","null","","","","","","","","",""
"49704.59999990463","","","survey-text","199","2248915","0.0-15.0-3.7","22237","List1B","white","man","","","","","{""Q0"":""jane is being hugged by luke""}","<img src=""stim_listB/hug4.gif""style=""height:400px;""></stim_listB>","is being hugged by","","","","","",""
"null","<div style=""font-size:60px;"">+</div>","","html-keyboard-response","200","2249418","0.0-15.0-0.8","22237","List1B","white","man","","","","null","","","","","","","","",""
"null","<img src=""stim_listB/kiss1.gif""style=""height:400px;""></stim_listB>","","html-keyboard-response","201","2251427","0.0-15.0-1.8","22237","List1B","white","man","","","","null","","","","","","","","",""
"null","is kissing","","html-keyboard-response","202","2253429","0.0-15.0-2.8","22237","List1B","white","man","","","","null","","","","","","","","",""
"39593.699999809265","","","survey-text","203","2293025","0.0-15.0-3.8","22237","List1B","white","man","","","","","{""Q0"":""beth is kissing fred""}","<img src=""stim_listB/kiss1.gif""style=""height:400px;""></stim_listB>","is kissing","","","","","",""
"null","<div style=""font-size:60px;"">+</div>","","html-keyboard-response","204","2293540","0.0-15.0-0.9","22237","List1B","white","man","","","","null","","","","","","","","",""
"null","<img src=""stim_listB/look2.gif""style=""height:400px;""></stim_listB>","","html-keyboard-response","205","2295543","0.0-15.0-1.9","22237","List1B","white","man","","","","null","","","","","","","","",""
"null","is being looked at by","","html-keyboard-response","206","2297559","0.0-15.0-2.9","22237","List1B","white","man","","","","null","","","","","","","","",""
"50821.800000190735","","","survey-text","207","2348383","0.0-15.0-3.9","22237","List1B","white","man","","","","","{""Q0"":""kate is being looked at by mike""}","<img src=""stim_listB/look2.gif""style=""height:400px;""></stim_listB>","is being looked at by","","","","","",""
"null","<div style=""font-size:60px;"">+</div>","","html-keyboard-response","208","2348894","0.0-15.0-0.10","22237","List1B","white","man","","","","null","","","","","","","","",""
"null","<img src=""stim_listB/oppose5.gif""style=""height:400px;""></stim_listB>","","html-keyboard-response","209","2350910","0.0-15.0-1.10","22237","List1B","white","man","","","","null","","","","","","","","",""
"null","is opposing","","html-keyboard-response","210","2352912","0.0-15.0-2.10","22237","List1B","white","man","","","","null","","","","","","","","",""
"62441.5","","","survey-text","211","2415355","0.0-15.0-3.10","22237","List1B","white","man","","","","","{""Q0"":""dave is opposing mike""}","<img src=""stim_listB/oppose5.gif""style=""height:400px;""></stim_listB>","is opposing","","","","","",""
"null","<div style=""font-size:60px;"">+</div>","","html-keyboard-response","212","2415866","0.0-15.0-0.11","22237","List1B","white","man","","","","null","","","","","","","","",""
"null","<img src=""stim_listB/shout4.gif""style=""height:400px;""></stim_listB>","","html-keyboard-response","213","2417868","0.0-15.0-1.11","22237","List1B","white","man","","","","null","","","","","","","","",""
"null","is being shouted at by","","html-keyboard-response","214","2419883","0.0-15.0-2.11","22237","List1B","white","man","","","","null","","","","","","","","",""
"63631.300000190735","","","survey-text","215","2483516","0.0-15.0-3.11","22237","List1B","white","man","","","","","{""Q0"":""dave is being shouted at by jane""}","<img src=""stim_listB/shout4.gif""style=""height:400px;""></stim_listB>","is being shouted at by","","","","","",""
"null","<div style=""font-size:60px;"">+</div>","","html-keyboard-response","216","2484023","0.0-15.0-0.12","22237","List1B","white","man","","","","null","","","","","","","","",""
"null","<img src=""stim_listB/copy4.gif""style=""height:400px;""></stim_listB>","","html-keyboard-response","217","2486038","0.0-15.0-1.12","22237","List1B","white","man","","","","null","","","","","","","","",""
"null","is being copied by","","html-keyboard-response","218","2488051","0.0-15.0-2.12","22237","List1B","white","man","","","","null","","","","","","","","",""
"82081.09999990463","","","survey-text","219","2570134","0.0-15.0-3.12","22237","List1B","white","man","","","","","{""Q0"":""jane is being copied by luke""}","<img src=""stim_listB/copy4.gif""style=""height:400px;""></stim_listB>","is being copied by","","","","","",""
"null","<div style=""font-size:60px;"">+</div>","","html-keyboard-response","220","2570651","0.0-15.0-0.13","22237","List1B","white","man","","","","null","","","","","","","","",""
"null","<img src=""stim_listB/greet2.gif""style=""height:400px;""></stim_listB>","","html-keyboard-response","221","2572668","0.0-15.0-1.13","22237","List1B","white","man","","","","null","","","","","","","","",""
"null","is being greeted by","","html-keyboard-response","222","2574670","0.0-15.0-2.13","22237","List1B","white","man","","","","null","","","","","","","","",""
"107173.59999990463","","","survey-text","223","2681845","0.0-15.0-3.13","22237","List1B","white","man","","","","","{""Q0"":""kate is being greeted by fred""}","<img src=""stim_listB/greet2.gif""style=""height:400px;""></stim_listB>","is being greeted by","","","","","",""
"null","<div style=""font-size:60px;"">+</div>","","html-keyboard-response","224","2682355","0.0-15.0-0.14","22237","List1B","white","man","","","","null","","","","","","","","",""
"null","<img src=""stim_listB/seduce8.gif""style=""height:400px;""></stim_listB>","","html-keyboard-response","225","2684371","0.0-15.0-1.14","22237","List1B","white","man","","","","null","","","","","","","","",""
"null","is being seduced by","","html-keyboard-response","226","2686374","0.0-15.0-2.14","22237","List1B","white","man","","","","null","","","","","","","","",""
"61119.59999990463","","","survey-text","227","2747496","0.0-15.0-3.14","22237","List1B","white","man","","","","","{""Q0"":""kate is being seduced by ruth""}","<img src=""stim_listB/seduce8.gif""style=""height:400px;""></stim_listB>","is being seduced by","","","","","",""
"null","<div style=""font-size:60px;"">+</div>","","html-keyboard-response","228","2748011","0.0-15.0-0.15","22237","List1B","white","man","","","","null","","","","","","","","",""
"null","<img src=""stim_listB/greet5.gif""style=""height:400px;""></stim_listB>","","html-keyboard-response","229","2750013","0.0-15.0-1.15","22237","List1B","white","man","","","","null","","","","","","","","",""
"null","is greeting","","html-keyboard-response","230","2752028","0.0-15.0-2.15","22237","List1B","white","man","","","","null","","","","","","","","",""
"51609.300000190735","","","survey-text","231","2803639","0.0-15.0-3.15","22237","List1B","white","man","","","","","{""Q0"":""luke is greeting mike""}","<img src=""stim_listB/greet5.gif""style=""height:400px;""></stim_listB>","is greeting","","","","","",""
"null","<div style=""font-size:60px;"">+</div>","","html-keyboard-response","232","2804146","0.0-15.0-0.16","22237","List1B","white","man","","","","null","","","","","","","","",""
"null","<img src=""stim_listB/hug6.gif""style=""height:400px;""></stim_listB>","","html-keyboard-response","233","2806163","0.0-15.0-1.16","22237","List1B","white","man","","","","null","","","","","","","","",""
"null","is being hugged by","","html-keyboard-response","234","2808165","0.0-15.0-2.16","22237","List1B","white","man","","","","null","","","","","","","","",""
"44304.2999997139","","","survey-text","235","2852471","0.0-15.0-3.16","22237","List1B","white","man","","","","","{""Q0"":""dave is being hugged by mike ""}","<img src=""stim_listB/hug6.gif""style=""height:400px;""></stim_listB>","is being hugged by","","","","","",""
"null","<div style=""font-size:60px;"">+</div>","","html-keyboard-response","236","2852980","0.0-15.0-0.17","22237","List1B","white","man","","","","null","","","","","","","","",""
"null","<img src=""stim_listB/touch6.gif""style=""height:400px;""></stim_listB>","","html-keyboard-response","237","2854996","0.0-15.0-1.17","22237","List1B","white","man","","","","null","","","","","","","","",""
"null","is being touched by","","html-keyboard-response","238","2856997","0.0-15.0-2.17","22237","List1B","white","man","","","","null","","","","","","","","",""
"73585.80000019073","","","survey-text","239","2930585","0.0-15.0-3.17","22237","List1B","white","man","","","","","{""Q0"":""luke is being touched by fred""}","<img src=""stim_listB/touch6.gif""style=""height:400px;""></stim_listB>","is being touched by","","","","","",""
"null","<div style=""font-size:60px;"">+</div>","","html-keyboard-response","240","2931090","0.0-15.0-0.18","22237","List1B","white","man","","","","null","","","","","","","","",""
"null","<img src=""stim_listB/oppose1.gif""style=""height:400px;""></stim_listB>","","html-keyboard-response","241","2933106","0.0-15.0-1.18","22237","List1B","white","man","","","","null","","","","","","","","",""
"null","is opposing","","html-keyboard-response","242","2935110","0.0-15.0-2.18","22237","List1B","white","man","","","","null","","","","","","","","",""
"47927.59999990463","","","survey-text","243","2983040","0.0-15.0-3.18","22237","List1B","white","man","","","","","{""Q0"":""kate is opposing mike ""}","<img src=""stim_listB/oppose1.gif""style=""height:400px;""></stim_listB>","is opposing","","","","","",""
"null","<div style=""font-size:60px;"">+</div>","","html-keyboard-response","244","2983557","0.0-15.0-0.19","22237","List1B","white","man","","","","null","","","","","","","","",""
"null","<img src=""stim_listB/challenge3.gif""style=""height:400px;""></stim_listB>","","html-keyboard-response","245","2985559","0.0-15.0-1.19","22237","List1B","white","man","","","","null","","","","","","","","",""
"null","is challenging","","html-keyboard-response","246","2987560","0.0-15.0-2.19","22237","List1B","white","man","","","","null","","","","","","","","",""
"74516.40000009537","","","survey-text","247","3062078","0.0-15.0-3.19","22237","List1B","white","man","","","","","{""Q0"":""ruth is challenging dave ""}","<img src=""stim_listB/challenge3.gif""style=""height:400px;""></stim_listB>","is challenging","","","","","",""
"75879.30000019073","<img src='img/portrait_matrix_list1.jpg' style='width:900px;height:500px;''></img><p>If you have memorised all the portraits and names and are ready to start, press Continue.</p><p><strong>Please note: Your memory of these faces will be tested 4 times during this experiment.</strong></p>","0","html-button-response","248","3137960","0.0-16.0-0.0","22237","List1B","white","man","","","","","","","","","","","","",""
"5770.5","<img src=""portrait/BW2.jpg""style=""height:400px;""></img>","2","html-button-response","249","3144748","0.0-16.0-1.0","22237","List1B","white","man","","true","2","","","","","","","","","",""
"null","CORRECT","","html-keyboard-response","250","3146263","0.0-16.0-2.0-0.0","22237","List1B","white","man","","","","null","","","","","","","","",""
"5248.900000095367","<img src=""portrait/BW1.jpg""style=""height:400px;""></img>","0","html-button-response","251","3151514","0.0-16.0-4.0","22237","List1B","white","man","","true","0","","","","","","","","","",""
"null","CORRECT","","html-keyboard-response","252","3153031","0.0-16.0-5.0-0.0","22237","List1B","white","man","","","","null","","","","","","","","",""
"5754.200000286102","<img src=""portrait/WW2.jpg""style=""height:400px;""></img>","3","html-button-response","253","3158788","0.0-16.0-7.0","22237","List1B","white","man","","true","3","","","","","","","","","",""
"null","CORRECT","","html-keyboard-response","254","3160303","0.0-16.0-8.0-0.0","22237","List1B","white","man","","","","null","","","","","","","","",""
"4194.599999904633","<img src=""portrait/WM2.jpg""style=""height:400px;""></img>","7","html-button-response","255","3164499","0.0-16.0-10.0","22237","List1B","white","man","","true","7","","","","","","","","","",""
"null","CORRECT","","html-keyboard-response","256","3166018","0.0-16.0-11.0-0.0","22237","List1B","white","man","","","","null","","","","","","","","",""
"4961.900000095367","<img src=""portrait/BM1.jpg""style=""height:400px;""></img>","4","html-button-response","257","3170981","0.0-16.0-13.0","22237","List1B","white","man","","true","4","","","","","","","","","",""
"null","CORRECT","","html-keyboard-response","258","3172503","0.0-16.0-14.0-0.0","22237","List1B","white","man","","","","null","","","","","","","","",""
"5087.39999961853","<img src=""portrait/WW1.jpg""style=""height:400px;""></img>","1","html-button-response","259","3177592","0.0-16.0-16.0","22237","List1B","white","man","","true","1","","","","","","","","","",""
"null","CORRECT","","html-keyboard-response","260","3179123","0.0-16.0-17.0-0.0","22237","List1B","white","man","","","","null","","","","","","","","",""
"9075.199999809265","<img src=""portrait/WM1.jpg""style=""height:400px;""></img>","6","html-button-response","261","3188199","0.0-16.0-19.0","22237","List1B","white","man","","true","6","","","","","","","","","",""
"null","CORRECT","","html-keyboard-response","262","3189710","0.0-16.0-20.0-0.0","22237","List1B","white","man","","","","null","","","","","","","","",""
"3724.7000002861023","<img src=""portrait/BM2.jpg""style=""height:400px;""></img>","5","html-button-response","263","3193436","0.0-16.0-22.0","22237","List1B","white","man","","true","5","","","","","","","","","",""
"null","CORRECT","","html-keyboard-response","264","3194962","0.0-16.0-23.0-0.0","22237","List1B","white","man","","","","null","","","","","","","","",""
"2916.2000002861023","<p>You got 8 out of 8 right first time. Press Continue.</p>","0","html-button-response","265","3197880","0.0-16.0-25.0","22237","List1B","white","man","","","","","","","","","","","","",""
"null","<div style=""font-size:60px;"">+</div>","","html-keyboard-response","266","3199396","0.0-17.0-0.0","22237","List1B","white","man","","","","null","","","","","","","","",""
"null","<img src=""stim_listB/greet4.gif""style=""height:400px;""></stim_listB>","","html-keyboard-response","267","3201398","0.0-17.0-1.0","22237","List1B","white","man","","","","null","","","","","","","","",""
"null","is being greeted by","","html-keyboard-response","268","3203407","0.0-17.0-2.0","22237","List1B","white","man","","","","null","","","","","","","","",""
"64397.2999997139","","","survey-text","269","3267806","0.0-17.0-3.0","22237","List1B","white","man","","","","","{""Q0"":""dave is being greeted by jane ""}","<img src=""stim_listB/greet4.gif""style=""height:400px;""></stim_listB>","is being greeted by","","","","","",""
"null","<div style=""font-size:60px;"">+</div>","","html-keyboard-response","270","3268319","0.0-17.0-0.1","22237","List1B","white","man","","","","null","","","","","","","","",""
"null","<img src=""stim_listB/seduce5.gif""style=""height:400px;""></stim_listB>","","html-keyboard-response","271","3270336","0.0-17.0-1.1","22237","List1B","white","man","","","","null","","","","","","","","",""
"null","is seducing","","html-keyboard-response","272","3272337","0.0-17.0-2.1","22237","List1B","white","man","","","","null","","","","","","","","",""
"33445.2000002861","","","survey-text","273","3305785","0.0-17.0-3.1","22237","List1B","white","man","","","","","{""Q0"":""fred is seducing dave""}","<img src=""stim_listB/seduce5.gif""style=""height:400px;""></stim_listB>","is seducing","","","","","",""
"null","<div style=""font-size:60px;"">+</div>","","html-keyboard-response","274","3306299","0.0-17.0-0.2","22237","List1B","white","man","","","","null","","","","","","","","",""
"null","<img src=""stim_listB/shout7.gif""style=""height:400px;""></stim_listB>","","html-keyboard-response","275","3308301","0.0-17.0-1.2","22237","List1B","white","man","","","","null","","","","","","","","",""
"null","is shouting at","","html-keyboard-response","276","3310316","0.0-17.0-2.2","22237","List1B","white","man","","","","null","","","","","","","","",""
"66509.40000009537","","","survey-text","277","3376828","0.0-17.0-3.2","22237","List1B","white","man","","","","","{""Q0"":""ruth is shouting at beth""}","<img src=""stim_listB/shout7.gif""style=""height:400px;""></stim_listB>","is shouting at","","","","","",""
"null","<div style=""font-size:60px;"">+</div>","","html-keyboard-response","278","3377340","0.0-17.0-0.3","22237","List1B","white","man","","","","null","","","","","","","","",""
"null","<img src=""stim_listB/look5.gif""style=""height:400px;""></stim_listB>","","html-keyboard-response","279","3379341","0.0-17.0-1.3","22237","List1B","white","man","","","","null","","","","","","","","",""
"null","is looking at","","html-keyboard-response","280","3381344","0.0-17.0-2.3","22237","List1B","white","man","","","","null","","","","","","","","",""
"51649.5","","","survey-text","281","3432995","0.0-17.0-3.3","22237","List1B","white","man","","","","","{""Q0"":""luke is looking at fred""}","<img src=""stim_listB/look5.gif""style=""height:400px;""></stim_listB>","is looking at","","","","","",""
"null","<div style=""font-size:60px;"">+</div>","","html-keyboard-response","282","3433509","0.0-17.0-0.4","22237","List1B","white","man","","","","null","","","","","","","","",""
"null","<img src=""stim_listB/seduce3.gif""style=""height:400px;""></stim_listB>","","html-keyboard-response","283","3435511","0.0-17.0-1.4","22237","List1B","white","man","","","","null","","","","","","","","",""
"null","is seducing","","html-keyboard-response","284","3437525","0.0-17.0-2.4","22237","List1B","white","man","","","","null","","","","","","","","",""
"35177.59999990463","","","survey-text","285","3472705","0.0-17.0-3.4","22237","List1B","white","man","","","","","{""Q0"":""luke is seducing jane ""}","<img src=""stim_listB/seduce3.gif""style=""height:400px;""></stim_listB>","is seducing","","","","","",""
"null","<div style=""font-size:60px;"">+</div>","","html-keyboard-response","286","3473221","0.0-17.0-0.5","22237","List1B","white","man","","","","null","","","","","","","","",""
"null","<img src=""stim_listB/shout5.gif""style=""height:400px;""></stim_listB>","","html-keyboard-response","287","3475224","0.0-17.0-1.5","22237","List1B","white","man","","","","null","","","","","","","","",""
"null","is shouting at","","html-keyboard-response","288","3477239","0.0-17.0-2.5","22237","List1B","white","man","","","","null","","","","","","","","",""
"33659.300000190735","","","survey-text","289","3510900","0.0-17.0-3.5","22237","List1B","white","man","","","","","{""Q0"":""fred is shouting at luke""}","<img src=""stim_listB/shout5.gif""style=""height:400px;""></stim_listB>","is shouting at","","","","","",""
"null","<div style=""font-size:60px;"">+</div>","","html-keyboard-response","290","3511415","0.0-17.0-0.6","22237","List1B","white","man","","","","null","","","","","","","","",""
"null","<img src=""stim_listB/oppose3.gif""style=""height:400px;""></stim_listB>","","html-keyboard-response","291","3513419","0.0-17.0-1.6","22237","List1B","white","man","","","","null","","","","","","","","",""
"null","is opposing","","html-keyboard-response","292","3515420","0.0-17.0-2.6","22237","List1B","white","man","","","","null","","","","","","","","",""
"48663.59999990463","","","survey-text","293","3564085","0.0-17.0-3.6","22237","List1B","white","man","","","","","{""Q0"":""jane is opposing dave""}","<img src=""stim_listB/oppose3.gif""style=""height:400px;""></stim_listB>","is opposing","","","","","",""
"null","<div style=""font-size:60px;"">+</div>","","html-keyboard-response","294","3564602","0.0-17.0-0.7","22237","List1B","white","man","","","","null","","","","","","","","",""
"null","<img src=""stim_listB/shout3.gif""style=""height:400px;""></stim_listB>","","html-keyboard-response","295","3566618","0.0-17.0-1.7","22237","List1B","white","man","","","","null","","","","","","","","",""
"null","is shouting at","","html-keyboard-response","296","3568619","0.0-17.0-2.7","22237","List1B","white","man","","","","null","","","","","","","","",""
"46256.800000190735","","","survey-text","297","3614878","0.0-17.0-3.7","22237","List1B","white","man","","","","","{""Q0"":""ruth is shouting at luke""}","<img src=""stim_listB/shout3.gif""style=""height:400px;""></stim_listB>","is shouting at","","","","","",""
"null","<div style=""font-size:60px;"">+</div>","","html-keyboard-response","298","3615385","0.0-17.0-0.8","22237","List1B","white","man","","","","null","","","","","","","","",""
"null","<img src=""stim_listB/seduce6.gif""style=""height:400px;""></stim_listB>","","html-keyboard-response","299","3617402","0.0-17.0-1.8","22237","List1B","white","man","","","","null","","","","","","","","",""
"null","is being seduced by","","html-keyboard-response","300","3619412","0.0-17.0-2.8","22237","List1B","white","man","","","","null","","","","","","","","",""
"42002.5","","","survey-text","301","3661416","0.0-17.0-3.8","22237","List1B","white","man","","","","","{""Q0"":""mike is being seduced by luke""}","<img src=""stim_listB/seduce6.gif""style=""height:400px;""></stim_listB>","is being seduced by","","","","","",""
"null","<div style=""font-size:60px;"">+</div>","","html-keyboard-response","302","3661919","0.0-17.0-0.9","22237","List1B","white","man","","","","null","","","","","","","","",""
"null","<img src=""stim_listB/challenge2.gif""style=""height:400px;""></stim_listB>","","html-keyboard-response","303","3663934","0.0-17.0-1.9","22237","List1B","white","man","","","","null","","","","","","","","",""
"null","is being challenged by","","html-keyboard-response","304","3665937","0.0-17.0-2.9","22237","List1B","white","man","","","","null","","","","","","","","",""
"40380.09999990463","","","survey-text","305","3706319","0.0-17.0-3.9","22237","List1B","white","man","","","","","{""Q0"":""kate is being challenged by fred""}","<img src=""stim_listB/challenge2.gif""style=""height:400px;""></stim_listB>","is being challenged by","","","","","",""
"null","<div style=""font-size:60px;"">+</div>","","html-keyboard-response","306","3706833","0.0-17.0-0.10","22237","List1B","white","man","","","","null","","","","","","","","",""
"null","<img src=""stim_listB/seduce4.gif""style=""height:400px;""></stim_listB>","","html-keyboard-response","307","3708850","0.0-17.0-1.10","22237","List1B","white","man","","","","null","","","","","","","","",""
"null","is being seduced by","","html-keyboard-response","308","3710864","0.0-17.0-2.10","22237","List1B","white","man","","","","null","","","","","","","","",""
"43825.59999990463","","","survey-text","309","3754691","0.0-17.0-3.10","22237","List1B","white","man","","","","","{""Q0"":""dave is being seduced by ruth""}","<img src=""stim_listB/seduce4.gif""style=""height:400px;""></stim_listB>","is being seduced by","","","","","",""
"null","<div style=""font-size:60px;"">+</div>","","html-keyboard-response","310","3755199","0.0-17.0-0.11","22237","List1B","white","man","","","","null","","","","","","","","",""
"null","<img src=""stim_listB/challenge6.gif""style=""height:400px;""></stim_listB>","","html-keyboard-response","311","3757201","0.0-17.0-1.11","22237","List1B","white","man","","","","null","","","","","","","","",""
"null","is being challenged by","","html-keyboard-response","312","3759215","0.0-17.0-2.11","22237","List1B","white","man","","","","null","","","","","","","","",""
"42640.5","","","survey-text","313","3801857","0.0-17.0-3.11","22237","List1B","white","man","","","","","{""Q0"":""dave is being challenged by fred""}","<img src=""stim_listB/challenge6.gif""style=""height:400px;""></stim_listB>","is being challenged by","","","","","",""
"null","<div style=""font-size:60px;"">+</div>","","html-keyboard-response","314","3802364","0.0-17.0-0.12","22237","List1B","white","man","","","","null","","","","","","","","",""
"null","<img src=""stim_listB/hug2.gif""style=""height:400px;""></stim_listB>","","html-keyboard-response","315","3804367","0.0-17.0-1.12","22237","List1B","white","man","","","","null","","","","","","","","",""
"null","is being hugged by","","html-keyboard-response","316","3806383","0.0-17.0-2.12","22237","List1B","white","man","","","","null","","","","","","","","",""
"41480.199999809265","","","survey-text","317","3847865","0.0-17.0-3.12","22237","List1B","white","man","","","","","{""Q0"":""kate is being hugged by mike""}","<img src=""stim_listB/hug2.gif""style=""height:400px;""></stim_listB>","is being hugged by","","","","","",""
"null","<div style=""font-size:60px;"">+</div>","","html-keyboard-response","318","3848381","0.0-17.0-0.13","22237","List1B","white","man","","","","null","","","","","","","","",""
"null","<img src=""stim_listB/shout8.gif""style=""height:400px;""></stim_listB>","","html-keyboard-response","319","3850397","0.0-17.0-1.13","22237","List1B","white","man","","","","null","","","","","","","","",""
"null","is being shouted at by","","html-keyboard-response","320","3852399","0.0-17.0-2.13","22237","List1B","white","man","","","","null","","","","","","","","",""
"53692.5","","","survey-text","321","3906093","0.0-17.0-3.13","22237","List1B","white","man","","","","","{""Q0"":""kate is being shouted at by jane""}","<img src=""stim_listB/shout8.gif""style=""height:400px;""></stim_listB>","is being shouted at by","","","","","",""
"null","<div style=""font-size:60px;"">+</div>","","html-keyboard-response","322","3906599","0.0-17.0-0.14","22237","List1B","white","man","","","","null","","","","","","","","",""
"null","<img src=""stim_listB/touch1.gif""style=""height:400px;""></stim_listB>","","html-keyboard-response","323","3908602","0.0-17.0-1.14","22237","List1B","white","man","","","","null","","","","","","","","",""
"null","is touching","","html-keyboard-response","324","3910617","0.0-17.0-2.14","22237","List1B","white","man","","","","null","","","","","","","","",""
"46379.199999809265","","","survey-text","325","3956999","0.0-17.0-3.14","22237","List1B","white","man","","","","","{""Q0"":""kate is touching mike""}","<img src=""stim_listB/touch1.gif""style=""height:400px;""></stim_listB>","is touching","","","","","",""
"null","<div style=""font-size:60px;"">+</div>","","html-keyboard-response","326","3957502","0.0-17.0-0.15","22237","List1B","white","man","","","","null","","","","","","","","",""
"null","<img src=""stim_listB/seduce7.gif""style=""height:400px;""></stim_listB>","","html-keyboard-response","327","3959517","0.0-17.0-1.15","22237","List1B","white","man","","","","null","","","","","","","","",""
"null","is seducing","","html-keyboard-response","328","3961519","0.0-17.0-2.15","22237","List1B","white","man","","","","null","","","","","","","","",""
"41920.09999990463","","","survey-text","329","4003441","0.0-17.0-3.15","22237","List1B","white","man","","","","","{""Q0"":""beth is seducing kate""}","<img src=""stim_listB/seduce7.gif""style=""height:400px;""></stim_listB>","is seducing","","","","","",""
"null","<div style=""font-size:60px;"">+</div>","","html-keyboard-response","330","4003949","0.0-17.0-0.16","22237","List1B","white","man","","","","null","","","","","","","","",""
"null","<img src=""stim_listB/challenge5.gif""style=""height:400px;""></stim_listB>","","html-keyboard-response","331","4005953","0.0-17.0-1.16","22237","List1B","white","man","","","","null","","","","","","","","",""
"null","is challenging","","html-keyboard-response","332","4007964","0.0-17.0-2.16","22237","List1B","white","man","","","","null","","","","","","","","",""
"39566.60000038147","","","survey-text","333","4047532","0.0-17.0-3.16","22237","List1B","white","man","","","","","{""Q0"":""mike is challenging luke""}","<img src=""stim_listB/challenge5.gif""style=""height:400px;""></stim_listB>","is challenging","","","","","",""
"null","<div style=""font-size:60px;"">+</div>","","html-keyboard-response","334","4048048","0.0-17.0-0.17","22237","List1B","white","man","","","","null","","","","","","","","",""
"null","<img src=""stim_listB/greet3.gif""style=""height:400px;""></stim_listB>","","html-keyboard-response","335","4050065","0.0-17.0-1.17","22237","List1B","white","man","","","","null","","","","","","","","",""
"null","is greeting","","html-keyboard-response","336","4052066","0.0-17.0-2.17","22237","List1B","white","man","","","","null","","","","","","","","",""
"39224.5","","","survey-text","337","4091292","0.0-17.0-3.17","22237","List1B","white","man","","","","","{""Q0"":""dave is greeting ruth""}","<img src=""stim_listB/greet3.gif""style=""height:400px;""></stim_listB>","is greeting","","","","","",""
"null","<div style=""font-size:60px;"">+</div>","","html-keyboard-response","338","4091798","0.0-17.0-0.18","22237","List1B","white","man","","","","null","","","","","","","","",""
"null","<img src=""stim_listB/oppose4.gif""style=""height:400px;""></stim_listB>","","html-keyboard-response","339","4093813","0.0-17.0-1.18","22237","List1B","white","man","","","","null","","","","","","","","",""
"null","is being opposed by","","html-keyboard-response","340","4095815","0.0-17.0-2.18","22237","List1B","white","man","","","","null","","","","","","","","",""
"42109.40000009537","","","survey-text","341","4137926","0.0-17.0-3.18","22237","List1B","white","man","","","","","{""Q0"":""luke is being opposed by ruth""}","<img src=""stim_listB/oppose4.gif""style=""height:400px;""></stim_listB>","is being opposed by","","","","","",""
"null","<div style=""font-size:60px;"">+</div>","","html-keyboard-response","342","4138431","0.0-17.0-0.19","22237","List1B","white","man","","","","null","","","","","","","","",""
"null","<img src=""stim_listB/kiss3.gif""style=""height:400px;""></stim_listB>","","html-keyboard-response","343","4140446","0.0-17.0-1.19","22237","List1B","white","man","","","","null","","","","","","","","",""
"null","is kissing","","html-keyboard-response","344","4142462","0.0-17.0-2.19","22237","List1B","white","man","","","","null","","","","","","","","",""
"39291.40000009537","","","survey-text","345","4181756","0.0-17.0-3.19","22237","List1B","white","man","","","","","{""Q0"":""luke is kissing ruth""}","<img src=""stim_listB/kiss3.gif""style=""height:400px;""></stim_listB>","is kissing","","","","","",""
"110137.80000019073","<img src='img/portrait_matrix_list1.jpg' style='width:900px;height:500px;''></img><p>If you have memorised all the portraits and names and are ready to start, press Continue.</p><p><strong>Please note: Your memory of these faces will be tested 4 times during this experiment.</strong></p>","0","html-button-response","346","4291897","0.0-18.0-0.0","22237","List1B","white","man","","","","","","","","","","","","",""
"8822.699999809265","<img src=""portrait/BM2.jpg""style=""height:400px;""></img>","5","html-button-response","347","4301722","0.0-18.0-1.0","22237","List1B","white","man","","true","5","","","","","","","","","",""
"null","CORRECT","","html-keyboard-response","348","4303250","0.0-18.0-2.0-0.0","22237","List1B","white","man","","","","null","","","","","","","","",""
"5643.599999904633","<img src=""portrait/WW1.jpg""style=""height:400px;""></img>","1","html-button-response","349","4308895","0.0-18.0-4.0","22237","List1B","white","man","","true","1","","","","","","","","","",""
"null","CORRECT","","html-keyboard-response","350","4310403","0.0-18.0-5.0-0.0","22237","List1B","white","man","","","","null","","","","","","","","",""
"4569.200000286102","<img src=""portrait/BM1.jpg""style=""height:400px;""></img>","4","html-button-response","351","4314974","0.0-18.0-7.0","22237","List1B","white","man","","true","4","","","","","","","","","",""
"null","CORRECT","","html-keyboard-response","352","4316489","0.0-18.0-8.0-0.0","22237","List1B","white","man","","","","null","","","","","","","","",""
"4522.099999904633","<img src=""portrait/WM2.jpg""style=""height:400px;""></img>","7","html-button-response","353","4321012","0.0-18.0-10.0","22237","List1B","white","man","","true","7","","","","","","","","","",""
"null","CORRECT","","html-keyboard-response","354","4322541","0.0-18.0-11.0-0.0","22237","List1B","white","man","","","","null","","","","","","","","",""
"5955.10000038147","<img src=""portrait/WM1.jpg""style=""height:400px;""></img>","6","html-button-response","355","4328497","0.0-18.0-13.0","22237","List1B","white","man","","true","6","","","","","","","","","",""
"null","CORRECT","","html-keyboard-response","356","4330010","0.0-18.0-14.0-0.0","22237","List1B","white","man","","","","null","","","","","","","","",""
"5492.799999713898","<img src=""portrait/BW1.jpg""style=""height:400px;""></img>","0","html-button-response","357","4335504","0.0-18.0-16.0","22237","List1B","white","man","","true","0","","","","","","","","","",""
"null","CORRECT","","html-keyboard-response","358","4337022","0.0-18.0-17.0-0.0","22237","List1B","white","man","","","","null","","","","","","","","",""
"5436.599999904633","<img src=""portrait/BW2.jpg""style=""height:400px;""></img>","2","html-button-response","359","4342461","0.0-18.0-19.0","22237","List1B","white","man","","true","2","","","","","","","","","",""
"null","CORRECT","","html-keyboard-response","360","4343981","0.0-18.0-20.0-0.0","22237","List1B","white","man","","","","null","","","","","","","","",""
"3990.0999999046326","<img src=""portrait/WW2.jpg""style=""height:400px;""></img>","3","html-button-response","361","4347973","0.0-18.0-22.0","22237","List1B","white","man","","true","3","","","","","","","","","",""
"null","CORRECT","","html-keyboard-response","362","4349484","0.0-18.0-23.0-0.0","22237","List1B","white","man","","","","null","","","","","","","","",""
"6249.199999809265","<p>You got 8 out of 8 right first time. Press Continue.</p>","0","html-button-response","363","4355735","0.0-18.0-25.0","22237","List1B","white","man","","","","","","","","","","","","",""
"null","<div style=""font-size:60px;"">+</div>","","html-keyboard-response","364","4357254","0.0-19.0-0.0","22237","List1B","white","man","","","","null","","","","","","","","",""
"null","<img src=""stim_listB/shout2.gif""style=""height:400px;""></stim_listB>","","html-keyboard-response","365","4359270","0.0-19.0-1.0","22237","List1B","white","man","","","","null","","","","","","","","",""
"null","is being shouted at by","","html-keyboard-response","366","4361286","0.0-19.0-2.0","22237","List1B","white","man","","","","null","","","","","","","","",""
"24330.299999713898","","","survey-text","367","4385619","0.0-19.0-3.0","22237","List1B","white","man","","","","","{""Q0"":""kate mike""}","<img src=""stim_listB/shout2.gif""style=""height:400px;""></stim_listB>","is being shouted at by","","","","","",""
"null","<div style=""font-size:60px;"">+</div>","","html-keyboard-response","368","4386129","0.0-19.0-0.1","22237","List1B","white","man","","","","null","","","","","","","","",""
"null","<img src=""stim_listB/kiss6.gif""style=""height:400px;""></stim_listB>","","html-keyboard-response","369","4388146","0.0-19.0-1.1","22237","List1B","white","man","","","","null","","","","","","","","",""
"null","is being kissed by","","html-keyboard-response","370","4390147","0.0-19.0-2.1","22237","List1B","white","man","","","","null","","","","","","","","",""
"23295.800000190735","","","survey-text","371","4413445","0.0-19.0-3.1","22237","List1B","white","man","","","","","{""Q0"":""dave mike""}","<img src=""stim_listB/kiss6.gif""style=""height:400px;""></stim_listB>","is being kissed by","","","","","",""
"null","<div style=""font-size:60px;"">+</div>","","html-keyboard-response","372","4413956","0.0-19.0-0.2","22237","List1B","white","man","","","","null","","","","","","","","",""
"null","<img src=""stim_listB/look6.gif""style=""height:400px;""></stim_listB>","","html-keyboard-response","373","4415971","0.0-19.0-1.2","22237","List1B","white","man","","","","null","","","","","","","","",""
"null","is being looked at by","","html-keyboard-response","374","4417972","0.0-19.0-2.2","22237","List1B","white","man","","","","null","","","","","","","","",""
"26137","","","survey-text","375","4444111","0.0-19.0-3.2","22237","List1B","white","man","","","","","{""Q0"":""dave mike""}","<img src=""stim_listB/look6.gif""style=""height:400px;""></stim_listB>","is being looked at by","","","","","",""
"null","<div style=""font-size:60px;"">+</div>","","html-keyboard-response","376","4444616","0.0-19.0-0.3","22237","List1B","white","man","","","","null","","","","","","","","",""
"null","<img src=""stim_listB/touch7.gif""style=""height:400px;""></stim_listB>","","html-keyboard-response","377","4446632","0.0-19.0-1.3","22237","List1B","white","man","","","","null","","","","","","","","",""
"null","is touching","","html-keyboard-response","378","4448634","0.0-19.0-2.3","22237","List1B","white","man","","","","null","","","","","","","","",""
"37860.5","","","survey-text","379","4486496","0.0-19.0-3.3","22237","List1B","white","man","","","","","{""Q0"":""kate jane ""}","<img src=""stim_listB/touch7.gif""style=""height:400px;""></stim_listB>","is touching","","","","","",""
"null","<div style=""font-size:60px;"">+</div>","","html-keyboard-response","380","4487013","0.0-19.0-0.4","22237","List1B","white","man","","","","null","","","","","","","","",""
"null","<img src=""stim_listB/copy8.gif""style=""height:400px;""></stim_listB>","","html-keyboard-response","381","4489014","0.0-19.0-1.4","22237","List1B","white","man","","","","null","","","","","","","","",""
"null","is being copied by","","html-keyboard-response","382","4491028","0.0-19.0-2.4","22237","List1B","white","man","","","","null","","","","","","","","",""
"24013.199999809265","","","survey-text","383","4515043","0.0-19.0-3.4","22237","List1B","white","man","","","","","{""Q0"":""beth jane ""}","<img src=""stim_listB/copy8.gif""style=""height:400px;""></stim_listB>","is being copied by","","","","","",""
"null","<div style=""font-size:60px;"">+</div>","","html-keyboard-response","384","4515555","0.0-19.0-0.5","22237","List1B","white","man","","","","null","","","","","","","","",""
"null","<img src=""stim_listB/copy3.gif""style=""height:400px;""></stim_listB>","","html-keyboard-response","385","4517572","0.0-19.0-1.5","22237","List1B","white","man","","","","null","","","","","","","","",""
"null","is copying","","html-keyboard-response","386","4519573","0.0-19.0-2.5","22237","List1B","white","man","","","","null","","","","","","","","",""
"24216.900000095367","","","survey-text","387","4543792","0.0-19.0-3.5","22237","List1B","white","man","","","","","{""Q0"":""dave ruth""}","<img src=""stim_listB/copy3.gif""style=""height:400px;""></stim_listB>","is copying","","","","","",""
"null","<div style=""font-size:60px;"">+</div>","","html-keyboard-response","388","4544298","0.0-19.0-0.6","22237","List1B","white","man","","","","null","","","","","","","","",""
"null","<img src=""stim_listB/look8.gif""style=""height:400px;""></stim_listB>","","html-keyboard-response","389","4546300","0.0-19.0-1.6","22237","List1B","white","man","","","","null","","","","","","","","",""
"null","is being looked at by","","html-keyboard-response","390","4548316","0.0-19.0-2.6","22237","List1B","white","man","","","","null","","","","","","","","",""
"27583.5","","","survey-text","391","4575901","0.0-19.0-3.6","22237","List1B","white","man","","","","","{""Q0"":""kate jane ""}","<img src=""stim_listB/look8.gif""style=""height:400px;""></stim_listB>","is being looked at by","","","","","",""
"null","<div style=""font-size:60px;"">+</div>","","html-keyboard-response","392","4576408","0.0-19.0-0.7","22237","List1B","white","man","","","","null","","","","","","","","",""
"null","<img src=""stim_listB/touch2.gif""style=""height:400px;""></stim_listB>","","html-keyboard-response","393","4578411","0.0-19.0-1.7","22237","List1B","white","man","","","","null","","","","","","","","",""
"null","is being touched by","","html-keyboard-response","394","4580427","0.0-19.0-2.7","22237","List1B","white","man","","","","null","","","","","","","","",""
"21625","","","survey-text","395","4602054","0.0-19.0-3.7","22237","List1B","white","man","","","","","{""Q0"":""beth fred""}","<img src=""stim_listB/touch2.gif""style=""height:400px;""></stim_listB>","is being touched by","","","","","",""
"null","<div style=""font-size:60px;"">+</div>","","html-keyboard-response","396","4602568","0.0-19.0-0.8","22237","List1B","white","man","","","","null","","","","","","","","",""
"null","<img src=""stim_listB/challenge4.gif""style=""height:400px;""></stim_listB>","","html-keyboard-response","397","4604569","0.0-19.0-1.8","22237","List1B","white","man","","","","null","","","","","","","","",""
"null","is being challenged by","","html-keyboard-response","398","4606584","0.0-19.0-2.8","22237","List1B","white","man","","","","null","","","","","","","","",""
"24135.699999809265","","","survey-text","399","4630722","0.0-19.0-3.8","22237","List1B","white","man","","","","","{""Q0"":""jane luke""}","<img src=""stim_listB/challenge4.gif""style=""height:400px;""></stim_listB>","is being challenged by","","","","","",""
"null","<div style=""font-size:60px;"">+</div>","","html-keyboard-response","400","4631229","0.0-19.0-0.9","22237","List1B","white","man","","","","null","","","","","","","","",""
"null","<img src=""stim_listB/oppose2.gif""style=""height:400px;""></stim_listB>","","html-keyboard-response","401","4633245","0.0-19.0-1.9","22237","List1B","white","man","","","","null","","","","","","","","",""
"null","is being opposed by","","html-keyboard-response","402","4635248","0.0-19.0-2.9","22237","List1B","white","man","","","","null","","","","","","","","",""
"22051.900000095367","","","survey-text","403","4657302","0.0-19.0-3.9","22237","List1B","white","man","","","","","{""Q0"":""fred beth""}","<img src=""stim_listB/oppose2.gif""style=""height:400px;""></stim_listB>","is being opposed by","","","","","",""
"null","<div style=""font-size:60px;"">+</div>","","html-keyboard-response","404","4657805","0.0-19.0-0.10","22237","List1B","white","man","","","","null","","","","","","","","",""
"null","<img src=""stim_listB/challenge7.gif""style=""height:400px;""></stim_listB>","","html-keyboard-response","405","4659819","0.0-19.0-1.10","22237","List1B","white","man","","","","null","","","","","","","","",""
"null","is challenging","","html-keyboard-response","406","4661821","0.0-19.0-2.10","22237","List1B","white","man","","","","null","","","","","","","","",""
"33890.7999997139","","","survey-text","407","4695713","0.0-19.0-3.10","22237","List1B","white","man","","","","","{""Q0"":""ruth kate""}","<img src=""stim_listB/challenge7.gif""style=""height:400px;""></stim_listB>","is challenging","","","","","",""
"null","<div style=""font-size:60px;"">+</div>","","html-keyboard-response","408","4696218","0.0-19.0-0.11","22237","List1B","white","man","","","","null","","","","","","","","",""
"null","<img src=""stim_listB/look7.gif""style=""height:400px;""></stim_listB>","","html-keyboard-response","409","4698232","0.0-19.0-1.11","22237","List1B","white","man","","","","null","","","","","","","","",""
"null","is looking at","","html-keyboard-response","410","4700247","0.0-19.0-2.11","22237","List1B","white","man","","","","null","","","","","","","","",""
"27727.700000286102","","","survey-text","411","4727976","0.0-19.0-3.11","22237","List1B","white","man","","","","","{""Q0"":""beth ruth""}","<img src=""stim_listB/look7.gif""style=""height:400px;""></stim_listB>","is looking at","","","","","",""
"null","<div style=""font-size:60px;"">+</div>","","html-keyboard-response","412","4728478","0.0-19.0-0.12","22237","List1B","white","man","","","","null","","","","","","","","",""
"null","<img src=""stim_listB/kiss5.gif""style=""height:400px;""></stim_listB>","","html-keyboard-response","413","4730493","0.0-19.0-1.12","22237","List1B","white","man","","","","null","","","","","","","","",""
"null","is kissing","","html-keyboard-response","414","4732496","0.0-19.0-2.12","22237","List1B","white","man","","","","null","","","","","","","","",""
"25338","","","survey-text","415","4757836","0.0-19.0-3.12","22237","List1B","white","man","","","","","{""Q0"":""fred luke ""}","<img src=""stim_listB/kiss5.gif""style=""height:400px;""></stim_listB>","is kissing","","","","","",""
"null","<div style=""font-size:60px;"">+</div>","","html-keyboard-response","416","4758343","0.0-19.0-0.13","22237","List1B","white","man","","","","null","","","","","","","","",""
"null","<img src=""stim_listB/touch3.gif""style=""height:400px;""></stim_listB>","","html-keyboard-response","417","4760352","0.0-19.0-1.13","22237","List1B","white","man","","","","null","","","","","","","","",""
"null","is touching","","html-keyboard-response","418","4762355","0.0-19.0-2.13","22237","List1B","white","man","","","","null","","","","","","","","",""
"53392.800000190735","","","survey-text","419","4815750","0.0-19.0-3.13","22237","List1B","white","man","","","","","{""Q0"":""dave jane""}","<img src=""stim_listB/touch3.gif""style=""height:400px;""></stim_listB>","is touching","","","","","",""
"null","<div style=""font-size:60px;"">+</div>","","html-keyboard-response","420","4816256","0.0-19.0-0.14","22237","List1B","white","man","","","","null","","","","","","","","",""
"null","<img src=""stim_listB/shout1.gif""style=""height:400px;""></stim_listB>","","html-keyboard-response","421","4818259","0.0-19.0-1.14","22237","List1B","white","man","","","","null","","","","","","","","",""
"null","is shouting at","","html-keyboard-response","422","4820265","0.0-19.0-2.14","22237","List1B","white","man","","","","null","","","","","","","","",""
"27442.400000095367","","","survey-text","423","4847709","0.0-19.0-3.14","22237","List1B","white","man","","","","","{""Q0"":""beth fred""}","<img src=""stim_listB/shout1.gif""style=""height:400px;""></stim_listB>","is shouting at","","","","","",""
"null","<div style=""font-size:60px;"">+</div>","","html-keyboard-response","424","4848215","0.0-19.0-0.15","22237","List1B","white","man","","","","null","","","","","","","","",""
"null","<img src=""stim_listB/touch5.gif""style=""height:400px;""></stim_listB>","","html-keyboard-response","425","4850218","0.0-19.0-1.15","22237","List1B","white","man","","","","null","","","","","","","","",""
"null","is touching","","html-keyboard-response","426","4852220","0.0-19.0-2.15","22237","List1B","white","man","","","","null","","","","","","","","",""
"28786.200000286102","","","survey-text","427","4881008","0.0-19.0-3.15","22237","List1B","white","man","","","","","{""Q0"":""mike dave""}","<img src=""stim_listB/touch5.gif""style=""height:400px;""></stim_listB>","is touching","","","","","",""
"null","<div style=""font-size:60px;"">+</div>","","html-keyboard-response","428","4881513","0.0-19.0-0.16","22237","List1B","white","man","","","","null","","","","","","","","",""
"null","<img src=""stim_listB/greet8.gif""style=""height:400px;""></stim_listB>","","html-keyboard-response","429","4883528","0.0-19.0-1.16","22237","List1B","white","man","","","","null","","","","","","","","",""
"null","is being greeted by","","html-keyboard-response","430","4885543","0.0-19.0-2.16","22237","List1B","white","man","","","","null","","","","","","","","",""
"49830.5","","","survey-text","431","4935375","0.0-19.0-3.16","22237","List1B","white","man","","","","","{""Q0"":""beth jane""}","<img src=""stim_listB/greet8.gif""style=""height:400px;""></stim_listB>","is being greeted by","","","","","",""
"null","<div style=""font-size:60px;"">+</div>","","html-keyboard-response","432","4935882","0.0-19.0-0.17","22237","List1B","white","man","","","","null","","","","","","","","",""
"null","<img src=""stim_listB/copy7.gif""style=""height:400px;""></stim_listB>","","html-keyboard-response","433","4937897","0.0-19.0-1.17","22237","List1B","white","man","","","","null","","","","","","","","",""
"null","is copying","","html-keyboard-response","434","4939910","0.0-19.0-2.17","22237","List1B","white","man","","","","null","","","","","","","","",""
"29577.299999713898","","","survey-text","435","4969490","0.0-19.0-3.17","22237","List1B","white","man","","","","","{""Q0"":""kate ruth""}","<img src=""stim_listB/copy7.gif""style=""height:400px;""></stim_listB>","is copying","","","","","",""
"null","<div style=""font-size:60px;"">+</div>","","html-keyboard-response","436","4969992","0.0-19.0-0.18","22237","List1B","white","man","","","","null","","","","","","","","",""
"null","<img src=""stim_listB/look3.gif""style=""height:400px;""></stim_listB>","","html-keyboard-response","437","4972009","0.0-19.0-1.18","22237","List1B","white","man","","","","null","","","","","","","","",""
"null","is looking at","","html-keyboard-response","438","4974010","0.0-19.0-2.18","22237","List1B","white","man","","","","null","","","","","","","","",""
"26284.599999904633","","","survey-text","439","5000297","0.0-19.0-3.18","22237","List1B","white","man","","","","","{""Q0"":""ruth luke ""}","<img src=""stim_listB/look3.gif""style=""height:400px;""></stim_listB>","is looking at","","","","","",""
"null","<div style=""font-size:60px;"">+</div>","","html-keyboard-response","440","5000803","0.0-19.0-0.19","22237","List1B","white","man","","","","null","","","","","","","","",""
"null","<img src=""stim_listB/copy6.gif""style=""height:400px;""></stim_listB>","","html-keyboard-response","441","5002818","0.0-19.0-1.19","22237","List1B","white","man","","","","null","","","","","","","","",""
"null","is being copied by","","html-keyboard-response","442","5004830","0.0-19.0-2.19","22237","List1B","white","man","","","","null","","","","","","","","",""
"24467.299999713898","","","survey-text","443","5029299","0.0-19.0-3.19","22237","List1B","white","man","","","","","{""Q0"":""fred dave""}","<img src=""stim_listB/copy6.gif""style=""height:400px;""></stim_listB>","is being copied by","","","","","",""
"7540.599999904633","<p>Thank you for completing that task.</p><p>The final part of this session is a questionnaire that will take about 4 minutes.</p><p>Press Continue.</p>","0","html-button-response","444","5036842","0.0-20.0","22237","List1B","white","man","","","","","","","","","","","","",""
"67281.09999990463","","","survey-text","445","5105131","0.0-21.0","22237","List1B","white","man","","","","","{""Q0"":""60"",""Q1"":""English"",""Q2"":""English"",""Q3"":""USA"",""Q4"":""polsih, german"",""Q5"":""White"",""Q6"":""male""}","","","demographics","","","","",""
"3078.199999809265","<p>Have you lived in the USA for the last 5 years or more?</p>","0","html-button-response","446","5108213","0.0-22.0","22237","List1B","white","man","","","","","","","","fiveyears","","","","",""
"5851.300000190735","<p>Move the slider to show the extent to which you agree with the following statements.</p>","0","html-button-response","447","5115074","0.0-23.0","22237","List1B","white","man","","","","","","","","","","","","",""
"13894.5","","","html-slider-response","448","5129972","0.0-24.0-0.0-0.0","22237","List1B","white","man","","","","","","","","survey_gender","100","","","It is pleasant to be my gender.","pleasant"
"8976.699999809265","","","html-slider-response","449","5138951","0.0-24.0-0.0-0.1","22237","List1B","white","man","","","","","","","","survey_gender","36","","","It is not always easy for people to know what I am thinking.","filler"
"7336.700000286102","","","html-slider-response","450","5146290","0.0-24.0-0.0-0.2","22237","List1B","white","man","","","","","","","","survey_gender","97","","","I often think about my actions.","filler"
"6568.200000286102","","","html-slider-response","451","5152861","0.0-24.0-0.0-0.3","22237","List1B","white","man","","","","","","","","survey_gender","100","","","Family is not more important to me than friendship.","filler"
"6970.400000095367","","","html-slider-response","452","5159833","0.0-24.0-0.0-0.4","22237","List1B","white","man","","","","","","","","survey_gender","100","","","I am glad to be my gender.","glad"
"5639.900000095367","","","html-slider-response","453","5165475","0.0-24.0-0.0-0.5","22237","List1B","white","man","","","","","","","","survey_gender","100","","","I feel solidarity with my gender.","solidarity"
"6607.900000095367","","","html-slider-response","454","5172085","0.0-24.0-0.0-0.6","22237","List1B","white","man","","","","","","","","survey_gender","2","","","Routine is not important to me.","filler"
"9227.200000286102","","","html-slider-response","455","5181314","0.0-24.0-0.0-0.7","22237","List1B","white","man","","","","","","","","survey_gender","96","","","My friends have a lot in common with each other.","filler"
"5139.699999809265","","","html-slider-response","456","5186456","0.0-24.0-0.0-0.8","22237","List1B","white","man","","","","","","","","survey_gender","99","","","I feel a bond with my friends.","filler"
"8059","","","html-slider-response","457","5194517","0.0-24.0-0.0-0.9","22237","List1B","white","man","","","","","","","","survey_gender","100","","","I have a lot in common with my friends.","filler"
"5809.199999809265","","","html-slider-response","458","5200328","0.0-24.0-0.0-0.10","22237","List1B","white","man","","","","","","","","survey_gender","89","","","I feel a bond with my gender.","bond"
"6339.200000286102","","","html-slider-response","459","5206670","0.0-24.0-0.0-0.11","22237","List1B","white","man","","","","","","","","survey_gender","100","","","Being my gender is an important part of how I see myself.","important"
"5618.599999904633","","","html-slider-response","460","5212291","0.0-24.0-0.0-0.12","22237","List1B","white","man","","","","","","","","survey_gender","100","","","I have a lot in common with the average person of my gender.","average"
"5611.700000286102","","","html-slider-response","461","5217905","0.0-24.0-0.0-0.13","22237","List1B","white","man","","","","","","","","survey_gender","100","","","Being my gender gives me a good feeling.","feeling"
"4442.5","","","html-slider-response","462","5222349","0.0-24.0-0.0-0.14","22237","List1B","white","man","","","","","","","","survey_gender","100","","","My friends understand me.","filler"
"6948.099999904633","","","html-slider-response","463","5229299","0.0-24.0-0.0-0.15","22237","List1B","white","man","","","","","","","","survey_gender","93","","","People of my gender have a lot in common with each other.","common"
"12116.599999904633","","","html-slider-response","464","5241419","0.0-24.0-0.0-0.16","22237","List1B","white","man","","","","","","","","survey_gender","40","","","I feel committed to my gender.","committed"
"6669.700000286102","","","html-slider-response","465","5248091","0.0-24.0-0.0-0.17","22237","List1B","white","man","","","","","","","","survey_gender","100","","","Most of the friends in my life are very similar to me.","filler"
"5869.299999713898","","","html-slider-response","466","5253962","0.0-24.0-0.0-0.18","22237","List1B","white","man","","","","","","","","survey_gender","2","","","I would say I am an animal person.","filler"
"5609.599999904633","","","html-slider-response","467","5259574","0.0-24.0-0.0-0.19","22237","List1B","white","man","","","","","","","","survey_gender","100","","","I think that my gender has a lot to be proud of.","proud"
"4172.400000095367","","","html-slider-response","468","5263749","0.0-24.0-0.0-0.20","22237","List1B","white","man","","","","","","","","survey_gender","100","","","Being around my friends gives me a good feeling.","filler"
"4890.400000095367","","","html-slider-response","469","5268641","0.0-24.0-0.0-0.21","22237","List1B","white","man","","","","","","","","survey_gender","100","","","I consider myself a highly empathetic person.","filler"
"6589.699999809265","","","html-slider-response","470","5275234","0.0-24.0-0.0-0.22","22237","List1B","white","man","","","","","","","","survey_gender","86","","","People of my gender are very similar to each other.","verysimilar"
"5598.5","","","html-slider-response","471","5280834","0.0-24.0-0.0-0.23","22237","List1B","white","man","","","","","","","","survey_gender","98","","","I feel solidarity with my friends.","filler"
"3943.3999996185303","","","html-slider-response","472","5284780","0.0-24.0-0.0-0.24","22237","List1B","white","man","","","","","","","","survey_gender","99","","","I am glad to have the friends that I have.","filler"
"5160","","","html-slider-response","473","5289942","0.0-24.0-0.0-0.25","22237","List1B","white","man","","","","","","","","survey_gender","48","","","I am similar to the average person of my gender.","similar"
"8815.900000095367","","","html-slider-response","474","5298760","0.0-24.0-0.0-0.26","22237","List1B","white","man","","","","","","","","survey_gender","100","","","The fact that I am my gender is an important part of my identity.","identity"
"10172.200000286102","","","html-slider-response","475","5308935","0.0-24.0-0.0-0.27","22237","List1B","white","man","","","","","","","","survey_gender","57","","","I often think about the fact that I am my gender.","often"
"11601.699999809265","","","html-slider-response","476","5320539","0.0-24.0-1.0-0.0","22237","List1B","white","man","","","","","","","","survey_race","50","","","Being my race is an important part of how I see myself.","important"
"10899.800000190735","","","html-slider-response","477","5331441","0.0-24.0-1.0-0.1","22237","List1B","white","man","","","","","","","","survey_race","52","","","I feel a bond with people the same age as me.","filler"
"4952.10000038147","","","html-slider-response","478","5336396","0.0-24.0-1.0-0.2","22237","List1B","white","man","","","","","","","","survey_race","27","","","I feel solidarity with my race.","solidarity"
"5210.199999809265","","","html-slider-response","479","5341609","0.0-24.0-1.0-0.3","22237","List1B","white","man","","","","","","","","survey_race","56","","","I am similar to the average person of my race.","similar"
"7397.299999713898","","","html-slider-response","480","5349008","0.0-24.0-1.0-0.4","22237","List1B","white","man","","","","","","","","survey_race","69","","","I often think about the fact that I am my race.","often"
"7728.199999809265","","","html-slider-response","481","5356738","0.0-24.0-1.0-0.5","22237","List1B","white","man","","","","","","","","survey_race","27","","","People of my race are very similar to each other.","verysimilar"
