rt,stimulus,button_pressed,trial_type,trial_index,time_elapsed,internal_node_id,subject,list,ppt_race,ppt_gender,url,first_guess,correct,key_press,responses,image_type,phrase_type,test_part,response,stimulus1,stimulus2,question_type,survey_item
2156.6,Welcome to the experiment. Press Continue to begin.,0,html-button-response,0,2162,0.0-0.0,22524,List2B,white,woman,,,,,,,,,,,,,
47495.1,,,external-html,1,50786,0.0-1.0,22524,List2B,white,woman,consent.html,,,,,,,,,,,,
16511,"<p>On the next page, you will see portraits of 8 people and their names.</p><p>Your first task is to take a few minutes to memorise the names of these people.</p><p>You will have to recall their names during the rest of the experiment, so it is</p><p>essential that you try to memorise these people and their names as best as you can.</p><br><p><strong>You will then be tested on your memory of these names and portraits.</strong></p><br><p>The experiment will start after you have completed this memory test.</p><br><p>Ready?</p>",0,html-button-response,2,67298,0.0-2.0,22524,List2B,white,woman,,,,,,,,,,,,,
157793.7,"<img src='img/portrait_matrix_list2.jpg' style='width:900px;height:500px;''></img><p>If you have memorised all the portraits and names and are ready to start, press Continue.</p><p><strong>Please note: Your memory of these faces will be tested 4 times during this experiment.</strong></p>",0,html-button-response,3,226094,0.0-3.0-0.0,22524,List2B,white,woman,,,,,,,,,,,,,
3064.1,"<img src=""portrait/WM2.jpg""style=""height:400px;""></img>",7,html-button-response,4,230160,0.0-3.0-1.0,22524,List2B,white,woman,,TRUE,7,,,,,,,,,,
null,CORRECT,,html-keyboard-response,5,231677,0.0-3.0-2.0-0.0,22524,List2B,white,woman,,,,null,,,,,,,,,
7335.4,"<img src=""portrait/BW1.jpg""style=""height:400px;""></img>",0,html-button-response,6,239014,0.0-3.0-4.0,22524,List2B,white,woman,,TRUE,0,,,,,,,,,,
null,CORRECT,,html-keyboard-response,7,240530,0.0-3.0-5.0-0.0,22524,List2B,white,woman,,,,null,,,,,,,,,
2672.4,"<img src=""portrait/WW1.jpg""style=""height:400px;""></img>",1,html-button-response,8,243205,0.0-3.0-7.0,22524,List2B,white,woman,,TRUE,1,,,,,,,,,,
null,CORRECT,,html-keyboard-response,9,244723,0.0-3.0-8.0-0.0,22524,List2B,white,woman,,,,null,,,,,,,,,
3247.4,"<img src=""portrait/WM1.jpg""style=""height:400px;""></img>",6,html-button-response,10,247972,0.0-3.0-10.0,22524,List2B,white,woman,,TRUE,6,,,,,,,,,,
null,CORRECT,,html-keyboard-response,11,249490,0.0-3.0-11.0-0.0,22524,List2B,white,woman,,,,null,,,,,,,,,
2053.4,"<img src=""portrait/BM1.jpg""style=""height:400px;""></img>",4,html-button-response,12,251545,0.0-3.0-13.0,22524,List2B,white,woman,,TRUE,4,,,,,,,,,,
null,CORRECT,,html-keyboard-response,13,253062,0.0-3.0-14.0-0.0,22524,List2B,white,woman,,,,null,,,,,,,,,
1779.9,"<img src=""portrait/WW2.jpg""style=""height:400px;""></img>",3,html-button-response,14,254844,0.0-3.0-16.0,22524,List2B,white,woman,,TRUE,3,,,,,,,,,,
null,CORRECT,,html-keyboard-response,15,256354,0.0-3.0-17.0-0.0,22524,List2B,white,woman,,,,null,,,,,,,,,
2238.5,"<img src=""portrait/BM2.jpg""style=""height:400px;""></img>",5,html-button-response,16,258594,0.0-3.0-19.0,22524,List2B,white,woman,,TRUE,5,,,,,,,,,,
null,CORRECT,,html-keyboard-response,17,260098,0.0-3.0-20.0-0.0,22524,List2B,white,woman,,,,null,,,,,,,,,
2112.5,"<img src=""portrait/BW2.jpg""style=""height:400px;""></img>",2,html-button-response,18,262212,0.0-3.0-22.0,22524,List2B,white,woman,,TRUE,2,,,,,,,,,,
null,CORRECT,,html-keyboard-response,19,263715,0.0-3.0-23.0-0.0,22524,List2B,white,woman,,,,null,,,,,,,,,
1598.9,<p>You got 8 out of 8 right first time. Press Continue.</p>,0,html-button-response,20,265316,0.0-3.0-25.0,22524,List2B,white,woman,,,,,,,,,,,,,
53360,"<p>In this experiment, you will view photographs of the people from the memory game interacting.</p><p>By using the <strong>exact</strong> phrase given <i>after</i> the photograph appears and recalling the correct names of the people in the photographs, form a sentence describing the interaction. You do not need to capitalise names.</p><p>Type your answer in the space provided. Please complete every sentence before moving onto the next trial.</p><p>You will only have a few seconds to memorise each given photograph and phrase before you can respond, so try your best to focus.</p><p>An example is given below. Press 'Continue' when you are ready.</p><img src='img/speaking_example.jpg' style='width:800px;height:460px;''></img>",0,html-button-response,21,319693,0.0-4.0,22524,List2B,white,woman,,,,,,,,,,,,,
3494.2,"<p>Before the experiment starts, you will watch two example trials. Press 'Continue'.</p>",0,html-button-response,22,324189,0.0-5.0,22524,List2B,white,woman,,,,,,,,,,,,,
null,<img src='img/play_eg.gif' style='height:400px;''></img>,,html-keyboard-response,23,327197,0.0-6.0,22524,List2B,white,woman,,,,null,,,,,,,,,
null,<p>is playing with</p>,,html-keyboard-response,24,329211,0.0-7.0,22524,List2B,white,woman,,,,null,,,,,,,,,
3409.7,<p><b>Answer:</b> jane is playing with ruth</p>,0,html-button-response,25,332621,0.0-8.0,22524,List2B,white,woman,,,,,,,,,,,,,
null,<img src='img/dance_eg.gif' style='height:400px;''></img>,,html-keyboard-response,26,335624,0.0-9.0,22524,List2B,white,woman,,,,null,,,,,,,,,
null,<p>is being entertained by</p>,,html-keyboard-response,27,337638,0.0-10.0,22524,List2B,white,woman,,,,null,,,,,,,,,
9828,<p><b>Answer:</b> fred is being entertained by mike</p>,0,html-button-response,28,347467,0.0-11.0,22524,List2B,white,woman,,,,,,,,,,,,,
12200.8,"<p>Ready to start the experiment?</p><br><p><strong>Remember to describe the picture using a full sentence,</strong></p><p><strong>that combines the names of the people with the <i>exact</i> phrase given.</strong></p><p><strong>To receive full payment you must do this correctly.</strong></p><p><strong> You do not need to capitalise names or use punctuation.</strong></p><br><p>Press 'Continue' to begin.</p>",0,html-button-response,29,360674,0.0-12.0,22524,List2B,white,woman,,,,,,,,,,,,,
null,"<div style=""font-size:60px;"">+</div>",,html-keyboard-response,30,362191,0.0-13.0-0.0,22524,List2B,white,woman,,,,null,,,,,,,,,
null,"<img src=""stim_listB/kiss4.gif""style=""height:400px;""></stim_listB>",,html-keyboard-response,31,364200,0.0-13.0-1.0,22524,List2B,white,woman,,,,null,,,,,,,,,
null,is being kissed by,,html-keyboard-response,32,366213,0.0-13.0-2.0,22524,List2B,white,woman,,,,null,,,,,,,,,
14968.6,,,survey-text,33,381187,0.0-13.0-3.0,22524,List2B,white,woman,,,,,"{""Q0"":""Beth is being kissed by Mike""}","<img src=""stim_listB/kiss4.gif""style=""height:400px;""></stim_listB>",is being kissed by,,,,,,
null,"<div style=""font-size:60px;"">+</div>",,html-keyboard-response,34,381689,0.0-13.0-0.1,22524,List2B,white,woman,,,,null,,,,,,,,,
null,"<img src=""stim_listB/look2.gif""style=""height:400px;""></stim_listB>",,html-keyboard-response,35,383692,0.0-13.0-1.1,22524,List2B,white,woman,,,,null,,,,,,,,,
null,is being looked at by,,html-keyboard-response,36,385696,0.0-13.0-2.1,22524,List2B,white,woman,,,,null,,,,,,,,,
12293,,,survey-text,37,397993,0.0-13.0-3.1,22524,List2B,white,woman,,,,,"{""Q0"":""Jane is being looked by Dave""}","<img src=""stim_listB/look2.gif""style=""height:400px;""></stim_listB>",is being looked at by,,,,,,
null,"<div style=""font-size:60px;"">+</div>",,html-keyboard-response,38,398496,0.0-13.0-0.2,22524,List2B,white,woman,,,,null,,,,,,,,,
null,"<img src=""stim_listB/hug6.gif""style=""height:400px;""></stim_listB>",,html-keyboard-response,39,400507,0.0-13.0-1.2,22524,List2B,white,woman,,,,null,,,,,,,,,
null,is being hugged by,,html-keyboard-response,40,402513,0.0-13.0-2.2,22524,List2B,white,woman,,,,null,,,,,,,,,
11481,,,survey-text,41,413997,0.0-13.0-3.2,22524,List2B,white,woman,,,,,"{""Q0"":""Dave is being hugged by Mike""}","<img src=""stim_listB/hug6.gif""style=""height:400px;""></stim_listB>",is being hugged by,,,,,,
null,"<div style=""font-size:60px;"">+</div>",,html-keyboard-response,42,414499,0.0-13.0-0.3,22524,List2B,white,woman,,,,null,,,,,,,,,
null,"<img src=""stim_listB/challenge1.gif""style=""height:400px;""></stim_listB>",,html-keyboard-response,43,416503,0.0-13.0-1.3,22524,List2B,white,woman,,,,null,,,,,,,,,
null,is challenging,,html-keyboard-response,44,418508,0.0-13.0-2.3,22524,List2B,white,woman,,,,null,,,,,,,,,
27255.9,,,survey-text,45,445768,0.0-13.0-3.3,22524,List2B,white,woman,,,,,"{""Q0"":""Dave is challenging Ruth""}","<img src=""stim_listB/challenge1.gif""style=""height:400px;""></stim_listB>",is challenging,,,,,,
null,"<div style=""font-size:60px;"">+</div>",,html-keyboard-response,46,446282,0.0-13.0-0.4,22524,List2B,white,woman,,,,null,,,,,,,,,
null,"<img src=""stim_listB/shout5.gif""style=""height:400px;""></stim_listB>",,html-keyboard-response,47,448300,0.0-13.0-1.4,22524,List2B,white,woman,,,,null,,,,,,,,,
null,is shouting at,,html-keyboard-response,48,450302,0.0-13.0-2.4,22524,List2B,white,woman,,,,null,,,,,,,,,
137011.2,,,survey-text,49,587314,0.0-13.0-3.4,22524,List2B,white,woman,,,,,"{""Q0"":""Luke is shouting at Fred""}","<img src=""stim_listB/shout5.gif""style=""height:400px;""></stim_listB>",is shouting at,,,,,,
null,"<div style=""font-size:60px;"">+</div>",,html-keyboard-response,50,587818,0.0-13.0-0.5,22524,List2B,white,woman,,,,null,,,,,,,,,
null,"<img src=""stim_listB/oppose5.gif""style=""height:400px;""></stim_listB>",,html-keyboard-response,51,589834,0.0-13.0-1.5,22524,List2B,white,woman,,,,null,,,,,,,,,
null,is opposing,,html-keyboard-response,52,591836,0.0-13.0-2.5,22524,List2B,white,woman,,,,null,,,,,,,,,
18531.6,,,survey-text,53,610370,0.0-13.0-3.5,22524,List2B,white,woman,,,,,"{""Q0"":""Dave is opposing Mike""}","<img src=""stim_listB/oppose5.gif""style=""height:400px;""></stim_listB>",is opposing,,,,,,
null,"<div style=""font-size:60px;"">+</div>",,html-keyboard-response,54,610884,0.0-13.0-0.6,22524,List2B,white,woman,,,,null,,,,,,,,,
null,"<img src=""stim_listB/challenge5.gif""style=""height:400px;""></stim_listB>",,html-keyboard-response,55,612900,0.0-13.0-1.6,22524,List2B,white,woman,,,,null,,,,,,,,,
null,is challenging,,html-keyboard-response,56,614902,0.0-13.0-2.6,22524,List2B,white,woman,,,,null,,,,,,,,,
13490,,,survey-text,57,628396,0.0-13.0-3.6,22524,List2B,white,woman,,,,,"{""Q0"":""Dave is challenging Fred""}","<img src=""stim_listB/challenge5.gif""style=""height:400px;""></stim_listB>",is challenging,,,,,,
null,"<div style=""font-size:60px;"">+</div>",,html-keyboard-response,58,628908,0.0-13.0-0.7,22524,List2B,white,woman,,,,null,,,,,,,,,
null,"<img src=""stim_listB/look8.gif""style=""height:400px;""></stim_listB>",,html-keyboard-response,59,630913,0.0-13.0-1.7,22524,List2B,white,woman,,,,null,,,,,,,,,
null,is being looked at by,,html-keyboard-response,60,632916,0.0-13.0-2.7,22524,List2B,white,woman,,,,null,,,,,,,,,
14170.4,,,survey-text,61,647090,0.0-13.0-3.7,22524,List2B,white,woman,,,,,"{""Q0"":""Kate is being looked at by Jane""}","<img src=""stim_listB/look8.gif""style=""height:400px;""></stim_listB>",is being looked at by,,,,,,
null,"<div style=""font-size:60px;"">+</div>",,html-keyboard-response,62,647591,0.0-13.0-0.8,22524,List2B,white,woman,,,,null,,,,,,,,,
null,"<img src=""stim_listB/touch7.gif""style=""height:400px;""></stim_listB>",,html-keyboard-response,63,649605,0.0-13.0-1.8,22524,List2B,white,woman,,,,null,,,,,,,,,
null,is touching,,html-keyboard-response,64,651607,0.0-13.0-2.8,22524,List2B,white,woman,,,,null,,,,,,,,,
8963.2,,,survey-text,65,660574,0.0-13.0-3.8,22524,List2B,white,woman,,,,,"{""Q0"":""Jane is touching Kate""}","<img src=""stim_listB/touch7.gif""style=""height:400px;""></stim_listB>",is touching,,,,,,
null,"<div style=""font-size:60px;"">+</div>",,html-keyboard-response,66,661076,0.0-13.0-0.9,22524,List2B,white,woman,,,,null,,,,,,,,,
null,"<img src=""stim_listB/touch5.gif""style=""height:400px;""></stim_listB>",,html-keyboard-response,67,663083,0.0-13.0-1.9,22524,List2B,white,woman,,,,null,,,,,,,,,
null,is touching,,html-keyboard-response,68,665102,0.0-13.0-2.9,22524,List2B,white,woman,,,,null,,,,,,,,,
7416.7,,,survey-text,69,672521,0.0-13.0-3.9,22524,List2B,white,woman,,,,,"{""Q0"":""Dave is touching Mike""}","<img src=""stim_listB/touch5.gif""style=""height:400px;""></stim_listB>",is touching,,,,,,
null,"<div style=""font-size:60px;"">+</div>",,html-keyboard-response,70,673032,0.0-13.0-0.10,22524,List2B,white,woman,,,,null,,,,,,,,,
null,"<img src=""stim_listB/kiss2.gif""style=""height:400px;""></stim_listB>",,html-keyboard-response,71,675041,0.0-13.0-1.10,22524,List2B,white,woman,,,,null,,,,,,,,,
null,is being kissed by,,html-keyboard-response,72,677049,0.0-13.0-2.10,22524,List2B,white,woman,,,,null,,,,,,,,,
7753,,,survey-text,73,684804,0.0-13.0-3.10,22524,List2B,white,woman,,,,,"{""Q0"":""Dave is being kissed by Jane""}","<img src=""stim_listB/kiss2.gif""style=""height:400px;""></stim_listB>",is being kissed by,,,,,,
null,"<div style=""font-size:60px;"">+</div>",,html-keyboard-response,74,685318,0.0-13.0-0.11,22524,List2B,white,woman,,,,null,,,,,,,,,
null,"<img src=""stim_listB/greet4.gif""style=""height:400px;""></stim_listB>",,html-keyboard-response,75,687323,0.0-13.0-1.11,22524,List2B,white,woman,,,,null,,,,,,,,,
null,is being greeted by,,html-keyboard-response,76,689326,0.0-13.0-2.11,22524,List2B,white,woman,,,,null,,,,,,,,,
13801.1,,,survey-text,77,703129,0.0-13.0-3.11,22524,List2B,white,woman,,,,,"{""Q0"":""Fred is being greeted by Kate""}","<img src=""stim_listB/greet4.gif""style=""height:400px;""></stim_listB>",is being greeted by,,,,,,
null,"<div style=""font-size:60px;"">+</div>",,html-keyboard-response,78,703634,0.0-13.0-0.12,22524,List2B,white,woman,,,,null,,,,,,,,,
null,"<img src=""stim_listB/look7.gif""style=""height:400px;""></stim_listB>",,html-keyboard-response,79,705650,0.0-13.0-1.12,22524,List2B,white,woman,,,,null,,,,,,,,,
null,is looking at,,html-keyboard-response,80,707652,0.0-13.0-2.12,22524,List2B,white,woman,,,,null,,,,,,,,,
21929,,,survey-text,81,729584,0.0-13.0-3.12,22524,List2B,white,woman,,,,,"{""Q0"":""Ruth is being looked at by Beth""}","<img src=""stim_listB/look7.gif""style=""height:400px;""></stim_listB>",is looking at,,,,,,
null,"<div style=""font-size:60px;"">+</div>",,html-keyboard-response,82,730098,0.0-13.0-0.13,22524,List2B,white,woman,,,,null,,,,,,,,,
null,"<img src=""stim_listB/kiss5.gif""style=""height:400px;""></stim_listB>",,html-keyboard-response,83,732108,0.0-13.0-1.13,22524,List2B,white,woman,,,,null,,,,,,,,,
null,is kissing,,html-keyboard-response,84,734110,0.0-13.0-2.13,22524,List2B,white,woman,,,,null,,,,,,,,,
7171.5,,,survey-text,85,741285,0.0-13.0-3.13,22524,List2B,white,woman,,,,,"{""Q0"":""Luke is kissing Fred""}","<img src=""stim_listB/kiss5.gif""style=""height:400px;""></stim_listB>",is kissing,,,,,,
null,"<div style=""font-size:60px;"">+</div>",,html-keyboard-response,86,741794,0.0-13.0-0.14,22524,List2B,white,woman,,,,null,,,,,,,,,
null,"<img src=""stim_listB/look1.gif""style=""height:400px;""></stim_listB>",,html-keyboard-response,87,743798,0.0-13.0-1.14,22524,List2B,white,woman,,,,null,,,,,,,,,
null,is looking at,,html-keyboard-response,88,745800,0.0-13.0-2.14,22524,List2B,white,woman,,,,null,,,,,,,,,
6520.5,,,survey-text,89,752324,0.0-13.0-3.14,22524,List2B,white,woman,,,,,"{""Q0"":""Luke is looking at Ruth""}","<img src=""stim_listB/look1.gif""style=""height:400px;""></stim_listB>",is looking at,,,,,,
null,"<div style=""font-size:60px;"">+</div>",,html-keyboard-response,90,752838,0.0-13.0-0.15,22524,List2B,white,woman,,,,null,,,,,,,,,
null,"<img src=""stim_listB/shout4.gif""style=""height:400px;""></stim_listB>",,html-keyboard-response,91,754842,0.0-13.0-1.15,22524,List2B,white,woman,,,,null,,,,,,,,,
null,is being shouted at by,,html-keyboard-response,92,756847,0.0-13.0-2.15,22524,List2B,white,woman,,,,null,,,,,,,,,
10835.3,,,survey-text,93,767691,0.0-13.0-3.15,22524,List2B,white,woman,,,,,"{""Q0"":""Mike is being shouted at by Kate""}","<img src=""stim_listB/shout4.gif""style=""height:400px;""></stim_listB>",is being shouted at by,,,,,,
null,"<div style=""font-size:60px;"">+</div>",,html-keyboard-response,94,768203,0.0-13.0-0.16,22524,List2B,white,woman,,,,null,,,,,,,,,
null,"<img src=""stim_listB/oppose4.gif""style=""height:400px;""></stim_listB>",,html-keyboard-response,95,770209,0.0-13.0-1.16,22524,List2B,white,woman,,,,null,,,,,,,,,
null,is being opposed by,,html-keyboard-response,96,772211,0.0-13.0-2.16,22524,List2B,white,woman,,,,null,,,,,,,,,
12814.2,,,survey-text,97,785030,0.0-13.0-3.16,22524,List2B,white,woman,,,,,"{""Q0"":""Fred is being opposed by Beth""}","<img src=""stim_listB/oppose4.gif""style=""height:400px;""></stim_listB>",is being opposed by,,,,,,
null,"<div style=""font-size:60px;"">+</div>",,html-keyboard-response,98,785543,0.0-13.0-0.17,22524,List2B,white,woman,,,,null,,,,,,,,,
null,"<img src=""stim_listB/touch3.gif""style=""height:400px;""></stim_listB>",,html-keyboard-response,99,787551,0.0-13.0-1.17,22524,List2B,white,woman,,,,null,,,,,,,,,
null,is touching,,html-keyboard-response,100,789558,0.0-13.0-2.17,22524,List2B,white,woman,,,,null,,,,,,,,,
5772.8,,,survey-text,101,795335,0.0-13.0-3.17,22524,List2B,white,woman,,,,,"{""Q0"":""Kate is touching Mike""}","<img src=""stim_listB/touch3.gif""style=""height:400px;""></stim_listB>",is touching,,,,,,
null,"<div style=""font-size:60px;"">+</div>",,html-keyboard-response,102,795837,0.0-13.0-0.18,22524,List2B,white,woman,,,,null,,,,,,,,,
null,"<img src=""stim_listB/shout1.gif""style=""height:400px;""></stim_listB>",,html-keyboard-response,103,797844,0.0-13.0-1.18,22524,List2B,white,woman,,,,null,,,,,,,,,
null,is shouting at,,html-keyboard-response,104,799846,0.0-13.0-2.18,22524,List2B,white,woman,,,,null,,,,,,,,,
14821.3,,,survey-text,105,814671,0.0-13.0-3.18,22524,List2B,white,woman,,,,,"{""Q0"":""Luke is shouting at Ruth""}","<img src=""stim_listB/shout1.gif""style=""height:400px;""></stim_listB>",is shouting at,,,,,,
null,"<div style=""font-size:60px;"">+</div>",,html-keyboard-response,106,815185,0.0-13.0-0.19,22524,List2B,white,woman,,,,null,,,,,,,,,
null,"<img src=""stim_listB/copy7.gif""style=""height:400px;""></stim_listB>",,html-keyboard-response,107,817201,0.0-13.0-1.19,22524,List2B,white,woman,,,,null,,,,,,,,,
null,is copying,,html-keyboard-response,108,819210,0.0-13.0-2.19,22524,List2B,white,woman,,,,null,,,,,,,,,
7971.3,,,survey-text,109,827185,0.0-13.0-3.19,22524,List2B,white,woman,,,,,"{""Q0"":""Jane is copying Beth""}","<img src=""stim_listB/copy7.gif""style=""height:400px;""></stim_listB>",is copying,,,,,,
23457.5,"<img src='img/portrait_matrix_list2.jpg' style='width:900px;height:500px;''></img><p>If you have memorised all the portraits and names and are ready to start, press Continue.</p><p><strong>Please note: Your memory of these faces will be tested 4 times during this experiment.</strong></p>",0,html-button-response,110,850644,0.0-14.0-0.0,22524,List2B,white,woman,,,,,,,,,,,,,
1598.6,"<img src=""portrait/WW2.jpg""style=""height:400px;""></img>",3,html-button-response,111,853245,0.0-14.0-1.0,22524,List2B,white,woman,,TRUE,3,,,,,,,,,,
null,CORRECT,,html-keyboard-response,112,854752,0.0-14.0-2.0-0.0,22524,List2B,white,woman,,,,null,,,,,,,,,
4717.2,"<img src=""portrait/BW1.jpg""style=""height:400px;""></img>",0,html-button-response,113,859471,0.0-14.0-4.0,22524,List2B,white,woman,,TRUE,0,,,,,,,,,,
null,CORRECT,,html-keyboard-response,114,860984,0.0-14.0-5.0-0.0,22524,List2B,white,woman,,,,null,,,,,,,,,
1954.5,"<img src=""portrait/BM1.jpg""style=""height:400px;""></img>",4,html-button-response,115,862941,0.0-14.0-7.0,22524,List2B,white,woman,,TRUE,4,,,,,,,,,,
null,CORRECT,,html-keyboard-response,116,864465,0.0-14.0-8.0-0.0,22524,List2B,white,woman,,,,null,,,,,,,,,
1944,"<img src=""portrait/WM2.jpg""style=""height:400px;""></img>",7,html-button-response,117,866411,0.0-14.0-10.0,22524,List2B,white,woman,,TRUE,7,,,,,,,,,,
null,CORRECT,,html-keyboard-response,118,867926,0.0-14.0-11.0-0.0,22524,List2B,white,woman,,,,null,,,,,,,,,
3033,"<img src=""portrait/BM2.jpg""style=""height:400px;""></img>",5,html-button-response,119,870961,0.0-14.0-13.0,22524,List2B,white,woman,,TRUE,5,,,,,,,,,,
null,CORRECT,,html-keyboard-response,120,872474,0.0-14.0-14.0-0.0,22524,List2B,white,woman,,,,null,,,,,,,,,
4911,"<img src=""portrait/WW1.jpg""style=""height:400px;""></img>",1,html-button-response,121,877387,0.0-14.0-16.0,22524,List2B,white,woman,,TRUE,1,,,,,,,,,,
null,CORRECT,,html-keyboard-response,122,878897,0.0-14.0-17.0-0.0,22524,List2B,white,woman,,,,null,,,,,,,,,
2540.1,"<img src=""portrait/BW2.jpg""style=""height:400px;""></img>",2,html-button-response,123,881439,0.0-14.0-19.0,22524,List2B,white,woman,,TRUE,2,,,,,,,,,,
null,CORRECT,,html-keyboard-response,124,882958,0.0-14.0-20.0-0.0,22524,List2B,white,woman,,,,null,,,,,,,,,
2544.8,"<img src=""portrait/WM1.jpg""style=""height:400px;""></img>",6,html-button-response,125,885505,0.0-14.0-22.0,22524,List2B,white,woman,,TRUE,6,,,,,,,,,,
null,CORRECT,,html-keyboard-response,126,887010,0.0-14.0-23.0-0.0,22524,List2B,white,woman,,,,null,,,,,,,,,
2264.5,<p>You got 8 out of 8 right first time. Press Continue.</p>,0,html-button-response,127,889277,0.0-14.0-25.0,22524,List2B,white,woman,,,,,,,,,,,,,
null,"<div style=""font-size:60px;"">+</div>",,html-keyboard-response,128,890794,0.0-15.0-0.0,22524,List2B,white,woman,,,,null,,,,,,,,,
null,"<img src=""stim_listB/greet1.gif""style=""height:400px;""></stim_listB>",,html-keyboard-response,129,892797,0.0-15.0-1.0,22524,List2B,white,woman,,,,null,,,,,,,,,
null,is greeting,,html-keyboard-response,130,894799,0.0-15.0-2.0,22524,List2B,white,woman,,,,null,,,,,,,,,
12537.8,,,survey-text,131,907340,0.0-15.0-3.0,22524,List2B,white,woman,,,,,"{""Q0"":""Dave is greeting Ruth""}","<img src=""stim_listB/greet1.gif""style=""height:400px;""></stim_listB>",is greeting,,,,,,
null,"<div style=""font-size:60px;"">+</div>",,html-keyboard-response,132,907846,0.0-15.0-0.1,22524,List2B,white,woman,,,,null,,,,,,,,,
null,"<img src=""stim_listB/challenge7.gif""style=""height:400px;""></stim_listB>",,html-keyboard-response,133,909865,0.0-15.0-1.1,22524,List2B,white,woman,,,,null,,,,,,,,,
null,is challenging,,html-keyboard-response,134,911869,0.0-15.0-2.1,22524,List2B,white,woman,,,,null,,,,,,,,,
14038.7,,,survey-text,135,925911,0.0-15.0-3.1,22524,List2B,white,woman,,,,,"{""Q0"":""Jane is challenging Beth""}","<img src=""stim_listB/challenge7.gif""style=""height:400px;""></stim_listB>",is challenging,,,,,,
null,"<div style=""font-size:60px;"">+</div>",,html-keyboard-response,136,926422,0.0-15.0-0.2,22524,List2B,white,woman,,,,null,,,,,,,,,
null,"<img src=""stim_listB/challenge2.gif""style=""height:400px;""></stim_listB>",,html-keyboard-response,137,928439,0.0-15.0-1.2,22524,List2B,white,woman,,,,null,,,,,,,,,
null,is being challenged by,,html-keyboard-response,138,930441,0.0-15.0-2.2,22524,List2B,white,woman,,,,null,,,,,,,,,
8498.2,,,survey-text,139,938943,0.0-15.0-3.2,22524,List2B,white,woman,,,,,"{""Q0"":""Jane is being challenged by Luke""}","<img src=""stim_listB/challenge2.gif""style=""height:400px;""></stim_listB>",is being challenged by,,,,,,
null,"<div style=""font-size:60px;"">+</div>",,html-keyboard-response,140,939453,0.0-15.0-0.3,22524,List2B,white,woman,,,,null,,,,,,,,,
null,"<img src=""stim_listB/seduce6.gif""style=""height:400px;""></stim_listB>",,html-keyboard-response,141,941459,0.0-15.0-1.3,22524,List2B,white,woman,,,,null,,,,,,,,,
null,is being seduced by,,html-keyboard-response,142,943463,0.0-15.0-2.3,22524,List2B,white,woman,,,,null,,,,,,,,,
15252.9,,,survey-text,143,958720,0.0-15.0-3.3,22524,List2B,white,woman,,,,,"{""Q0"":""fred is being seduced by dave""}","<img src=""stim_listB/seduce6.gif""style=""height:400px;""></stim_listB>",is being seduced by,,,,,,
null,"<div style=""font-size:60px;"">+</div>",,html-keyboard-response,144,959233,0.0-15.0-0.4,22524,List2B,white,woman,,,,null,,,,,,,,,
null,"<img src=""stim_listB/seduce4.gif""style=""height:400px;""></stim_listB>",,html-keyboard-response,145,961244,0.0-15.0-1.4,22524,List2B,white,woman,,,,null,,,,,,,,,
null,is being seduced by,,html-keyboard-response,146,963247,0.0-15.0-2.4,22524,List2B,white,woman,,,,null,,,,,,,,,
7246.3,,,survey-text,147,970495,0.0-15.0-3.4,22524,List2B,white,woman,,,,,"{""Q0"":""mike is being seduced by beth""}","<img src=""stim_listB/seduce4.gif""style=""height:400px;""></stim_listB>",is being seduced by,,,,,,
null,"<div style=""font-size:60px;"">+</div>",,html-keyboard-response,148,971003,0.0-15.0-0.5,22524,List2B,white,woman,,,,null,,,,,,,,,
null,"<img src=""stim_listB/oppose3.gif""style=""height:400px;""></stim_listB>",,html-keyboard-response,149,973022,0.0-15.0-1.5,22524,List2B,white,woman,,,,null,,,,,,,,,
null,is opposing,,html-keyboard-response,150,975028,0.0-15.0-2.5,22524,List2B,white,woman,,,,null,,,,,,,,,
9879.7,,,survey-text,151,984911,0.0-15.0-3.5,22524,List2B,white,woman,,,,,"{""Q0"":""kate is opposed by mike""}","<img src=""stim_listB/oppose3.gif""style=""height:400px;""></stim_listB>",is opposing,,,,,,
null,"<div style=""font-size:60px;"">+</div>",,html-keyboard-response,152,985414,0.0-15.0-0.6,22524,List2B,white,woman,,,,null,,,,,,,,,
null,"<img src=""stim_listB/touch4.gif""style=""height:400px;""></stim_listB>",,html-keyboard-response,153,987427,0.0-15.0-1.6,22524,List2B,white,woman,,,,null,,,,,,,,,
null,is being touched by,,html-keyboard-response,154,989430,0.0-15.0-2.6,22524,List2B,white,woman,,,,null,,,,,,,,,
10317.5,,,survey-text,155,999751,0.0-15.0-3.6,22524,List2B,white,woman,,,,,"{""Q0"":""fred is being touched by beth""}","<img src=""stim_listB/touch4.gif""style=""height:400px;""></stim_listB>",is being touched by,,,,,,
null,"<div style=""font-size:60px;"">+</div>",,html-keyboard-response,156,1000266,0.0-15.0-0.7,22524,List2B,white,woman,,,,null,,,,,,,,,
null,"<img src=""stim_listB/oppose8.gif""style=""height:400px;""></stim_listB>",,html-keyboard-response,157,1002269,0.0-15.0-1.7,22524,List2B,white,woman,,,,null,,,,,,,,,
null,is being opposed by,,html-keyboard-response,158,1004274,0.0-15.0-2.7,22524,List2B,white,woman,,,,null,,,,,,,,,
7418.5,,,survey-text,159,1011695,0.0-15.0-3.7,22524,List2B,white,woman,,,,,"{""Q0"":""beth is being opposed by ruth""}","<img src=""stim_listB/oppose8.gif""style=""height:400px;""></stim_listB>",is being opposed by,,,,,,
null,"<div style=""font-size:60px;"">+</div>",,html-keyboard-response,160,1012196,0.0-15.0-0.8,22524,List2B,white,woman,,,,null,,,,,,,,,
null,"<img src=""stim_listB/copy5.gif""style=""height:400px;""></stim_listB>",,html-keyboard-response,161,1014202,0.0-15.0-1.8,22524,List2B,white,woman,,,,null,,,,,,,,,
null,is copying,,html-keyboard-response,162,1016219,0.0-15.0-2.8,22524,List2B,white,woman,,,,null,,,,,,,,,
5761.4,,,survey-text,163,1021983,0.0-15.0-3.8,22524,List2B,white,woman,,,,,"{""Q0"":""fred is copying dave""}","<img src=""stim_listB/copy5.gif""style=""height:400px;""></stim_listB>",is copying,,,,,,
null,"<div style=""font-size:60px;"">+</div>",,html-keyboard-response,164,1022495,0.0-15.0-0.9,22524,List2B,white,woman,,,,null,,,,,,,,,
null,"<img src=""stim_listB/hug2.gif""style=""height:400px;""></stim_listB>",,html-keyboard-response,165,1024513,0.0-15.0-1.9,22524,List2B,white,woman,,,,null,,,,,,,,,
null,is being hugged by,,html-keyboard-response,166,1026517,0.0-15.0-2.9,22524,List2B,white,woman,,,,null,,,,,,,,,
6399.3,,,survey-text,167,1032920,0.0-15.0-3.9,22524,List2B,white,woman,,,,,"{""Q0"":""jane is being hugged by dave""}","<img src=""stim_listB/hug2.gif""style=""height:400px;""></stim_listB>",is being hugged by,,,,,,
null,"<div style=""font-size:60px;"">+</div>",,html-keyboard-response,168,1033428,0.0-15.0-0.10,22524,List2B,white,woman,,,,null,,,,,,,,,
null,"<img src=""stim_listB/greet3.gif""style=""height:400px;""></stim_listB>",,html-keyboard-response,169,1035432,0.0-15.0-1.10,22524,List2B,white,woman,,,,null,,,,,,,,,
null,is greeting,,html-keyboard-response,170,1037445,0.0-15.0-2.10,22524,List2B,white,woman,,,,null,,,,,,,,,
8830.8,,,survey-text,171,1046280,0.0-15.0-3.10,22524,List2B,white,woman,,,,,"{""Q0"":""mike is greeting beth""}","<img src=""stim_listB/greet3.gif""style=""height:400px;""></stim_listB>",is greeting,,,,,,
null,"<div style=""font-size:60px;"">+</div>",,html-keyboard-response,172,1046794,0.0-15.0-0.11,22524,List2B,white,woman,,,,null,,,,,,,,,
null,"<img src=""stim_listB/kiss8.gif""style=""height:400px;""></stim_listB>",,html-keyboard-response,173,1048812,0.0-15.0-1.11,22524,List2B,white,woman,,,,null,,,,,,,,,
null,is being kissed by,,html-keyboard-response,174,1050814,0.0-15.0-2.11,22524,List2B,white,woman,,,,null,,,,,,,,,
6621.6,,,survey-text,175,1057440,0.0-15.0-3.11,22524,List2B,white,woman,,,,,"{""Q0"":""kate is being kissed by jane""}","<img src=""stim_listB/kiss8.gif""style=""height:400px;""></stim_listB>",is being kissed by,,,,,,
null,"<div style=""font-size:60px;"">+</div>",,html-keyboard-response,176,1057941,0.0-15.0-0.12,22524,List2B,white,woman,,,,null,,,,,,,,,
null,"<img src=""stim_listB/kiss6.gif""style=""height:400px;""></stim_listB>",,html-keyboard-response,177,1059946,0.0-15.0-1.12,22524,List2B,white,woman,,,,null,,,,,,,,,
null,is being kissed by,,html-keyboard-response,178,1061962,0.0-15.0-2.12,22524,List2B,white,woman,,,,null,,,,,,,,,
7051.5,,,survey-text,179,1069017,0.0-15.0-3.12,22524,List2B,white,woman,,,,,"{""Q0"":""dave is being kissed by mike""}","<img src=""stim_listB/kiss6.gif""style=""height:400px;""></stim_listB>",is being kissed by,,,,,,
null,"<div style=""font-size:60px;"">+</div>",,html-keyboard-response,180,1069529,0.0-15.0-0.13,22524,List2B,white,woman,,,,null,,,,,,,,,
null,"<img src=""stim_listB/shout3.gif""style=""height:400px;""></stim_listB>",,html-keyboard-response,181,1071532,0.0-15.0-1.13,22524,List2B,white,woman,,,,null,,,,,,,,,
null,is shouting at,,html-keyboard-response,182,1073541,0.0-15.0-2.13,22524,List2B,white,woman,,,,null,,,,,,,,,
6568.6,,,survey-text,183,1080112,0.0-15.0-3.13,22524,List2B,white,woman,,,,,"{""Q0"":""beth is shouting at fred""}","<img src=""stim_listB/shout3.gif""style=""height:400px;""></stim_listB>",is shouting at,,,,,,
null,"<div style=""font-size:60px;"">+</div>",,html-keyboard-response,184,1080621,0.0-15.0-0.14,22524,List2B,white,woman,,,,null,,,,,,,,,
null,"<img src=""stim_listB/challenge8.gif""style=""height:400px;""></stim_listB>",,html-keyboard-response,185,1082626,0.0-15.0-1.14,22524,List2B,white,woman,,,,null,,,,,,,,,
null,is being challenged by,,html-keyboard-response,186,1084629,0.0-15.0-2.14,22524,List2B,white,woman,,,,null,,,,,,,,,
11622.8,,,survey-text,187,1096256,0.0-15.0-3.14,22524,List2B,white,woman,,,,,"{""Q0"":""kate is being challenged by beth""}","<img src=""stim_listB/challenge8.gif""style=""height:400px;""></stim_listB>",is being challenged by,,,,,,
null,"<div style=""font-size:60px;"">+</div>",,html-keyboard-response,188,1096762,0.0-15.0-0.15,22524,List2B,white,woman,,,,null,,,,,,,,,
null,"<img src=""stim_listB/greet7.gif""style=""height:400px;""></stim_listB>",,html-keyboard-response,189,1098779,0.0-15.0-1.15,22524,List2B,white,woman,,,,null,,,,,,,,,
null,is greeting,,html-keyboard-response,190,1100783,0.0-15.0-2.15,22524,List2B,white,woman,,,,null,,,,,,,,,
4827.6,,,survey-text,191,1105614,0.0-15.0-3.15,22524,List2B,white,woman,,,,,"{""Q0"":""beth is greeting jane""}","<img src=""stim_listB/greet7.gif""style=""height:400px;""></stim_listB>",is greeting,,,,,,
null,"<div style=""font-size:60px;"">+</div>",,html-keyboard-response,192,1106127,0.0-15.0-0.16,22524,List2B,white,woman,,,,null,,,,,,,,,
null,"<img src=""stim_listB/oppose7.gif""style=""height:400px;""></stim_listB>",,html-keyboard-response,193,1108132,0.0-15.0-1.16,22524,List2B,white,woman,,,,null,,,,,,,,,
null,is opposing,,html-keyboard-response,194,1110149,0.0-15.0-2.16,22524,List2B,white,woman,,,,null,,,,,,,,,
5207.5,,,survey-text,195,1115359,0.0-15.0-3.16,22524,List2B,white,woman,,,,,"{""Q0"":""kate is opposing jane""}","<img src=""stim_listB/oppose7.gif""style=""height:400px;""></stim_listB>",is opposing,,,,,,
null,"<div style=""font-size:60px;"">+</div>",,html-keyboard-response,196,1115875,0.0-15.0-0.17,22524,List2B,white,woman,,,,null,,,,,,,,,
null,"<img src=""stim_listB/kiss3.gif""style=""height:400px;""></stim_listB>",,html-keyboard-response,197,1117878,0.0-15.0-1.17,22524,List2B,white,woman,,,,null,,,,,,,,,
null,is kissing,,html-keyboard-response,198,1119881,0.0-15.0-2.17,22524,List2B,white,woman,,,,null,,,,,,,,,
4464,,,survey-text,199,1124349,0.0-15.0-3.17,22524,List2B,white,woman,,,,,"{""Q0"":""beth is kissing fred""}","<img src=""stim_listB/kiss3.gif""style=""height:400px;""></stim_listB>",is kissing,,,,,,
null,"<div style=""font-size:60px;"">+</div>",,html-keyboard-response,200,1124863,0.0-15.0-0.18,22524,List2B,white,woman,,,,null,,,,,,,,,
null,"<img src=""stim_listB/challenge6.gif""style=""height:400px;""></stim_listB>",,html-keyboard-response,201,1126867,0.0-15.0-1.18,22524,List2B,white,woman,,,,null,,,,,,,,,
null,is being challenged by,,html-keyboard-response,202,1128870,0.0-15.0-2.18,22524,List2B,white,woman,,,,null,,,,,,,,,
11214.7,,,survey-text,203,1140086,0.0-15.0-3.18,22524,List2B,white,woman,,,,,"{""Q0"":""luke is being challenged by mike""}","<img src=""stim_listB/challenge6.gif""style=""height:400px;""></stim_listB>",is being challenged by,,,,,,
null,"<div style=""font-size:60px;"">+</div>",,html-keyboard-response,204,1140592,0.0-15.0-0.19,22524,List2B,white,woman,,,,null,,,,,,,,,
null,"<img src=""stim_listB/hug8.gif""style=""height:400px;""></stim_listB>",,html-keyboard-response,205,1142596,0.0-15.0-1.19,22524,List2B,white,woman,,,,null,,,,,,,,,
null,is being hugged by,,html-keyboard-response,206,1144600,0.0-15.0-2.19,22524,List2B,white,woman,,,,null,,,,,,,,,
7723.1,,,survey-text,207,1152327,0.0-15.0-3.19,22524,List2B,white,woman,,,,,"{""Q0"":""kate is being hugged by jane""}","<img src=""stim_listB/hug8.gif""style=""height:400px;""></stim_listB>",is being hugged by,,,,,,
3328.7,"<img src='img/portrait_matrix_list2.jpg' style='width:900px;height:500px;''></img><p>If you have memorised all the portraits and names and are ready to start, press Continue.</p><p><strong>Please note: Your memory of these faces will be tested 4 times during this experiment.</strong></p>",0,html-button-response,208,1155656,0.0-16.0-0.0,22524,List2B,white,woman,,,,,,,,,,,,,
2038.5,"<img src=""portrait/BM1.jpg""style=""height:400px;""></img>",4,html-button-response,209,1158701,0.0-16.0-1.0,22524,List2B,white,woman,,TRUE,4,,,,,,,,,,
null,CORRECT,,html-keyboard-response,210,1160214,0.0-16.0-2.0-0.0,22524,List2B,white,woman,,,,null,,,,,,,,,
3267.8,"<img src=""portrait/BW1.jpg""style=""height:400px;""></img>",0,html-button-response,211,1163485,0.0-16.0-4.0,22524,List2B,white,woman,,TRUE,0,,,,,,,,,,
null,CORRECT,,html-keyboard-response,212,1165009,0.0-16.0-5.0-0.0,22524,List2B,white,woman,,,,null,,,,,,,,,
1631.5,"<img src=""portrait/WW1.jpg""style=""height:400px;""></img>",1,html-button-response,213,1166643,0.0-16.0-7.0,22524,List2B,white,woman,,TRUE,1,,,,,,,,,,
null,CORRECT,,html-keyboard-response,214,1168147,0.0-16.0-8.0-0.0,22524,List2B,white,woman,,,,null,,,,,,,,,
2104.3,"<img src=""portrait/WM1.jpg""style=""height:400px;""></img>",6,html-button-response,215,1170254,0.0-16.0-10.0,22524,List2B,white,woman,,TRUE,6,,,,,,,,,,
null,CORRECT,,html-keyboard-response,216,1171776,0.0-16.0-11.0-0.0,22524,List2B,white,woman,,,,null,,,,,,,,,
2418.9,"<img src=""portrait/BW2.jpg""style=""height:400px;""></img>",2,html-button-response,217,1174197,0.0-16.0-13.0,22524,List2B,white,woman,,TRUE,2,,,,,,,,,,
null,CORRECT,,html-keyboard-response,218,1175722,0.0-16.0-14.0-0.0,22524,List2B,white,woman,,,,null,,,,,,,,,
1912.9,"<img src=""portrait/WM2.jpg""style=""height:400px;""></img>",7,html-button-response,219,1177637,0.0-16.0-16.0,22524,List2B,white,woman,,TRUE,7,,,,,,,,,,
null,CORRECT,,html-keyboard-response,220,1179152,0.0-16.0-17.0-0.0,22524,List2B,white,woman,,,,null,,,,,,,,,
1424.4,"<img src=""portrait/BM2.jpg""style=""height:400px;""></img>",5,html-button-response,221,1180579,0.0-16.0-19.0,22524,List2B,white,woman,,TRUE,5,,,,,,,,,,
null,CORRECT,,html-keyboard-response,222,1182098,0.0-16.0-20.0-0.0,22524,List2B,white,woman,,,,null,,,,,,,,,
1609.6,"<img src=""portrait/WW2.jpg""style=""height:400px;""></img>",3,html-button-response,223,1183709,0.0-16.0-22.0,22524,List2B,white,woman,,TRUE,3,,,,,,,,,,
null,CORRECT,,html-keyboard-response,224,1185235,0.0-16.0-23.0-0.0,22524,List2B,white,woman,,,,null,,,,,,,,,
2802.4,<p>You got 8 out of 8 right first time. Press Continue.</p>,0,html-button-response,225,1188041,0.0-16.0-25.0,22524,List2B,white,woman,,,,,,,,,,,,,
null,"<div style=""font-size:60px;"">+</div>",,html-keyboard-response,226,1189550,0.0-17.0-0.0,22524,List2B,white,woman,,,,null,,,,,,,,,
null,"<img src=""stim_listB/oppose1.gif""style=""height:400px;""></stim_listB>",,html-keyboard-response,227,1191565,0.0-17.0-1.0,22524,List2B,white,woman,,,,null,,,,,,,,,
null,is opposing,,html-keyboard-response,228,1193582,0.0-17.0-2.0,22524,List2B,white,woman,,,,null,,,,,,,,,
4351.1,,,survey-text,229,1197937,0.0-17.0-3.0,22524,List2B,white,woman,,,,,"{""Q0"":""jane is opposing dave""}","<img src=""stim_listB/oppose1.gif""style=""height:400px;""></stim_listB>",is opposing,,,,,,
null,"<div style=""font-size:60px;"">+</div>",,html-keyboard-response,230,1198447,0.0-17.0-0.1,22524,List2B,white,woman,,,,null,,,,,,,,,
null,"<img src=""stim_listB/shout8.gif""style=""height:400px;""></stim_listB>",,html-keyboard-response,231,1200453,0.0-17.0-1.1,22524,List2B,white,woman,,,,null,,,,,,,,,
null,is being shouted at by,,html-keyboard-response,232,1202459,0.0-17.0-2.1,22524,List2B,white,woman,,,,null,,,,,,,,,
7264.4,,,survey-text,233,1209727,0.0-17.0-3.1,22524,List2B,white,woman,,,,,"{""Q0"":""jane is being shouted at by kate""}","<img src=""stim_listB/shout8.gif""style=""height:400px;""></stim_listB>",is being shouted at by,,,,,,
null,"<div style=""font-size:60px;"">+</div>",,html-keyboard-response,234,1210228,0.0-17.0-0.2,22524,List2B,white,woman,,,,null,,,,,,,,,
null,"<img src=""stim_listB/challenge3.gif""style=""height:400px;""></stim_listB>",,html-keyboard-response,235,1212244,0.0-17.0-1.2,22524,List2B,white,woman,,,,null,,,,,,,,,
null,is challenging,,html-keyboard-response,236,1214247,0.0-17.0-2.2,22524,List2B,white,woman,,,,null,,,,,,,,,
5811.9,,,survey-text,237,1220063,0.0-17.0-3.2,22524,List2B,white,woman,,,,,"{""Q0"":""mike is challenging beth""}","<img src=""stim_listB/challenge3.gif""style=""height:400px;""></stim_listB>",is challenging,,,,,,
null,"<div style=""font-size:60px;"">+</div>",,html-keyboard-response,238,1220566,0.0-17.0-0.3,22524,List2B,white,woman,,,,null,,,,,,,,,
null,"<img src=""stim_listB/seduce8.gif""style=""height:400px;""></stim_listB>",,html-keyboard-response,239,1222572,0.0-17.0-1.3,22524,List2B,white,woman,,,,null,,,,,,,,,
null,is being seduced by,,html-keyboard-response,240,1224576,0.0-17.0-2.3,22524,List2B,white,woman,,,,null,,,,,,,,,
7306.4,,,survey-text,241,1231886,0.0-17.0-3.3,22524,List2B,white,woman,,,,,"{""Q0"":""jane is being seduced by beth""}","<img src=""stim_listB/seduce8.gif""style=""height:400px;""></stim_listB>",is being seduced by,,,,,,
null,"<div style=""font-size:60px;"">+</div>",,html-keyboard-response,242,1232400,0.0-17.0-0.4,22524,List2B,white,woman,,,,null,,,,,,,,,
null,"<img src=""stim_listB/look6.gif""style=""height:400px;""></stim_listB>",,html-keyboard-response,243,1234419,0.0-17.0-1.4,22524,List2B,white,woman,,,,null,,,,,,,,,
null,is being looked at by,,html-keyboard-response,244,1236436,0.0-17.0-2.4,22524,List2B,white,woman,,,,null,,,,,,,,,
9439.1,,,survey-text,245,1245879,0.0-17.0-3.4,22524,List2B,white,woman,,,,,"{""Q0"":""mike is being looked at by dave""}","<img src=""stim_listB/look6.gif""style=""height:400px;""></stim_listB>",is being looked at by,,,,,,
null,"<div style=""font-size:60px;"">+</div>",,html-keyboard-response,246,1246380,0.0-17.0-0.5,22524,List2B,white,woman,,,,null,,,,,,,,,
null,"<img src=""stim_listB/greet8.gif""style=""height:400px;""></stim_listB>",,html-keyboard-response,247,1248398,0.0-17.0-1.5,22524,List2B,white,woman,,,,null,,,,,,,,,
null,is being greeted by,,html-keyboard-response,248,1250414,0.0-17.0-2.5,22524,List2B,white,woman,,,,null,,,,,,,,,
6974.5,,,survey-text,249,1257392,0.0-17.0-3.5,22524,List2B,white,woman,,,,,"{""Q0"":""ruth is being greeted by kate""}","<img src=""stim_listB/greet8.gif""style=""height:400px;""></stim_listB>",is being greeted by,,,,,,
null,"<div style=""font-size:60px;"">+</div>",,html-keyboard-response,250,1257903,0.0-17.0-0.6,22524,List2B,white,woman,,,,null,,,,,,,,,
null,"<img src=""stim_listB/challenge4.gif""style=""height:400px;""></stim_listB>",,html-keyboard-response,251,1259911,0.0-17.0-1.6,22524,List2B,white,woman,,,,null,,,,,,,,,
null,is being challenged by,,html-keyboard-response,252,1261914,0.0-17.0-2.6,22524,List2B,white,woman,,,,null,,,,,,,,,
8457.9,,,survey-text,253,1270376,0.0-17.0-3.6,22524,List2B,white,woman,,,,,"{""Q0"":""fred is being challenged by beth""}","<img src=""stim_listB/challenge4.gif""style=""height:400px;""></stim_listB>",is being challenged by,,,,,,
null,"<div style=""font-size:60px;"">+</div>",,html-keyboard-response,254,1270884,0.0-17.0-0.7,22524,List2B,white,woman,,,,null,,,,,,,,,
null,"<img src=""stim_listB/oppose6.gif""style=""height:400px;""></stim_listB>",,html-keyboard-response,255,1272898,0.0-17.0-1.7,22524,List2B,white,woman,,,,null,,,,,,,,,
null,is being opposed by,,html-keyboard-response,256,1274901,0.0-17.0-2.7,22524,List2B,white,woman,,,,null,,,,,,,,,
11541.8,,,survey-text,257,1286448,0.0-17.0-3.7,22524,List2B,white,woman,,,,,"{""Q0"":""fred is being opposed by luke""}","<img src=""stim_listB/oppose6.gif""style=""height:400px;""></stim_listB>",is being opposed by,,,,,,
null,"<div style=""font-size:60px;"">+</div>",,html-keyboard-response,258,1286952,0.0-17.0-0.8,22524,List2B,white,woman,,,,null,,,,,,,,,
null,"<img src=""stim_listB/copy2.gif""style=""height:400px;""></stim_listB>",,html-keyboard-response,259,1288966,0.0-17.0-1.8,22524,List2B,white,woman,,,,null,,,,,,,,,
null,is being copied by,,html-keyboard-response,260,1290979,0.0-17.0-2.8,22524,List2B,white,woman,,,,null,,,,,,,,,
9866.3,,,survey-text,261,1300848,0.0-17.0-3.8,22524,List2B,white,woman,,,,,"{""Q0"":""Jane is being copied by luke""}","<img src=""stim_listB/copy2.gif""style=""height:400px;""></stim_listB>",is being copied by,,,,,,
null,"<div style=""font-size:60px;"">+</div>",,html-keyboard-response,262,1301353,0.0-17.0-0.9,22524,List2B,white,woman,,,,null,,,,,,,,,
null,"<img src=""stim_listB/seduce1.gif""style=""height:400px;""></stim_listB>",,html-keyboard-response,263,1303368,0.0-17.0-1.9,22524,List2B,white,woman,,,,null,,,,,,,,,
null,is seducing,,html-keyboard-response,264,1305384,0.0-17.0-2.9,22524,List2B,white,woman,,,,null,,,,,,,,,
6323.5,,,survey-text,265,1311712,0.0-17.0-3.9,22524,List2B,white,woman,,,,,"{""Q0"":""jane is seducing luke""}","<img src=""stim_listB/seduce1.gif""style=""height:400px;""></stim_listB>",is seducing,,,,,,
null,"<div style=""font-size:60px;"">+</div>",,html-keyboard-response,266,1312219,0.0-17.0-0.10,22524,List2B,white,woman,,,,null,,,,,,,,,
null,"<img src=""stim_listB/touch8.gif""style=""height:400px;""></stim_listB>",,html-keyboard-response,267,1314228,0.0-17.0-1.10,22524,List2B,white,woman,,,,null,,,,,,,,,
null,is being touched by,,html-keyboard-response,268,1316232,0.0-17.0-2.10,22524,List2B,white,woman,,,,null,,,,,,,,,
7060.4,,,survey-text,269,1323296,0.0-17.0-3.10,22524,List2B,white,woman,,,,,"{""Q0"":""ruth is being touched by beth""}","<img src=""stim_listB/touch8.gif""style=""height:400px;""></stim_listB>",is being touched by,,,,,,
null,"<div style=""font-size:60px;"">+</div>",,html-keyboard-response,270,1323810,0.0-17.0-0.11,22524,List2B,white,woman,,,,null,,,,,,,,,
null,"<img src=""stim_listB/copy6.gif""style=""height:400px;""></stim_listB>",,html-keyboard-response,271,1325815,0.0-17.0-1.11,22524,List2B,white,woman,,,,null,,,,,,,,,
null,is being copied by,,html-keyboard-response,272,1327833,0.0-17.0-2.11,22524,List2B,white,woman,,,,null,,,,,,,,,
6987.4,,,survey-text,273,1334824,0.0-17.0-3.11,22524,List2B,white,woman,,,,,"{""Q0"":""mike is being copied by luke""}","<img src=""stim_listB/copy6.gif""style=""height:400px;""></stim_listB>",is being copied by,,,,,,
null,"<div style=""font-size:60px;"">+</div>",,html-keyboard-response,274,1335334,0.0-17.0-0.12,22524,List2B,white,woman,,,,null,,,,,,,,,
null,"<img src=""stim_listB/hug7.gif""style=""height:400px;""></stim_listB>",,html-keyboard-response,275,1337348,0.0-17.0-1.12,22524,List2B,white,woman,,,,null,,,,,,,,,
null,is hugging,,html-keyboard-response,276,1339354,0.0-17.0-2.12,22524,List2B,white,woman,,,,null,,,,,,,,,
4835,,,survey-text,277,1344192,0.0-17.0-3.12,22524,List2B,white,woman,,,,,"{""Q0"":""ruth is hugging beth""}","<img src=""stim_listB/hug7.gif""style=""height:400px;""></stim_listB>",is hugging,,,,,,
null,"<div style=""font-size:60px;"">+</div>",,html-keyboard-response,278,1344694,0.0-17.0-0.13,22524,List2B,white,woman,,,,null,,,,,,,,,
null,"<img src=""stim_listB/hug5.gif""style=""height:400px;""></stim_listB>",,html-keyboard-response,279,1346711,0.0-17.0-1.13,22524,List2B,white,woman,,,,null,,,,,,,,,
null,is hugging,,html-keyboard-response,280,1348724,0.0-17.0-2.13,22524,List2B,white,woman,,,,null,,,,,,,,,
8375.7,,,survey-text,281,1357103,0.0-17.0-3.13,22524,List2B,white,woman,,,,,"{""Q0"":""fred is hugging luke""}","<img src=""stim_listB/hug5.gif""style=""height:400px;""></stim_listB>",is hugging,,,,,,
null,"<div style=""font-size:60px;"">+</div>",,html-keyboard-response,282,1357608,0.0-17.0-0.14,22524,List2B,white,woman,,,,null,,,,,,,,,
null,"<img src=""stim_listB/look4.gif""style=""height:400px;""></stim_listB>",,html-keyboard-response,283,1359613,0.0-17.0-1.14,22524,List2B,white,woman,,,,null,,,,,,,,,
null,is being looked at by,,html-keyboard-response,284,1361623,0.0-17.0-2.14,22524,List2B,white,woman,,,,null,,,,,,,,,
6197.1,,,survey-text,285,1367824,0.0-17.0-3.14,22524,List2B,white,woman,,,,,"{""Q0"":""mike is being looked at by kate""}","<img src=""stim_listB/look4.gif""style=""height:400px;""></stim_listB>",is being looked at by,,,,,,
null,"<div style=""font-size:60px;"">+</div>",,html-keyboard-response,286,1368338,0.0-17.0-0.15,22524,List2B,white,woman,,,,null,,,,,,,,,
null,"<img src=""stim_listB/greet2.gif""style=""height:400px;""></stim_listB>",,html-keyboard-response,287,1370340,0.0-17.0-1.15,22524,List2B,white,woman,,,,null,,,,,,,,,
null,is being greeted by,,html-keyboard-response,288,1372355,0.0-17.0-2.15,22524,List2B,white,woman,,,,null,,,,,,,,,
9586.7,,,survey-text,289,1381944,0.0-17.0-3.15,22524,List2B,white,woman,,,,,"{""Q0"":""jane is being greeted by luke""}","<img src=""stim_listB/greet2.gif""style=""height:400px;""></stim_listB>",is being greeted by,,,,,,
null,"<div style=""font-size:60px;"">+</div>",,html-keyboard-response,290,1382455,0.0-17.0-0.16,22524,List2B,white,woman,,,,null,,,,,,,,,
null,"<img src=""stim_listB/greet6.gif""style=""height:400px;""></stim_listB>",,html-keyboard-response,291,1384460,0.0-17.0-1.16,22524,List2B,white,woman,,,,null,,,,,,,,,
null,is being greeted by,,html-keyboard-response,292,1386476,0.0-17.0-2.16,22524,List2B,white,woman,,,,null,,,,,,,,,
7974.4,,,survey-text,293,1394453,0.0-17.0-3.16,22524,List2B,white,woman,,,,,"{""Q0"":""luke is being greeted by mike""}","<img src=""stim_listB/greet6.gif""style=""height:400px;""></stim_listB>",is being greeted by,,,,,,
null,"<div style=""font-size:60px;"">+</div>",,html-keyboard-response,294,1394969,0.0-17.0-0.17,22524,List2B,white,woman,,,,null,,,,,,,,,
null,"<img src=""stim_listB/oppose2.gif""style=""height:400px;""></stim_listB>",,html-keyboard-response,295,1396975,0.0-17.0-1.17,22524,List2B,white,woman,,,,null,,,,,,,,,
null,is being opposed by,,html-keyboard-response,296,1398980,0.0-17.0-2.17,22524,List2B,white,woman,,,,null,,,,,,,,,
7481.8,,,survey-text,297,1406464,0.0-17.0-3.17,22524,List2B,white,woman,,,,,"{""Q0"":""luke is being opposed by ruth""}","<img src=""stim_listB/oppose2.gif""style=""height:400px;""></stim_listB>",is being opposed by,,,,,,
null,"<div style=""font-size:60px;"">+</div>",,html-keyboard-response,298,1406978,0.0-17.0-0.18,22524,List2B,white,woman,,,,null,,,,,,,,,
null,"<img src=""stim_listB/look5.gif""style=""height:400px;""></stim_listB>",,html-keyboard-response,299,1408991,0.0-17.0-1.18,22524,List2B,white,woman,,,,null,,,,,,,,,
null,is looking at,,html-keyboard-response,300,1410999,0.0-17.0-2.18,22524,List2B,white,woman,,,,null,,,,,,,,,
5389.2,,,survey-text,301,1416392,0.0-17.0-3.18,22524,List2B,white,woman,,,,,"{""Q0"":""luke is looking at fred""}","<img src=""stim_listB/look5.gif""style=""height:400px;""></stim_listB>",is looking at,,,,,,
null,"<div style=""font-size:60px;"">+</div>",,html-keyboard-response,302,1416902,0.0-17.0-0.19,22524,List2B,white,woman,,,,null,,,,,,,,,
null,"<img src=""stim_listB/copy8.gif""style=""height:400px;""></stim_listB>",,html-keyboard-response,303,1418907,0.0-17.0-1.19,22524,List2B,white,woman,,,,null,,,,,,,,,
null,is being copied by,,html-keyboard-response,304,1420910,0.0-17.0-2.19,22524,List2B,white,woman,,,,null,,,,,,,,,
8978.6,,,survey-text,305,1429893,0.0-17.0-3.19,22524,List2B,white,woman,,,,,"{""Q0"":""kate is being copied by ruth""}","<img src=""stim_listB/copy8.gif""style=""height:400px;""></stim_listB>",is being copied by,,,,,,
3169,"<img src='img/portrait_matrix_list2.jpg' style='width:900px;height:500px;''></img><p>If you have memorised all the portraits and names and are ready to start, press Continue.</p><p><strong>Please note: Your memory of these faces will be tested 4 times during this experiment.</strong></p>",0,html-button-response,306,1433063,0.0-18.0-0.0,22524,List2B,white,woman,,,,,,,,,,,,,
2151.5,"<img src=""portrait/BW2.jpg""style=""height:400px;""></img>",2,html-button-response,307,1436220,0.0-18.0-1.0,22524,List2B,white,woman,,TRUE,2,,,,,,,,,,
null,CORRECT,,html-keyboard-response,308,1437744,0.0-18.0-2.0-0.0,22524,List2B,white,woman,,,,null,,,,,,,,,
2450,"<img src=""portrait/WM1.jpg""style=""height:400px;""></img>",6,html-button-response,309,1440197,0.0-18.0-4.0,22524,List2B,white,woman,,TRUE,6,,,,,,,,,,
null,CORRECT,,html-keyboard-response,310,1441700,0.0-18.0-5.0-0.0,22524,List2B,white,woman,,,,null,,,,,,,,,
2141.9,"<img src=""portrait/BW1.jpg""style=""height:400px;""></img>",0,html-button-response,311,1443845,0.0-18.0-7.0,22524,List2B,white,woman,,TRUE,0,,,,,,,,,,
null,CORRECT,,html-keyboard-response,312,1445347,0.0-18.0-8.0-0.0,22524,List2B,white,woman,,,,null,,,,,,,,,
1469,"<img src=""portrait/WM2.jpg""style=""height:400px;""></img>",7,html-button-response,313,1446819,0.0-18.0-10.0,22524,List2B,white,woman,,TRUE,7,,,,,,,,,,
null,CORRECT,,html-keyboard-response,314,1448329,0.0-18.0-11.0-0.0,22524,List2B,white,woman,,,,null,,,,,,,,,
2385.3,"<img src=""portrait/BM1.jpg""style=""height:400px;""></img>",4,html-button-response,315,1450717,0.0-18.0-13.0,22524,List2B,white,woman,,TRUE,4,,,,,,,,,,
null,CORRECT,,html-keyboard-response,316,1452220,0.0-18.0-14.0-0.0,22524,List2B,white,woman,,,,null,,,,,,,,,
1420.1,"<img src=""portrait/WW2.jpg""style=""height:400px;""></img>",3,html-button-response,317,1453642,0.0-18.0-16.0,22524,List2B,white,woman,,TRUE,3,,,,,,,,,,
null,CORRECT,,html-keyboard-response,318,1455153,0.0-18.0-17.0-0.0,22524,List2B,white,woman,,,,null,,,,,,,,,
1539.4,"<img src=""portrait/WW1.jpg""style=""height:400px;""></img>",1,html-button-response,319,1456695,0.0-18.0-19.0,22524,List2B,white,woman,,TRUE,1,,,,,,,,,,
null,CORRECT,,html-keyboard-response,320,1458220,0.0-18.0-20.0-0.0,22524,List2B,white,woman,,,,null,,,,,,,,,
1623.9,"<img src=""portrait/BM2.jpg""style=""height:400px;""></img>",5,html-button-response,321,1459846,0.0-18.0-22.0,22524,List2B,white,woman,,TRUE,5,,,,,,,,,,
null,CORRECT,,html-keyboard-response,322,1461368,0.0-18.0-23.0-0.0,22524,List2B,white,woman,,,,null,,,,,,,,,
1186,<p>You got 8 out of 8 right first time. Press Continue.</p>,0,html-button-response,323,1462558,0.0-18.0-25.0,22524,List2B,white,woman,,,,,,,,,,,,,
null,"<div style=""font-size:60px;"">+</div>",,html-keyboard-response,324,1464068,0.0-19.0-0.0,22524,List2B,white,woman,,,,null,,,,,,,,,
null,"<img src=""stim_listB/shout7.gif""style=""height:400px;""></stim_listB>",,html-keyboard-response,325,1466078,0.0-19.0-1.0,22524,List2B,white,woman,,,,null,,,,,,,,,
null,is shouting at,,html-keyboard-response,326,1468091,0.0-19.0-2.0,22524,List2B,white,woman,,,,null,,,,,,,,,
8339.2,,,survey-text,327,1476432,0.0-19.0-3.0,22524,List2B,white,woman,,,,,"{""Q0"":""ruth is shouting at beth""}","<img src=""stim_listB/shout7.gif""style=""height:400px;""></stim_listB>",is shouting at,,,,,,
null,"<div style=""font-size:60px;"">+</div>",,html-keyboard-response,328,1476939,0.0-19.0-0.1,22524,List2B,white,woman,,,,null,,,,,,,,,
null,"<img src=""stim_listB/seduce7.gif""style=""height:400px;""></stim_listB>",,html-keyboard-response,329,1478956,0.0-19.0-1.1,22524,List2B,white,woman,,,,null,,,,,,,,,
null,is seducing,,html-keyboard-response,330,1480957,0.0-19.0-2.1,22524,List2B,white,woman,,,,null,,,,,,,,,
7993.1,,,survey-text,331,1488952,0.0-19.0-3.1,22524,List2B,white,woman,,,,,"{""Q0"":""kate is seducing ruth""}","<img src=""stim_listB/seduce7.gif""style=""height:400px;""></stim_listB>",is seducing,,,,,,
null,"<div style=""font-size:60px;"">+</div>",,html-keyboard-response,332,1489455,0.0-19.0-0.2,22524,List2B,white,woman,,,,null,,,,,,,,,
null,"<img src=""stim_listB/hug3.gif""style=""height:400px;""></stim_listB>",,html-keyboard-response,333,1491471,0.0-19.0-1.2,22524,List2B,white,woman,,,,null,,,,,,,,,
null,is hugging,,html-keyboard-response,334,1493475,0.0-19.0-2.2,22524,List2B,white,woman,,,,null,,,,,,,,,
4793.5,,,survey-text,335,1498272,0.0-19.0-3.2,22524,List2B,white,woman,,,,,"{""Q0"":""beth is hugging fred""}","<img src=""stim_listB/hug3.gif""style=""height:400px;""></stim_listB>",is hugging,,,,,,
null,"<div style=""font-size:60px;"">+</div>",,html-keyboard-response,336,1498784,0.0-19.0-0.3,22524,List2B,white,woman,,,,null,,,,,,,,,
null,"<img src=""stim_listB/shout6.gif""style=""height:400px;""></stim_listB>",,html-keyboard-response,337,1500803,0.0-19.0-1.3,22524,List2B,white,woman,,,,null,,,,,,,,,
null,is being shouted at by,,html-keyboard-response,338,1502818,0.0-19.0-2.3,22524,List2B,white,woman,,,,null,,,,,,,,,
7149.3,,,survey-text,339,1509969,0.0-19.0-3.3,22524,List2B,white,woman,,,,,"{""Q0"":""mike is being shouted at by dave""}","<img src=""stim_listB/shout6.gif""style=""height:400px;""></stim_listB>",is being shouted at by,,,,,,
null,"<div style=""font-size:60px;"">+</div>",,html-keyboard-response,340,1510473,0.0-19.0-0.4,22524,List2B,white,woman,,,,null,,,,,,,,,
null,"<img src=""stim_listB/kiss1.gif""style=""height:400px;""></stim_listB>",,html-keyboard-response,341,1512475,0.0-19.0-1.4,22524,List2B,white,woman,,,,null,,,,,,,,,
null,is kissing,,html-keyboard-response,342,1514477,0.0-19.0-2.4,22524,List2B,white,woman,,,,null,,,,,,,,,
4025.4,,,survey-text,343,1518504,0.0-19.0-3.4,22524,List2B,white,woman,,,,,"{""Q0"":""ruth is kissing luke""}","<img src=""stim_listB/kiss1.gif""style=""height:400px;""></stim_listB>",is kissing,,,,,,
null,"<div style=""font-size:60px;"">+</div>",,html-keyboard-response,344,1519011,0.0-19.0-0.5,22524,List2B,white,woman,,,,null,,,,,,,,,
null,"<img src=""stim_listB/shout2.gif""style=""height:400px;""></stim_listB>",,html-keyboard-response,345,1521015,0.0-19.0-1.5,22524,List2B,white,woman,,,,null,,,,,,,,,
null,is being shouted at by,,html-keyboard-response,346,1523020,0.0-19.0-2.5,22524,List2B,white,woman,,,,null,,,,,,,,,
6864.8,,,survey-text,347,1529888,0.0-19.0-3.5,22524,List2B,white,woman,,,,,"{""Q0"":""dave is being shouted at by jane""}","<img src=""stim_listB/shout2.gif""style=""height:400px;""></stim_listB>",is being shouted at by,,,,,,
null,"<div style=""font-size:60px;"">+</div>",,html-keyboard-response,348,1530405,0.0-19.0-0.6,22524,List2B,white,woman,,,,null,,,,,,,,,
null,"<img src=""stim_listB/look3.gif""style=""height:400px;""></stim_listB>",,html-keyboard-response,349,1532417,0.0-19.0-1.6,22524,List2B,white,woman,,,,null,,,,,,,,,
null,is looking at,,html-keyboard-response,350,1534423,0.0-19.0-2.6,22524,List2B,white,woman,,,,null,,,,,,,,,
5270.9,,,survey-text,351,1539696,0.0-19.0-3.6,22524,List2B,white,woman,,,,,"{""Q0"":""fred is looking at beth""}","<img src=""stim_listB/look3.gif""style=""height:400px;""></stim_listB>",is looking at,,,,,,
null,"<div style=""font-size:60px;"">+</div>",,html-keyboard-response,352,1540206,0.0-19.0-0.7,22524,List2B,white,woman,,,,null,,,,,,,,,
null,"<img src=""stim_listB/hug1.gif""style=""height:400px;""></stim_listB>",,html-keyboard-response,353,1542217,0.0-19.0-1.7,22524,List2B,white,woman,,,,null,,,,,,,,,
null,is hugging,,html-keyboard-response,354,1544234,0.0-19.0-2.7,22524,List2B,white,woman,,,,null,,,,,,,,,
7882,,,survey-text,355,1552120,0.0-19.0-3.7,22524,List2B,white,woman,,,,,"{""Q0"":""luke is hugging ruth""}","<img src=""stim_listB/hug1.gif""style=""height:400px;""></stim_listB>",is hugging,,,,,,
null,"<div style=""font-size:60px;"">+</div>",,html-keyboard-response,356,1552629,0.0-19.0-0.8,22524,List2B,white,woman,,,,null,,,,,,,,,
null,"<img src=""stim_listB/copy4.gif""style=""height:400px;""></stim_listB>",,html-keyboard-response,357,1554646,0.0-19.0-1.8,22524,List2B,white,woman,,,,null,,,,,,,,,
null,is being copied by,,html-keyboard-response,358,1556661,0.0-19.0-2.8,22524,List2B,white,woman,,,,null,,,,,,,,,
6432.1,,,survey-text,359,1563097,0.0-19.0-3.8,22524,List2B,white,woman,,,,,"{""Q0"":""kate is being copied by fred""}","<img src=""stim_listB/copy4.gif""style=""height:400px;""></stim_listB>",is being copied by,,,,,,
null,"<div style=""font-size:60px;"">+</div>",,html-keyboard-response,360,1563608,0.0-19.0-0.9,22524,List2B,white,woman,,,,null,,,,,,,,,
null,"<img src=""stim_listB/touch2.gif""style=""height:400px;""></stim_listB>",,html-keyboard-response,361,1565623,0.0-19.0-1.9,22524,List2B,white,woman,,,,null,,,,,,,,,
null,is being touched by,,html-keyboard-response,362,1567634,0.0-19.0-2.9,22524,List2B,white,woman,,,,null,,,,,,,,,
7164.9,,,survey-text,363,1574800,0.0-19.0-3.9,22524,List2B,white,woman,,,,,"{""Q0"":""luke is being touched by ruth""}","<img src=""stim_listB/touch2.gif""style=""height:400px;""></stim_listB>",is being touched by,,,,,,
null,"<div style=""font-size:60px;"">+</div>",,html-keyboard-response,364,1575310,0.0-19.0-0.10,22524,List2B,white,woman,,,,null,,,,,,,,,
null,"<img src=""stim_listB/seduce2.gif""style=""height:400px;""></stim_listB>",,html-keyboard-response,365,1577315,0.0-19.0-1.10,22524,List2B,white,woman,,,,null,,,,,,,,,
null,is being seduced by,,html-keyboard-response,366,1579332,0.0-19.0-2.10,22524,List2B,white,woman,,,,null,,,,,,,,,
7135.9,,,survey-text,367,1586472,0.0-19.0-3.10,22524,List2B,white,woman,,,,,"{""Q0"":""ruth is being seduced by dave""}","<img src=""stim_listB/seduce2.gif""style=""height:400px;""></stim_listB>",is being seduced by,,,,,,
null,"<div style=""font-size:60px;"">+</div>",,html-keyboard-response,368,1586990,0.0-19.0-0.11,22524,List2B,white,woman,,,,null,,,,,,,,,
null,"<img src=""stim_listB/copy3.gif""style=""height:400px;""></stim_listB>",,html-keyboard-response,369,1588994,0.0-19.0-1.11,22524,List2B,white,woman,,,,null,,,,,,,,,
null,is copying,,html-keyboard-response,370,1591007,0.0-19.0-2.11,22524,List2B,white,woman,,,,null,,,,,,,,,
7339.7,,,survey-text,371,1598351,0.0-19.0-3.11,22524,List2B,white,woman,,,,,"{""Q0"":""mike is copying beth""}","<img src=""stim_listB/copy3.gif""style=""height:400px;""></stim_listB>",is copying,,,,,,
null,"<div style=""font-size:60px;"">+</div>",,html-keyboard-response,372,1598860,0.0-19.0-0.12,22524,List2B,white,woman,,,,null,,,,,,,,,
null,"<img src=""stim_listB/greet5.gif""style=""height:400px;""></stim_listB>",,html-keyboard-response,373,1600875,0.0-19.0-1.12,22524,List2B,white,woman,,,,null,,,,,,,,,
null,is greeting,,html-keyboard-response,374,1602880,0.0-19.0-2.12,22524,List2B,white,woman,,,,null,,,,,,,,,
5302.1,,,survey-text,375,1608185,0.0-19.0-3.12,22524,List2B,white,woman,,,,,"{""Q0"":""fred is greeting dave""}","<img src=""stim_listB/greet5.gif""style=""height:400px;""></stim_listB>",is greeting,,,,,,
null,"<div style=""font-size:60px;"">+</div>",,html-keyboard-response,376,1608698,0.0-19.0-0.13,22524,List2B,white,woman,,,,null,,,,,,,,,
null,"<img src=""stim_listB/touch6.gif""style=""height:400px;""></stim_listB>",,html-keyboard-response,377,1610702,0.0-19.0-1.13,22524,List2B,white,woman,,,,null,,,,,,,,,
null,is being touched by,,html-keyboard-response,378,1612705,0.0-19.0-2.13,22524,List2B,white,woman,,,,null,,,,,,,,,
7203.7,,,survey-text,379,1619913,0.0-19.0-3.13,22524,List2B,white,woman,,,,,"{""Q0"":""fred is being touched by luke""}","<img src=""stim_listB/touch6.gif""style=""height:400px;""></stim_listB>",is being touched by,,,,,,
null,"<div style=""font-size:60px;"">+</div>",,html-keyboard-response,380,1620427,0.0-19.0-0.14,22524,List2B,white,woman,,,,null,,,,,,,,,
null,"<img src=""stim_listB/kiss7.gif""style=""height:400px;""></stim_listB>",,html-keyboard-response,381,1622431,0.0-19.0-1.14,22524,List2B,white,woman,,,,null,,,,,,,,,
null,is kissing,,html-keyboard-response,382,1624436,0.0-19.0-2.14,22524,List2B,white,woman,,,,null,,,,,,,,,
5886.3,,,survey-text,383,1630326,0.0-19.0-3.14,22524,List2B,white,woman,,,,,"{""Q0"":""beth is kissing ruth""}","<img src=""stim_listB/kiss7.gif""style=""height:400px;""></stim_listB>",is kissing,,,,,,
null,"<div style=""font-size:60px;"">+</div>",,html-keyboard-response,384,1630830,0.0-19.0-0.15,22524,List2B,white,woman,,,,null,,,,,,,,,
null,"<img src=""stim_listB/seduce3.gif""style=""height:400px;""></stim_listB>",,html-keyboard-response,385,1632834,0.0-19.0-1.15,22524,List2B,white,woman,,,,null,,,,,,,,,
null,is seducing,,html-keyboard-response,386,1634836,0.0-19.0-2.15,22524,List2B,white,woman,,,,null,,,,,,,,,
4600.2,,,survey-text,387,1639440,0.0-19.0-3.15,22524,List2B,white,woman,,,,,"{""Q0"":""kate is seducing fred""}","<img src=""stim_listB/seduce3.gif""style=""height:400px;""></stim_listB>",is seducing,,,,,,
null,"<div style=""font-size:60px;"">+</div>",,html-keyboard-response,388,1639946,0.0-19.0-0.16,22524,List2B,white,woman,,,,null,,,,,,,,,
null,"<img src=""stim_listB/seduce5.gif""style=""height:400px;""></stim_listB>",,html-keyboard-response,389,1641953,0.0-19.0-1.16,22524,List2B,white,woman,,,,null,,,,,,,,,
null,is seducing,,html-keyboard-response,390,1643965,0.0-19.0-2.16,22524,List2B,white,woman,,,,null,,,,,,,,,
6443.2,,,survey-text,391,1650416,0.0-19.0-3.16,22524,List2B,white,woman,,,,,"{""Q0"":""mike is seducing luke""}","<img src=""stim_listB/seduce5.gif""style=""height:400px;""></stim_listB>",is seducing,,,,,,
null,"<div style=""font-size:60px;"">+</div>",,html-keyboard-response,392,1650931,0.0-19.0-0.17,22524,List2B,white,woman,,,,null,,,,,,,,,
null,"<img src=""stim_listB/touch1.gif""style=""height:400px;""></stim_listB>",,html-keyboard-response,393,1652935,0.0-19.0-1.17,22524,List2B,white,woman,,,,null,,,,,,,,,
null,is touching,,html-keyboard-response,394,1654950,0.0-19.0-2.17,22524,List2B,white,woman,,,,null,,,,,,,,,
4134.2,,,survey-text,395,1659088,0.0-19.0-3.17,22524,List2B,white,woman,,,,,"{""Q0"":""jane is touching dave""}","<img src=""stim_listB/touch1.gif""style=""height:400px;""></stim_listB>",is touching,,,,,,
null,"<div style=""font-size:60px;"">+</div>",,html-keyboard-response,396,1659599,0.0-19.0-0.18,22524,List2B,white,woman,,,,null,,,,,,,,,
null,"<img src=""stim_listB/hug4.gif""style=""height:400px;""></stim_listB>",,html-keyboard-response,397,1661602,0.0-19.0-1.18,22524,List2B,white,woman,,,,null,,,,,,,,,
null,is being hugged by,,html-keyboard-response,398,1663618,0.0-19.0-2.18,22524,List2B,white,woman,,,,null,,,,,,,,,
7098.5,,,survey-text,399,1670721,0.0-19.0-3.18,22524,List2B,white,woman,,,,,"{""Q0"":""kate is being hugged by mike""}","<img src=""stim_listB/hug4.gif""style=""height:400px;""></stim_listB>",is being hugged by,,,,,,
null,"<div style=""font-size:60px;"">+</div>",,html-keyboard-response,400,1671235,0.0-19.0-0.19,22524,List2B,white,woman,,,,null,,,,,,,,,
null,"<img src=""stim_listB/copy1.gif""style=""height:400px;""></stim_listB>",,html-keyboard-response,401,1673254,0.0-19.0-1.19,22524,List2B,white,woman,,,,null,,,,,,,,,
null,is copying,,html-keyboard-response,402,1675261,0.0-19.0-2.19,22524,List2B,white,woman,,,,null,,,,,,,,,
6279,,,survey-text,403,1681545,0.0-19.0-3.19,22524,List2B,white,woman,,,,,"{""Q0"":""ruth is copying dave""}","<img src=""stim_listB/copy1.gif""style=""height:400px;""></stim_listB>",is copying,,,,,,
2769.3,<p>Thank you for completing that task.</p><p>The final part of this session is a questionnaire that will take about 4 minutes.</p><p>Press Continue.</p>,0,html-button-response,404,1684315,0.0-20.0,22524,List2B,white,woman,,,,,,,,,,,,,
65405.6,,,survey-text,405,1750730,0.0-21.0,22524,List2B,white,woman,,,,,"{""Q0"":""25"",""Q1"":""English"",""Q2"":""English"",""Q3"":""USA"",""Q4"":""American"",""Q5"":""white"",""Q6"":""female""}",,,demographics,,,,,
3254.8,<p>Have you lived in the USA for the last 5 years or more?</p>,0,html-button-response,406,1753987,0.0-22.0,22524,List2B,white,woman,,,,,,,,fiveyears,,,,,
2653.5,<p>Move the slider to show the extent to which you agree with the following statements.</p>,0,html-button-response,407,1757645,0.0-23.0,22524,List2B,white,woman,,,,,,,,,,,,,
4775.3,,,html-slider-response,408,1763429,0.0-24.0-0.0-0.0,22524,List2B,white,woman,,,,,,,,survey_gender,100,,,I often think about my actions.,filler
3387.9,,,html-slider-response,409,1766820,0.0-24.0-0.0-0.1,22524,List2B,white,woman,,,,,,,,survey_gender,100,,,I feel a bond with my gender.,bond
3451.6,,,html-slider-response,410,1770273,0.0-24.0-0.0-0.2,22524,List2B,white,woman,,,,,,,,survey_gender,100,,,I feel solidarity with my gender.,solidarity
2926.2,,,html-slider-response,411,1773201,0.0-24.0-0.0-0.3,22524,List2B,white,woman,,,,,,,,survey_gender,71,,,My friends understand me.,filler
4118.2,,,html-slider-response,412,1777322,0.0-24.0-0.0-0.4,22524,List2B,white,woman,,,,,,,,survey_gender,100,,,I am glad to have the friends that I have.,filler
3583.6,,,html-slider-response,413,1780908,0.0-24.0-0.0-0.5,22524,List2B,white,woman,,,,,,,,survey_gender,91,,,I feel solidarity with my friends.,filler
6115.1,,,html-slider-response,414,1787025,0.0-24.0-0.0-0.6,22524,List2B,white,woman,,,,,,,,survey_gender,64,,,Most of the friends in my life are very similar to me.,filler
4941.7,,,html-slider-response,415,1791969,0.0-24.0-0.0-0.7,22524,List2B,white,woman,,,,,,,,survey_gender,55,,,People of my gender have a lot in common with each other.,common
9584.5,,,html-slider-response,416,1801556,0.0-24.0-0.0-0.8,22524,List2B,white,woman,,,,,,,,survey_gender,45,,,I have a lot in common with the average person of my gender.,average
8356.8,,,html-slider-response,417,1809915,0.0-24.0-0.0-0.9,22524,List2B,white,woman,,,,,,,,survey_gender,54,,,I am similar to the average person of my gender.,similar
4322.1,,,html-slider-response,418,1814239,0.0-24.0-0.0-0.10,22524,List2B,white,woman,,,,,,,,survey_gender,94,,,I feel a bond with my friends.,filler
4297.8,,,html-slider-response,419,1818539,0.0-24.0-0.0-0.11,22524,List2B,white,woman,,,,,,,,survey_gender,0,,,I often think about the fact that I am my gender.,often
3390.5,,,html-slider-response,420,1821932,0.0-24.0-0.0-0.12,22524,List2B,white,woman,,,,,,,,survey_gender,84,,,I have a lot in common with my friends.,filler
3481.7,,,html-slider-response,421,1825416,0.0-24.0-0.0-0.13,22524,List2B,white,woman,,,,,,,,survey_gender,100,,,I consider myself a highly empathetic person.,filler
6169.3,,,html-slider-response,422,1831587,0.0-24.0-0.0-0.14,22524,List2B,white,woman,,,,,,,,survey_gender,86,,,It is pleasant to be my gender.,pleasant
7448.9,,,html-slider-response,423,1839038,0.0-24.0-0.0-0.15,22524,List2B,white,woman,,,,,,,,survey_gender,41,,,People of my gender are very similar to each other.,verysimilar
5189.9,,,html-slider-response,424,1844230,0.0-24.0-0.0-0.16,22524,List2B,white,woman,,,,,,,,survey_gender,100,,,I would say I am an animal person.,filler
5400.8,,,html-slider-response,425,1849632,0.0-24.0-0.0-0.17,22524,List2B,white,woman,,,,,,,,survey_gender,55,,,Family is not more important to me than friendship.,filler
5207.7,,,html-slider-response,426,1854842,0.0-24.0-0.0-0.18,22524,List2B,white,woman,,,,,,,,survey_gender,100,,,It is not always easy for people to know what I am thinking.,filler
5375.8,,,html-slider-response,427,1860220,0.0-24.0-0.0-0.19,22524,List2B,white,woman,,,,,,,,survey_gender,59,,,I feel committed to my gender.,committed
4966.1,,,html-slider-response,428,1865188,0.0-24.0-0.0-0.20,22524,List2B,white,woman,,,,,,,,survey_gender,60,,,The fact that I am my gender is an important part of my identity.,identity
5292.6,,,html-slider-response,429,1870482,0.0-24.0-0.0-0.21,22524,List2B,white,woman,,,,,,,,survey_gender,100,,,I am glad to be my gender.,glad
142246.6,,,html-slider-response,430,2012731,0.0-24.0-0.0-0.22,22524,List2B,white,woman,,,,,,,,survey_gender,83,,,Being around my friends gives me a good feeling.,filler
2596.9,,,html-slider-response,431,2015330,0.0-24.0-0.0-0.23,22524,List2B,white,woman,,,,,,,,survey_gender,63,,,Being my gender gives me a good feeling.,feeling
3320.7,,,html-slider-response,432,2018652,0.0-24.0-0.0-0.24,22524,List2B,white,woman,,,,,,,,survey_gender,97,,,I think that my gender has a lot to be proud of.,proud
2785.5,,,html-slider-response,433,2021440,0.0-24.0-0.0-0.25,22524,List2B,white,woman,,,,,,,,survey_gender,36,,,Routine is not important to me.,filler
2862.6,,,html-slider-response,434,2024304,0.0-24.0-0.0-0.26,22524,List2B,white,woman,,,,,,,,survey_gender,89,,,My friends have a lot in common with each other.,filler
3250.1,,,html-slider-response,435,2027556,0.0-24.0-0.0-0.27,22524,List2B,white,woman,,,,,,,,survey_gender,93,,,Being my gender is an important part of how I see myself.,important
3506.6,,,html-slider-response,436,2031064,0.0-24.0-1.0-0.0,22524,List2B,white,woman,,,,,,,,survey_race,86,,,I consider myself an introvert.,filler
4648.1,,,html-slider-response,437,2035714,0.0-24.0-1.0-0.1,22524,List2B,white,woman,,,,,,,,survey_race,53,,,Being my race gives me a good feeling.,feeling
2149.5,,,html-slider-response,438,2037865,0.0-24.0-1.0-0.2,22524,List2B,white,woman,,,,,,,,survey_race,52,,,I am glad to be my race.,glad
2551.8,,,html-slider-response,439,2040418,0.0-24.0-1.0-0.3,22524,List2B,white,woman,,,,,,,,survey_race,32,,,I feel solidarity with my race.,solidarity
3019,,,html-slider-response,440,2043439,0.0-24.0-1.0-0.4,22524,List2B,white,woman,,,,,,,,survey_race,61,,,I am glad to be the age I am.,filler
2505.4,,,html-slider-response,441,2045946,0.0-24.0-1.0-0.5,22524,List2B,white,woman,,,,,,,,survey_race,39,,,I consider myself an extrovert.,filler
2630.2,,,html-slider-response,442,2048578,0.0-24.0-1.0-0.6,22524,List2B,white,woman,,,,,,,,survey_race,57,,,Being my age gives me a good feeling.,filler
3864.9,,,html-slider-response,443,2052444,0.0-24.0-1.0-0.7,22524,List2B,white,woman,,,,,,,,survey_race,34,,,People of my race are very similar to each other.,verysimilar
4499.8,,,html-slider-response,444,2056946,0.0-24.0-1.0-0.8,22524,List2B,white,woman,,,,,,,,survey_race,72,,,I often think about the fact that I am my age.,filler
2832.5,,,html-slider-response,445,2059780,0.0-24.0-1.0-0.9,22524,List2B,white,woman,,,,,,,,survey_race,57,,,I enjoy being in large groups.,filler
4330.6,,,html-slider-response,446,2064112,0.0-24.0-1.0-0.10,22524,List2B,white,woman,,,,,,,,survey_race,1,,,I have a lot in common with the average person of my race.,average
4429.5,,,html-slider-response,447,2068544,0.0-24.0-1.0-0.11,22524,List2B,white,woman,,,,,,,,survey_race,23,,,People of my race have a lot in common with each other.,common
2535.8,,,html-slider-response,448,2071082,0.0-24.0-1.0-0.12,22524,List2B,white,woman,,,,,,,,survey_race,1,,,I feel committed to my race.,committed
3739.1,,,html-slider-response,449,2074823,0.0-24.0-1.0-0.13,22524,List2B,white,woman,,,,,,,,survey_race,21,,,I am similar to the average person of my race.,similar
3593.4,,,html-slider-response,450,2078417,0.0-24.0-1.0-0.14,22524,List2B,white,woman,,,,,,,,survey_race,55,,,It is pleasant to be my race.,pleasant
5217.4,,,html-slider-response,451,2083636,0.0-24.0-1.0-0.15,22524,List2B,white,woman,,,,,,,,survey_race,61,,,My age is not an important part of who I am.,filler
4073.6,,,html-slider-response,452,2087712,0.0-24.0-1.0-0.16,22524,List2B,white,woman,,,,,,,,survey_race,26,,,I think that my race has a lot to be proud of.,proud
4693.6,,,html-slider-response,453,2092408,0.0-24.0-1.0-0.17,22524,List2B,white,woman,,,,,,,,survey_race,24,,,The fact that I am my race is an important part of my identity.,identity
3156.9,,,html-slider-response,454,2095568,0.0-24.0-1.0-0.18,22524,List2B,white,woman,,,,,,,,survey_race,9,,,Getting older does not worry me.,filler
3388.2,,,html-slider-response,455,2098959,0.0-24.0-1.0-0.19,22524,List2B,white,woman,,,,,,,,survey_race,0,,,Being my race is an important part of how I see myself.,important
3749.9,,,html-slider-response,456,2102710,0.0-24.0-1.0-0.20,22524,List2B,white,woman,,,,,,,,survey_race,60,,,I have a lot in common with people of a similar age to me.,filler
3545.6,,,html-slider-response,457,2106258,0.0-24.0-1.0-0.21,22524,List2B,white,woman,,,,,,,,survey_race,55,,,People my age have a lot in common with each other.,filler
1938.3,,,html-slider-response,458,2108197,0.0-24.0-1.0-0.22,22524,List2B,white,woman,,,,,,,,survey_race,56,,,I am glad to be my age.,filler
3019.3,,,html-slider-response,459,2111218,0.0-24.0-1.0-0.23,22524,List2B,white,woman,,,,,,,,survey_race,25,,,"The older I get, the wiser I feel.",filler
4018.3,,,html-slider-response,460,2115238,0.0-24.0-1.0-0.24,22524,List2B,white,woman,,,,,,,,survey_race,0,,,I often think about the fact that I am my race.,often
2822.3,,,html-slider-response,461,2118063,0.0-24.0-1.0-0.25,22524,List2B,white,woman,,,,,,,,survey_race,33,,,I feel solidarity with people the same age as me.,filler
3502.4,,,html-slider-response,462,2121566,0.0-24.0-1.0-0.26,22524,List2B,white,woman,,,,,,,,survey_race,59,,,I feel a bond with people the same age as me.,filler
3109.5,,,html-slider-response,463,2124678,0.0-24.0-1.0-0.27,22524,List2B,white,woman,,,,,,,,survey_race,0,,,I feel a bond with my race.,bond
7449.5,,,survey-text,464,2132130,0.0-25.0,22524,List2B,white,woman,,,,,"{""Q0"":""ccc""}",,,worker_id,,,,,
2221.8,,,external-html,465,2134584,0.0-26.0,22524,List2B,white,woman,debrief.html,,,,,,,,,,,,
