rt,stimulus,button_pressed,trial_type,trial_index,time_elapsed,internal_node_id,subject,list,ppt_race,ppt_gender,url,first_guess,correct,key_press,responses,image_type,phrase_type,test_part,response,stimulus1,stimulus2,question_type,survey_item
1371.53,Welcome to the experiment. Press Continue to begin.,0,html-button-response,0,1374,0.0-0.0,22791,List2A,white,woman,,,,,,,,,,,,,
8193.955,,,external-html,1,10702,0.0-1.0,22791,List2A,white,woman,consent.html,,,,,,,,,,,,
3247.92,"<p>On the next page, you will see portraits of 8 people and their names.</p><p>Your first task is to take a few minutes to memorise the names of these people.</p><p>You will have to recall their names during the rest of the experiment, so it is</p><p>essential that you try to memorise these people and their names as best as you can.</p><br><p><strong>You will then be tested on your memory of these names and portraits.</strong></p><br><p>The experiment will start after you have completed this memory test.</p><br><p>Ready?</p>",0,html-button-response,2,13952,0.0-2.0,22791,List2A,white,woman,,,,,,,,,,,,,
21184.105,"<img src='img/portrait_matrix_list2.jpg' style='width:900px;height:500px;''></img><p>If you have memorised all the portraits and names and are ready to start, press Continue.</p><p><strong>Please note: Your memory of these faces will be tested 4 times during this experiment.</strong></p>",0,html-button-response,3,36139,0.0-3.0-0.0,22791,List2A,white,woman,,,,,,,,,,,,,
2914.04,"<img src=""portrait/WM2.jpg""style=""height:400px;""></img>",7,html-button-response,4,40057,0.0-3.0-1.0,22791,List2A,white,woman,,TRUE,7,,,,,,,,,,
null,CORRECT,,html-keyboard-response,5,41561,0.0-3.0-2.0-0.0,22791,List2A,white,woman,,,,null,,,,,,,,,
4094.515,"<img src=""portrait/WM1.jpg""style=""height:400px;""></img>",6,html-button-response,6,45657,0.0-3.0-4.0,22791,List2A,white,woman,,TRUE,6,,,,,,,,,,
null,CORRECT,,html-keyboard-response,7,47163,0.0-3.0-5.0-0.0,22791,List2A,white,woman,,,,null,,,,,,,,,
4428.42,"<img src=""portrait/BM1.jpg""style=""height:400px;""></img>",4,html-button-response,8,51594,0.0-3.0-7.0,22791,List2A,white,woman,,TRUE,4,,,,,,,,,,
null,CORRECT,,html-keyboard-response,9,53101,0.0-3.0-8.0-0.0,22791,List2A,white,woman,,,,null,,,,,,,,,
7932.54,"<img src=""portrait/BW1.jpg""style=""height:400px;""></img>",0,html-button-response,10,61035,0.0-3.0-10.0,22791,List2A,white,woman,,TRUE,0,,,,,,,,,,
null,CORRECT,,html-keyboard-response,11,62538,0.0-3.0-11.0-0.0,22791,List2A,white,woman,,,,null,,,,,,,,,
4842.28,"<img src=""portrait/BW2.jpg""style=""height:400px;""></img>",3,html-button-response,12,67381,0.0-3.0-13.0,22791,List2A,white,woman,,TRUE,2,,,,,,,,,,
2696.665,"<img src=""portrait/BW2.jpg""style=""height:400px;""></img>",2,html-button-response,13,71079,0.0-3.0-15.0-0.0,22791,List2A,white,woman,,FALSE,2,,,,,,,,,,
null,CORRECT,,html-keyboard-response,14,72582,0.0-3.0-15.0-1.0-0.0,22791,List2A,white,woman,,,,null,,,,,,,,,
3828.365,"<img src=""portrait/WW1.jpg""style=""height:400px;""></img>",0,html-button-response,15,76411,0.0-3.0-16.0,22791,List2A,white,woman,,TRUE,1,,,,,,,,,,
2487.975,"<img src=""portrait/WW1.jpg""style=""height:400px;""></img>",1,html-button-response,16,79901,0.0-3.0-18.0-0.0,22791,List2A,white,woman,,FALSE,1,,,,,,,,,,
null,CORRECT,,html-keyboard-response,17,81403,0.0-3.0-18.0-1.0-0.0,22791,List2A,white,woman,,,,null,,,,,,,,,
2104.61,"<img src=""portrait/WW2.jpg""style=""height:400px;""></img>",0,html-button-response,18,83509,0.0-3.0-19.0,22791,List2A,white,woman,,TRUE,3,,,,,,,,,,
1406.465,"<img src=""portrait/WW2.jpg""style=""height:400px;""></img>",3,html-button-response,19,85917,0.0-3.0-21.0-0.0,22791,List2A,white,woman,,FALSE,3,,,,,,,,,,
null,CORRECT,,html-keyboard-response,20,87424,0.0-3.0-21.0-1.0-0.0,22791,List2A,white,woman,,,,null,,,,,,,,,
2266.075,"<img src=""portrait/BM2.jpg""style=""height:400px;""></img>",5,html-button-response,21,89692,0.0-3.0-22.0,22791,List2A,white,woman,,TRUE,5,,,,,,,,,,
null,CORRECT,,html-keyboard-response,22,91194,0.0-3.0-23.0-0.0,22791,List2A,white,woman,,,,null,,,,,,,,,
1721.595,<p>You got 5 out of 8 right first time. Press Continue.</p>,0,html-button-response,23,92917,0.0-3.0-25.0,22791,List2A,white,woman,,,,,,,,,,,,,
3223.65,"As you did not score 100%, the memory game will repeat. Press Continue.",0,html-button-response,24,97143,0.0-3.0-26.0-0.0,22791,List2A,white,woman,,,,,,,,,,,,,
21018.805,"<img src='img/portrait_matrix_list2.jpg' style='width:900px;height:500px;''></img><p>If you have memorised all the portraits and names and are ready to start, press Continue.</p><p><strong>Please note: Your memory of these faces will be tested 4 times during this experiment.</strong></p>",0,html-button-response,25,119165,0.0-3.1-0.1,22791,List2A,white,woman,,,,,,,,,,,,,
1658.95,"<img src=""portrait/WM2.jpg""style=""height:400px;""></img>",7,html-button-response,26,121826,0.0-3.1-1.1,22791,List2A,white,woman,,TRUE,7,,,,,,,,,,
null,CORRECT,,html-keyboard-response,27,123334,0.0-3.1-2.1-0.1,22791,List2A,white,woman,,,,null,,,,,,,,,
1874.725,"<img src=""portrait/WM1.jpg""style=""height:400px;""></img>",4,html-button-response,28,125210,0.0-3.1-4.1,22791,List2A,white,woman,,TRUE,6,,,,,,,,,,
4194.63,"<img src=""portrait/WM1.jpg""style=""height:400px;""></img>",6,html-button-response,29,130408,0.0-3.1-6.1-0.1,22791,List2A,white,woman,,FALSE,6,,,,,,,,,,
null,CORRECT,,html-keyboard-response,30,131915,0.0-3.1-6.1-1.1-0.1,22791,List2A,white,woman,,,,null,,,,,,,,,
4663.845,"<img src=""portrait/BM1.jpg""style=""height:400px;""></img>",4,html-button-response,31,136580,0.0-3.1-7.1,22791,List2A,white,woman,,TRUE,4,,,,,,,,,,
null,CORRECT,,html-keyboard-response,32,138087,0.0-3.1-8.1-0.1,22791,List2A,white,woman,,,,null,,,,,,,,,
5382.01,"<img src=""portrait/BW1.jpg""style=""height:400px;""></img>",0,html-button-response,33,143471,0.0-3.1-10.1,22791,List2A,white,woman,,TRUE,0,,,,,,,,,,
null,CORRECT,,html-keyboard-response,34,144978,0.0-3.1-11.1-0.1,22791,List2A,white,woman,,,,null,,,,,,,,,
4437.725,"<img src=""portrait/BW2.jpg""style=""height:400px;""></img>",2,html-button-response,35,149417,0.0-3.1-13.1,22791,List2A,white,woman,,TRUE,2,,,,,,,,,,
null,CORRECT,,html-keyboard-response,36,150924,0.0-3.1-14.1-0.1,22791,List2A,white,woman,,,,null,,,,,,,,,
3345.79,"<img src=""portrait/WW1.jpg""style=""height:400px;""></img>",1,html-button-response,37,154271,0.0-3.1-16.1,22791,List2A,white,woman,,TRUE,1,,,,,,,,,,
null,CORRECT,,html-keyboard-response,38,155778,0.0-3.1-17.1-0.1,22791,List2A,white,woman,,,,null,,,,,,,,,
2041.945,"<img src=""portrait/WW2.jpg""style=""height:400px;""></img>",3,html-button-response,39,157821,0.0-3.1-19.1,22791,List2A,white,woman,,TRUE,3,,,,,,,,,,
null,CORRECT,,html-keyboard-response,40,159323,0.0-3.1-20.1-0.1,22791,List2A,white,woman,,,,null,,,,,,,,,
3175.12,"<img src=""portrait/BM2.jpg""style=""height:400px;""></img>",5,html-button-response,41,162499,0.0-3.1-22.1,22791,List2A,white,woman,,TRUE,5,,,,,,,,,,
null,CORRECT,,html-keyboard-response,42,164004,0.0-3.1-23.1-0.1,22791,List2A,white,woman,,,,null,,,,,,,,,
1241.425,<p>You got 7 out of 8 right first time. Press Continue.</p>,0,html-button-response,43,165247,0.0-3.1-25.1,22791,List2A,white,woman,,,,,,,,,,,,,
1209.555,"As you did not score 100%, the memory game will repeat. Press Continue.",0,html-button-response,44,167459,0.0-3.1-26.1-0.1,22791,List2A,white,woman,,,,,,,,,,,,,
2122.5,"<img src='img/portrait_matrix_list2.jpg' style='width:900px;height:500px;''></img><p>If you have memorised all the portraits and names and are ready to start, press Continue.</p><p><strong>Please note: Your memory of these faces will be tested 4 times during this experiment.</strong></p>",0,html-button-response,45,170584,0.0-3.2-0.2,22791,List2A,white,woman,,,,,,,,,,,,,
1599.005,"<img src=""portrait/WM2.jpg""style=""height:400px;""></img>",7,html-button-response,46,173185,0.0-3.2-1.2,22791,List2A,white,woman,,TRUE,7,,,,,,,,,,
null,CORRECT,,html-keyboard-response,47,174693,0.0-3.2-2.2-0.2,22791,List2A,white,woman,,,,null,,,,,,,,,
2567.225,"<img src=""portrait/WM1.jpg""style=""height:400px;""></img>",6,html-button-response,48,177261,0.0-3.2-4.2,22791,List2A,white,woman,,TRUE,6,,,,,,,,,,
null,CORRECT,,html-keyboard-response,49,178770,0.0-3.2-5.2-0.2,22791,List2A,white,woman,,,,null,,,,,,,,,
3500.73,"<img src=""portrait/BM1.jpg""style=""height:400px;""></img>",4,html-button-response,50,182272,0.0-3.2-7.2,22791,List2A,white,woman,,TRUE,4,,,,,,,,,,
null,CORRECT,,html-keyboard-response,51,183774,0.0-3.2-8.2-0.2,22791,List2A,white,woman,,,,null,,,,,,,,,
1569.73,"<img src=""portrait/BW1.jpg""style=""height:400px;""></img>",0,html-button-response,52,185346,0.0-3.2-10.2,22791,List2A,white,woman,,TRUE,0,,,,,,,,,,
null,CORRECT,,html-keyboard-response,53,186848,0.0-3.2-11.2-0.2,22791,List2A,white,woman,,,,null,,,,,,,,,
1407.825,"<img src=""portrait/BW2.jpg""style=""height:400px;""></img>",2,html-button-response,54,188257,0.0-3.2-13.2,22791,List2A,white,woman,,TRUE,2,,,,,,,,,,
null,CORRECT,,html-keyboard-response,55,189767,0.0-3.2-14.2-0.2,22791,List2A,white,woman,,,,null,,,,,,,,,
2667.755,"<img src=""portrait/WW1.jpg""style=""height:400px;""></img>",1,html-button-response,56,192436,0.0-3.2-16.2,22791,List2A,white,woman,,TRUE,1,,,,,,,,,,
null,CORRECT,,html-keyboard-response,57,193943,0.0-3.2-17.2-0.2,22791,List2A,white,woman,,,,null,,,,,,,,,
2189.87,"<img src=""portrait/WW2.jpg""style=""height:400px;""></img>",3,html-button-response,58,196134,0.0-3.2-19.2,22791,List2A,white,woman,,TRUE,3,,,,,,,,,,
null,CORRECT,,html-keyboard-response,59,197641,0.0-3.2-20.2-0.2,22791,List2A,white,woman,,,,null,,,,,,,,,
2562.82,"<img src=""portrait/BM2.jpg""style=""height:400px;""></img>",5,html-button-response,60,200205,0.0-3.2-22.2,22791,List2A,white,woman,,TRUE,5,,,,,,,,,,
null,CORRECT,,html-keyboard-response,61,201712,0.0-3.2-23.2-0.2,22791,List2A,white,woman,,,,null,,,,,,,,,
1146.65,<p>You got 8 out of 8 right first time. Press Continue.</p>,0,html-button-response,62,202860,0.0-3.2-25.2,22791,List2A,white,woman,,,,,,,,,,,,,
39081.755,"<p>In this experiment, you will view photographs of the people from the memory game interacting.</p><p>By using the <strong>exact</strong> phrase given <i>after</i> the photograph appears and recalling the correct names of the people in the photographs, form a sentence describing the interaction. You do not need to capitalise names.</p><p>Type your answer in the space provided. Please complete every sentence before moving onto the next trial.</p><p>You will only have a few seconds to memorise each given photograph and phrase before you can respond, so try your best to focus.</p><p>An example is given below. Press 'Continue' when you are ready.</p><img src='img/speaking_example.jpg' style='width:800px;height:460px;''></img>",0,html-button-response,63,242945,0.0-4.0,22791,List2A,white,woman,,,,,,,,,,,,,
1957.315,"<p>Before the experiment starts, you will watch two example trials. Press 'Continue'.</p>",0,html-button-response,64,245904,0.0-5.0,22791,List2A,white,woman,,,,,,,,,,,,,
null,<img src='img/play_eg.gif' style='height:400px;''></img>,,html-keyboard-response,65,248911,0.0-6.0,22791,List2A,white,woman,,,,null,,,,,,,,,
null,<p>is playing with</p>,,html-keyboard-response,66,250916,0.0-7.0,22791,List2A,white,woman,,,,null,,,,,,,,,
2228.625,<p><b>Answer:</b> jane is playing with ruth</p>,0,html-button-response,67,253146,0.0-8.0,22791,List2A,white,woman,,,,,,,,,,,,,
null,<img src='img/dance_eg.gif' style='height:400px;''></img>,,html-keyboard-response,68,256156,0.0-9.0,22791,List2A,white,woman,,,,null,,,,,,,,,
null,<p>is being entertained by</p>,,html-keyboard-response,69,258160,0.0-10.0,22791,List2A,white,woman,,,,null,,,,,,,,,
1678.225,<p><b>Answer:</b> fred is being entertained by mike</p>,0,html-button-response,70,259839,0.0-11.0,22791,List2A,white,woman,,,,,,,,,,,,,
9328.915,"<p>Ready to start the experiment?</p><br><p><strong>Remember to describe the picture using a full sentence,</strong></p><p><strong>that combines the names of the people with the <i>exact</i> phrase given.</strong></p><p><strong>To receive full payment you must do this correctly.</strong></p><p><strong> You do not need to capitalise names or use punctuation.</strong></p><br><p>Press 'Continue' to begin.</p>",0,html-button-response,71,270170,0.0-12.0,22791,List2A,white,woman,,,,,,,,,,,,,
null,"<div style=""font-size:60px;"">+</div>",,html-keyboard-response,72,271679,0.0-13.0-0.0,22791,List2A,white,woman,,,,null,,,,,,,,,
null,"<img src=""stim_listA/touch4.gif""style=""height:400px;""></stim_listA>",,html-keyboard-response,73,273681,0.0-13.0-1.0,22791,List2A,white,woman,,,,null,,,,,,,,,
null,is being touched by,,html-keyboard-response,74,275682,0.0-13.0-2.0,22791,List2A,white,woman,,,,null,,,,,,,,,
14672.165,,,survey-text,75,290359,0.0-13.0-3.0,22791,List2A,white,woman,,,,,"{""Q0"":""beth is being touched by fred""}","<img src=""stim_listA/touch4.gif""style=""height:400px;""></stim_listA>",is being touched by,,,,,,
null,"<div style=""font-size:60px;"">+</div>",,html-keyboard-response,76,290861,0.0-13.0-0.1,22791,List2A,white,woman,,,,null,,,,,,,,,
null,"<img src=""stim_listA/seduce1.gif""style=""height:400px;""></stim_listA>",,html-keyboard-response,77,292867,0.0-13.0-1.1,22791,List2A,white,woman,,,,null,,,,,,,,,
null,is seducing,,html-keyboard-response,78,294872,0.0-13.0-2.1,22791,List2A,white,woman,,,,null,,,,,,,,,
10151.96,,,survey-text,79,305029,0.0-13.0-3.1,22791,List2A,white,woman,,,,,"{""Q0"":""Luke is seducing ruth""}","<img src=""stim_listA/seduce1.gif""style=""height:400px;""></stim_listA>",is seducing,,,,,,
null,"<div style=""font-size:60px;"">+</div>",,html-keyboard-response,80,305530,0.0-13.0-0.2,22791,List2A,white,woman,,,,null,,,,,,,,,
null,"<img src=""stim_listA/oppose1.gif""style=""height:400px;""></stim_listA>",,html-keyboard-response,81,307536,0.0-13.0-1.2,22791,List2A,white,woman,,,,null,,,,,,,,,
null,is opposing,,html-keyboard-response,82,309539,0.0-13.0-2.2,22791,List2A,white,woman,,,,null,,,,,,,,,
6810.275,,,survey-text,83,316353,0.0-13.0-3.2,22791,List2A,white,woman,,,,,"{""Q0"":""dave is opposing jane""}","<img src=""stim_listA/oppose1.gif""style=""height:400px;""></stim_listA>",is opposing,,,,,,
null,"<div style=""font-size:60px;"">+</div>",,html-keyboard-response,84,316855,0.0-13.0-0.3,22791,List2A,white,woman,,,,null,,,,,,,,,
null,"<img src=""stim_listA/look8.gif""style=""height:400px;""></stim_listA>",,html-keyboard-response,85,318862,0.0-13.0-1.3,22791,List2A,white,woman,,,,null,,,,,,,,,
null,is being looked at by,,html-keyboard-response,86,320866,0.0-13.0-2.3,22791,List2A,white,woman,,,,null,,,,,,,,,
9055.58,,,survey-text,87,329924,0.0-13.0-3.3,22791,List2A,white,woman,,,,,"{""Q0"":""kate is being looked at by jane""}","<img src=""stim_listA/look8.gif""style=""height:400px;""></stim_listA>",is being looked at by,,,,,,
null,"<div style=""font-size:60px;"">+</div>",,html-keyboard-response,88,330427,0.0-13.0-0.4,22791,List2A,white,woman,,,,null,,,,,,,,,
null,"<img src=""stim_listA/challenge5.gif""style=""height:400px;""></stim_listA>",,html-keyboard-response,89,332429,0.0-13.0-1.4,22791,List2A,white,woman,,,,null,,,,,,,,,
null,is challenging,,html-keyboard-response,90,334434,0.0-13.0-2.4,22791,List2A,white,woman,,,,null,,,,,,,,,
5379.32,,,survey-text,91,339816,0.0-13.0-3.4,22791,List2A,white,woman,,,,,"{""Q0"":""dave is challenging fred""}","<img src=""stim_listA/challenge5.gif""style=""height:400px;""></stim_listA>",is challenging,,,,,,
null,"<div style=""font-size:60px;"">+</div>",,html-keyboard-response,92,340317,0.0-13.0-0.5,22791,List2A,white,woman,,,,null,,,,,,,,,
null,"<img src=""stim_listA/look5.gif""style=""height:400px;""></stim_listA>",,html-keyboard-response,93,342323,0.0-13.0-1.5,22791,List2A,white,woman,,,,null,,,,,,,,,
null,is looking at,,html-keyboard-response,94,344326,0.0-13.0-2.5,22791,List2A,white,woman,,,,null,,,,,,,,,
5194.095,,,survey-text,95,349522,0.0-13.0-3.5,22791,List2A,white,woman,,,,,"{""Q0"":""luke is looking at fred""}","<img src=""stim_listA/look5.gif""style=""height:400px;""></stim_listA>",is looking at,,,,,,
null,"<div style=""font-size:60px;"">+</div>",,html-keyboard-response,96,350024,0.0-13.0-0.6,22791,List2A,white,woman,,,,null,,,,,,,,,
null,"<img src=""stim_listA/kiss1.gif""style=""height:400px;""></stim_listA>",,html-keyboard-response,97,352030,0.0-13.0-1.6,22791,List2A,white,woman,,,,null,,,,,,,,,
null,is kissing,,html-keyboard-response,98,354031,0.0-13.0-2.6,22791,List2A,white,woman,,,,null,,,,,,,,,
6257.665,,,survey-text,99,360291,0.0-13.0-3.6,22791,List2A,white,woman,,,,,"{""Q0"":""luke is kissing ruth""}","<img src=""stim_listA/kiss1.gif""style=""height:400px;""></stim_listA>",is kissing,,,,,,
null,"<div style=""font-size:60px;"">+</div>",,html-keyboard-response,100,360794,0.0-13.0-0.7,22791,List2A,white,woman,,,,null,,,,,,,,,
null,"<img src=""stim_listA/touch1.gif""style=""height:400px;""></stim_listA>",,html-keyboard-response,101,362800,0.0-13.0-1.7,22791,List2A,white,woman,,,,null,,,,,,,,,
null,is touching,,html-keyboard-response,102,364801,0.0-13.0-2.7,22791,List2A,white,woman,,,,null,,,,,,,,,
4384.35,,,survey-text,103,369188,0.0-13.0-3.7,22791,List2A,white,woman,,,,,"{""Q0"":""dave is touching jane""}","<img src=""stim_listA/touch1.gif""style=""height:400px;""></stim_listA>",is touching,,,,,,
null,"<div style=""font-size:60px;"">+</div>",,html-keyboard-response,104,369690,0.0-13.0-0.8,22791,List2A,white,woman,,,,null,,,,,,,,,
null,"<img src=""stim_listA/touch3.gif""style=""height:400px;""></stim_listA>",,html-keyboard-response,105,371694,0.0-13.0-1.8,22791,List2A,white,woman,,,,null,,,,,,,,,
null,is touching,,html-keyboard-response,106,373695,0.0-13.0-2.8,22791,List2A,white,woman,,,,null,,,,,,,,,
4240.085,,,survey-text,107,377937,0.0-13.0-3.8,22791,List2A,white,woman,,,,,"{""Q0"":""mike is touching kate""}","<img src=""stim_listA/touch3.gif""style=""height:400px;""></stim_listA>",is touching,,,,,,
null,"<div style=""font-size:60px;"">+</div>",,html-keyboard-response,108,378438,0.0-13.0-0.9,22791,List2A,white,woman,,,,null,,,,,,,,,
null,"<img src=""stim_listA/shout8.gif""style=""height:400px;""></stim_listA>",,html-keyboard-response,109,380444,0.0-13.0-1.9,22791,List2A,white,woman,,,,null,,,,,,,,,
null,is being shouted at by,,html-keyboard-response,110,382448,0.0-13.0-2.9,22791,List2A,white,woman,,,,null,,,,,,,,,
7099.59,,,survey-text,111,389550,0.0-13.0-3.9,22791,List2A,white,woman,,,,,"{""Q0"":""kate is being shouted at by jane""}","<img src=""stim_listA/shout8.gif""style=""height:400px;""></stim_listA>",is being shouted at by,,,,,,
null,"<div style=""font-size:60px;"">+</div>",,html-keyboard-response,112,390052,0.0-13.0-0.10,22791,List2A,white,woman,,,,null,,,,,,,,,
null,"<img src=""stim_listA/look3.gif""style=""height:400px;""></stim_listA>",,html-keyboard-response,113,392057,0.0-13.0-1.10,22791,List2A,white,woman,,,,null,,,,,,,,,
null,is looking at,,html-keyboard-response,114,394058,0.0-13.0-2.10,22791,List2A,white,woman,,,,null,,,,,,,,,
4909.35,,,survey-text,115,398970,0.0-13.0-3.10,22791,List2A,white,woman,,,,,"{""Q0"":""fred is looking at beth""}","<img src=""stim_listA/look3.gif""style=""height:400px;""></stim_listA>",is looking at,,,,,,
null,"<div style=""font-size:60px;"">+</div>",,html-keyboard-response,116,399471,0.0-13.0-0.11,22791,List2A,white,woman,,,,null,,,,,,,,,
null,"<img src=""stim_listA/hug5.gif""style=""height:400px;""></stim_listA>",,html-keyboard-response,117,401476,0.0-13.0-1.11,22791,List2A,white,woman,,,,null,,,,,,,,,
null,is hugging,,html-keyboard-response,118,403477,0.0-13.0-2.11,22791,List2A,white,woman,,,,null,,,,,,,,,
4986.57,,,survey-text,119,408466,0.0-13.0-3.11,22791,List2A,white,woman,,,,,"{""Q0"":""luke is hugging fred""}","<img src=""stim_listA/hug5.gif""style=""height:400px;""></stim_listA>",is hugging,,,,,,
null,"<div style=""font-size:60px;"">+</div>",,html-keyboard-response,120,408967,0.0-13.0-0.12,22791,List2A,white,woman,,,,null,,,,,,,,,
null,"<img src=""stim_listA/shout1.gif""style=""height:400px;""></stim_listA>",,html-keyboard-response,121,410972,0.0-13.0-1.12,22791,List2A,white,woman,,,,null,,,,,,,,,
null,is shouting at,,html-keyboard-response,122,412974,0.0-13.0-2.12,22791,List2A,white,woman,,,,null,,,,,,,,,
5405.56,,,survey-text,123,418382,0.0-13.0-3.12,22791,List2A,white,woman,,,,,"{""Q0"":""luke is shouting at ruth""}","<img src=""stim_listA/shout1.gif""style=""height:400px;""></stim_listA>",is shouting at,,,,,,
null,"<div style=""font-size:60px;"">+</div>",,html-keyboard-response,124,418884,0.0-13.0-0.13,22791,List2A,white,woman,,,,null,,,,,,,,,
null,"<img src=""stim_listA/seduce8.gif""style=""height:400px;""></stim_listA>",,html-keyboard-response,125,420890,0.0-13.0-1.13,22791,List2A,white,woman,,,,null,,,,,,,,,
null,is being seduced by,,html-keyboard-response,126,422893,0.0-13.0-2.13,22791,List2A,white,woman,,,,null,,,,,,,,,
6456.36,,,survey-text,127,429352,0.0-13.0-3.13,22791,List2A,white,woman,,,,,"{""Q0"":""kate is being seduced by jane""}","<img src=""stim_listA/seduce8.gif""style=""height:400px;""></stim_listA>",is being seduced by,,,,,,
null,"<div style=""font-size:60px;"">+</div>",,html-keyboard-response,128,429853,0.0-13.0-0.14,22791,List2A,white,woman,,,,null,,,,,,,,,
null,"<img src=""stim_listA/seduce2.gif""style=""height:400px;""></stim_listA>",,html-keyboard-response,129,431860,0.0-13.0-1.14,22791,List2A,white,woman,,,,null,,,,,,,,,
null,is being seduced by,,html-keyboard-response,130,433861,0.0-13.0-2.14,22791,List2A,white,woman,,,,null,,,,,,,,,
7560.905,,,survey-text,131,441424,0.0-13.0-3.14,22791,List2A,white,woman,,,,,"{""Q0"":""ruth is being seduced by jane""}","<img src=""stim_listA/seduce2.gif""style=""height:400px;""></stim_listA>",is being seduced by,,,,,,
null,"<div style=""font-size:60px;"">+</div>",,html-keyboard-response,132,441925,0.0-13.0-0.15,22791,List2A,white,woman,,,,null,,,,,,,,,
null,"<img src=""stim_listA/oppose7.gif""style=""height:400px;""></stim_listA>",,html-keyboard-response,133,443930,0.0-13.0-1.15,22791,List2A,white,woman,,,,null,,,,,,,,,
null,is opposing,,html-keyboard-response,134,445934,0.0-13.0-2.15,22791,List2A,white,woman,,,,null,,,,,,,,,
4181.07,,,survey-text,135,450117,0.0-13.0-3.15,22791,List2A,white,woman,,,,,"{""Q0"":""jane is opposing kate""}","<img src=""stim_listA/oppose7.gif""style=""height:400px;""></stim_listA>",is opposing,,,,,,
null,"<div style=""font-size:60px;"">+</div>",,html-keyboard-response,136,450618,0.0-13.0-0.16,22791,List2A,white,woman,,,,null,,,,,,,,,
null,"<img src=""stim_listA/greet6.gif""style=""height:400px;""></stim_listA>",,html-keyboard-response,137,452624,0.0-13.0-1.16,22791,List2A,white,woman,,,,null,,,,,,,,,
null,is being greeted by,,html-keyboard-response,138,454625,0.0-13.0-2.16,22791,List2A,white,woman,,,,null,,,,,,,,,
6076.13,,,survey-text,139,460704,0.0-13.0-3.16,22791,List2A,white,woman,,,,,"{""Q0"":""mike is being greeted by luke""}","<img src=""stim_listA/greet6.gif""style=""height:400px;""></stim_listA>",is being greeted by,,,,,,
null,"<div style=""font-size:60px;"">+</div>",,html-keyboard-response,140,461206,0.0-13.0-0.17,22791,List2A,white,woman,,,,null,,,,,,,,,
null,"<img src=""stim_listA/copy4.gif""style=""height:400px;""></stim_listA>",,html-keyboard-response,141,463212,0.0-13.0-1.17,22791,List2A,white,woman,,,,null,,,,,,,,,
null,is being copied by,,html-keyboard-response,142,465213,0.0-13.0-2.17,22791,List2A,white,woman,,,,null,,,,,,,,,
6223.79,,,survey-text,143,471439,0.0-13.0-3.17,22791,List2A,white,woman,,,,,"{""Q0"":""fred is being copied by kate""}","<img src=""stim_listA/copy4.gif""style=""height:400px;""></stim_listA>",is being copied by,,,,,,
null,"<div style=""font-size:60px;"">+</div>",,html-keyboard-response,144,471941,0.0-13.0-0.18,22791,List2A,white,woman,,,,null,,,,,,,,,
null,"<img src=""stim_listA/touch5.gif""style=""height:400px;""></stim_listA>",,html-keyboard-response,145,473947,0.0-13.0-1.18,22791,List2A,white,woman,,,,null,,,,,,,,,
null,is touching,,html-keyboard-response,146,475951,0.0-13.0-2.18,22791,List2A,white,woman,,,,null,,,,,,,,,
7335.87,,,survey-text,147,483290,0.0-13.0-3.18,22791,List2A,white,woman,,,,,"{""Q0"":""dave is touching mike""}","<img src=""stim_listA/touch5.gif""style=""height:400px;""></stim_listA>",is touching,,,,,,
null,"<div style=""font-size:60px;"">+</div>",,html-keyboard-response,148,483792,0.0-13.0-0.19,22791,List2A,white,woman,,,,null,,,,,,,,,
null,"<img src=""stim_listA/challenge8.gif""style=""height:400px;""></stim_listA>",,html-keyboard-response,149,485798,0.0-13.0-1.19,22791,List2A,white,woman,,,,null,,,,,,,,,
null,is being challenged by,,html-keyboard-response,150,487803,0.0-13.0-2.19,22791,List2A,white,woman,,,,null,,,,,,,,,
12330.46,,,survey-text,151,500136,0.0-13.0-3.19,22791,List2A,white,woman,,,,,"{""Q0"":""ruth is being challenged by kate""}","<img src=""stim_listA/challenge8.gif""style=""height:400px;""></stim_listA>",is being challenged by,,,,,,
10654.69,"<img src='img/portrait_matrix_list2.jpg' style='width:900px;height:500px;''></img><p>If you have memorised all the portraits and names and are ready to start, press Continue.</p><p><strong>Please note: Your memory of these faces will be tested 4 times during this experiment.</strong></p>",0,html-button-response,152,510792,0.0-14.0-0.0,22791,List2A,white,woman,,,,,,,,,,,,,
1398.32,"<img src=""portrait/BM2.jpg""style=""height:400px;""></img>",5,html-button-response,153,513192,0.0-14.0-1.0,22791,List2A,white,woman,,TRUE,5,,,,,,,,,,
null,CORRECT,,html-keyboard-response,154,514698,0.0-14.0-2.0-0.0,22791,List2A,white,woman,,,,null,,,,,,,,,
2176.995,"<img src=""portrait/BW1.jpg""style=""height:400px;""></img>",0,html-button-response,155,516876,0.0-14.0-4.0,22791,List2A,white,woman,,TRUE,0,,,,,,,,,,
null,CORRECT,,html-keyboard-response,156,518379,0.0-14.0-5.0-0.0,22791,List2A,white,woman,,,,null,,,,,,,,,
1083.65,"<img src=""portrait/WW2.jpg""style=""height:400px;""></img>",3,html-button-response,157,519464,0.0-14.0-7.0,22791,List2A,white,woman,,TRUE,3,,,,,,,,,,
null,CORRECT,,html-keyboard-response,158,520971,0.0-14.0-8.0-0.0,22791,List2A,white,woman,,,,null,,,,,,,,,
1666.33,"<img src=""portrait/WM1.jpg""style=""height:400px;""></img>",6,html-button-response,159,522639,0.0-14.0-10.0,22791,List2A,white,woman,,TRUE,6,,,,,,,,,,
null,CORRECT,,html-keyboard-response,160,524146,0.0-14.0-11.0-0.0,22791,List2A,white,woman,,,,null,,,,,,,,,
1453.27,"<img src=""portrait/BW2.jpg""style=""height:400px;""></img>",2,html-button-response,161,525601,0.0-14.0-13.0,22791,List2A,white,woman,,TRUE,2,,,,,,,,,,
null,CORRECT,,html-keyboard-response,162,527108,0.0-14.0-14.0-0.0,22791,List2A,white,woman,,,,null,,,,,,,,,
1560.17,"<img src=""portrait/WW1.jpg""style=""height:400px;""></img>",1,html-button-response,163,528669,0.0-14.0-16.0,22791,List2A,white,woman,,TRUE,1,,,,,,,,,,
null,CORRECT,,html-keyboard-response,164,530177,0.0-14.0-17.0-0.0,22791,List2A,white,woman,,,,null,,,,,,,,,
1444.545,"<img src=""portrait/WM2.jpg""style=""height:400px;""></img>",7,html-button-response,165,531623,0.0-14.0-19.0,22791,List2A,white,woman,,TRUE,7,,,,,,,,,,
null,CORRECT,,html-keyboard-response,166,533128,0.0-14.0-20.0-0.0,22791,List2A,white,woman,,,,null,,,,,,,,,
1533.54,"<img src=""portrait/BM1.jpg""style=""height:400px;""></img>",4,html-button-response,167,534663,0.0-14.0-22.0,22791,List2A,white,woman,,TRUE,4,,,,,,,,,,
null,CORRECT,,html-keyboard-response,168,536169,0.0-14.0-23.0-0.0,22791,List2A,white,woman,,,,null,,,,,,,,,
1291.14,<p>You got 8 out of 8 right first time. Press Continue.</p>,0,html-button-response,169,537461,0.0-14.0-25.0,22791,List2A,white,woman,,,,,,,,,,,,,
null,"<div style=""font-size:60px;"">+</div>",,html-keyboard-response,170,538964,0.0-15.0-0.0,22791,List2A,white,woman,,,,null,,,,,,,,,
null,"<img src=""stim_listA/hug3.gif""style=""height:400px;""></stim_listA>",,html-keyboard-response,171,540967,0.0-15.0-1.0,22791,List2A,white,woman,,,,null,,,,,,,,,
null,is hugging,,html-keyboard-response,172,542969,0.0-15.0-2.0,22791,List2A,white,woman,,,,null,,,,,,,,,
4077.865,,,survey-text,173,547049,0.0-15.0-3.0,22791,List2A,white,woman,,,,,"{""Q0"":""fred is hugging beth""}","<img src=""stim_listA/hug3.gif""style=""height:400px;""></stim_listA>",is hugging,,,,,,
null,"<div style=""font-size:60px;"">+</div>",,html-keyboard-response,174,547550,0.0-15.0-0.1,22791,List2A,white,woman,,,,null,,,,,,,,,
null,"<img src=""stim_listA/kiss7.gif""style=""height:400px;""></stim_listA>",,html-keyboard-response,175,549551,0.0-15.0-1.1,22791,List2A,white,woman,,,,null,,,,,,,,,
null,is kissing,,html-keyboard-response,176,551552,0.0-15.0-2.1,22791,List2A,white,woman,,,,null,,,,,,,,,
4490.33,,,survey-text,177,556045,0.0-15.0-3.1,22791,List2A,white,woman,,,,,"{""Q0"":""ruth is kissing beth""}","<img src=""stim_listA/kiss7.gif""style=""height:400px;""></stim_listA>",is kissing,,,,,,
null,"<div style=""font-size:60px;"">+</div>",,html-keyboard-response,178,556548,0.0-15.0-0.2,22791,List2A,white,woman,,,,null,,,,,,,,,
null,"<img src=""stim_listA/shout6.gif""style=""height:400px;""></stim_listA>",,html-keyboard-response,179,558554,0.0-15.0-1.2,22791,List2A,white,woman,,,,null,,,,,,,,,
null,is being shouted at by,,html-keyboard-response,180,560555,0.0-15.0-2.2,22791,List2A,white,woman,,,,null,,,,,,,,,
8389.405,,,survey-text,181,568947,0.0-15.0-3.2,22791,List2A,white,woman,,,,,"{""Q0"":""mike is being shouted at by dave""}","<img src=""stim_listA/shout6.gif""style=""height:400px;""></stim_listA>",is being shouted at by,,,,,,
null,"<div style=""font-size:60px;"">+</div>",,html-keyboard-response,182,569448,0.0-15.0-0.3,22791,List2A,white,woman,,,,null,,,,,,,,,
null,"<img src=""stim_listA/hug4.gif""style=""height:400px;""></stim_listA>",,html-keyboard-response,183,571453,0.0-15.0-1.3,22791,List2A,white,woman,,,,null,,,,,,,,,
null,is being hugged by,,html-keyboard-response,184,573454,0.0-15.0-2.3,22791,List2A,white,woman,,,,null,,,,,,,,,
7323.755,,,survey-text,185,580780,0.0-15.0-3.3,22791,List2A,white,woman,,,,,"{""Q0"":""mike is being hugged by kate""}","<img src=""stim_listA/hug4.gif""style=""height:400px;""></stim_listA>",is being hugged by,,,,,,
null,"<div style=""font-size:60px;"">+</div>",,html-keyboard-response,186,581281,0.0-15.0-0.4,22791,List2A,white,woman,,,,null,,,,,,,,,
null,"<img src=""stim_listA/seduce4.gif""style=""height:400px;""></stim_listA>",,html-keyboard-response,187,583287,0.0-15.0-1.4,22791,List2A,white,woman,,,,null,,,,,,,,,
null,is being seduced by,,html-keyboard-response,188,585289,0.0-15.0-2.4,22791,List2A,white,woman,,,,null,,,,,,,,,
8840.02,,,survey-text,189,594132,0.0-15.0-3.4,22791,List2A,white,woman,,,,,"{""Q0"":""beth is being seduced by mike""}","<img src=""stim_listA/seduce4.gif""style=""height:400px;""></stim_listA>",is being seduced by,,,,,,
null,"<div style=""font-size:60px;"">+</div>",,html-keyboard-response,190,594634,0.0-15.0-0.5,22791,List2A,white,woman,,,,null,,,,,,,,,
null,"<img src=""stim_listA/touch2.gif""style=""height:400px;""></stim_listA>",,html-keyboard-response,191,596639,0.0-15.0-1.5,22791,List2A,white,woman,,,,null,,,,,,,,,
null,is being touched by,,html-keyboard-response,192,598640,0.0-15.0-2.5,22791,List2A,white,woman,,,,null,,,,,,,,,
8057.98,,,survey-text,193,606700,0.0-15.0-3.5,22791,List2A,white,woman,,,,,"{""Q0"":""ruth is being touched by luke""}","<img src=""stim_listA/touch2.gif""style=""height:400px;""></stim_listA>",is being touched by,,,,,,
null,"<div style=""font-size:60px;"">+</div>",,html-keyboard-response,194,607202,0.0-15.0-0.6,22791,List2A,white,woman,,,,null,,,,,,,,,
null,"<img src=""stim_listA/oppose6.gif""style=""height:400px;""></stim_listA>",,html-keyboard-response,195,609207,0.0-15.0-1.6,22791,List2A,white,woman,,,,null,,,,,,,,,
null,is being opposed by,,html-keyboard-response,196,611210,0.0-15.0-2.6,22791,List2A,white,woman,,,,null,,,,,,,,,
6896.405,,,survey-text,197,618108,0.0-15.0-3.6,22791,List2A,white,woman,,,,,"{""Q0"":""fred is being opposed by luke""}","<img src=""stim_listA/oppose6.gif""style=""height:400px;""></stim_listA>",is being opposed by,,,,,,
null,"<div style=""font-size:60px;"">+</div>",,html-keyboard-response,198,618610,0.0-15.0-0.7,22791,List2A,white,woman,,,,null,,,,,,,,,
null,"<img src=""stim_listA/greet2.gif""style=""height:400px;""></stim_listA>",,html-keyboard-response,199,620617,0.0-15.0-1.7,22791,List2A,white,woman,,,,null,,,,,,,,,
null,is being greeted by,,html-keyboard-response,200,622619,0.0-15.0-2.7,22791,List2A,white,woman,,,,null,,,,,,,,,
6186.855,,,survey-text,201,628808,0.0-15.0-3.7,22791,List2A,white,woman,,,,,"{""Q0"":""jane is being greeted by luke""}","<img src=""stim_listA/greet2.gif""style=""height:400px;""></stim_listA>",is being greeted by,,,,,,
null,"<div style=""font-size:60px;"">+</div>",,html-keyboard-response,202,629310,0.0-15.0-0.8,22791,List2A,white,woman,,,,null,,,,,,,,,
null,"<img src=""stim_listA/shout7.gif""style=""height:400px;""></stim_listA>",,html-keyboard-response,203,631316,0.0-15.0-1.8,22791,List2A,white,woman,,,,null,,,,,,,,,
null,is shouting at,,html-keyboard-response,204,633318,0.0-15.0-2.8,22791,List2A,white,woman,,,,null,,,,,,,,,
5304.255,,,survey-text,205,638625,0.0-15.0-3.8,22791,List2A,white,woman,,,,,"{""Q0"":""ruth is shouting at beth""}","<img src=""stim_listA/shout7.gif""style=""height:400px;""></stim_listA>",is shouting at,,,,,,
null,"<div style=""font-size:60px;"">+</div>",,html-keyboard-response,206,639127,0.0-15.0-0.9,22791,List2A,white,woman,,,,null,,,,,,,,,
null,"<img src=""stim_listA/challenge7.gif""style=""height:400px;""></stim_listA>",,html-keyboard-response,207,641133,0.0-15.0-1.9,22791,List2A,white,woman,,,,null,,,,,,,,,
null,is challenging,,html-keyboard-response,208,643136,0.0-15.0-2.9,22791,List2A,white,woman,,,,null,,,,,,,,,
8957.275,,,survey-text,209,652096,0.0-15.0-3.9,22791,List2A,white,woman,,,,,"{""Q0"":""beth is challenging jane""}","<img src=""stim_listA/challenge7.gif""style=""height:400px;""></stim_listA>",is challenging,,,,,,
null,"<div style=""font-size:60px;"">+</div>",,html-keyboard-response,210,652599,0.0-15.0-0.10,22791,List2A,white,woman,,,,null,,,,,,,,,
null,"<img src=""stim_listA/seduce5.gif""style=""height:400px;""></stim_listA>",,html-keyboard-response,211,654605,0.0-15.0-1.10,22791,List2A,white,woman,,,,null,,,,,,,,,
null,is seducing,,html-keyboard-response,212,656607,0.0-15.0-2.10,22791,List2A,white,woman,,,,null,,,,,,,,,
4559.785,,,survey-text,213,661169,0.0-15.0-3.10,22791,List2A,white,woman,,,,,"{""Q0"":""luke is seducing mike""}","<img src=""stim_listA/seduce5.gif""style=""height:400px;""></stim_listA>",is seducing,,,,,,
null,"<div style=""font-size:60px;"">+</div>",,html-keyboard-response,214,661671,0.0-15.0-0.11,22791,List2A,white,woman,,,,null,,,,,,,,,
null,"<img src=""stim_listA/challenge6.gif""style=""height:400px;""></stim_listA>",,html-keyboard-response,215,663674,0.0-15.0-1.11,22791,List2A,white,woman,,,,null,,,,,,,,,
null,is being challenged by,,html-keyboard-response,216,665680,0.0-15.0-2.11,22791,List2A,white,woman,,,,null,,,,,,,,,
5961.72,,,survey-text,217,671644,0.0-15.0-3.11,22791,List2A,white,woman,,,,,"{""Q0"":""mike is being challenged by luke""}","<img src=""stim_listA/challenge6.gif""style=""height:400px;""></stim_listA>",is being challenged by,,,,,,
null,"<div style=""font-size:60px;"">+</div>",,html-keyboard-response,218,672145,0.0-15.0-0.12,22791,List2A,white,woman,,,,null,,,,,,,,,
null,"<img src=""stim_listA/touch8.gif""style=""height:400px;""></stim_listA>",,html-keyboard-response,219,674149,0.0-15.0-1.12,22791,List2A,white,woman,,,,null,,,,,,,,,
null,is being touched by,,html-keyboard-response,220,676150,0.0-15.0-2.12,22791,List2A,white,woman,,,,null,,,,,,,,,
5385.775,,,survey-text,221,681538,0.0-15.0-3.12,22791,List2A,white,woman,,,,,"{""Q0"":""beth is being touched by ruth""}","<img src=""stim_listA/touch8.gif""style=""height:400px;""></stim_listA>",is being touched by,,,,,,
null,"<div style=""font-size:60px;"">+</div>",,html-keyboard-response,222,682040,0.0-15.0-0.13,22791,List2A,white,woman,,,,null,,,,,,,,,
null,"<img src=""stim_listA/greet1.gif""style=""height:400px;""></stim_listA>",,html-keyboard-response,223,684046,0.0-15.0-1.13,22791,List2A,white,woman,,,,null,,,,,,,,,
null,is greeting,,html-keyboard-response,224,686052,0.0-15.0-2.13,22791,List2A,white,woman,,,,null,,,,,,,,,
6201.735,,,survey-text,225,692256,0.0-15.0-3.13,22791,List2A,white,woman,,,,,"{""Q0"":""dave is greeting ruth""}","<img src=""stim_listA/greet1.gif""style=""height:400px;""></stim_listA>",is greeting,,,,,,
null,"<div style=""font-size:60px;"">+</div>",,html-keyboard-response,226,692758,0.0-15.0-0.14,22791,List2A,white,woman,,,,null,,,,,,,,,
null,"<img src=""stim_listA/hug6.gif""style=""height:400px;""></stim_listA>",,html-keyboard-response,227,694759,0.0-15.0-1.14,22791,List2A,white,woman,,,,null,,,,,,,,,
null,is being hugged by,,html-keyboard-response,228,696761,0.0-15.0-2.14,22791,List2A,white,woman,,,,null,,,,,,,,,
6543.105,,,survey-text,229,703307,0.0-15.0-3.14,22791,List2A,white,woman,,,,,"{""Q0"":""mike is being hugged by dave""}","<img src=""stim_listA/hug6.gif""style=""height:400px;""></stim_listA>",is being hugged by,,,,,,
null,"<div style=""font-size:60px;"">+</div>",,html-keyboard-response,230,703808,0.0-15.0-0.15,22791,List2A,white,woman,,,,null,,,,,,,,,
null,"<img src=""stim_listA/greet3.gif""style=""height:400px;""></stim_listA>",,html-keyboard-response,231,705812,0.0-15.0-1.15,22791,List2A,white,woman,,,,null,,,,,,,,,
null,is greeting,,html-keyboard-response,232,707818,0.0-15.0-2.15,22791,List2A,white,woman,,,,null,,,,,,,,,
5778.66,,,survey-text,233,713599,0.0-15.0-3.15,22791,List2A,white,woman,,,,,"{""Q0"":""mike is greeting beth""}","<img src=""stim_listA/greet3.gif""style=""height:400px;""></stim_listA>",is greeting,,,,,,
null,"<div style=""font-size:60px;"">+</div>",,html-keyboard-response,234,714100,0.0-15.0-0.16,22791,List2A,white,woman,,,,null,,,,,,,,,
null,"<img src=""stim_listA/greet4.gif""style=""height:400px;""></stim_listA>",,html-keyboard-response,235,716103,0.0-15.0-1.16,22791,List2A,white,woman,,,,null,,,,,,,,,
null,is being greeted by,,html-keyboard-response,236,718107,0.0-15.0-2.16,22791,List2A,white,woman,,,,null,,,,,,,,,
6938.27,,,survey-text,237,725048,0.0-15.0-3.16,22791,List2A,white,woman,,,,,"{""Q0"":""kate is being greeted by fred""}","<img src=""stim_listA/greet4.gif""style=""height:400px;""></stim_listA>",is being greeted by,,,,,,
null,"<div style=""font-size:60px;"">+</div>",,html-keyboard-response,238,725551,0.0-15.0-0.17,22791,List2A,white,woman,,,,null,,,,,,,,,
null,"<img src=""stim_listA/copy2.gif""style=""height:400px;""></stim_listA>",,html-keyboard-response,239,727557,0.0-15.0-1.17,22791,List2A,white,woman,,,,null,,,,,,,,,
null,is being copied by,,html-keyboard-response,240,729562,0.0-15.0-2.17,22791,List2A,white,woman,,,,null,,,,,,,,,
8511.2,,,survey-text,241,738076,0.0-15.0-3.17,22791,List2A,white,woman,,,,,"{""Q0"":""jane is being copied by luke""}","<img src=""stim_listA/copy2.gif""style=""height:400px;""></stim_listA>",is being copied by,,,,,,
null,"<div style=""font-size:60px;"">+</div>",,html-keyboard-response,242,738577,0.0-15.0-0.18,22791,List2A,white,woman,,,,null,,,,,,,,,
null,"<img src=""stim_listA/kiss6.gif""style=""height:400px;""></stim_listA>",,html-keyboard-response,243,740579,0.0-15.0-1.18,22791,List2A,white,woman,,,,null,,,,,,,,,
null,is being kissed by,,html-keyboard-response,244,742580,0.0-15.0-2.18,22791,List2A,white,woman,,,,null,,,,,,,,,
6202.83,,,survey-text,245,748786,0.0-15.0-3.18,22791,List2A,white,woman,,,,,"{""Q0"":""mike is being kissed by dave""}","<img src=""stim_listA/kiss6.gif""style=""height:400px;""></stim_listA>",is being kissed by,,,,,,
null,"<div style=""font-size:60px;"">+</div>",,html-keyboard-response,246,749287,0.0-15.0-0.19,22791,List2A,white,woman,,,,null,,,,,,,,,
null,"<img src=""stim_listA/look4.gif""style=""height:400px;""></stim_listA>",,html-keyboard-response,247,751294,0.0-15.0-1.19,22791,List2A,white,woman,,,,null,,,,,,,,,
null,is being looked at by,,html-keyboard-response,248,753296,0.0-15.0-2.19,22791,List2A,white,woman,,,,null,,,,,,,,,
6217.49,,,survey-text,249,759516,0.0-15.0-3.19,22791,List2A,white,woman,,,,,"{""Q0"":""kate is being looked at by mike""}","<img src=""stim_listA/look4.gif""style=""height:400px;""></stim_listA>",is being looked at by,,,,,,
2875.66,"<img src='img/portrait_matrix_list2.jpg' style='width:900px;height:500px;''></img><p>If you have memorised all the portraits and names and are ready to start, press Continue.</p><p><strong>Please note: Your memory of these faces will be tested 4 times during this experiment.</strong></p>",0,html-button-response,250,762393,0.0-16.0-0.0,22791,List2A,white,woman,,,,,,,,,,,,,
1396.36,"<img src=""portrait/BW2.jpg""style=""height:400px;""></img>",2,html-button-response,251,764793,0.0-16.0-1.0,22791,List2A,white,woman,,TRUE,2,,,,,,,,,,
null,CORRECT,,html-keyboard-response,252,766296,0.0-16.0-2.0-0.0,22791,List2A,white,woman,,,,null,,,,,,,,,
1523.915,"<img src=""portrait/WM2.jpg""style=""height:400px;""></img>",7,html-button-response,253,767821,0.0-16.0-4.0,22791,List2A,white,woman,,TRUE,7,,,,,,,,,,
null,CORRECT,,html-keyboard-response,254,769328,0.0-16.0-5.0-0.0,22791,List2A,white,woman,,,,null,,,,,,,,,
1973.445,"<img src=""portrait/WM1.jpg""style=""height:400px;""></img>",6,html-button-response,255,771303,0.0-16.0-7.0,22791,List2A,white,woman,,TRUE,6,,,,,,,,,,
null,CORRECT,,html-keyboard-response,256,772809,0.0-16.0-8.0-0.0,22791,List2A,white,woman,,,,null,,,,,,,,,
1452.575,"<img src=""portrait/WW1.jpg""style=""height:400px;""></img>",1,html-button-response,257,774263,0.0-16.0-10.0,22791,List2A,white,woman,,TRUE,1,,,,,,,,,,
null,CORRECT,,html-keyboard-response,258,775771,0.0-16.0-11.0-0.0,22791,List2A,white,woman,,,,null,,,,,,,,,
1436.245,"<img src=""portrait/BM1.jpg""style=""height:400px;""></img>",4,html-button-response,259,777209,0.0-16.0-13.0,22791,List2A,white,woman,,TRUE,4,,,,,,,,,,
null,CORRECT,,html-keyboard-response,260,778715,0.0-16.0-14.0-0.0,22791,List2A,white,woman,,,,null,,,,,,,,,
2226.7,"<img src=""portrait/BW1.jpg""style=""height:400px;""></img>",0,html-button-response,261,780943,0.0-16.0-16.0,22791,List2A,white,woman,,TRUE,0,,,,,,,,,,
null,CORRECT,,html-keyboard-response,262,782448,0.0-16.0-17.0-0.0,22791,List2A,white,woman,,,,null,,,,,,,,,
1611.825,"<img src=""portrait/BM2.jpg""style=""height:400px;""></img>",5,html-button-response,263,784061,0.0-16.0-19.0,22791,List2A,white,woman,,TRUE,5,,,,,,,,,,
null,CORRECT,,html-keyboard-response,264,785564,0.0-16.0-20.0-0.0,22791,List2A,white,woman,,,,null,,,,,,,,,
1260.265,"<img src=""portrait/WW2.jpg""style=""height:400px;""></img>",3,html-button-response,265,786826,0.0-16.0-22.0,22791,List2A,white,woman,,TRUE,3,,,,,,,,,,
null,CORRECT,,html-keyboard-response,266,788333,0.0-16.0-23.0-0.0,22791,List2A,white,woman,,,,null,,,,,,,,,
1141.57,<p>You got 8 out of 8 right first time. Press Continue.</p>,0,html-button-response,267,789475,0.0-16.0-25.0,22791,List2A,white,woman,,,,,,,,,,,,,
null,"<div style=""font-size:60px;"">+</div>",,html-keyboard-response,268,790977,0.0-17.0-0.0,22791,List2A,white,woman,,,,null,,,,,,,,,
null,"<img src=""stim_listA/greet8.gif""style=""height:400px;""></stim_listA>",,html-keyboard-response,269,792979,0.0-17.0-1.0,22791,List2A,white,woman,,,,null,,,,,,,,,
null,is being greeted by,,html-keyboard-response,270,794980,0.0-17.0-2.0,22791,List2A,white,woman,,,,null,,,,,,,,,
6459.96,,,survey-text,271,801442,0.0-17.0-3.0,22791,List2A,white,woman,,,,,"{""Q0"":""kate is being greeted by ruth""}","<img src=""stim_listA/greet8.gif""style=""height:400px;""></stim_listA>",is being greeted by,,,,,,
null,"<div style=""font-size:60px;"">+</div>",,html-keyboard-response,272,801945,0.0-17.0-0.1,22791,List2A,white,woman,,,,null,,,,,,,,,
null,"<img src=""stim_listA/hug8.gif""style=""height:400px;""></stim_listA>",,html-keyboard-response,273,803952,0.0-17.0-1.1,22791,List2A,white,woman,,,,null,,,,,,,,,
null,is being hugged by,,html-keyboard-response,274,805952,0.0-17.0-2.1,22791,List2A,white,woman,,,,null,,,,,,,,,
5706.71,,,survey-text,275,811661,0.0-17.0-3.1,22791,List2A,white,woman,,,,,"{""Q0"":""kate is being hugged by jane""}","<img src=""stim_listA/hug8.gif""style=""height:400px;""></stim_listA>",is being hugged by,,,,,,
null,"<div style=""font-size:60px;"">+</div>",,html-keyboard-response,276,812164,0.0-17.0-0.2,22791,List2A,white,woman,,,,null,,,,,,,,,
null,"<img src=""stim_listA/oppose3.gif""style=""height:400px;""></stim_listA>",,html-keyboard-response,277,814165,0.0-17.0-1.2,22791,List2A,white,woman,,,,null,,,,,,,,,
null,is opposing,,html-keyboard-response,278,816167,0.0-17.0-2.2,22791,List2A,white,woman,,,,null,,,,,,,,,
4717.21,,,survey-text,279,820887,0.0-17.0-3.2,22791,List2A,white,woman,,,,,"{""Q0"":""mike is opposing kate""}","<img src=""stim_listA/oppose3.gif""style=""height:400px;""></stim_listA>",is opposing,,,,,,
null,"<div style=""font-size:60px;"">+</div>",,html-keyboard-response,280,821389,0.0-17.0-0.3,22791,List2A,white,woman,,,,null,,,,,,,,,
null,"<img src=""stim_listA/hug2.gif""style=""height:400px;""></stim_listA>",,html-keyboard-response,281,823391,0.0-17.0-1.3,22791,List2A,white,woman,,,,null,,,,,,,,,
null,is being hugged by,,html-keyboard-response,282,825392,0.0-17.0-2.3,22791,List2A,white,woman,,,,null,,,,,,,,,
5172.915,,,survey-text,283,830567,0.0-17.0-3.3,22791,List2A,white,woman,,,,,"{""Q0"":""jane is being hugged by dave""}","<img src=""stim_listA/hug2.gif""style=""height:400px;""></stim_listA>",is being hugged by,,,,,,
null,"<div style=""font-size:60px;"">+</div>",,html-keyboard-response,284,831069,0.0-17.0-0.4,22791,List2A,white,woman,,,,null,,,,,,,,,
null,"<img src=""stim_listA/look6.gif""style=""height:400px;""></stim_listA>",,html-keyboard-response,285,833076,0.0-17.0-1.4,22791,List2A,white,woman,,,,null,,,,,,,,,
null,is being looked at by,,html-keyboard-response,286,835077,0.0-17.0-2.4,22791,List2A,white,woman,,,,null,,,,,,,,,
6254.2,,,survey-text,287,841334,0.0-17.0-3.4,22791,List2A,white,woman,,,,,"{""Q0"":""mike is being looked at by dave""}","<img src=""stim_listA/look6.gif""style=""height:400px;""></stim_listA>",is being looked at by,,,,,,
null,"<div style=""font-size:60px;"">+</div>",,html-keyboard-response,288,841836,0.0-17.0-0.5,22791,List2A,white,woman,,,,null,,,,,,,,,
null,"<img src=""stim_listA/kiss4.gif""style=""height:400px;""></stim_listA>",,html-keyboard-response,289,843839,0.0-17.0-1.5,22791,List2A,white,woman,,,,null,,,,,,,,,
null,is being kissed by,,html-keyboard-response,290,845842,0.0-17.0-2.5,22791,List2A,white,woman,,,,null,,,,,,,,,
6232.72,,,survey-text,291,852077,0.0-17.0-3.5,22791,List2A,white,woman,,,,,"{""Q0"":""kate is being kissed by mike""}","<img src=""stim_listA/kiss4.gif""style=""height:400px;""></stim_listA>",is being kissed by,,,,,,
null,"<div style=""font-size:60px;"">+</div>",,html-keyboard-response,292,852578,0.0-17.0-0.6,22791,List2A,white,woman,,,,null,,,,,,,,,
null,"<img src=""stim_listA/shout3.gif""style=""height:400px;""></stim_listA>",,html-keyboard-response,293,854585,0.0-17.0-1.6,22791,List2A,white,woman,,,,null,,,,,,,,,
null,is shouting at,,html-keyboard-response,294,856586,0.0-17.0-2.6,22791,List2A,white,woman,,,,null,,,,,,,,,
4962.27,,,survey-text,295,861551,0.0-17.0-3.6,22791,List2A,white,woman,,,,,"{""Q0"":""fred is shouting at beth""}","<img src=""stim_listA/shout3.gif""style=""height:400px;""></stim_listA>",is shouting at,,,,,,
null,"<div style=""font-size:60px;"">+</div>",,html-keyboard-response,296,862053,0.0-17.0-0.7,22791,List2A,white,woman,,,,null,,,,,,,,,
null,"<img src=""stim_listA/oppose4.gif""style=""height:400px;""></stim_listA>",,html-keyboard-response,297,864058,0.0-17.0-1.7,22791,List2A,white,woman,,,,null,,,,,,,,,
null,is being opposed by,,html-keyboard-response,298,866060,0.0-17.0-2.7,22791,List2A,white,woman,,,,null,,,,,,,,,
5376.115,,,survey-text,299,871438,0.0-17.0-3.7,22791,List2A,white,woman,,,,,"{""Q0"":""beth is being opposed by fred""}","<img src=""stim_listA/oppose4.gif""style=""height:400px;""></stim_listA>",is being opposed by,,,,,,
null,"<div style=""font-size:60px;"">+</div>",,html-keyboard-response,300,871940,0.0-17.0-0.8,22791,List2A,white,woman,,,,null,,,,,,,,,
null,"<img src=""stim_listA/challenge3.gif""style=""height:400px;""></stim_listA>",,html-keyboard-response,301,873942,0.0-17.0-1.8,22791,List2A,white,woman,,,,null,,,,,,,,,
null,is challenging,,html-keyboard-response,302,875943,0.0-17.0-2.8,22791,List2A,white,woman,,,,null,,,,,,,,,
4223.395,,,survey-text,303,880168,0.0-17.0-3.8,22791,List2A,white,woman,,,,,"{""Q0"":""mike is challenging beth""}","<img src=""stim_listA/challenge3.gif""style=""height:400px;""></stim_listA>",is challenging,,,,,,
null,"<div style=""font-size:60px;"">+</div>",,html-keyboard-response,304,880670,0.0-17.0-0.9,22791,List2A,white,woman,,,,null,,,,,,,,,
null,"<img src=""stim_listA/challenge4.gif""style=""height:400px;""></stim_listA>",,html-keyboard-response,305,882677,0.0-17.0-1.9,22791,List2A,white,woman,,,,null,,,,,,,,,
null,is being challenged by,,html-keyboard-response,306,884677,0.0-17.0-2.9,22791,List2A,white,woman,,,,null,,,,,,,,,
8649.175,,,survey-text,307,893329,0.0-17.0-3.9,22791,List2A,white,woman,,,,,"{""Q0"":""kate is being challenged by fred""}","<img src=""stim_listA/challenge4.gif""style=""height:400px;""></stim_listA>",is being challenged by,,,,,,
null,"<div style=""font-size:60px;"">+</div>",,html-keyboard-response,308,893831,0.0-17.0-0.10,22791,List2A,white,woman,,,,null,,,,,,,,,
null,"<img src=""stim_listA/hug1.gif""style=""height:400px;""></stim_listA>",,html-keyboard-response,309,895837,0.0-17.0-1.10,22791,List2A,white,woman,,,,null,,,,,,,,,
null,is hugging,,html-keyboard-response,310,897838,0.0-17.0-2.10,22791,List2A,white,woman,,,,null,,,,,,,,,
4310.89,,,survey-text,311,902151,0.0-17.0-3.10,22791,List2A,white,woman,,,,,"{""Q0"":""luke is hugging ruth""}","<img src=""stim_listA/hug1.gif""style=""height:400px;""></stim_listA>",is hugging,,,,,,
null,"<div style=""font-size:60px;"">+</div>",,html-keyboard-response,312,902654,0.0-17.0-0.11,22791,List2A,white,woman,,,,null,,,,,,,,,
null,"<img src=""stim_listA/challenge2.gif""style=""height:400px;""></stim_listA>",,html-keyboard-response,313,904657,0.0-17.0-1.11,22791,List2A,white,woman,,,,null,,,,,,,,,
null,is being challenged by,,html-keyboard-response,314,906663,0.0-17.0-2.11,22791,List2A,white,woman,,,,null,,,,,,,,,
5976.335,,,survey-text,315,912641,0.0-17.0-3.11,22791,List2A,white,woman,,,,,"{""Q0"":""jane is being challenged by ruth""}","<img src=""stim_listA/challenge2.gif""style=""height:400px;""></stim_listA>",is being challenged by,,,,,,
null,"<div style=""font-size:60px;"">+</div>",,html-keyboard-response,316,913142,0.0-17.0-0.12,22791,List2A,white,woman,,,,null,,,,,,,,,
null,"<img src=""stim_listA/copy8.gif""style=""height:400px;""></stim_listA>",,html-keyboard-response,317,915145,0.0-17.0-1.12,22791,List2A,white,woman,,,,null,,,,,,,,,
null,is being copied by,,html-keyboard-response,318,917147,0.0-17.0-2.12,22791,List2A,white,woman,,,,null,,,,,,,,,
5543.8,,,survey-text,319,922693,0.0-17.0-3.12,22791,List2A,white,woman,,,,,"{""Q0"":""kate is being copied by ruth""}","<img src=""stim_listA/copy8.gif""style=""height:400px;""></stim_listA>",is being copied by,,,,,,
null,"<div style=""font-size:60px;"">+</div>",,html-keyboard-response,320,923194,0.0-17.0-0.13,22791,List2A,white,woman,,,,null,,,,,,,,,
null,"<img src=""stim_listA/touch6.gif""style=""height:400px;""></stim_listA>",,html-keyboard-response,321,925200,0.0-17.0-1.13,22791,List2A,white,woman,,,,null,,,,,,,,,
null,is being touched by,,html-keyboard-response,322,927202,0.0-17.0-2.13,22791,List2A,white,woman,,,,null,,,,,,,,,
5796.495,,,survey-text,323,933000,0.0-17.0-3.13,22791,List2A,white,woman,,,,,"{""Q0"":""fred is being touched by luke""}","<img src=""stim_listA/touch6.gif""style=""height:400px;""></stim_listA>",is being touched by,,,,,,
null,"<div style=""font-size:60px;"">+</div>",,html-keyboard-response,324,933502,0.0-17.0-0.14,22791,List2A,white,woman,,,,null,,,,,,,,,
null,"<img src=""stim_listA/copy3.gif""style=""height:400px;""></stim_listA>",,html-keyboard-response,325,935508,0.0-17.0-1.14,22791,List2A,white,woman,,,,null,,,,,,,,,
null,is copying,,html-keyboard-response,326,937512,0.0-17.0-2.14,22791,List2A,white,woman,,,,null,,,,,,,,,
7072.06,,,survey-text,327,944587,0.0-17.0-3.14,22791,List2A,white,woman,,,,,"{""Q0"":""mike is copying beth""}","<img src=""stim_listA/copy3.gif""style=""height:400px;""></stim_listA>",is copying,,,,,,
null,"<div style=""font-size:60px;"">+</div>",,html-keyboard-response,328,945088,0.0-17.0-0.15,22791,List2A,white,woman,,,,null,,,,,,,,,
null,"<img src=""stim_listA/shout5.gif""style=""height:400px;""></stim_listA>",,html-keyboard-response,329,947094,0.0-17.0-1.15,22791,List2A,white,woman,,,,null,,,,,,,,,
null,is shouting at,,html-keyboard-response,330,949099,0.0-17.0-2.15,22791,List2A,white,woman,,,,null,,,,,,,,,
4056.605,,,survey-text,331,953158,0.0-17.0-3.15,22791,List2A,white,woman,,,,,"{""Q0"":""fred is shouting at luke""}","<img src=""stim_listA/shout5.gif""style=""height:400px;""></stim_listA>",is shouting at,,,,,,
null,"<div style=""font-size:60px;"">+</div>",,html-keyboard-response,332,953660,0.0-17.0-0.16,22791,List2A,white,woman,,,,null,,,,,,,,,
null,"<img src=""stim_listA/oppose2.gif""style=""height:400px;""></stim_listA>",,html-keyboard-response,333,955666,0.0-17.0-1.16,22791,List2A,white,woman,,,,null,,,,,,,,,
null,is being opposed by,,html-keyboard-response,334,957667,0.0-17.0-2.16,22791,List2A,white,woman,,,,null,,,,,,,,,
8763.36,,,survey-text,335,966433,0.0-17.0-3.16,22791,List2A,white,woman,,,,,"{""Q0"":""ruth is being opposed by luke""}","<img src=""stim_listA/oppose2.gif""style=""height:400px;""></stim_listA>",is being opposed by,,,,,,
null,"<div style=""font-size:60px;"">+</div>",,html-keyboard-response,336,966935,0.0-17.0-0.17,22791,List2A,white,woman,,,,null,,,,,,,,,
null,"<img src=""stim_listA/copy5.gif""style=""height:400px;""></stim_listA>",,html-keyboard-response,337,968941,0.0-17.0-1.17,22791,List2A,white,woman,,,,null,,,,,,,,,
null,is copying,,html-keyboard-response,338,970946,0.0-17.0-2.17,22791,List2A,white,woman,,,,null,,,,,,,,,
4840.42,,,survey-text,339,975789,0.0-17.0-3.17,22791,List2A,white,woman,,,,,"{""Q0"":""dave is copying fred""}","<img src=""stim_listA/copy5.gif""style=""height:400px;""></stim_listA>",is copying,,,,,,
null,"<div style=""font-size:60px;"">+</div>",,html-keyboard-response,340,976290,0.0-17.0-0.18,22791,List2A,white,woman,,,,null,,,,,,,,,
null,"<img src=""stim_listA/kiss3.gif""style=""height:400px;""></stim_listA>",,html-keyboard-response,341,978297,0.0-17.0-1.18,22791,List2A,white,woman,,,,null,,,,,,,,,
null,is kissing,,html-keyboard-response,342,980299,0.0-17.0-2.18,22791,List2A,white,woman,,,,null,,,,,,,,,
4821.83,,,survey-text,343,985123,0.0-17.0-3.18,22791,List2A,white,woman,,,,,"{""Q0"":""fred is kissing beth""}","<img src=""stim_listA/kiss3.gif""style=""height:400px;""></stim_listA>",is kissing,,,,,,
null,"<div style=""font-size:60px;"">+</div>",,html-keyboard-response,344,985625,0.0-17.0-0.19,22791,List2A,white,woman,,,,null,,,,,,,,,
null,"<img src=""stim_listA/oppose5.gif""style=""height:400px;""></stim_listA>",,html-keyboard-response,345,987632,0.0-17.0-1.19,22791,List2A,white,woman,,,,null,,,,,,,,,
null,is opposing,,html-keyboard-response,346,989633,0.0-17.0-2.19,22791,List2A,white,woman,,,,null,,,,,,,,,
4320.335,,,survey-text,347,993956,0.0-17.0-3.19,22791,List2A,white,woman,,,,,"{""Q0"":""dave is opposing mike""}","<img src=""stim_listA/oppose5.gif""style=""height:400px;""></stim_listA>",is opposing,,,,,,
2348.925,"<img src='img/portrait_matrix_list2.jpg' style='width:900px;height:500px;''></img><p>If you have memorised all the portraits and names and are ready to start, press Continue.</p><p><strong>Please note: Your memory of these faces will be tested 4 times during this experiment.</strong></p>",0,html-button-response,348,996307,0.0-18.0-0.0,22791,List2A,white,woman,,,,,,,,,,,,,
1174.04,"<img src=""portrait/WW2.jpg""style=""height:400px;""></img>",3,html-button-response,349,998482,0.0-18.0-1.0,22791,List2A,white,woman,,TRUE,3,,,,,,,,,,
null,CORRECT,,html-keyboard-response,350,999991,0.0-18.0-2.0-0.0,22791,List2A,white,woman,,,,null,,,,,,,,,
1380.65,"<img src=""portrait/BM1.jpg""style=""height:400px;""></img>",4,html-button-response,351,1001373,0.0-18.0-4.0,22791,List2A,white,woman,,TRUE,4,,,,,,,,,,
null,CORRECT,,html-keyboard-response,352,1002880,0.0-18.0-5.0-0.0,22791,List2A,white,woman,,,,null,,,,,,,,,
1291.175,"<img src=""portrait/WM2.jpg""style=""height:400px;""></img>",7,html-button-response,353,1004173,0.0-18.0-7.0,22791,List2A,white,woman,,TRUE,7,,,,,,,,,,
null,CORRECT,,html-keyboard-response,354,1005680,0.0-18.0-8.0-0.0,22791,List2A,white,woman,,,,null,,,,,,,,,
1255.72,"<img src=""portrait/BM2.jpg""style=""height:400px;""></img>",5,html-button-response,355,1006937,0.0-18.0-10.0,22791,List2A,white,woman,,TRUE,5,,,,,,,,,,
null,CORRECT,,html-keyboard-response,356,1008440,0.0-18.0-11.0-0.0,22791,List2A,white,woman,,,,null,,,,,,,,,
1779.7,"<img src=""portrait/BW1.jpg""style=""height:400px;""></img>",0,html-button-response,357,1010221,0.0-18.0-13.0,22791,List2A,white,woman,,TRUE,0,,,,,,,,,,
null,CORRECT,,html-keyboard-response,358,1011728,0.0-18.0-14.0-0.0,22791,List2A,white,woman,,,,null,,,,,,,,,
2179.87,"<img src=""portrait/WM1.jpg""style=""height:400px;""></img>",6,html-button-response,359,1013909,0.0-18.0-16.0,22791,List2A,white,woman,,TRUE,6,,,,,,,,,,
null,CORRECT,,html-keyboard-response,360,1015416,0.0-18.0-17.0-0.0,22791,List2A,white,woman,,,,null,,,,,,,,,
1451.54,"<img src=""portrait/BW2.jpg""style=""height:400px;""></img>",2,html-button-response,361,1016868,0.0-18.0-19.0,22791,List2A,white,woman,,TRUE,2,,,,,,,,,,
null,CORRECT,,html-keyboard-response,362,1018375,0.0-18.0-20.0-0.0,22791,List2A,white,woman,,,,null,,,,,,,,,
1406.71,"<img src=""portrait/WW1.jpg""style=""height:400px;""></img>",1,html-button-response,363,1019783,0.0-18.0-22.0,22791,List2A,white,woman,,TRUE,1,,,,,,,,,,
null,CORRECT,,html-keyboard-response,364,1021286,0.0-18.0-23.0-0.0,22791,List2A,white,woman,,,,null,,,,,,,,,
1324.005,<p>You got 8 out of 8 right first time. Press Continue.</p>,0,html-button-response,365,1022611,0.0-18.0-25.0,22791,List2A,white,woman,,,,,,,,,,,,,
null,"<div style=""font-size:60px;"">+</div>",,html-keyboard-response,366,1024114,0.0-19.0-0.0,22791,List2A,white,woman,,,,null,,,,,,,,,
null,"<img src=""stim_listA/seduce6.gif""style=""height:400px;""></stim_listA>",,html-keyboard-response,367,1026116,0.0-19.0-1.0,22791,List2A,white,woman,,,,null,,,,,,,,,
null,is being seduced by,,html-keyboard-response,368,1028122,0.0-19.0-2.0,22791,List2A,white,woman,,,,null,,,,,,,,,
7548.125,,,survey-text,369,1035672,0.0-19.0-3.0,22791,List2A,white,woman,,,,,"{""Q0"":""fred is being seduced by dave""}","<img src=""stim_listA/seduce6.gif""style=""height:400px;""></stim_listA>",is being seduced by,,,,,,
null,"<div style=""font-size:60px;"">+</div>",,html-keyboard-response,370,1036174,0.0-19.0-0.1,22791,List2A,white,woman,,,,null,,,,,,,,,
null,"<img src=""stim_listA/kiss5.gif""style=""height:400px;""></stim_listA>",,html-keyboard-response,371,1038178,0.0-19.0-1.1,22791,List2A,white,woman,,,,null,,,,,,,,,
null,is kissing,,html-keyboard-response,372,1040184,0.0-19.0-2.1,22791,List2A,white,woman,,,,null,,,,,,,,,
4334.675,,,survey-text,373,1044521,0.0-19.0-3.1,22791,List2A,white,woman,,,,,"{""Q0"":""luke is kissing fred""}","<img src=""stim_listA/kiss5.gif""style=""height:400px;""></stim_listA>",is kissing,,,,,,
null,"<div style=""font-size:60px;"">+</div>",,html-keyboard-response,374,1045021,0.0-19.0-0.2,22791,List2A,white,woman,,,,null,,,,,,,,,
null,"<img src=""stim_listA/kiss2.gif""style=""height:400px;""></stim_listA>",,html-keyboard-response,375,1047028,0.0-19.0-1.2,22791,List2A,white,woman,,,,null,,,,,,,,,
null,is being kissed by,,html-keyboard-response,376,1049034,0.0-19.0-2.2,22791,List2A,white,woman,,,,null,,,,,,,,,
4884.595,,,survey-text,377,1053921,0.0-19.0-3.2,22791,List2A,white,woman,,,,,"{""Q0"":""jane is being kissed by dave""}","<img src=""stim_listA/kiss2.gif""style=""height:400px;""></stim_listA>",is being kissed by,,,,,,
null,"<div style=""font-size:60px;"">+</div>",,html-keyboard-response,378,1054424,0.0-19.0-0.3,22791,List2A,white,woman,,,,null,,,,,,,,,
null,"<img src=""stim_listA/challenge1.gif""style=""height:400px;""></stim_listA>",,html-keyboard-response,379,1056431,0.0-19.0-1.3,22791,List2A,white,woman,,,,null,,,,,,,,,
null,is challenging,,html-keyboard-response,380,1058437,0.0-19.0-2.3,22791,List2A,white,woman,,,,null,,,,,,,,,
3745.555,,,survey-text,381,1062184,0.0-19.0-3.3,22791,List2A,white,woman,,,,,"{""Q0"":""dave is challenging ruth""}","<img src=""stim_listA/challenge1.gif""style=""height:400px;""></stim_listA>",is challenging,,,,,,
null,"<div style=""font-size:60px;"">+</div>",,html-keyboard-response,382,1062689,0.0-19.0-0.4,22791,List2A,white,woman,,,,null,,,,,,,,,
null,"<img src=""stim_listA/kiss8.gif""style=""height:400px;""></stim_listA>",,html-keyboard-response,383,1064695,0.0-19.0-1.4,22791,List2A,white,woman,,,,null,,,,,,,,,
null,is being kissed by,,html-keyboard-response,384,1066701,0.0-19.0-2.4,22791,List2A,white,woman,,,,null,,,,,,,,,
4427.73,,,survey-text,385,1071131,0.0-19.0-3.4,22791,List2A,white,woman,,,,,"{""Q0"":""kate is being kissed by jane""}","<img src=""stim_listA/kiss8.gif""style=""height:400px;""></stim_listA>",is being kissed by,,,,,,
null,"<div style=""font-size:60px;"">+</div>",,html-keyboard-response,386,1071636,0.0-19.0-0.5,22791,List2A,white,woman,,,,null,,,,,,,,,
null,"<img src=""stim_listA/look2.gif""style=""height:400px;""></stim_listA>",,html-keyboard-response,387,1073643,0.0-19.0-1.5,22791,List2A,white,woman,,,,null,,,,,,,,,
null,is being looked at by,,html-keyboard-response,388,1075647,0.0-19.0-2.5,22791,List2A,white,woman,,,,null,,,,,,,,,
5106.64,,,survey-text,389,1080756,0.0-19.0-3.5,22791,List2A,white,woman,,,,,"{""Q0"":""jane is being looked at by dave""}","<img src=""stim_listA/look2.gif""style=""height:400px;""></stim_listA>",is being looked at by,,,,,,
null,"<div style=""font-size:60px;"">+</div>",,html-keyboard-response,390,1081260,0.0-19.0-0.6,22791,List2A,white,woman,,,,null,,,,,,,,,
null,"<img src=""stim_listA/copy7.gif""style=""height:400px;""></stim_listA>",,html-keyboard-response,391,1083265,0.0-19.0-1.6,22791,List2A,white,woman,,,,null,,,,,,,,,
null,is copying,,html-keyboard-response,392,1085270,0.0-19.0-2.6,22791,List2A,white,woman,,,,null,,,,,,,,,
4741.875,,,survey-text,393,1090015,0.0-19.0-3.6,22791,List2A,white,woman,,,,,"{""Q0"":""jane is copying beth""}","<img src=""stim_listA/copy7.gif""style=""height:400px;""></stim_listA>",is copying,,,,,,
null,"<div style=""font-size:60px;"">+</div>",,html-keyboard-response,394,1090519,0.0-19.0-0.7,22791,List2A,white,woman,,,,null,,,,,,,,,
null,"<img src=""stim_listA/copy1.gif""style=""height:400px;""></stim_listA>",,html-keyboard-response,395,1092521,0.0-19.0-1.7,22791,List2A,white,woman,,,,null,,,,,,,,,
null,is copying,,html-keyboard-response,396,1094523,0.0-19.0-2.7,22791,List2A,white,woman,,,,null,,,,,,,,,
3770.38,,,survey-text,397,1098295,0.0-19.0-3.7,22791,List2A,white,woman,,,,,"{""Q0"":""ruth is copying dave""}","<img src=""stim_listA/copy1.gif""style=""height:400px;""></stim_listA>",is copying,,,,,,
null,"<div style=""font-size:60px;"">+</div>",,html-keyboard-response,398,1098800,0.0-19.0-0.8,22791,List2A,white,woman,,,,null,,,,,,,,,
null,"<img src=""stim_listA/copy6.gif""style=""height:400px;""></stim_listA>",,html-keyboard-response,399,1100806,0.0-19.0-1.8,22791,List2A,white,woman,,,,null,,,,,,,,,
null,is being copied by,,html-keyboard-response,400,1102812,0.0-19.0-2.8,22791,List2A,white,woman,,,,null,,,,,,,,,
4856.4,,,survey-text,401,1107671,0.0-19.0-3.8,22791,List2A,white,woman,,,,,"{""Q0"":""mike is being copied by luke""}","<img src=""stim_listA/copy6.gif""style=""height:400px;""></stim_listA>",is being copied by,,,,,,
null,"<div style=""font-size:60px;"">+</div>",,html-keyboard-response,402,1108176,0.0-19.0-0.9,22791,List2A,white,woman,,,,null,,,,,,,,,
null,"<img src=""stim_listA/seduce3.gif""style=""height:400px;""></stim_listA>",,html-keyboard-response,403,1110182,0.0-19.0-1.9,22791,List2A,white,woman,,,,null,,,,,,,,,
null,is seducing,,html-keyboard-response,404,1112188,0.0-19.0-2.9,22791,List2A,white,woman,,,,null,,,,,,,,,
3804.96,,,survey-text,405,1115995,0.0-19.0-3.9,22791,List2A,white,woman,,,,,"{""Q0"":""fred is seducing kate""}","<img src=""stim_listA/seduce3.gif""style=""height:400px;""></stim_listA>",is seducing,,,,,,
null,"<div style=""font-size:60px;"">+</div>",,html-keyboard-response,406,1116500,0.0-19.0-0.10,22791,List2A,white,woman,,,,null,,,,,,,,,
null,"<img src=""stim_listA/greet5.gif""style=""height:400px;""></stim_listA>",,html-keyboard-response,407,1118503,0.0-19.0-1.10,22791,List2A,white,woman,,,,null,,,,,,,,,
null,is greeting,,html-keyboard-response,408,1120509,0.0-19.0-2.10,22791,List2A,white,woman,,,,null,,,,,,,,,
4391.345,,,survey-text,409,1124902,0.0-19.0-3.10,22791,List2A,white,woman,,,,,"{""Q0"":""dave is greeting fred""}","<img src=""stim_listA/greet5.gif""style=""height:400px;""></stim_listA>",is greeting,,,,,,
null,"<div style=""font-size:60px;"">+</div>",,html-keyboard-response,410,1125404,0.0-19.0-0.11,22791,List2A,white,woman,,,,null,,,,,,,,,
null,"<img src=""stim_listA/look1.gif""style=""height:400px;""></stim_listA>",,html-keyboard-response,411,1127409,0.0-19.0-1.11,22791,List2A,white,woman,,,,null,,,,,,,,,
null,is looking at,,html-keyboard-response,412,1129411,0.0-19.0-2.11,22791,List2A,white,woman,,,,null,,,,,,,,,
3519.365,,,survey-text,413,1132932,0.0-19.0-3.11,22791,List2A,white,woman,,,,,"{""Q0"":""luke is looking at ruth""}","<img src=""stim_listA/look1.gif""style=""height:400px;""></stim_listA>",is looking at,,,,,,
null,"<div style=""font-size:60px;"">+</div>",,html-keyboard-response,414,1133434,0.0-19.0-0.12,22791,List2A,white,woman,,,,null,,,,,,,,,
null,"<img src=""stim_listA/greet7.gif""style=""height:400px;""></stim_listA>",,html-keyboard-response,415,1135438,0.0-19.0-1.12,22791,List2A,white,woman,,,,null,,,,,,,,,
null,is greeting,,html-keyboard-response,416,1137442,0.0-19.0-2.12,22791,List2A,white,woman,,,,null,,,,,,,,,
3822.815,,,survey-text,417,1141267,0.0-19.0-3.12,22791,List2A,white,woman,,,,,"{""Q0"":""jane is greeting beth""}","<img src=""stim_listA/greet7.gif""style=""height:400px;""></stim_listA>",is greeting,,,,,,
null,"<div style=""font-size:60px;"">+</div>",,html-keyboard-response,418,1141771,0.0-19.0-0.13,22791,List2A,white,woman,,,,null,,,,,,,,,
null,"<img src=""stim_listA/look7.gif""style=""height:400px;""></stim_listA>",,html-keyboard-response,419,1143774,0.0-19.0-1.13,22791,List2A,white,woman,,,,null,,,,,,,,,
null,is looking at,,html-keyboard-response,420,1145780,0.0-19.0-2.13,22791,List2A,white,woman,,,,null,,,,,,,,,
4125.195,,,survey-text,421,1149907,0.0-19.0-3.13,22791,List2A,white,woman,,,,,"{""Q0"":""ruth is looking at beth""}","<img src=""stim_listA/look7.gif""style=""height:400px;""></stim_listA>",is looking at,,,,,,
null,"<div style=""font-size:60px;"">+</div>",,html-keyboard-response,422,1150412,0.0-19.0-0.14,22791,List2A,white,woman,,,,null,,,,,,,,,
null,"<img src=""stim_listA/hug7.gif""style=""height:400px;""></stim_listA>",,html-keyboard-response,423,1152418,0.0-19.0-1.14,22791,List2A,white,woman,,,,null,,,,,,,,,
null,is hugging,,html-keyboard-response,424,1154424,0.0-19.0-2.14,22791,List2A,white,woman,,,,null,,,,,,,,,
3968.225,,,survey-text,425,1158394,0.0-19.0-3.14,22791,List2A,white,woman,,,,,"{""Q0"":""ruth is hugging beth""}","<img src=""stim_listA/hug7.gif""style=""height:400px;""></stim_listA>",is hugging,,,,,,
null,"<div style=""font-size:60px;"">+</div>",,html-keyboard-response,426,1158899,0.0-19.0-0.15,22791,List2A,white,woman,,,,null,,,,,,,,,
null,"<img src=""stim_listA/shout4.gif""style=""height:400px;""></stim_listA>",,html-keyboard-response,427,1160905,0.0-19.0-1.15,22791,List2A,white,woman,,,,null,,,,,,,,,
null,is being shouted at by,,html-keyboard-response,428,1162911,0.0-19.0-2.15,22791,List2A,white,woman,,,,null,,,,,,,,,
6292.56,,,survey-text,429,1169206,0.0-19.0-3.15,22791,List2A,white,woman,,,,,"{""Q0"":""kate is being shouted at by mike""}","<img src=""stim_listA/shout4.gif""style=""height:400px;""></stim_listA>",is being shouted at by,,,,,,
null,"<div style=""font-size:60px;"">+</div>",,html-keyboard-response,430,1169711,0.0-19.0-0.16,22791,List2A,white,woman,,,,null,,,,,,,,,
null,"<img src=""stim_listA/seduce7.gif""style=""height:400px;""></stim_listA>",,html-keyboard-response,431,1171718,0.0-19.0-1.16,22791,List2A,white,woman,,,,null,,,,,,,,,
null,is seducing,,html-keyboard-response,432,1173720,0.0-19.0-2.16,22791,List2A,white,woman,,,,null,,,,,,,,,
3653.69,,,survey-text,433,1177376,0.0-19.0-3.16,22791,List2A,white,woman,,,,,"{""Q0"":""ruth is seducing kate""}","<img src=""stim_listA/seduce7.gif""style=""height:400px;""></stim_listA>",is seducing,,,,,,
null,"<div style=""font-size:60px;"">+</div>",,html-keyboard-response,434,1177880,0.0-19.0-0.17,22791,List2A,white,woman,,,,null,,,,,,,,,
null,"<img src=""stim_listA/oppose8.gif""style=""height:400px;""></stim_listA>",,html-keyboard-response,435,1179887,0.0-19.0-1.17,22791,List2A,white,woman,,,,null,,,,,,,,,
null,is being opposed by,,html-keyboard-response,436,1181893,0.0-19.0-2.17,22791,List2A,white,woman,,,,null,,,,,,,,,
4385.6,,,survey-text,437,1186280,0.0-19.0-3.17,22791,List2A,white,woman,,,,,"{""Q0"":""beth is being opposed by ruth""}","<img src=""stim_listA/oppose8.gif""style=""height:400px;""></stim_listA>",is being opposed by,,,,,,
null,"<div style=""font-size:60px;"">+</div>",,html-keyboard-response,438,1186784,0.0-19.0-0.18,22791,List2A,white,woman,,,,null,,,,,,,,,
null,"<img src=""stim_listA/touch7.gif""style=""height:400px;""></stim_listA>",,html-keyboard-response,439,1188790,0.0-19.0-1.18,22791,List2A,white,woman,,,,null,,,,,,,,,
null,is touching,,html-keyboard-response,440,1190794,0.0-19.0-2.18,22791,List2A,white,woman,,,,null,,,,,,,,,
4360.855,,,survey-text,441,1195157,0.0-19.0-3.18,22791,List2A,white,woman,,,,,"{""Q0"":""jane is touching kate""}","<img src=""stim_listA/touch7.gif""style=""height:400px;""></stim_listA>",is touching,,,,,,
null,"<div style=""font-size:60px;"">+</div>",,html-keyboard-response,442,1195662,0.0-19.0-0.19,22791,List2A,white,woman,,,,null,,,,,,,,,
null,"<img src=""stim_listA/shout2.gif""style=""height:400px;""></stim_listA>",,html-keyboard-response,443,1197668,0.0-19.0-1.19,22791,List2A,white,woman,,,,null,,,,,,,,,
null,is being shouted at by,,html-keyboard-response,444,1199674,0.0-19.0-2.19,22791,List2A,white,woman,,,,null,,,,,,,,,
5021.805,,,survey-text,445,1204698,0.0-19.0-3.19,22791,List2A,white,woman,,,,,"{""Q0"":""jane is being shouted at by dave""}","<img src=""stim_listA/shout2.gif""style=""height:400px;""></stim_listA>",is being shouted at by,,,,,,
2457.03,<p>Thank you for completing that task.</p><p>The final part of this session is a questionnaire that will take about 4 minutes.</p><p>Press Continue.</p>,0,html-button-response,446,1207156,0.0-20.0,22791,List2A,white,woman,,,,,,,,,,,,,
28439.88,,,survey-text,447,1236602,0.0-21.0,22791,List2A,white,woman,,,,,"{""Q0"":""23"",""Q1"":""englihf"",""Q2"":""english"",""Q3"":""United States"",""Q4"":""American"",""Q5"":""white"",""Q6"":""female""}",,,demographics,,,,,
1748.03,<p>Have you lived in the USA for the last 5 years or more?</p>,0,html-button-response,448,1238351,0.0-22.0,22791,List2A,white,woman,,,,,,,,fiveyears,,,,,
2410.83,<p>Move the slider to show the extent to which you agree with the following statements.</p>,0,html-button-response,449,1241764,0.0-23.0,22791,List2A,white,woman,,,,,,,,,,,,,
3204.58,,,html-slider-response,450,1245974,0.0-24.0-0.0-0.0,22791,List2A,white,woman,,,,,,,,survey_race,100,,,I am glad to be the age I am.,filler
2532.52,,,html-slider-response,451,1248508,0.0-24.0-0.0-0.1,22791,List2A,white,woman,,,,,,,,survey_race,100,,,I feel a bond with people the same age as me.,filler
3476.62,,,html-slider-response,452,1251986,0.0-24.0-0.0-0.2,22791,List2A,white,woman,,,,,,,,survey_race,98,,,I have a lot in common with people of a similar age to me.,filler
2552.635,,,html-slider-response,453,1254540,0.0-24.0-0.0-0.3,22791,List2A,white,woman,,,,,,,,survey_race,100,,,I enjoy being in large groups.,filler
5971.88,,,html-slider-response,454,1260513,0.0-24.0-0.0-0.4,22791,List2A,white,woman,,,,,,,,survey_race,89,,,The fact that I am my race is an important part of my identity.,identity
2331.37,,,html-slider-response,455,1262846,0.0-24.0-0.0-0.5,22791,List2A,white,woman,,,,,,,,survey_race,100,,,I am glad to be my age.,filler
6655.87,,,html-slider-response,456,1269504,0.0-24.0-0.0-0.6,22791,List2A,white,woman,,,,,,,,survey_race,85,,,I am similar to the average person of my race.,similar
3014.53,,,html-slider-response,457,1272520,0.0-24.0-0.0-0.7,22791,List2A,white,woman,,,,,,,,survey_race,83,,,"The older I get, the wiser I feel.",filler
3186.86,,,html-slider-response,458,1275708,0.0-24.0-0.0-0.8,22791,List2A,white,woman,,,,,,,,survey_race,19,,,Getting older does not worry me.,filler
3918.61,,,html-slider-response,459,1279628,0.0-24.0-0.0-0.9,22791,List2A,white,woman,,,,,,,,survey_race,73,,,People of my race have a lot in common with each other.,common
3432.685,,,html-slider-response,460,1283062,0.0-24.0-0.0-0.10,22791,List2A,white,woman,,,,,,,,survey_race,95,,,I feel solidarity with people the same age as me.,filler
2670.685,,,html-slider-response,461,1285734,0.0-24.0-0.0-0.11,22791,List2A,white,woman,,,,,,,,survey_race,100,,,I am glad to be my race.,glad
2662.87,,,html-slider-response,462,1288398,0.0-24.0-0.0-0.12,22791,List2A,white,woman,,,,,,,,survey_race,100,,,I consider myself an extrovert.,filler
2645.785,,,html-slider-response,463,1291046,0.0-24.0-0.0-0.13,22791,List2A,white,woman,,,,,,,,survey_race,100,,,It is pleasant to be my race.,pleasant
5050.46,,,html-slider-response,464,1296098,0.0-24.0-0.0-0.14,22791,List2A,white,woman,,,,,,,,survey_race,74,,,I feel solidarity with my race.,solidarity
2820.915,,,html-slider-response,465,1298921,0.0-24.0-0.0-0.15,22791,List2A,white,woman,,,,,,,,survey_race,82,,,I feel a bond with my race.,bond
3288.79,,,html-slider-response,466,1302211,0.0-24.0-0.0-0.16,22791,List2A,white,woman,,,,,,,,survey_race,100,,,Being my race is an important part of how I see myself.,important
2220.985,,,html-slider-response,467,1304433,0.0-24.0-0.0-0.17,22791,List2A,white,woman,,,,,,,,survey_race,100,,,Being my age gives me a good feeling.,filler
3812.565,,,html-slider-response,468,1308247,0.0-24.0-0.0-0.18,22791,List2A,white,woman,,,,,,,,survey_race,90,,,I often think about the fact that I am my age.,filler
2920.71,,,html-slider-response,469,1311169,0.0-24.0-0.0-0.19,22791,List2A,white,woman,,,,,,,,survey_race,0,,,I consider myself an introvert.,filler
4807.98,,,html-slider-response,470,1315979,0.0-24.0-0.0-0.20,22791,List2A,white,woman,,,,,,,,survey_race,77,,,I feel committed to my race.,committed
2596.7,,,html-slider-response,471,1318577,0.0-24.0-0.0-0.21,22791,List2A,white,woman,,,,,,,,survey_race,83,,,Being my race gives me a good feeling.,feeling
4053.06,,,html-slider-response,472,1322631,0.0-24.0-0.0-0.22,22791,List2A,white,woman,,,,,,,,survey_race,78,,,I think that my race has a lot to be proud of.,proud
3050.66,,,html-slider-response,473,1325683,0.0-24.0-0.0-0.23,22791,List2A,white,woman,,,,,,,,survey_race,17,,,My age is not an important part of who I am.,filler
3888.715,,,html-slider-response,474,1329574,0.0-24.0-0.0-0.24,22791,List2A,white,woman,,,,,,,,survey_race,49,,,I often think about the fact that I am my race.,often
2212.745,,,html-slider-response,475,1331788,0.0-24.0-0.0-0.25,22791,List2A,white,woman,,,,,,,,survey_race,100,,,People my age have a lot in common with each other.,filler
3495.27,,,html-slider-response,476,1335285,0.0-24.0-0.0-0.26,22791,List2A,white,woman,,,,,,,,survey_race,71,,,People of my race are very similar to each other.,verysimilar
4041.375,,,html-slider-response,477,1339327,0.0-24.0-0.0-0.27,22791,List2A,white,woman,,,,,,,,survey_race,67,,,I have a lot in common with the average person of my race.,average
2643.065,,,html-slider-response,478,1341972,0.0-24.0-1.0-0.0,22791,List2A,white,woman,,,,,,,,survey_gender,100,,,I am glad to have the friends that I have.,filler
2119.005,,,html-slider-response,479,1344092,0.0-24.0-1.0-0.1,22791,List2A,white,woman,,,,,,,,survey_gender,100,,,I have a lot in common with my friends.,filler
2199.035,,,html-slider-response,480,1346292,0.0-24.0-1.0-0.2,22791,List2A,white,woman,,,,,,,,survey_gender,100,,,My friends have a lot in common with each other.,filler
3092.955,,,html-slider-response,481,1349386,0.0-24.0-1.0-0.3,22791,List2A,white,woman,,,,,,,,survey_gender,67,,,People of my gender have a lot in common with each other.,common
1942.815,,,html-slider-response,482,1351330,0.0-24.0-1.0-0.4,22791,List2A,white,woman,,,,,,,,survey_gender,100,,,I feel a bond with my friends.,filler
3084.91,,,html-slider-response,483,1354416,0.0-24.0-1.0-0.5,22791,List2A,white,woman,,,,,,,,survey_gender,100,,,Being my gender gives me a good feeling.,feeling
4405.685,,,html-slider-response,484,1358823,0.0-24.0-1.0-0.6,22791,List2A,white,woman,,,,,,,,survey_gender,100,,,My friends understand me.,filler
3777.51,,,html-slider-response,485,1362602,0.0-24.0-1.0-0.7,22791,List2A,white,woman,,,,,,,,survey_gender,86,,,It is pleasant to be my gender.,pleasant
3301.185,,,html-slider-response,486,1365905,0.0-24.0-1.0-0.8,22791,List2A,white,woman,,,,,,,,survey_gender,100,,,I feel committed to my gender.,committed
4902.555,,,html-slider-response,487,1370809,0.0-24.0-1.0-0.9,22791,List2A,white,woman,,,,,,,,survey_gender,18,,,I often think about the fact that I am my gender.,often
8856.2,,,html-slider-response,488,1379666,0.0-24.0-1.0-0.10,22791,List2A,white,woman,,,,,,,,survey_gender,74,,,I am similar to the average person of my gender.,similar
6187.815,,,html-slider-response,489,1385856,0.0-24.0-1.0-0.11,22791,List2A,white,woman,,,,,,,,survey_gender,45,,,Family is not more important to me than friendship.,filler
2297.48,,,html-slider-response,490,1388155,0.0-24.0-1.0-0.12,22791,List2A,white,woman,,,,,,,,survey_gender,100,,,I feel solidarity with my friends.,filler
2791.46,,,html-slider-response,491,1390948,0.0-24.0-1.0-0.13,22791,List2A,white,woman,,,,,,,,survey_gender,100,,,I consider myself a highly empathetic person.,filler
3471.42,,,html-slider-response,492,1394421,0.0-24.0-1.0-0.14,22791,List2A,white,woman,,,,,,,,survey_gender,94,,,I am glad to be my gender.,glad
3900.45,,,html-slider-response,493,1398323,0.0-24.0-1.0-0.15,22791,List2A,white,woman,,,,,,,,survey_gender,68,,,I feel solidarity with my gender.,solidarity
4831.145,,,html-slider-response,494,1403156,0.0-24.0-1.0-0.16,22791,List2A,white,woman,,,,,,,,survey_gender,24,,,It is not always easy for people to know what I am thinking.,filler
2539.61,,,html-slider-response,495,1405697,0.0-24.0-1.0-0.17,22791,List2A,white,woman,,,,,,,,survey_gender,100,,,The fact that I am my gender is an important part of my identity.,identity
3242.645,,,html-slider-response,496,1408941,0.0-24.0-1.0-0.18,22791,List2A,white,woman,,,,,,,,survey_gender,70,,,I have a lot in common with the average person of my gender.,average
2151.225,,,html-slider-response,497,1411094,0.0-24.0-1.0-0.19,22791,List2A,white,woman,,,,,,,,survey_gender,70,,,I feel a bond with my gender.,bond
3384.015,,,html-slider-response,498,1414481,0.0-24.0-1.0-0.20,22791,List2A,white,woman,,,,,,,,survey_gender,9,,,Routine is not important to me.,filler
5293.435,,,html-slider-response,499,1419776,0.0-24.0-1.0-0.21,22791,List2A,white,woman,,,,,,,,survey_gender,78,,,Being my gender is an important part of how I see myself.,important
2432.595,,,html-slider-response,500,1422210,0.0-24.0-1.0-0.22,22791,List2A,white,woman,,,,,,,,survey_gender,100,,,I often think about my actions.,filler
2431,,,html-slider-response,501,1424642,0.0-24.0-1.0-0.23,22791,List2A,white,woman,,,,,,,,survey_gender,100,,,Being around my friends gives me a good feeling.,filler
2573.05,,,html-slider-response,502,1427216,0.0-24.0-1.0-0.24,22791,List2A,white,woman,,,,,,,,survey_gender,0,,,I would say I am an animal person.,filler
2751,,,html-slider-response,503,1429968,0.0-24.0-1.0-0.25,22791,List2A,white,woman,,,,,,,,survey_gender,100,,,Most of the friends in my life are very similar to me.,filler
5421.55,,,html-slider-response,504,1435392,0.0-24.0-1.0-0.26,22791,List2A,white,woman,,,,,,,,survey_gender,61,,,People of my gender are very similar to each other.,verysimilar
2884.96,,,html-slider-response,505,1438278,0.0-24.0-1.0-0.27,22791,List2A,white,woman,,,,,,,,survey_gender,100,,,I think that my gender has a lot to be proud of.,proud
8319.415,,,survey-text,506,1446600,0.0-25.0,22791,List2A,white,woman,,,,,"{""Q0"":""ccc""}",,,worker_id,,,,,
4002.035,,,external-html,507,1450884,0.0-26.0,22791,List2A,white,woman,debrief.html,,,,,,,,,,,,
