rt,stimulus,button_pressed,trial_type,trial_index,time_elapsed,internal_node_id,subject,list,ppt_race,ppt_gender,url,first_guess,correct,key_press,responses,image_type,phrase_type,test_part,response,stimulus1,stimulus2,question_type,survey_item
2368.9,Welcome to the experiment. Press Continue to begin.,0,html-button-response,0,2375,0.0-0.0,23106,List1A,black,man,,,,,,,,,,,,,
18031,,,external-html,1,21570,0.0-1.0,23106,List1A,black,man,consent.html,,,,,,,,,,,,
1995,"<p>On the next page, you will see portraits of 8 people and their names.</p><p>Your first task is to take a few minutes to memorise the names of these people.</p><p>You will have to recall their names during the rest of the experiment, so it is</p><p>essential that you try to memorise these people and their names as best as you can.</p><br><p><strong>You will then be tested on your memory of these names and portraits.</strong></p><br><p>The experiment will start after you have completed this memory test.</p><br><p>Ready?</p>",0,html-button-response,2,23567,0.0-2.0,23106,List1A,black,man,,,,,,,,,,,,,
18733.3,"<img src='img/portrait_matrix_list1.jpg' style='width:900px;height:500px;''></img><p>If you have memorised all the portraits and names and are ready to start, press Continue.</p><p><strong>Please note: Your memory of these faces will be tested 4 times during this experiment.</strong></p>",0,html-button-response,3,43314,0.0-3.0-0.0,23106,List1A,black,man,,,,,,,,,,,,,
2722.7,"<img src=""portrait/WW1.jpg""style=""height:400px;""></img>",1,html-button-response,4,47046,0.0-3.0-1.0,23106,List1A,black,man,,TRUE,1,,,,,,,,,,
null,CORRECT,,html-keyboard-response,5,48561,0.0-3.0-2.0-0.0,23106,List1A,black,man,,,,null,,,,,,,,,
2969.3,"<img src=""portrait/WW2.jpg""style=""height:400px;""></img>",3,html-button-response,6,51533,0.0-3.0-4.0,23106,List1A,black,man,,TRUE,3,,,,,,,,,,
null,CORRECT,,html-keyboard-response,7,53041,0.0-3.0-5.0-0.0,23106,List1A,black,man,,,,null,,,,,,,,,
7286.5,"<img src=""portrait/BM2.jpg""style=""height:400px;""></img>",6,html-button-response,8,60330,0.0-3.0-7.0,23106,List1A,black,man,,TRUE,5,,,,,,,,,,
3714.4,"<img src=""portrait/BM2.jpg""style=""height:400px;""></img>",5,html-button-response,9,65060,0.0-3.0-9.0-0.0,23106,List1A,black,man,,FALSE,5,,,,,,,,,,
null,CORRECT,,html-keyboard-response,10,66573,0.0-3.0-9.0-1.0-0.0,23106,List1A,black,man,,,,null,,,,,,,,,
2067.8,"<img src=""portrait/BM1.jpg""style=""height:400px;""></img>",4,html-button-response,11,68644,0.0-3.0-10.0,23106,List1A,black,man,,TRUE,4,,,,,,,,,,
null,CORRECT,,html-keyboard-response,12,70157,0.0-3.0-11.0-0.0,23106,List1A,black,man,,,,null,,,,,,,,,
12891.7,"<img src=""portrait/BW1.jpg""style=""height:400px;""></img>",0,html-button-response,13,83051,0.0-3.0-13.0,23106,List1A,black,man,,TRUE,0,,,,,,,,,,
null,CORRECT,,html-keyboard-response,14,84565,0.0-3.0-14.0-0.0,23106,List1A,black,man,,,,null,,,,,,,,,
3717.3,"<img src=""portrait/WM1.jpg""style=""height:400px;""></img>",5,html-button-response,15,88286,0.0-3.0-16.0,23106,List1A,black,man,,TRUE,6,,,,,,,,,,
3010.4,"<img src=""portrait/WM1.jpg""style=""height:400px;""></img>",6,html-button-response,16,92308,0.0-3.0-18.0-0.0,23106,List1A,black,man,,FALSE,6,,,,,,,,,,
null,CORRECT,,html-keyboard-response,17,93831,0.0-3.0-18.0-1.0-0.0,23106,List1A,black,man,,,,null,,,,,,,,,
3080.8,"<img src=""portrait/BW2.jpg""style=""height:400px;""></img>",3,html-button-response,18,96915,0.0-3.0-19.0,23106,List1A,black,man,,TRUE,2,,,,,,,,,,
2072.6,"<img src=""portrait/BW2.jpg""style=""height:400px;""></img>",2,html-button-response,19,99997,0.0-3.0-21.0-0.0,23106,List1A,black,man,,FALSE,2,,,,,,,,,,
null,CORRECT,,html-keyboard-response,20,101515,0.0-3.0-21.0-1.0-0.0,23106,List1A,black,man,,,,null,,,,,,,,,
2401.2,"<img src=""portrait/WM2.jpg""style=""height:400px;""></img>",7,html-button-response,21,103919,0.0-3.0-22.0,23106,List1A,black,man,,TRUE,7,,,,,,,,,,
null,CORRECT,,html-keyboard-response,22,105434,0.0-3.0-23.0-0.0,23106,List1A,black,man,,,,null,,,,,,,,,
1295.6,<p>You got 5 out of 8 right first time. Press Continue.</p>,0,html-button-response,23,106733,0.0-3.0-25.0,23106,List1A,black,man,,,,,,,,,,,,,
2607.4,"As you did not score 100%, the memory game will repeat. Press Continue.",0,html-button-response,24,110352,0.0-3.0-26.0-0.0,23106,List1A,black,man,,,,,,,,,,,,,
3373.8,"<img src='img/portrait_matrix_list1.jpg' style='width:900px;height:500px;''></img><p>If you have memorised all the portraits and names and are ready to start, press Continue.</p><p><strong>Please note: Your memory of these faces will be tested 4 times during this experiment.</strong></p>",0,html-button-response,25,114747,0.0-3.1-0.1,23106,List1A,black,man,,,,,,,,,,,,,
5547.9,"<img src=""portrait/WW1.jpg""style=""height:400px;""></img>",3,html-button-response,26,121302,0.0-3.1-1.1,23106,List1A,black,man,,TRUE,1,,,,,,,,,,
3242,"<img src=""portrait/WW1.jpg""style=""height:400px;""></img>",1,html-button-response,27,125556,0.0-3.1-3.1-0.1,23106,List1A,black,man,,FALSE,1,,,,,,,,,,
null,CORRECT,,html-keyboard-response,28,127065,0.0-3.1-3.1-1.1-0.1,23106,List1A,black,man,,,,null,,,,,,,,,
2189.8,"<img src=""portrait/WW2.jpg""style=""height:400px;""></img>",3,html-button-response,29,129258,0.0-3.1-4.1,23106,List1A,black,man,,TRUE,3,,,,,,,,,,
null,CORRECT,,html-keyboard-response,30,130769,0.0-3.1-5.1-0.1,23106,List1A,black,man,,,,null,,,,,,,,,
8950.4,"<img src=""portrait/BM2.jpg""style=""height:400px;""></img>",5,html-button-response,31,139723,0.0-3.1-7.1,23106,List1A,black,man,,TRUE,5,,,,,,,,,,
null,CORRECT,,html-keyboard-response,32,141237,0.0-3.1-8.1-0.1,23106,List1A,black,man,,,,null,,,,,,,,,
1802.8,"<img src=""portrait/BM1.jpg""style=""height:400px;""></img>",4,html-button-response,33,143043,0.0-3.1-10.1,23106,List1A,black,man,,TRUE,4,,,,,,,,,,
null,CORRECT,,html-keyboard-response,34,144551,0.0-3.1-11.1-0.1,23106,List1A,black,man,,,,null,,,,,,,,,
2966,"<img src=""portrait/BW1.jpg""style=""height:400px;""></img>",0,html-button-response,35,147519,0.0-3.1-13.1,23106,List1A,black,man,,TRUE,0,,,,,,,,,,
null,CORRECT,,html-keyboard-response,36,149031,0.0-3.1-14.1-0.1,23106,List1A,black,man,,,,null,,,,,,,,,
3115.1,"<img src=""portrait/WM1.jpg""style=""height:400px;""></img>",6,html-button-response,37,152149,0.0-3.1-16.1,23106,List1A,black,man,,TRUE,6,,,,,,,,,,
null,CORRECT,,html-keyboard-response,38,153655,0.0-3.1-17.1-0.1,23106,List1A,black,man,,,,null,,,,,,,,,
2203.4,"<img src=""portrait/BW2.jpg""style=""height:400px;""></img>",2,html-button-response,39,155861,0.0-3.1-19.1,23106,List1A,black,man,,TRUE,2,,,,,,,,,,
null,CORRECT,,html-keyboard-response,40,157386,0.0-3.1-20.1-0.1,23106,List1A,black,man,,,,null,,,,,,,,,
1469.2,"<img src=""portrait/WM2.jpg""style=""height:400px;""></img>",7,html-button-response,41,158858,0.0-3.1-22.1,23106,List1A,black,man,,TRUE,7,,,,,,,,,,
null,CORRECT,,html-keyboard-response,42,160363,0.0-3.1-23.1-0.1,23106,List1A,black,man,,,,null,,,,,,,,,
1307.1,<p>You got 7 out of 8 right first time. Press Continue.</p>,0,html-button-response,43,161673,0.0-3.1-25.1,23106,List1A,black,man,,,,,,,,,,,,,
1407,"As you did not score 100%, the memory game will repeat. Press Continue.",0,html-button-response,44,164084,0.0-3.1-26.1-0.1,23106,List1A,black,man,,,,,,,,,,,,,
1479.6,"<img src='img/portrait_matrix_list1.jpg' style='width:900px;height:500px;''></img><p>If you have memorised all the portraits and names and are ready to start, press Continue.</p><p><strong>Please note: Your memory of these faces will be tested 4 times during this experiment.</strong></p>",0,html-button-response,45,166583,0.0-3.2-0.2,23106,List1A,black,man,,,,,,,,,,,,,
2756.6,"<img src=""portrait/WW1.jpg""style=""height:400px;""></img>",1,html-button-response,46,170345,0.0-3.2-1.2,23106,List1A,black,man,,TRUE,1,,,,,,,,,,
null,CORRECT,,html-keyboard-response,47,171854,0.0-3.2-2.2-0.2,23106,List1A,black,man,,,,null,,,,,,,,,
1991.9,"<img src=""portrait/WW2.jpg""style=""height:400px;""></img>",3,html-button-response,48,173850,0.0-3.2-4.2,23106,List1A,black,man,,TRUE,3,,,,,,,,,,
null,CORRECT,,html-keyboard-response,49,175355,0.0-3.2-5.2-0.2,23106,List1A,black,man,,,,null,,,,,,,,,
3641.5,"<img src=""portrait/BM2.jpg""style=""height:400px;""></img>",5,html-button-response,50,179001,0.0-3.2-7.2,23106,List1A,black,man,,TRUE,5,,,,,,,,,,
null,CORRECT,,html-keyboard-response,51,180506,0.0-3.2-8.2-0.2,23106,List1A,black,man,,,,null,,,,,,,,,
1570.2,"<img src=""portrait/BM1.jpg""style=""height:400px;""></img>",4,html-button-response,52,182080,0.0-3.2-10.2,23106,List1A,black,man,,TRUE,4,,,,,,,,,,
null,CORRECT,,html-keyboard-response,53,183592,0.0-3.2-11.2-0.2,23106,List1A,black,man,,,,null,,,,,,,,,
2773.1,"<img src=""portrait/BW1.jpg""style=""height:400px;""></img>",0,html-button-response,54,186368,0.0-3.2-13.2,23106,List1A,black,man,,TRUE,0,,,,,,,,,,
null,CORRECT,,html-keyboard-response,55,187879,0.0-3.2-14.2-0.2,23106,List1A,black,man,,,,null,,,,,,,,,
1998.1,"<img src=""portrait/WM1.jpg""style=""height:400px;""></img>",5,html-button-response,56,189881,0.0-3.2-16.2,23106,List1A,black,man,,TRUE,6,,,,,,,,,,
3428.8,"<img src=""portrait/WM1.jpg""style=""height:400px;""></img>",6,html-button-response,57,194317,0.0-3.2-18.2-0.2,23106,List1A,black,man,,FALSE,6,,,,,,,,,,
null,CORRECT,,html-keyboard-response,58,195830,0.0-3.2-18.2-1.2-0.2,23106,List1A,black,man,,,,null,,,,,,,,,
3844,"<img src=""portrait/BW2.jpg""style=""height:400px;""></img>",2,html-button-response,59,199678,0.0-3.2-19.2,23106,List1A,black,man,,TRUE,2,,,,,,,,,,
null,CORRECT,,html-keyboard-response,60,201195,0.0-3.2-20.2-0.2,23106,List1A,black,man,,,,null,,,,,,,,,
1347.9,"<img src=""portrait/WM2.jpg""style=""height:400px;""></img>",7,html-button-response,61,202547,0.0-3.2-22.2,23106,List1A,black,man,,TRUE,7,,,,,,,,,,
null,CORRECT,,html-keyboard-response,62,204056,0.0-3.2-23.2-0.2,23106,List1A,black,man,,,,null,,,,,,,,,
1090.8,<p>You got 7 out of 8 right first time. Press Continue.</p>,0,html-button-response,63,205150,0.0-3.2-25.2,23106,List1A,black,man,,,,,,,,,,,,,
1177.1,"As you did not score 100%, the memory game will repeat. Press Continue.",0,html-button-response,64,207337,0.0-3.2-26.2-0.2,23106,List1A,black,man,,,,,,,,,,,,,
3593.6,"<img src='img/portrait_matrix_list1.jpg' style='width:900px;height:500px;''></img><p>If you have memorised all the portraits and names and are ready to start, press Continue.</p><p><strong>Please note: Your memory of these faces will be tested 4 times during this experiment.</strong></p>",0,html-button-response,65,211943,0.0-3.3-0.3,23106,List1A,black,man,,,,,,,,,,,,,
1784.6,"<img src=""portrait/WW1.jpg""style=""height:400px;""></img>",1,html-button-response,66,214736,0.0-3.3-1.3,23106,List1A,black,man,,TRUE,1,,,,,,,,,,
null,CORRECT,,html-keyboard-response,67,216241,0.0-3.3-2.3-0.3,23106,List1A,black,man,,,,null,,,,,,,,,
3420.5,"<img src=""portrait/WW2.jpg""style=""height:400px;""></img>",3,html-button-response,68,219665,0.0-3.3-4.3,23106,List1A,black,man,,TRUE,3,,,,,,,,,,
null,CORRECT,,html-keyboard-response,69,221181,0.0-3.3-5.3-0.3,23106,List1A,black,man,,,,null,,,,,,,,,
7751.9,"<img src=""portrait/BM2.jpg""style=""height:400px;""></img>",5,html-button-response,70,228937,0.0-3.3-7.3,23106,List1A,black,man,,TRUE,5,,,,,,,,,,
null,CORRECT,,html-keyboard-response,71,230442,0.0-3.3-8.3-0.3,23106,List1A,black,man,,,,null,,,,,,,,,
1939.6,"<img src=""portrait/BM1.jpg""style=""height:400px;""></img>",4,html-button-response,72,232385,0.0-3.3-10.3,23106,List1A,black,man,,TRUE,4,,,,,,,,,,
null,CORRECT,,html-keyboard-response,73,233896,0.0-3.3-11.3-0.3,23106,List1A,black,man,,,,null,,,,,,,,,
2083.9,"<img src=""portrait/BW1.jpg""style=""height:400px;""></img>",0,html-button-response,74,235984,0.0-3.3-13.3,23106,List1A,black,man,,TRUE,0,,,,,,,,,,
null,CORRECT,,html-keyboard-response,75,237495,0.0-3.3-14.3-0.3,23106,List1A,black,man,,,,null,,,,,,,,,
1849.4,"<img src=""portrait/WM1.jpg""style=""height:400px;""></img>",6,html-button-response,76,239348,0.0-3.3-16.3,23106,List1A,black,man,,TRUE,6,,,,,,,,,,
null,CORRECT,,html-keyboard-response,77,240855,0.0-3.3-17.3-0.3,23106,List1A,black,man,,,,null,,,,,,,,,
9626.6,"<img src=""portrait/BW2.jpg""style=""height:400px;""></img>",2,html-button-response,78,250485,0.0-3.3-19.3,23106,List1A,black,man,,TRUE,2,,,,,,,,,,
null,CORRECT,,html-keyboard-response,79,251997,0.0-3.3-20.3-0.3,23106,List1A,black,man,,,,null,,,,,,,,,
11389.8,"<img src=""portrait/WM2.jpg""style=""height:400px;""></img>",7,html-button-response,80,263392,0.0-3.3-22.3,23106,List1A,black,man,,TRUE,7,,,,,,,,,,
null,CORRECT,,html-keyboard-response,81,264911,0.0-3.3-23.3-0.3,23106,List1A,black,man,,,,null,,,,,,,,,
1377.7,<p>You got 8 out of 8 right first time. Press Continue.</p>,0,html-button-response,82,266291,0.0-3.3-25.3,23106,List1A,black,man,,,,,,,,,,,,,
13688.5,"<p>In this experiment, you will view photographs of the people from the memory game interacting.</p><p>By using the <strong>exact</strong> phrase given <i>after</i> the photograph appears and recalling the correct names of the people in the photographs, form a sentence describing the interaction. You do not need to capitalise names.</p><p>Type your answer in the space provided. Please complete every sentence before moving onto the next trial.</p><p>You will only have a few seconds to memorise each given photograph and phrase before you can respond, so try your best to focus.</p><p>An example is given below. Press 'Continue' when you are ready.</p><img src='img/speaking_example.jpg' style='width:800px;height:460px;''></img>",0,html-button-response,83,280985,0.0-4.0,23106,List1A,black,man,,,,,,,,,,,,,
1767.4,"<p>Before the experiment starts, you will watch two example trials. Press 'Continue'.</p>",0,html-button-response,84,283756,0.0-5.0,23106,List1A,black,man,,,,,,,,,,,,,
null,<img src='img/play_eg.gif' style='height:400px;''></img>,,html-keyboard-response,85,286768,0.0-6.0,23106,List1A,black,man,,,,null,,,,,,,,,
null,<p>is playing with</p>,,html-keyboard-response,86,288779,0.0-7.0,23106,List1A,black,man,,,,null,,,,,,,,,
3084.9,<p><b>Answer:</b> kate is playing with beth</p>,0,html-button-response,87,291863,0.0-8.0,23106,List1A,black,man,,,,,,,,,,,,,
null,<img src='img/dance_eg.gif' style='height:400px;''></img>,,html-keyboard-response,88,294873,0.0-9.0,23106,List1A,black,man,,,,null,,,,,,,,,
null,<p>is being entertained by</p>,,html-keyboard-response,89,296882,0.0-10.0,23106,List1A,black,man,,,,null,,,,,,,,,
2709.5,<p><b>Answer:</b> luke is being entertained by dave</p>,0,html-button-response,90,299593,0.0-11.0,23106,List1A,black,man,,,,,,,,,,,,,
1697,"<p>Ready to start the experiment?</p><br><p><strong>Remember to describe the picture using a full sentence,</strong></p><p><strong>that combines the names of the people with the <i>exact</i> phrase given.</strong></p><p><strong>To receive full payment you must do this correctly.</strong></p><p><strong> You do not need to capitalise names or use punctuation.</strong></p><br><p>Press 'Continue' to begin.</p>",0,html-button-response,91,302299,0.0-12.0,23106,List1A,black,man,,,,,,,,,,,,,
null,"<div style=""font-size:60px;"">+</div>",,html-keyboard-response,92,303817,0.0-13.0-0.0,23106,List1A,black,man,,,,null,,,,,,,,,
null,"<img src=""stim_listA/hug6.gif""style=""height:400px;""></stim_listA>",,html-keyboard-response,93,305830,0.0-13.0-1.0,23106,List1A,black,man,,,,null,,,,,,,,,
null,is being hugged by,,html-keyboard-response,94,307833,0.0-13.0-2.0,23106,List1A,black,man,,,,null,,,,,,,,,
11112.6,,,survey-text,95,318953,0.0-13.0-3.0,23106,List1A,black,man,,,,,"{""Q0"":""dave is being hugged by mike""}","<img src=""stim_listA/hug6.gif""style=""height:400px;""></stim_listA>",is being hugged by,,,,,,
null,"<div style=""font-size:60px;"">+</div>",,html-keyboard-response,96,319459,0.0-13.0-0.1,23106,List1A,black,man,,,,null,,,,,,,,,
null,"<img src=""stim_listA/oppose8.gif""style=""height:400px;""></stim_listA>",,html-keyboard-response,97,321465,0.0-13.0-1.1,23106,List1A,black,man,,,,null,,,,,,,,,
null,is being opposed by,,html-keyboard-response,98,323471,0.0-13.0-2.1,23106,List1A,black,man,,,,null,,,,,,,,,
7890.6,,,survey-text,99,331366,0.0-13.0-3.1,23106,List1A,black,man,,,,,"{""Q0"":""ruth is being opposed by beth ""}","<img src=""stim_listA/oppose8.gif""style=""height:400px;""></stim_listA>",is being opposed by,,,,,,
null,"<div style=""font-size:60px;"">+</div>",,html-keyboard-response,100,331869,0.0-13.0-0.2,23106,List1A,black,man,,,,null,,,,,,,,,
null,"<img src=""stim_listA/shout1.gif""style=""height:400px;""></stim_listA>",,html-keyboard-response,101,333887,0.0-13.0-1.2,23106,List1A,black,man,,,,null,,,,,,,,,
null,is shouting at,,html-keyboard-response,102,335890,0.0-13.0-2.2,23106,List1A,black,man,,,,null,,,,,,,,,
9882.7,,,survey-text,103,345778,0.0-13.0-3.2,23106,List1A,black,man,,,,,"{""Q0"":""fred is shouting at beth ""}","<img src=""stim_listA/shout1.gif""style=""height:400px;""></stim_listA>",is shouting at,,,,,,
null,"<div style=""font-size:60px;"">+</div>",,html-keyboard-response,104,346287,0.0-13.0-0.3,23106,List1A,black,man,,,,null,,,,,,,,,
null,"<img src=""stim_listA/shout7.gif""style=""height:400px;""></stim_listA>",,html-keyboard-response,105,348294,0.0-13.0-1.3,23106,List1A,black,man,,,,null,,,,,,,,,
null,is shouting at,,html-keyboard-response,106,350315,0.0-13.0-2.3,23106,List1A,black,man,,,,null,,,,,,,,,
11675.9,,,survey-text,107,361995,0.0-13.0-3.3,23106,List1A,black,man,,,,,"{""Q0"":""ruth is shouting at beth ""}","<img src=""stim_listA/shout7.gif""style=""height:400px;""></stim_listA>",is shouting at,,,,,,
null,"<div style=""font-size:60px;"">+</div>",,html-keyboard-response,108,362504,0.0-13.0-0.4,23106,List1A,black,man,,,,null,,,,,,,,,
null,"<img src=""stim_listA/challenge8.gif""style=""height:400px;""></stim_listA>",,html-keyboard-response,109,364508,0.0-13.0-1.4,23106,List1A,black,man,,,,null,,,,,,,,,
null,is being challenged by,,html-keyboard-response,110,366519,0.0-13.0-2.4,23106,List1A,black,man,,,,null,,,,,,,,,
16136.5,,,survey-text,111,382661,0.0-13.0-3.4,23106,List1A,black,man,,,,,"{""Q0"":""beth is being challenged by jane ""}","<img src=""stim_listA/challenge8.gif""style=""height:400px;""></stim_listA>",is being challenged by,,,,,,
null,"<div style=""font-size:60px;"">+</div>",,html-keyboard-response,112,383166,0.0-13.0-0.5,23106,List1A,black,man,,,,null,,,,,,,,,
null,"<img src=""stim_listA/oppose3.gif""style=""height:400px;""></stim_listA>",,html-keyboard-response,113,385176,0.0-13.0-1.5,23106,List1A,black,man,,,,null,,,,,,,,,
null,is opposing,,html-keyboard-response,114,387184,0.0-13.0-2.5,23106,List1A,black,man,,,,null,,,,,,,,,
9479.8,,,survey-text,115,396669,0.0-13.0-3.5,23106,List1A,black,man,,,,,"{""Q0"":""dave is opposing jane ""}","<img src=""stim_listA/oppose3.gif""style=""height:400px;""></stim_listA>",is opposing,,,,,,
null,"<div style=""font-size:60px;"">+</div>",,html-keyboard-response,116,397180,0.0-13.0-0.6,23106,List1A,black,man,,,,null,,,,,,,,,
null,"<img src=""stim_listA/seduce1.gif""style=""height:400px;""></stim_listA>",,html-keyboard-response,117,399185,0.0-13.0-1.6,23106,List1A,black,man,,,,null,,,,,,,,,
null,is seducing,,html-keyboard-response,118,401189,0.0-13.0-2.6,23106,List1A,black,man,,,,null,,,,,,,,,
7161.9,,,survey-text,119,408356,0.0-13.0-3.6,23106,List1A,black,man,,,,,"{""Q0"":""fred is seducing kate ""}","<img src=""stim_listA/seduce1.gif""style=""height:400px;""></stim_listA>",is seducing,,,,,,
null,"<div style=""font-size:60px;"">+</div>",,html-keyboard-response,120,408865,0.0-13.0-0.7,23106,List1A,black,man,,,,null,,,,,,,,,
null,"<img src=""stim_listA/hug7.gif""style=""height:400px;""></stim_listA>",,html-keyboard-response,121,410871,0.0-13.0-1.7,23106,List1A,black,man,,,,null,,,,,,,,,
null,is hugging,,html-keyboard-response,122,412877,0.0-13.0-2.7,23106,List1A,black,man,,,,null,,,,,,,,,
5989.1,,,survey-text,123,418871,0.0-13.0-3.7,23106,List1A,black,man,,,,,"{""Q0"":""beth is hugging ruth ""}","<img src=""stim_listA/hug7.gif""style=""height:400px;""></stim_listA>",is hugging,,,,,,
null,"<div style=""font-size:60px;"">+</div>",,html-keyboard-response,124,419379,0.0-13.0-0.8,23106,List1A,black,man,,,,null,,,,,,,,,
null,"<img src=""stim_listA/kiss6.gif""style=""height:400px;""></stim_listA>",,html-keyboard-response,125,421385,0.0-13.0-1.8,23106,List1A,black,man,,,,null,,,,,,,,,
null,is being kissed by,,html-keyboard-response,126,423396,0.0-13.0-2.8,23106,List1A,black,man,,,,null,,,,,,,,,
7983.9,,,survey-text,127,431385,0.0-13.0-3.8,23106,List1A,black,man,,,,,"{""Q0"":""dave is being kissed by mike ""}","<img src=""stim_listA/kiss6.gif""style=""height:400px;""></stim_listA>",is being kissed by,,,,,,
null,"<div style=""font-size:60px;"">+</div>",,html-keyboard-response,128,431889,0.0-13.0-0.9,23106,List1A,black,man,,,,null,,,,,,,,,
null,"<img src=""stim_listA/oppose2.gif""style=""height:400px;""></stim_listA>",,html-keyboard-response,129,433897,0.0-13.0-1.9,23106,List1A,black,man,,,,null,,,,,,,,,
null,is being opposed by,,html-keyboard-response,130,435901,0.0-13.0-2.9,23106,List1A,black,man,,,,null,,,,,,,,,
42807.6,,,survey-text,131,478712,0.0-13.0-3.9,23106,List1A,black,man,,,,,"{""Q0"":""beth is being oposed by ruth ""}","<img src=""stim_listA/oppose2.gif""style=""height:400px;""></stim_listA>",is being opposed by,,,,,,
null,"<div style=""font-size:60px;"">+</div>",,html-keyboard-response,132,479219,0.0-13.0-0.10,23106,List1A,black,man,,,,null,,,,,,,,,
null,"<img src=""stim_listA/copy4.gif""style=""height:400px;""></stim_listA>",,html-keyboard-response,133,481225,0.0-13.0-1.10,23106,List1A,black,man,,,,null,,,,,,,,,
null,is being copied by,,html-keyboard-response,134,483234,0.0-13.0-2.10,23106,List1A,black,man,,,,null,,,,,,,,,
44715,,,survey-text,135,527954,0.0-13.0-3.10,23106,List1A,black,man,,,,,"{""Q0"":""luke is being opposed by fred""}","<img src=""stim_listA/copy4.gif""style=""height:400px;""></stim_listA>",is being copied by,,,,,,
null,"<div style=""font-size:60px;"">+</div>",,html-keyboard-response,136,528458,0.0-13.0-0.11,23106,List1A,black,man,,,,null,,,,,,,,,
null,"<img src=""stim_listA/challenge7.gif""style=""height:400px;""></stim_listA>",,html-keyboard-response,137,530466,0.0-13.0-1.11,23106,List1A,black,man,,,,null,,,,,,,,,
null,is challenging,,html-keyboard-response,138,532470,0.0-13.0-2.11,23106,List1A,black,man,,,,null,,,,,,,,,
10051.8,,,survey-text,139,542526,0.0-13.0-3.11,23106,List1A,black,man,,,,,"{""Q0"":""kate is challenging ruth ""}","<img src=""stim_listA/challenge7.gif""style=""height:400px;""></stim_listA>",is challenging,,,,,,
null,"<div style=""font-size:60px;"">+</div>",,html-keyboard-response,140,543029,0.0-13.0-0.12,23106,List1A,black,man,,,,null,,,,,,,,,
null,"<img src=""stim_listA/look6.gif""style=""height:400px;""></stim_listA>",,html-keyboard-response,141,545032,0.0-13.0-1.12,23106,List1A,black,man,,,,null,,,,,,,,,
null,is being looked at by,,html-keyboard-response,142,547037,0.0-13.0-2.12,23106,List1A,black,man,,,,null,,,,,,,,,
12333.5,,,survey-text,143,559375,0.0-13.0-3.12,23106,List1A,black,man,,,,,"{""Q0"":""dave is being looked at by mike ""}","<img src=""stim_listA/look6.gif""style=""height:400px;""></stim_listA>",is being looked at by,,,,,,
null,"<div style=""font-size:60px;"">+</div>",,html-keyboard-response,144,559877,0.0-13.0-0.13,23106,List1A,black,man,,,,null,,,,,,,,,
null,"<img src=""stim_listA/shout6.gif""style=""height:400px;""></stim_listA>",,html-keyboard-response,145,561882,0.0-13.0-1.13,23106,List1A,black,man,,,,null,,,,,,,,,
null,is being shouted at by,,html-keyboard-response,146,563899,0.0-13.0-2.13,23106,List1A,black,man,,,,null,,,,,,,,,
17519.5,,,survey-text,147,581423,0.0-13.0-3.13,23106,List1A,black,man,,,,,"{""Q0"":""dave is being talked to by mike ""}","<img src=""stim_listA/shout6.gif""style=""height:400px;""></stim_listA>",is being shouted at by,,,,,,
null,"<div style=""font-size:60px;"">+</div>",,html-keyboard-response,148,581937,0.0-13.0-0.14,23106,List1A,black,man,,,,null,,,,,,,,,
null,"<img src=""stim_listA/challenge6.gif""style=""height:400px;""></stim_listA>",,html-keyboard-response,149,583942,0.0-13.0-1.14,23106,List1A,black,man,,,,null,,,,,,,,,
null,is being challenged by,,html-keyboard-response,150,585948,0.0-13.0-2.14,23106,List1A,black,man,,,,null,,,,,,,,,
12765.8,,,survey-text,151,598716,0.0-13.0-3.14,23106,List1A,black,man,,,,,"{""Q0"":""dave is talking to fred""}","<img src=""stim_listA/challenge6.gif""style=""height:400px;""></stim_listA>",is being challenged by,,,,,,
null,"<div style=""font-size:60px;"">+</div>",,html-keyboard-response,152,599221,0.0-13.0-0.15,23106,List1A,black,man,,,,null,,,,,,,,,
null,"<img src=""stim_listA/seduce8.gif""style=""height:400px;""></stim_listA>",,html-keyboard-response,153,601238,0.0-13.0-1.15,23106,List1A,black,man,,,,null,,,,,,,,,
null,is being seduced by,,html-keyboard-response,154,603247,0.0-13.0-2.15,23106,List1A,black,man,,,,null,,,,,,,,,
9685.4,,,survey-text,155,612937,0.0-13.0-3.15,23106,List1A,black,man,,,,,"{""Q0"":""ruth is being seduced by kate ""}","<img src=""stim_listA/seduce8.gif""style=""height:400px;""></stim_listA>",is being seduced by,,,,,,
null,"<div style=""font-size:60px;"">+</div>",,html-keyboard-response,156,613454,0.0-13.0-0.16,23106,List1A,black,man,,,,null,,,,,,,,,
null,"<img src=""stim_listA/copy3.gif""style=""height:400px;""></stim_listA>",,html-keyboard-response,157,615460,0.0-13.0-1.16,23106,List1A,black,man,,,,null,,,,,,,,,
null,is copying,,html-keyboard-response,158,617468,0.0-13.0-2.16,23106,List1A,black,man,,,,null,,,,,,,,,
7149.1,,,survey-text,159,624621,0.0-13.0-3.16,23106,List1A,black,man,,,,,"{""Q0"":""karte and dave ""}","<img src=""stim_listA/copy3.gif""style=""height:400px;""></stim_listA>",is copying,,,,,,
null,"<div style=""font-size:60px;"">+</div>",,html-keyboard-response,160,625126,0.0-13.0-0.17,23106,List1A,black,man,,,,null,,,,,,,,,
null,"<img src=""stim_listA/look3.gif""style=""height:400px;""></stim_listA>",,html-keyboard-response,161,627132,0.0-13.0-1.17,23106,List1A,black,man,,,,null,,,,,,,,,
null,is looking at,,html-keyboard-response,162,629136,0.0-13.0-2.17,23106,List1A,black,man,,,,null,,,,,,,,,
9106.1,,,survey-text,163,638247,0.0-13.0-3.17,23106,List1A,black,man,,,,,"{""Q0"":""luke is looking at ruth ""}","<img src=""stim_listA/look3.gif""style=""height:400px;""></stim_listA>",is looking at,,,,,,
null,"<div style=""font-size:60px;"">+</div>",,html-keyboard-response,164,638754,0.0-13.0-0.18,23106,List1A,black,man,,,,null,,,,,,,,,
null,"<img src=""stim_listA/touch6.gif""style=""height:400px;""></stim_listA>",,html-keyboard-response,165,640762,0.0-13.0-1.18,23106,List1A,black,man,,,,null,,,,,,,,,
null,is being touched by,,html-keyboard-response,166,642771,0.0-13.0-2.18,23106,List1A,black,man,,,,null,,,,,,,,,
9436.1,,,survey-text,167,652216,0.0-13.0-3.18,23106,List1A,black,man,,,,,"{""Q0"":""luke is being touched by fred ""}","<img src=""stim_listA/touch6.gif""style=""height:400px;""></stim_listA>",is being touched by,,,,,,
null,"<div style=""font-size:60px;"">+</div>",,html-keyboard-response,168,652726,0.0-13.0-0.19,23106,List1A,black,man,,,,null,,,,,,,,,
null,"<img src=""stim_listA/copy1.gif""style=""height:400px;""></stim_listA>",,html-keyboard-response,169,654729,0.0-13.0-1.19,23106,List1A,black,man,,,,null,,,,,,,,,
null,is copying,,html-keyboard-response,170,656733,0.0-13.0-2.19,23106,List1A,black,man,,,,null,,,,,,,,,
8490.3,,,survey-text,171,665227,0.0-13.0-3.19,23106,List1A,black,man,,,,,"{""Q0"":""mike is copying beth ""}","<img src=""stim_listA/copy1.gif""style=""height:400px;""></stim_listA>",is copying,,,,,,
9535.5,"<img src='img/portrait_matrix_list1.jpg' style='width:900px;height:500px;''></img><p>If you have memorised all the portraits and names and are ready to start, press Continue.</p><p><strong>Please note: Your memory of these faces will be tested 4 times during this experiment.</strong></p>",0,html-button-response,172,674767,0.0-14.0-0.0,23106,List1A,black,man,,,,,,,,,,,,,
5337.1,"<img src=""portrait/WM1.jpg""style=""height:400px;""></img>",6,html-button-response,173,681117,0.0-14.0-1.0,23106,List1A,black,man,,TRUE,6,,,,,,,,,,
null,CORRECT,,html-keyboard-response,174,682629,0.0-14.0-2.0-0.0,23106,List1A,black,man,,,,null,,,,,,,,,
4524.6,"<img src=""portrait/BM1.jpg""style=""height:400px;""></img>",4,html-button-response,175,687158,0.0-14.0-4.0,23106,List1A,black,man,,TRUE,4,,,,,,,,,,
null,CORRECT,,html-keyboard-response,176,688677,0.0-14.0-5.0-0.0,23106,List1A,black,man,,,,null,,,,,,,,,
2808.4,"<img src=""portrait/BM2.jpg""style=""height:400px;""></img>",5,html-button-response,177,691489,0.0-14.0-7.0,23106,List1A,black,man,,TRUE,5,,,,,,,,,,
null,CORRECT,,html-keyboard-response,178,692996,0.0-14.0-8.0-0.0,23106,List1A,black,man,,,,null,,,,,,,,,
3241.5,"<img src=""portrait/BW1.jpg""style=""height:400px;""></img>",0,html-button-response,179,696241,0.0-14.0-10.0,23106,List1A,black,man,,TRUE,0,,,,,,,,,,
null,CORRECT,,html-keyboard-response,180,697751,0.0-14.0-11.0-0.0,23106,List1A,black,man,,,,null,,,,,,,,,
3757.5,"<img src=""portrait/WM2.jpg""style=""height:400px;""></img>",7,html-button-response,181,701511,0.0-14.0-13.0,23106,List1A,black,man,,TRUE,7,,,,,,,,,,
null,CORRECT,,html-keyboard-response,182,703022,0.0-14.0-14.0-0.0,23106,List1A,black,man,,,,null,,,,,,,,,
3375.9,"<img src=""portrait/WW2.jpg""style=""height:400px;""></img>",3,html-button-response,183,706401,0.0-14.0-16.0,23106,List1A,black,man,,TRUE,3,,,,,,,,,,
null,CORRECT,,html-keyboard-response,184,707912,0.0-14.0-17.0-0.0,23106,List1A,black,man,,,,null,,,,,,,,,
1772,"<img src=""portrait/BW2.jpg""style=""height:400px;""></img>",2,html-button-response,185,709687,0.0-14.0-19.0,23106,List1A,black,man,,TRUE,2,,,,,,,,,,
null,CORRECT,,html-keyboard-response,186,711199,0.0-14.0-20.0-0.0,23106,List1A,black,man,,,,null,,,,,,,,,
1696.1,"<img src=""portrait/WW1.jpg""style=""height:400px;""></img>",1,html-button-response,187,712894,0.0-14.0-22.0,23106,List1A,black,man,,TRUE,1,,,,,,,,,,
null,CORRECT,,html-keyboard-response,188,714409,0.0-14.0-23.0-0.0,23106,List1A,black,man,,,,null,,,,,,,,,
1753.1,<p>You got 8 out of 8 right first time. Press Continue.</p>,0,html-button-response,189,716165,0.0-14.0-25.0,23106,List1A,black,man,,,,,,,,,,,,,
null,"<div style=""font-size:60px;"">+</div>",,html-keyboard-response,190,717674,0.0-15.0-0.0,23106,List1A,black,man,,,,null,,,,,,,,,
null,"<img src=""stim_listA/touch4.gif""style=""height:400px;""></stim_listA>",,html-keyboard-response,191,719678,0.0-15.0-1.0,23106,List1A,black,man,,,,null,,,,,,,,,
null,is being touched by,,html-keyboard-response,192,721685,0.0-15.0-2.0,23106,List1A,black,man,,,,null,,,,,,,,,
13587.5,,,survey-text,193,735277,0.0-15.0-3.0,23106,List1A,black,man,,,,,"{""Q0"":""ruth is being touched by luke""}","<img src=""stim_listA/touch4.gif""style=""height:400px;""></stim_listA>",is being touched by,,,,,,
null,"<div style=""font-size:60px;"">+</div>",,html-keyboard-response,194,735786,0.0-15.0-0.1,23106,List1A,black,man,,,,null,,,,,,,,,
null,"<img src=""stim_listA/oppose7.gif""style=""height:400px;""></stim_listA>",,html-keyboard-response,195,737796,0.0-15.0-1.1,23106,List1A,black,man,,,,null,,,,,,,,,
null,is opposing,,html-keyboard-response,196,739802,0.0-15.0-2.1,23106,List1A,black,man,,,,null,,,,,,,,,
9536.5,,,survey-text,197,749342,0.0-15.0-3.1,23106,List1A,black,man,,,,,"{""Q0"":""ruth and luke ""}","<img src=""stim_listA/oppose7.gif""style=""height:400px;""></stim_listA>",is opposing,,,,,,
null,"<div style=""font-size:60px;"">+</div>",,html-keyboard-response,198,749855,0.0-15.0-0.2,23106,List1A,black,man,,,,null,,,,,,,,,
null,"<img src=""stim_listA/kiss3.gif""style=""height:400px;""></stim_listA>",,html-keyboard-response,199,751858,0.0-15.0-1.2,23106,List1A,black,man,,,,null,,,,,,,,,
null,is kissing,,html-keyboard-response,200,753860,0.0-15.0-2.2,23106,List1A,black,man,,,,null,,,,,,,,,
5406.8,,,survey-text,201,759271,0.0-15.0-3.2,23106,List1A,black,man,,,,,"{""Q0"":""ruth is kissing luke ""}","<img src=""stim_listA/kiss3.gif""style=""height:400px;""></stim_listA>",is kissing,,,,,,
null,"<div style=""font-size:60px;"">+</div>",,html-keyboard-response,202,759782,0.0-15.0-0.3,23106,List1A,black,man,,,,null,,,,,,,,,
null,"<img src=""stim_listA/challenge1.gif""style=""height:400px;""></stim_listA>",,html-keyboard-response,203,761785,0.0-15.0-1.3,23106,List1A,black,man,,,,null,,,,,,,,,
null,is challenging,,html-keyboard-response,204,763787,0.0-15.0-2.3,23106,List1A,black,man,,,,null,,,,,,,,,
17132.7,,,survey-text,205,780926,0.0-15.0-3.3,23106,List1A,black,man,,,,,"{""Q0"":""mike is challenging beth ""}","<img src=""stim_listA/challenge1.gif""style=""height:400px;""></stim_listA>",is challenging,,,,,,
null,"<div style=""font-size:60px;"">+</div>",,html-keyboard-response,206,781437,0.0-15.0-0.4,23106,List1A,black,man,,,,null,,,,,,,,,
null,"<img src=""stim_listA/oppose4.gif""style=""height:400px;""></stim_listA>",,html-keyboard-response,207,783441,0.0-15.0-1.4,23106,List1A,black,man,,,,null,,,,,,,,,
null,is being opposed by,,html-keyboard-response,208,785446,0.0-15.0-2.4,23106,List1A,black,man,,,,null,,,,,,,,,
34148.9,,,survey-text,209,819598,0.0-15.0-3.4,23106,List1A,black,man,,,,,"{""Q0"":""ruth is opposing luke""}","<img src=""stim_listA/oppose4.gif""style=""height:400px;""></stim_listA>",is being opposed by,,,,,,
null,"<div style=""font-size:60px;"">+</div>",,html-keyboard-response,210,820102,0.0-15.0-0.5,23106,List1A,black,man,,,,null,,,,,,,,,
null,"<img src=""stim_listA/seduce5.gif""style=""height:400px;""></stim_listA>",,html-keyboard-response,211,822105,0.0-15.0-1.5,23106,List1A,black,man,,,,null,,,,,,,,,
null,is seducing,,html-keyboard-response,212,824109,0.0-15.0-2.5,23106,List1A,black,man,,,,null,,,,,,,,,
56730.4,,,survey-text,213,880846,0.0-15.0-3.5,23106,List1A,black,man,,,,,"{""Q0"":""fred is seducing dave""}","<img src=""stim_listA/seduce5.gif""style=""height:400px;""></stim_listA>",is seducing,,,,,,
null,"<div style=""font-size:60px;"">+</div>",,html-keyboard-response,214,881357,0.0-15.0-0.6,23106,List1A,black,man,,,,null,,,,,,,,,
null,"<img src=""stim_listA/hug2.gif""style=""height:400px;""></stim_listA>",,html-keyboard-response,215,883360,0.0-15.0-1.6,23106,List1A,black,man,,,,null,,,,,,,,,
null,is being hugged by,,html-keyboard-response,216,885368,0.0-15.0-2.6,23106,List1A,black,man,,,,null,,,,,,,,,
9311,,,survey-text,217,894681,0.0-15.0-3.6,23106,List1A,black,man,,,,,"{""Q0"":""mike is being hugged by kate ""}","<img src=""stim_listA/hug2.gif""style=""height:400px;""></stim_listA>",is being hugged by,,,,,,
null,"<div style=""font-size:60px;"">+</div>",,html-keyboard-response,218,895190,0.0-15.0-0.7,23106,List1A,black,man,,,,null,,,,,,,,,
null,"<img src=""stim_listA/hug1.gif""style=""height:400px;""></stim_listA>",,html-keyboard-response,219,897196,0.0-15.0-1.7,23106,List1A,black,man,,,,null,,,,,,,,,
null,is hugging,,html-keyboard-response,220,899199,0.0-15.0-2.7,23106,List1A,black,man,,,,null,,,,,,,,,
13984.6,,,survey-text,221,913188,0.0-15.0-3.7,23106,List1A,black,man,,,,,"{""Q0"":""fred is hugging beth ""}","<img src=""stim_listA/hug1.gif""style=""height:400px;""></stim_listA>",is hugging,,,,,,
null,"<div style=""font-size:60px;"">+</div>",,html-keyboard-response,222,913693,0.0-15.0-0.8,23106,List1A,black,man,,,,null,,,,,,,,,
null,"<img src=""stim_listA/seduce2.gif""style=""height:400px;""></stim_listA>",,html-keyboard-response,223,915707,0.0-15.0-1.8,23106,List1A,black,man,,,,null,,,,,,,,,
null,is being seduced by,,html-keyboard-response,224,917718,0.0-15.0-2.8,23106,List1A,black,man,,,,null,,,,,,,,,
16325.3,,,survey-text,225,934048,0.0-15.0-3.8,23106,List1A,black,man,,,,,"{""Q0"":""mike is hugging luke ""}","<img src=""stim_listA/seduce2.gif""style=""height:400px;""></stim_listA>",is being seduced by,,,,,,
null,"<div style=""font-size:60px;"">+</div>",,html-keyboard-response,226,934552,0.0-15.0-0.9,23106,List1A,black,man,,,,null,,,,,,,,,
null,"<img src=""stim_listA/kiss4.gif""style=""height:400px;""></stim_listA>",,html-keyboard-response,227,936568,0.0-15.0-1.9,23106,List1A,black,man,,,,null,,,,,,,,,
null,is being kissed by,,html-keyboard-response,228,938570,0.0-15.0-2.9,23106,List1A,black,man,,,,null,,,,,,,,,
9301.3,,,survey-text,229,947876,0.0-15.0-3.9,23106,List1A,black,man,,,,,"{""Q0"":""dave is being kissed by jane ""}","<img src=""stim_listA/kiss4.gif""style=""height:400px;""></stim_listA>",is being kissed by,,,,,,
null,"<div style=""font-size:60px;"">+</div>",,html-keyboard-response,230,948379,0.0-15.0-0.10,23106,List1A,black,man,,,,null,,,,,,,,,
null,"<img src=""stim_listA/hug4.gif""style=""height:400px;""></stim_listA>",,html-keyboard-response,231,950384,0.0-15.0-1.10,23106,List1A,black,man,,,,null,,,,,,,,,
null,is being hugged by,,html-keyboard-response,232,952391,0.0-15.0-2.10,23106,List1A,black,man,,,,null,,,,,,,,,
12526.7,,,survey-text,233,964921,0.0-15.0-3.10,23106,List1A,black,man,,,,,"{""Q0"":""ruth is kissing mike""}","<img src=""stim_listA/hug4.gif""style=""height:400px;""></stim_listA>",is being hugged by,,,,,,
null,"<div style=""font-size:60px;"">+</div>",,html-keyboard-response,234,965437,0.0-15.0-0.11,23106,List1A,black,man,,,,null,,,,,,,,,
null,"<img src=""stim_listA/oppose1.gif""style=""height:400px;""></stim_listA>",,html-keyboard-response,235,967439,0.0-15.0-1.11,23106,List1A,black,man,,,,null,,,,,,,,,
null,is opposing,,html-keyboard-response,236,969445,0.0-15.0-2.11,23106,List1A,black,man,,,,null,,,,,,,,,
9857.4,,,survey-text,237,979306,0.0-15.0-3.11,23106,List1A,black,man,,,,,"{""Q0"":""mike is opposing kate ""}","<img src=""stim_listA/oppose1.gif""style=""height:400px;""></stim_listA>",is opposing,,,,,,
null,"<div style=""font-size:60px;"">+</div>",,html-keyboard-response,238,979824,0.0-15.0-0.12,23106,List1A,black,man,,,,null,,,,,,,,,
null,"<img src=""stim_listA/touch2.gif""style=""height:400px;""></stim_listA>",,html-keyboard-response,239,981834,0.0-15.0-1.12,23106,List1A,black,man,,,,null,,,,,,,,,
null,is being touched by,,html-keyboard-response,240,983838,0.0-15.0-2.12,23106,List1A,black,man,,,,null,,,,,,,,,
8341,,,survey-text,241,992184,0.0-15.0-3.12,23106,List1A,black,man,,,,,"{""Q0"":""fred is being touched by beth ""}","<img src=""stim_listA/touch2.gif""style=""height:400px;""></stim_listA>",is being touched by,,,,,,
null,"<div style=""font-size:60px;"">+</div>",,html-keyboard-response,242,992693,0.0-15.0-0.13,23106,List1A,black,man,,,,null,,,,,,,,,
null,"<img src=""stim_listA/oppose6.gif""style=""height:400px;""></stim_listA>",,html-keyboard-response,243,994697,0.0-15.0-1.13,23106,List1A,black,man,,,,null,,,,,,,,,
null,is being opposed by,,html-keyboard-response,244,996706,0.0-15.0-2.13,23106,List1A,black,man,,,,null,,,,,,,,,
10140.7,,,survey-text,245,1006851,0.0-15.0-3.13,23106,List1A,black,man,,,,,"{""Q0"":""luke is being opposed by fred ""}","<img src=""stim_listA/oppose6.gif""style=""height:400px;""></stim_listA>",is being opposed by,,,,,,
null,"<div style=""font-size:60px;"">+</div>",,html-keyboard-response,246,1007354,0.0-15.0-0.14,23106,List1A,black,man,,,,null,,,,,,,,,
null,"<img src=""stim_listA/seduce6.gif""style=""height:400px;""></stim_listA>",,html-keyboard-response,247,1009359,0.0-15.0-1.14,23106,List1A,black,man,,,,null,,,,,,,,,
null,is being seduced by,,html-keyboard-response,248,1011364,0.0-15.0-2.14,23106,List1A,black,man,,,,null,,,,,,,,,
8052.3,,,survey-text,249,1019425,0.0-15.0-3.14,23106,List1A,black,man,,,,,"{""Q0"":""luke is being seduced by mike ""}","<img src=""stim_listA/seduce6.gif""style=""height:400px;""></stim_listA>",is being seduced by,,,,,,
null,"<div style=""font-size:60px;"">+</div>",,html-keyboard-response,250,1019934,0.0-15.0-0.15,23106,List1A,black,man,,,,null,,,,,,,,,
null,"<img src=""stim_listA/seduce7.gif""style=""height:400px;""></stim_listA>",,html-keyboard-response,251,1021939,0.0-15.0-1.15,23106,List1A,black,man,,,,null,,,,,,,,,
null,is seducing,,html-keyboard-response,252,1023944,0.0-15.0-2.15,23106,List1A,black,man,,,,null,,,,,,,,,
6497.3,,,survey-text,253,1030445,0.0-15.0-3.15,23106,List1A,black,man,,,,,"{""Q0"":""beth is seducing jane ""}","<img src=""stim_listA/seduce7.gif""style=""height:400px;""></stim_listA>",is seducing,,,,,,
null,"<div style=""font-size:60px;"">+</div>",,html-keyboard-response,254,1030954,0.0-15.0-0.16,23106,List1A,black,man,,,,null,,,,,,,,,
null,"<img src=""stim_listA/look7.gif""style=""height:400px;""></stim_listA>",,html-keyboard-response,255,1032964,0.0-15.0-1.16,23106,List1A,black,man,,,,null,,,,,,,,,
null,is looking at,,html-keyboard-response,256,1034967,0.0-15.0-2.16,23106,List1A,black,man,,,,null,,,,,,,,,
9660.5,,,survey-text,257,1044632,0.0-15.0-3.16,23106,List1A,black,man,,,,,"{""Q0"":""ruth is looking at beth ""}","<img src=""stim_listA/look7.gif""style=""height:400px;""></stim_listA>",is looking at,,,,,,
null,"<div style=""font-size:60px;"">+</div>",,html-keyboard-response,258,1045143,0.0-15.0-0.17,23106,List1A,black,man,,,,null,,,,,,,,,
null,"<img src=""stim_listA/touch7.gif""style=""height:400px;""></stim_listA>",,html-keyboard-response,259,1047148,0.0-15.0-1.17,23106,List1A,black,man,,,,null,,,,,,,,,
null,is touching,,html-keyboard-response,260,1049156,0.0-15.0-2.17,23106,List1A,black,man,,,,null,,,,,,,,,
15182.3,,,survey-text,261,1064342,0.0-15.0-3.17,23106,List1A,black,man,,,,,"{""Q0"":""jane is touching kate ""}","<img src=""stim_listA/touch7.gif""style=""height:400px;""></stim_listA>",is touching,,,,,,
null,"<div style=""font-size:60px;"">+</div>",,html-keyboard-response,262,1064853,0.0-15.0-0.18,23106,List1A,black,man,,,,null,,,,,,,,,
null,"<img src=""stim_listA/copy5.gif""style=""height:400px;""></stim_listA>",,html-keyboard-response,263,1066857,0.0-15.0-1.18,23106,List1A,black,man,,,,null,,,,,,,,,
null,is copying,,html-keyboard-response,264,1068864,0.0-15.0-2.18,23106,List1A,black,man,,,,null,,,,,,,,,
8276.1,,,survey-text,265,1077138,0.0-15.0-3.18,23106,List1A,black,man,,,,,"{""Q0"":""mike is copying luke ""}","<img src=""stim_listA/copy5.gif""style=""height:400px;""></stim_listA>",is copying,,,,,,
null,"<div style=""font-size:60px;"">+</div>",,html-keyboard-response,266,1077646,0.0-15.0-0.19,23106,List1A,black,man,,,,null,,,,,,,,,
null,"<img src=""stim_listA/challenge5.gif""style=""height:400px;""></stim_listA>",,html-keyboard-response,267,1079652,0.0-15.0-1.19,23106,List1A,black,man,,,,null,,,,,,,,,
null,is challenging,,html-keyboard-response,268,1081661,0.0-15.0-2.19,23106,List1A,black,man,,,,null,,,,,,,,,
9400.1,,,survey-text,269,1091066,0.0-15.0-3.19,23106,List1A,black,man,,,,,"{""Q0"":""mike is challenging luke""}","<img src=""stim_listA/challenge5.gif""style=""height:400px;""></stim_listA>",is challenging,,,,,,
5521.3,"<img src='img/portrait_matrix_list1.jpg' style='width:900px;height:500px;''></img><p>If you have memorised all the portraits and names and are ready to start, press Continue.</p><p><strong>Please note: Your memory of these faces will be tested 4 times during this experiment.</strong></p>",0,html-button-response,270,1096590,0.0-16.0-0.0,23106,List1A,black,man,,,,,,,,,,,,,
2557.5,"<img src=""portrait/WM2.jpg""style=""height:400px;""></img>",7,html-button-response,271,1100154,0.0-16.0-1.0,23106,List1A,black,man,,TRUE,7,,,,,,,,,,
null,CORRECT,,html-keyboard-response,272,1101665,0.0-16.0-2.0-0.0,23106,List1A,black,man,,,,null,,,,,,,,,
2325.1,"<img src=""portrait/BM2.jpg""style=""height:400px;""></img>",5,html-button-response,273,1103994,0.0-16.0-4.0,23106,List1A,black,man,,TRUE,5,,,,,,,,,,
null,CORRECT,,html-keyboard-response,274,1105501,0.0-16.0-5.0-0.0,23106,List1A,black,man,,,,null,,,,,,,,,
42758.1,"<img src=""portrait/WM1.jpg""style=""height:400px;""></img>",6,html-button-response,275,1148268,0.0-16.0-7.0,23106,List1A,black,man,,TRUE,6,,,,,,,,,,
null,CORRECT,,html-keyboard-response,276,1149779,0.0-16.0-8.0-0.0,23106,List1A,black,man,,,,null,,,,,,,,,
11781.9,"<img src=""portrait/WW2.jpg""style=""height:400px;""></img>",3,html-button-response,277,1161563,0.0-16.0-10.0,23106,List1A,black,man,,TRUE,3,,,,,,,,,,
null,CORRECT,,html-keyboard-response,278,1163072,0.0-16.0-11.0-0.0,23106,List1A,black,man,,,,null,,,,,,,,,
2344.3,"<img src=""portrait/BW1.jpg""style=""height:400px;""></img>",0,html-button-response,279,1165419,0.0-16.0-13.0,23106,List1A,black,man,,TRUE,0,,,,,,,,,,
null,CORRECT,,html-keyboard-response,280,1166937,0.0-16.0-14.0-0.0,23106,List1A,black,man,,,,null,,,,,,,,,
34127.8,"<img src=""portrait/WW1.jpg""style=""height:400px;""></img>",1,html-button-response,281,1201065,0.0-16.0-16.0,23106,List1A,black,man,,TRUE,1,,,,,,,,,,
null,CORRECT,,html-keyboard-response,282,1202579,0.0-16.0-17.0-0.0,23106,List1A,black,man,,,,null,,,,,,,,,
2643,"<img src=""portrait/BM1.jpg""style=""height:400px;""></img>",4,html-button-response,283,1205225,0.0-16.0-19.0,23106,List1A,black,man,,TRUE,4,,,,,,,,,,
null,CORRECT,,html-keyboard-response,284,1206737,0.0-16.0-20.0-0.0,23106,List1A,black,man,,,,null,,,,,,,,,
2654,"<img src=""portrait/BW2.jpg""style=""height:400px;""></img>",2,html-button-response,285,1209394,0.0-16.0-22.0,23106,List1A,black,man,,TRUE,2,,,,,,,,,,
null,CORRECT,,html-keyboard-response,286,1210906,0.0-16.0-23.0-0.0,23106,List1A,black,man,,,,null,,,,,,,,,
1762.2,<p>You got 8 out of 8 right first time. Press Continue.</p>,0,html-button-response,287,1212671,0.0-16.0-25.0,23106,List1A,black,man,,,,,,,,,,,,,
null,"<div style=""font-size:60px;"">+</div>",,html-keyboard-response,288,1214182,0.0-17.0-0.0,23106,List1A,black,man,,,,null,,,,,,,,,
null,"<img src=""stim_listA/oppose5.gif""style=""height:400px;""></stim_listA>",,html-keyboard-response,289,1216192,0.0-17.0-1.0,23106,List1A,black,man,,,,null,,,,,,,,,
null,is opposing,,html-keyboard-response,290,1218202,0.0-17.0-2.0,23106,List1A,black,man,,,,null,,,,,,,,,
13396.5,,,survey-text,291,1231602,0.0-17.0-3.0,23106,List1A,black,man,,,,,"{""Q0"":""mike is opposing dave ""}","<img src=""stim_listA/oppose5.gif""style=""height:400px;""></stim_listA>",is opposing,,,,,,
null,"<div style=""font-size:60px;"">+</div>",,html-keyboard-response,292,1232113,0.0-17.0-0.1,23106,List1A,black,man,,,,null,,,,,,,,,
null,"<img src=""stim_listA/kiss1.gif""style=""height:400px;""></stim_listA>",,html-keyboard-response,293,1234121,0.0-17.0-1.1,23106,List1A,black,man,,,,null,,,,,,,,,
null,is kissing,,html-keyboard-response,294,1236124,0.0-17.0-2.1,23106,List1A,black,man,,,,null,,,,,,,,,
10408.1,,,survey-text,295,1246536,0.0-17.0-3.1,23106,List1A,black,man,,,,,"{""Q0"":""fred is kissing beth ""}","<img src=""stim_listA/kiss1.gif""style=""height:400px;""></stim_listA>",is kissing,,,,,,
null,"<div style=""font-size:60px;"">+</div>",,html-keyboard-response,296,1247047,0.0-17.0-0.2,23106,List1A,black,man,,,,null,,,,,,,,,
null,"<img src=""stim_listA/hug5.gif""style=""height:400px;""></stim_listA>",,html-keyboard-response,297,1249050,0.0-17.0-1.2,23106,List1A,black,man,,,,null,,,,,,,,,
null,is hugging,,html-keyboard-response,298,1251052,0.0-17.0-2.2,23106,List1A,black,man,,,,null,,,,,,,,,
6986.7,,,survey-text,299,1258043,0.0-17.0-3.2,23106,List1A,black,man,,,,,"{""Q0"":""fred is hugging ruth ""}","<img src=""stim_listA/hug5.gif""style=""height:400px;""></stim_listA>",is hugging,,,,,,
null,"<div style=""font-size:60px;"">+</div>",,html-keyboard-response,300,1258554,0.0-17.0-0.3,23106,List1A,black,man,,,,null,,,,,,,,,
null,"<img src=""stim_listA/hug3.gif""style=""height:400px;""></stim_listA>",,html-keyboard-response,301,1260564,0.0-17.0-1.3,23106,List1A,black,man,,,,null,,,,,,,,,
null,is hugging,,html-keyboard-response,302,1262567,0.0-17.0-2.3,23106,List1A,black,man,,,,null,,,,,,,,,
22895.5,,,survey-text,303,1285467,0.0-17.0-3.3,23106,List1A,black,man,,,,,"{""Q0"":""fred is hugging ruth ""}","<img src=""stim_listA/hug3.gif""style=""height:400px;""></stim_listA>",is hugging,,,,,,
null,"<div style=""font-size:60px;"">+</div>",,html-keyboard-response,304,1285978,0.0-17.0-0.4,23106,List1A,black,man,,,,null,,,,,,,,,
null,"<img src=""stim_listA/touch8.gif""style=""height:400px;""></stim_listA>",,html-keyboard-response,305,1287991,0.0-17.0-1.4,23106,List1A,black,man,,,,null,,,,,,,,,
null,is being touched by,,html-keyboard-response,306,1290001,0.0-17.0-2.4,23106,List1A,black,man,,,,null,,,,,,,,,
16656.7,,,survey-text,307,1306661,0.0-17.0-3.4,23106,List1A,black,man,,,,,"{""Q0"":""beth is opossing ruth ""}","<img src=""stim_listA/touch8.gif""style=""height:400px;""></stim_listA>",is being touched by,,,,,,
null,"<div style=""font-size:60px;"">+</div>",,html-keyboard-response,308,1307168,0.0-17.0-0.5,23106,List1A,black,man,,,,null,,,,,,,,,
null,"<img src=""stim_listA/look4.gif""style=""height:400px;""></stim_listA>",,html-keyboard-response,309,1309174,0.0-17.0-1.5,23106,List1A,black,man,,,,null,,,,,,,,,
null,is being looked at by,,html-keyboard-response,310,1311179,0.0-17.0-2.5,23106,List1A,black,man,,,,null,,,,,,,,,
16774.7,,,survey-text,311,1327959,0.0-17.0-3.5,23106,List1A,black,man,,,,,"{""Q0"":""dave is being looked at by jane ""}","<img src=""stim_listA/look4.gif""style=""height:400px;""></stim_listA>",is being looked at by,,,,,,
null,"<div style=""font-size:60px;"">+</div>",,html-keyboard-response,312,1328469,0.0-17.0-0.6,23106,List1A,black,man,,,,null,,,,,,,,,
null,"<img src=""stim_listA/kiss8.gif""style=""height:400px;""></stim_listA>",,html-keyboard-response,313,1330480,0.0-17.0-1.6,23106,List1A,black,man,,,,null,,,,,,,,,
null,is being kissed by,,html-keyboard-response,314,1332488,0.0-17.0-2.6,23106,List1A,black,man,,,,null,,,,,,,,,
11776.1,,,survey-text,315,1344268,0.0-17.0-3.6,23106,List1A,black,man,,,,,"{""Q0"":""jane is being kissed by kate ""}","<img src=""stim_listA/kiss8.gif""style=""height:400px;""></stim_listA>",is being kissed by,,,,,,
null,"<div style=""font-size:60px;"">+</div>",,html-keyboard-response,316,1344773,0.0-17.0-0.7,23106,List1A,black,man,,,,null,,,,,,,,,
null,"<img src=""stim_listA/look8.gif""style=""height:400px;""></stim_listA>",,html-keyboard-response,317,1346782,0.0-17.0-1.7,23106,List1A,black,man,,,,null,,,,,,,,,
null,is being looked at by,,html-keyboard-response,318,1348788,0.0-17.0-2.7,23106,List1A,black,man,,,,null,,,,,,,,,
228450.4,,,survey-text,319,1577244,0.0-17.0-3.7,23106,List1A,black,man,,,,,"{""Q0"":""jan and kate ""}","<img src=""stim_listA/look8.gif""style=""height:400px;""></stim_listA>",is being looked at by,,,,,,
null,"<div style=""font-size:60px;"">+</div>",,html-keyboard-response,320,1577757,0.0-17.0-0.8,23106,List1A,black,man,,,,null,,,,,,,,,
null,"<img src=""stim_listA/seduce4.gif""style=""height:400px;""></stim_listA>",,html-keyboard-response,321,1579762,0.0-17.0-1.8,23106,List1A,black,man,,,,null,,,,,,,,,
null,is being seduced by,,html-keyboard-response,322,1581769,0.0-17.0-2.8,23106,List1A,black,man,,,,null,,,,,,,,,
6377.2,,,survey-text,323,1588151,0.0-17.0-3.8,23106,List1A,black,man,,,,,"{""Q0"":""ruth is being seduced by dave ""}","<img src=""stim_listA/seduce4.gif""style=""height:400px;""></stim_listA>",is being seduced by,,,,,,
null,"<div style=""font-size:60px;"">+</div>",,html-keyboard-response,324,1588659,0.0-17.0-0.9,23106,List1A,black,man,,,,null,,,,,,,,,
null,"<img src=""stim_listA/touch1.gif""style=""height:400px;""></stim_listA>",,html-keyboard-response,325,1590664,0.0-17.0-1.9,23106,List1A,black,man,,,,null,,,,,,,,,
null,is touching,,html-keyboard-response,326,1592669,0.0-17.0-2.9,23106,List1A,black,man,,,,null,,,,,,,,,
5167.6,,,survey-text,327,1597841,0.0-17.0-3.9,23106,List1A,black,man,,,,,"{""Q0"":""mike is touching kate ""}","<img src=""stim_listA/touch1.gif""style=""height:400px;""></stim_listA>",is touching,,,,,,
null,"<div style=""font-size:60px;"">+</div>",,html-keyboard-response,328,1598350,0.0-17.0-0.10,23106,List1A,black,man,,,,null,,,,,,,,,
null,"<img src=""stim_listA/kiss2.gif""style=""height:400px;""></stim_listA>",,html-keyboard-response,329,1600358,0.0-17.0-1.10,23106,List1A,black,man,,,,null,,,,,,,,,
null,is being kissed by,,html-keyboard-response,330,1602368,0.0-17.0-2.10,23106,List1A,black,man,,,,null,,,,,,,,,
6880.7,,,survey-text,331,1609253,0.0-17.0-3.10,23106,List1A,black,man,,,,,"{""Q0"":""kate is being kissed by mike ""}","<img src=""stim_listA/kiss2.gif""style=""height:400px;""></stim_listA>",is being kissed by,,,,,,
null,"<div style=""font-size:60px;"">+</div>",,html-keyboard-response,332,1609768,0.0-17.0-0.11,23106,List1A,black,man,,,,null,,,,,,,,,
null,"<img src=""stim_listA/shout5.gif""style=""height:400px;""></stim_listA>",,html-keyboard-response,333,1611774,0.0-17.0-1.11,23106,List1A,black,man,,,,null,,,,,,,,,
null,is shouting at,,html-keyboard-response,334,1613779,0.0-17.0-2.11,23106,List1A,black,man,,,,null,,,,,,,,,
9646.9,,,survey-text,335,1623428,0.0-17.0-3.11,23106,List1A,black,man,,,,,"{""Q0"":""fred is shouting at luke""}","<img src=""stim_listA/shout5.gif""style=""height:400px;""></stim_listA>",is shouting at,,,,,,
null,"<div style=""font-size:60px;"">+</div>",,html-keyboard-response,336,1623943,0.0-17.0-0.12,23106,List1A,black,man,,,,null,,,,,,,,,
null,"<img src=""stim_listA/shout3.gif""style=""height:400px;""></stim_listA>",,html-keyboard-response,337,1625948,0.0-17.0-1.12,23106,List1A,black,man,,,,null,,,,,,,,,
null,is shouting at,,html-keyboard-response,338,1627953,0.0-17.0-2.12,23106,List1A,black,man,,,,null,,,,,,,,,
11999,,,survey-text,339,1639956,0.0-17.0-3.12,23106,List1A,black,man,,,,,"{""Q0"":""luke is shouting at ruth ""}","<img src=""stim_listA/shout3.gif""style=""height:400px;""></stim_listA>",is shouting at,,,,,,
null,"<div style=""font-size:60px;"">+</div>",,html-keyboard-response,340,1640460,0.0-17.0-0.13,23106,List1A,black,man,,,,null,,,,,,,,,
null,"<img src=""stim_listA/challenge4.gif""style=""height:400px;""></stim_listA>",,html-keyboard-response,341,1642469,0.0-17.0-1.13,23106,List1A,black,man,,,,null,,,,,,,,,
null,is being challenged by,,html-keyboard-response,342,1644471,0.0-17.0-2.13,23106,List1A,black,man,,,,null,,,,,,,,,
7849.4,,,survey-text,343,1652325,0.0-17.0-3.13,23106,List1A,black,man,,,,,"{""Q0"":""jane is being challenged by ruth ""}","<img src=""stim_listA/challenge4.gif""style=""height:400px;""></stim_listA>",is being challenged by,,,,,,
null,"<div style=""font-size:60px;"">+</div>",,html-keyboard-response,344,1652829,0.0-17.0-0.14,23106,List1A,black,man,,,,null,,,,,,,,,
null,"<img src=""stim_listA/copy6.gif""style=""height:400px;""></stim_listA>",,html-keyboard-response,345,1654840,0.0-17.0-1.14,23106,List1A,black,man,,,,null,,,,,,,,,
null,is being copied by,,html-keyboard-response,346,1656849,0.0-17.0-2.14,23106,List1A,black,man,,,,null,,,,,,,,,
19841.4,,,survey-text,347,1676695,0.0-17.0-3.14,23106,List1A,black,man,,,,,"{""Q0"":""dave is being challenegd by luke ""}","<img src=""stim_listA/copy6.gif""style=""height:400px;""></stim_listA>",is being copied by,,,,,,
null,"<div style=""font-size:60px;"">+</div>",,html-keyboard-response,348,1677201,0.0-17.0-0.15,23106,List1A,black,man,,,,null,,,,,,,,,
null,"<img src=""stim_listA/look1.gif""style=""height:400px;""></stim_listA>",,html-keyboard-response,349,1679207,0.0-17.0-1.15,23106,List1A,black,man,,,,null,,,,,,,,,
null,is looking at,,html-keyboard-response,350,1681217,0.0-17.0-2.15,23106,List1A,black,man,,,,null,,,,,,,,,
5644.3,,,survey-text,351,1686866,0.0-17.0-3.15,23106,List1A,black,man,,,,,"{""Q0"":""fred is looking at beth ""}","<img src=""stim_listA/look1.gif""style=""height:400px;""></stim_listA>",is looking at,,,,,,
null,"<div style=""font-size:60px;"">+</div>",,html-keyboard-response,352,1687371,0.0-17.0-0.16,23106,List1A,black,man,,,,null,,,,,,,,,
null,"<img src=""stim_listA/copy7.gif""style=""height:400px;""></stim_listA>",,html-keyboard-response,353,1689390,0.0-17.0-1.16,23106,List1A,black,man,,,,null,,,,,,,,,
null,is copying,,html-keyboard-response,354,1691396,0.0-17.0-2.16,23106,List1A,black,man,,,,null,,,,,,,,,
49852.4,,,survey-text,355,1741252,0.0-17.0-3.16,23106,List1A,black,man,,,,,"{""Q0"":""jane is copying kate""}","<img src=""stim_listA/copy7.gif""style=""height:400px;""></stim_listA>",is copying,,,,,,
null,"<div style=""font-size:60px;"">+</div>",,html-keyboard-response,356,1741757,0.0-17.0-0.17,23106,List1A,black,man,,,,null,,,,,,,,,
null,"<img src=""stim_listA/copy2.gif""style=""height:400px;""></stim_listA>",,html-keyboard-response,357,1743768,0.0-17.0-1.17,23106,List1A,black,man,,,,null,,,,,,,,,
null,is being copied by,,html-keyboard-response,358,1745776,0.0-17.0-2.17,23106,List1A,black,man,,,,null,,,,,,,,,
7675.7,,,survey-text,359,1753457,0.0-17.0-3.17,23106,List1A,black,man,,,,,"{""Q0"":""kate is being copied by fred ""}","<img src=""stim_listA/copy2.gif""style=""height:400px;""></stim_listA>",is being copied by,,,,,,
null,"<div style=""font-size:60px;"">+</div>",,html-keyboard-response,360,1753963,0.0-17.0-0.18,23106,List1A,black,man,,,,null,,,,,,,,,
null,"<img src=""stim_listA/kiss7.gif""style=""height:400px;""></stim_listA>",,html-keyboard-response,361,1755966,0.0-17.0-1.18,23106,List1A,black,man,,,,null,,,,,,,,,
null,is kissing,,html-keyboard-response,362,1757970,0.0-17.0-2.18,23106,List1A,black,man,,,,null,,,,,,,,,
5176.5,,,survey-text,363,1763151,0.0-17.0-3.18,23106,List1A,black,man,,,,,"{""Q0"":""ruth is kissing beth ""}","<img src=""stim_listA/kiss7.gif""style=""height:400px;""></stim_listA>",is kissing,,,,,,
null,"<div style=""font-size:60px;"">+</div>",,html-keyboard-response,364,1763670,0.0-17.0-0.19,23106,List1A,black,man,,,,null,,,,,,,,,
null,"<img src=""stim_listA/greet1.gif""style=""height:400px;""></stim_listA>",,html-keyboard-response,365,1765673,0.0-17.0-1.19,23106,List1A,black,man,,,,null,,,,,,,,,
null,is greeting,,html-keyboard-response,366,1767677,0.0-17.0-2.19,23106,List1A,black,man,,,,null,,,,,,,,,
12064.3,,,survey-text,367,1779745,0.0-17.0-3.19,23106,List1A,black,man,,,,,"{""Q0"":""jane is copying ruth ""}","<img src=""stim_listA/greet1.gif""style=""height:400px;""></stim_listA>",is greeting,,,,,,
2397.4,"<img src='img/portrait_matrix_list1.jpg' style='width:900px;height:500px;''></img><p>If you have memorised all the portraits and names and are ready to start, press Continue.</p><p><strong>Please note: Your memory of these faces will be tested 4 times during this experiment.</strong></p>",0,html-button-response,368,1782149,0.0-18.0-0.0,23106,List1A,black,man,,,,,,,,,,,,,
2949,"<img src=""portrait/WW2.jpg""style=""height:400px;""></img>",3,html-button-response,369,1786107,0.0-18.0-1.0,23106,List1A,black,man,,TRUE,3,,,,,,,,,,
null,CORRECT,,html-keyboard-response,370,1787632,0.0-18.0-2.0-0.0,23106,List1A,black,man,,,,null,,,,,,,,,
2365.1,"<img src=""portrait/BM2.jpg""style=""height:400px;""></img>",5,html-button-response,371,1790001,0.0-18.0-4.0,23106,List1A,black,man,,TRUE,5,,,,,,,,,,
null,CORRECT,,html-keyboard-response,372,1791523,0.0-18.0-5.0-0.0,23106,List1A,black,man,,,,null,,,,,,,,,
7218.4,"<img src=""portrait/WW1.jpg""style=""height:400px;""></img>",1,html-button-response,373,1798744,0.0-18.0-7.0,23106,List1A,black,man,,TRUE,1,,,,,,,,,,
null,CORRECT,,html-keyboard-response,374,1800253,0.0-18.0-8.0-0.0,23106,List1A,black,man,,,,null,,,,,,,,,
4536.7,"<img src=""portrait/WM1.jpg""style=""height:400px;""></img>",6,html-button-response,375,1804788,0.0-18.0-10.0,23106,List1A,black,man,,TRUE,6,,,,,,,,,,
null,CORRECT,,html-keyboard-response,376,1806298,0.0-18.0-11.0-0.0,23106,List1A,black,man,,,,null,,,,,,,,,
1956.4,"<img src=""portrait/BW2.jpg""style=""height:400px;""></img>",2,html-button-response,377,1808257,0.0-18.0-13.0,23106,List1A,black,man,,TRUE,2,,,,,,,,,,
null,CORRECT,,html-keyboard-response,378,1809769,0.0-18.0-14.0-0.0,23106,List1A,black,man,,,,null,,,,,,,,,
1807.5,"<img src=""portrait/BW1.jpg""style=""height:400px;""></img>",0,html-button-response,379,1811579,0.0-18.0-16.0,23106,List1A,black,man,,TRUE,0,,,,,,,,,,
null,CORRECT,,html-keyboard-response,380,1813102,0.0-18.0-17.0-0.0,23106,List1A,black,man,,,,null,,,,,,,,,
2405.8,"<img src=""portrait/BM1.jpg""style=""height:400px;""></img>",4,html-button-response,381,1815511,0.0-18.0-19.0,23106,List1A,black,man,,TRUE,4,,,,,,,,,,
null,CORRECT,,html-keyboard-response,382,1817029,0.0-18.0-20.0-0.0,23106,List1A,black,man,,,,null,,,,,,,,,
1870.6,"<img src=""portrait/WM2.jpg""style=""height:400px;""></img>",7,html-button-response,383,1818903,0.0-18.0-22.0,23106,List1A,black,man,,TRUE,7,,,,,,,,,,
null,CORRECT,,html-keyboard-response,384,1820416,0.0-18.0-23.0-0.0,23106,List1A,black,man,,,,null,,,,,,,,,
1485.5,<p>You got 8 out of 8 right first time. Press Continue.</p>,0,html-button-response,385,1821904,0.0-18.0-25.0,23106,List1A,black,man,,,,,,,,,,,,,
null,"<div style=""font-size:60px;"">+</div>",,html-keyboard-response,386,1823416,0.0-19.0-0.0,23106,List1A,black,man,,,,null,,,,,,,,,
null,"<img src=""stim_listA/greet7.gif""style=""height:400px;""></stim_listA>",,html-keyboard-response,387,1825426,0.0-19.0-1.0,23106,List1A,black,man,,,,null,,,,,,,,,
null,is greeting,,html-keyboard-response,388,1827433,0.0-19.0-2.0,23106,List1A,black,man,,,,null,,,,,,,,,
7405.7,,,survey-text,389,1834843,0.0-19.0-3.0,23106,List1A,black,man,,,,,"{""Q0"":""kate is greeting ruth ""}","<img src=""stim_listA/greet7.gif""style=""height:400px;""></stim_listA>",is greeting,,,,,,
null,"<div style=""font-size:60px;"">+</div>",,html-keyboard-response,390,1835348,0.0-19.0-0.1,23106,List1A,black,man,,,,null,,,,,,,,,
null,"<img src=""stim_listA/shout8.gif""style=""height:400px;""></stim_listA>",,html-keyboard-response,391,1837354,0.0-19.0-1.1,23106,List1A,black,man,,,,null,,,,,,,,,
null,is being shouted at by,,html-keyboard-response,392,1839363,0.0-19.0-2.1,23106,List1A,black,man,,,,null,,,,,,,,,
5750.4,,,survey-text,393,1845118,0.0-19.0-3.1,23106,List1A,black,man,,,,,"{""Q0"":""jane and kate""}","<img src=""stim_listA/shout8.gif""style=""height:400px;""></stim_listA>",is being shouted at by,,,,,,
null,"<div style=""font-size:60px;"">+</div>",,html-keyboard-response,394,1845626,0.0-19.0-0.2,23106,List1A,black,man,,,,null,,,,,,,,,
null,"<img src=""stim_listA/shout4.gif""style=""height:400px;""></stim_listA>",,html-keyboard-response,395,1847635,0.0-19.0-1.2,23106,List1A,black,man,,,,null,,,,,,,,,
null,is being shouted at by,,html-keyboard-response,396,1849637,0.0-19.0-2.2,23106,List1A,black,man,,,,null,,,,,,,,,
59527,,,survey-text,397,1909173,0.0-19.0-3.2,23106,List1A,black,man,,,,,"{""Q0"":""jane and kate ""}","<img src=""stim_listA/shout4.gif""style=""height:400px;""></stim_listA>",is being shouted at by,,,,,,
null,"<div style=""font-size:60px;"">+</div>",,html-keyboard-response,398,1909681,0.0-19.0-0.3,23106,List1A,black,man,,,,null,,,,,,,,,
null,"<img src=""stim_listA/look5.gif""style=""height:400px;""></stim_listA>",,html-keyboard-response,399,1911688,0.0-19.0-1.3,23106,List1A,black,man,,,,null,,,,,,,,,
null,is looking at,,html-keyboard-response,400,1913693,0.0-19.0-2.3,23106,List1A,black,man,,,,null,,,,,,,,,
9506.5,,,survey-text,401,1923201,0.0-19.0-3.3,23106,List1A,black,man,,,,,"{""Q0"":""fred is looking at luke ""}","<img src=""stim_listA/look5.gif""style=""height:400px;""></stim_listA>",is looking at,,,,,,
null,"<div style=""font-size:60px;"">+</div>",,html-keyboard-response,402,1923709,0.0-19.0-0.4,23106,List1A,black,man,,,,null,,,,,,,,,
null,"<img src=""stim_listA/greet4.gif""style=""height:400px;""></stim_listA>",,html-keyboard-response,403,1925712,0.0-19.0-1.4,23106,List1A,black,man,,,,null,,,,,,,,,
null,is being greeted by,,html-keyboard-response,404,1927719,0.0-19.0-2.4,23106,List1A,black,man,,,,null,,,,,,,,,
13928.4,,,survey-text,405,1941652,0.0-19.0-3.4,23106,List1A,black,man,,,,,"{""Q0"":""fred and mike""}","<img src=""stim_listA/greet4.gif""style=""height:400px;""></stim_listA>",is being greeted by,,,,,,
null,"<div style=""font-size:60px;"">+</div>",,html-keyboard-response,406,1942160,0.0-19.0-0.5,23106,List1A,black,man,,,,null,,,,,,,,,
null,"<img src=""stim_listA/challenge2.gif""style=""height:400px;""></stim_listA>",,html-keyboard-response,407,1944162,0.0-19.0-1.5,23106,List1A,black,man,,,,null,,,,,,,,,
null,is being challenged by,,html-keyboard-response,408,1946165,0.0-19.0-2.5,23106,List1A,black,man,,,,null,,,,,,,,,
4485.8,,,survey-text,409,1950656,0.0-19.0-3.5,23106,List1A,black,man,,,,,"{""Q0"":""kate and fred""}","<img src=""stim_listA/challenge2.gif""style=""height:400px;""></stim_listA>",is being challenged by,,,,,,
null,"<div style=""font-size:60px;"">+</div>",,html-keyboard-response,410,1951163,0.0-19.0-0.6,23106,List1A,black,man,,,,null,,,,,,,,,
null,"<img src=""stim_listA/touch3.gif""style=""height:400px;""></stim_listA>",,html-keyboard-response,411,1953169,0.0-19.0-1.6,23106,List1A,black,man,,,,null,,,,,,,,,
null,is touching,,html-keyboard-response,412,1955174,0.0-19.0-2.6,23106,List1A,black,man,,,,null,,,,,,,,,
36795.8,,,survey-text,413,1991977,0.0-19.0-3.6,23106,List1A,black,man,,,,,"{""Q0"":""mike and fred""}","<img src=""stim_listA/touch3.gif""style=""height:400px;""></stim_listA>",is touching,,,,,,
null,"<div style=""font-size:60px;"">+</div>",,html-keyboard-response,414,1992485,0.0-19.0-0.7,23106,List1A,black,man,,,,null,,,,,,,,,
null,"<img src=""stim_listA/copy8.gif""style=""height:400px;""></stim_listA>",,html-keyboard-response,415,1994491,0.0-19.0-1.7,23106,List1A,black,man,,,,null,,,,,,,,,
null,is being copied by,,html-keyboard-response,416,1996497,0.0-19.0-2.7,23106,List1A,black,man,,,,null,,,,,,,,,
36444.8,,,survey-text,417,2032947,0.0-19.0-3.7,23106,List1A,black,man,,,,,"{""Q0"":""mike and kate ""}","<img src=""stim_listA/copy8.gif""style=""height:400px;""></stim_listA>",is being copied by,,,,,,
null,"<div style=""font-size:60px;"">+</div>",,html-keyboard-response,418,2033455,0.0-19.0-0.8,23106,List1A,black,man,,,,null,,,,,,,,,
null,"<img src=""stim_listA/shout2.gif""style=""height:400px;""></stim_listA>",,html-keyboard-response,419,2035462,0.0-19.0-1.8,23106,List1A,black,man,,,,null,,,,,,,,,
null,is being shouted at by,,html-keyboard-response,420,2037466,0.0-19.0-2.8,23106,List1A,black,man,,,,null,,,,,,,,,
15872.9,,,survey-text,421,2053341,0.0-19.0-3.8,23106,List1A,black,man,,,,,"{""Q0"":""mike is being shouted at by kate ""}","<img src=""stim_listA/shout2.gif""style=""height:400px;""></stim_listA>",is being shouted at by,,,,,,
null,"<div style=""font-size:60px;"">+</div>",,html-keyboard-response,422,2053851,0.0-19.0-0.9,23106,List1A,black,man,,,,null,,,,,,,,,
null,"<img src=""stim_listA/greet3.gif""style=""height:400px;""></stim_listA>",,html-keyboard-response,423,2055857,0.0-19.0-1.9,23106,List1A,black,man,,,,null,,,,,,,,,
null,is greeting,,html-keyboard-response,424,2057861,0.0-19.0-2.9,23106,List1A,black,man,,,,null,,,,,,,,,
10174.3,,,survey-text,425,2068040,0.0-19.0-3.9,23106,List1A,black,man,,,,,"{""Q0"":""dave is greeting ruth ""}","<img src=""stim_listA/greet3.gif""style=""height:400px;""></stim_listA>",is greeting,,,,,,
null,"<div style=""font-size:60px;"">+</div>",,html-keyboard-response,426,2068548,0.0-19.0-0.10,23106,List1A,black,man,,,,null,,,,,,,,,
null,"<img src=""stim_listA/look2.gif""style=""height:400px;""></stim_listA>",,html-keyboard-response,427,2070559,0.0-19.0-1.10,23106,List1A,black,man,,,,null,,,,,,,,,
null,is being looked at by,,html-keyboard-response,428,2072571,0.0-19.0-2.10,23106,List1A,black,man,,,,null,,,,,,,,,
8168.5,,,survey-text,429,2080744,0.0-19.0-3.10,23106,List1A,black,man,,,,,"{""Q0"":""ruht and luke ""}","<img src=""stim_listA/look2.gif""style=""height:400px;""></stim_listA>",is being looked at by,,,,,,
null,"<div style=""font-size:60px;"">+</div>",,html-keyboard-response,430,2081258,0.0-19.0-0.11,23106,List1A,black,man,,,,null,,,,,,,,,
null,"<img src=""stim_listA/greet6.gif""style=""height:400px;""></stim_listA>",,html-keyboard-response,431,2083268,0.0-19.0-1.11,23106,List1A,black,man,,,,null,,,,,,,,,
null,is being greeted by,,html-keyboard-response,432,2085278,0.0-19.0-2.11,23106,List1A,black,man,,,,null,,,,,,,,,
9951,,,survey-text,433,2095234,0.0-19.0-3.11,23106,List1A,black,man,,,,,"{""Q0"":""fred is greeted by dave ""}","<img src=""stim_listA/greet6.gif""style=""height:400px;""></stim_listA>",is being greeted by,,,,,,
null,"<div style=""font-size:60px;"">+</div>",,html-keyboard-response,434,2095751,0.0-19.0-0.12,23106,List1A,black,man,,,,null,,,,,,,,,
null,"<img src=""stim_listA/greet5.gif""style=""height:400px;""></stim_listA>",,html-keyboard-response,435,2097761,0.0-19.0-1.12,23106,List1A,black,man,,,,null,,,,,,,,,
null,is greeting,,html-keyboard-response,436,2099767,0.0-19.0-2.12,23106,List1A,black,man,,,,null,,,,,,,,,
14718.2,,,survey-text,437,2114488,0.0-19.0-3.12,23106,List1A,black,man,,,,,"{""Q0"":""mike is waving at luke ""}","<img src=""stim_listA/greet5.gif""style=""height:400px;""></stim_listA>",is greeting,,,,,,
null,"<div style=""font-size:60px;"">+</div>",,html-keyboard-response,438,2114991,0.0-19.0-0.13,23106,List1A,black,man,,,,null,,,,,,,,,
null,"<img src=""stim_listA/kiss5.gif""style=""height:400px;""></stim_listA>",,html-keyboard-response,439,2116997,0.0-19.0-1.13,23106,List1A,black,man,,,,null,,,,,,,,,
null,is kissing,,html-keyboard-response,440,2119002,0.0-19.0-2.13,23106,List1A,black,man,,,,null,,,,,,,,,
97494.6,,,survey-text,441,2216499,0.0-19.0-3.13,23106,List1A,black,man,,,,,"{""Q0"":""mike and kate ""}","<img src=""stim_listA/kiss5.gif""style=""height:400px;""></stim_listA>",is kissing,,,,,,
null,"<div style=""font-size:60px;"">+</div>",,html-keyboard-response,442,2217007,0.0-19.0-0.14,23106,List1A,black,man,,,,null,,,,,,,,,
null,"<img src=""stim_listA/touch5.gif""style=""height:400px;""></stim_listA>",,html-keyboard-response,443,2219015,0.0-19.0-1.14,23106,List1A,black,man,,,,null,,,,,,,,,
null,is touching,,html-keyboard-response,444,2221020,0.0-19.0-2.14,23106,List1A,black,man,,,,null,,,,,,,,,
6566.2,,,survey-text,445,2227590,0.0-19.0-3.14,23106,List1A,black,man,,,,,"{""Q0"":""mike is touching dave ""}","<img src=""stim_listA/touch5.gif""style=""height:400px;""></stim_listA>",is touching,,,,,,
null,"<div style=""font-size:60px;"">+</div>",,html-keyboard-response,446,2228099,0.0-19.0-0.15,23106,List1A,black,man,,,,null,,,,,,,,,
null,"<img src=""stim_listA/hug8.gif""style=""height:400px;""></stim_listA>",,html-keyboard-response,447,2230108,0.0-19.0-1.15,23106,List1A,black,man,,,,null,,,,,,,,,
null,is being hugged by,,html-keyboard-response,448,2232116,0.0-19.0-2.15,23106,List1A,black,man,,,,null,,,,,,,,,
11507.9,,,survey-text,449,2243627,0.0-19.0-3.15,23106,List1A,black,man,,,,,"{""Q0"":""kate and susan ""}","<img src=""stim_listA/hug8.gif""style=""height:400px;""></stim_listA>",is being hugged by,,,,,,
null,"<div style=""font-size:60px;"">+</div>",,html-keyboard-response,450,2244137,0.0-19.0-0.16,23106,List1A,black,man,,,,null,,,,,,,,,
null,"<img src=""stim_listA/challenge3.gif""style=""height:400px;""></stim_listA>",,html-keyboard-response,451,2246147,0.0-19.0-1.16,23106,List1A,black,man,,,,null,,,,,,,,,
null,is challenging,,html-keyboard-response,452,2248154,0.0-19.0-2.16,23106,List1A,black,man,,,,null,,,,,,,,,
9586.7,,,survey-text,453,2257745,0.0-19.0-3.16,23106,List1A,black,man,,,,,"{""Q0"":""dave is challenging ruth ""}","<img src=""stim_listA/challenge3.gif""style=""height:400px;""></stim_listA>",is challenging,,,,,,
null,"<div style=""font-size:60px;"">+</div>",,html-keyboard-response,454,2258260,0.0-19.0-0.17,23106,List1A,black,man,,,,null,,,,,,,,,
null,"<img src=""stim_listA/greet2.gif""style=""height:400px;""></stim_listA>",,html-keyboard-response,455,2260266,0.0-19.0-1.17,23106,List1A,black,man,,,,null,,,,,,,,,
null,is being greeted by,,html-keyboard-response,456,2262275,0.0-19.0-2.17,23106,List1A,black,man,,,,null,,,,,,,,,
14953.2,,,survey-text,457,2277238,0.0-19.0-3.17,23106,List1A,black,man,,,,,"{""Q0"":""mike is talking to beth ""}","<img src=""stim_listA/greet2.gif""style=""height:400px;""></stim_listA>",is being greeted by,,,,,,
null,"<div style=""font-size:60px;"">+</div>",,html-keyboard-response,458,2277753,0.0-19.0-0.18,23106,List1A,black,man,,,,null,,,,,,,,,
null,"<img src=""stim_listA/greet8.gif""style=""height:400px;""></stim_listA>",,html-keyboard-response,459,2279756,0.0-19.0-1.18,23106,List1A,black,man,,,,null,,,,,,,,,
null,is being greeted by,,html-keyboard-response,460,2281759,0.0-19.0-2.18,23106,List1A,black,man,,,,null,,,,,,,,,
18237.7,,,survey-text,461,2300001,0.0-19.0-3.18,23106,List1A,black,man,,,,,"{""Q0"":""susan i sgreeting beth""}","<img src=""stim_listA/greet8.gif""style=""height:400px;""></stim_listA>",is being greeted by,,,,,,
null,"<div style=""font-size:60px;"">+</div>",,html-keyboard-response,462,2300510,0.0-19.0-0.19,23106,List1A,black,man,,,,null,,,,,,,,,
null,"<img src=""stim_listA/seduce3.gif""style=""height:400px;""></stim_listA>",,html-keyboard-response,463,2302520,0.0-19.0-1.19,23106,List1A,black,man,,,,null,,,,,,,,,
null,is seducing,,html-keyboard-response,464,2304527,0.0-19.0-2.19,23106,List1A,black,man,,,,null,,,,,,,,,
10008.5,,,survey-text,465,2314539,0.0-19.0-3.19,23106,List1A,black,man,,,,,"{""Q0"":""kate and susan ""}","<img src=""stim_listA/seduce3.gif""style=""height:400px;""></stim_listA>",is seducing,,,,,,
2141.4,<p>Thank you for completing that task.</p><p>The final part of this session is a questionnaire that will take about 4 minutes.</p><p>Press Continue.</p>,0,html-button-response,466,2316683,0.0-20.0,23106,List1A,black,man,,,,,,,,,,,,,
51733.5,,,survey-text,467,2369430,0.0-21.0,23106,List1A,black,man,,,,,"{""Q0"":""21"",""Q1"":""English "",""Q2"":""English & spanish "",""Q3"":""florida"",""Q4"":""american"",""Q5"":""black/ hispano"",""Q6"":""male""}",,,demographics,,,,,
10604.8,<p>Have you lived in the USA for the last 5 years or more?</p>,0,html-button-response,468,2380040,0.0-22.0,23106,List1A,black,man,,,,,,,,fiveyears,,,,,
2449.2,<p>Move the slider to show the extent to which you agree with the following statements.</p>,0,html-button-response,469,2383496,0.0-23.0,23106,List1A,black,man,,,,,,,,,,,,,
12192.3,,,html-slider-response,470,2396697,0.0-24.0-0.0-0.0,23106,List1A,black,man,,,,,,,,survey_race,75,,,I consider myself an extrovert.,filler
3339.3,,,html-slider-response,471,2400040,0.0-24.0-0.0-0.1,23106,List1A,black,man,,,,,,,,survey_race,100,,,I feel committed to my race.,committed
7396.9,,,html-slider-response,472,2407439,0.0-24.0-0.0-0.2,23106,List1A,black,man,,,,,,,,survey_race,98,,,The fact that I am my race is an important part of my identity.,identity
3154.7,,,html-slider-response,473,2410597,0.0-24.0-0.0-0.3,23106,List1A,black,man,,,,,,,,survey_race,100,,,"The older I get, the wiser I feel.",filler
4743,,,html-slider-response,474,2415343,0.0-24.0-0.0-0.4,23106,List1A,black,man,,,,,,,,survey_race,100,,,I am glad to be the age I am.,filler
37199.2,,,html-slider-response,475,2452547,0.0-24.0-0.0-0.5,23106,List1A,black,man,,,,,,,,survey_race,96,,,Being my race gives me a good feeling.,feeling
11557.2,,,html-slider-response,476,2464109,0.0-24.0-0.0-0.6,23106,List1A,black,man,,,,,,,,survey_race,96,,,I often think about the fact that I am my age.,filler
2987.1,,,html-slider-response,477,2467100,0.0-24.0-0.0-0.7,23106,List1A,black,man,,,,,,,,survey_race,93,,,I feel solidarity with my race.,solidarity
2367.2,,,html-slider-response,478,2469470,0.0-24.0-0.0-0.8,23106,List1A,black,man,,,,,,,,survey_race,0,,,I consider myself an introvert.,filler
3107.7,,,html-slider-response,479,2472581,0.0-24.0-0.0-0.9,23106,List1A,black,man,,,,,,,,survey_race,73,,,I feel solidarity with people the same age as me.,filler
2873.7,,,html-slider-response,480,2475458,0.0-24.0-0.0-0.10,23106,List1A,black,man,,,,,,,,survey_race,83,,,Being my age gives me a good feeling.,filler
67951,,,html-slider-response,481,2543411,0.0-24.0-0.0-0.11,23106,List1A,black,man,,,,,,,,survey_race,100,,,People of my race are very similar to each other.,verysimilar
2530.1,,,html-slider-response,482,2545945,0.0-24.0-0.0-0.12,23106,List1A,black,man,,,,,,,,survey_race,84,,,I feel a bond with people the same age as me.,filler
3043.8,,,html-slider-response,483,2548992,0.0-24.0-0.0-0.13,23106,List1A,black,man,,,,,,,,survey_race,100,,,I have a lot in common with people of a similar age to me.,filler
6083.6,,,html-slider-response,484,2555078,0.0-24.0-0.0-0.14,23106,List1A,black,man,,,,,,,,survey_race,0,,,I enjoy being in large groups.,filler
2895.9,,,html-slider-response,485,2557977,0.0-24.0-0.0-0.15,23106,List1A,black,man,,,,,,,,survey_race,96,,,I am glad to be my age.,filler
10854.5,,,html-slider-response,486,2568835,0.0-24.0-0.0-0.16,23106,List1A,black,man,,,,,,,,survey_race,89,,,Being my race is an important part of how I see myself.,important
5127.7,,,html-slider-response,487,2573967,0.0-24.0-0.0-0.17,23106,List1A,black,man,,,,,,,,survey_race,77,,,I think that my race has a lot to be proud of.,proud
7540,,,html-slider-response,488,2581510,0.0-24.0-0.0-0.18,23106,List1A,black,man,,,,,,,,survey_race,89,,,People my age have a lot in common with each other.,filler
6095.1,,,html-slider-response,489,2587609,0.0-24.0-0.0-0.19,23106,List1A,black,man,,,,,,,,survey_race,100,,,My age is not an important part of who I am.,filler
3359.4,,,html-slider-response,490,2590972,0.0-24.0-0.0-0.20,23106,List1A,black,man,,,,,,,,survey_race,99,,,It is pleasant to be my race.,pleasant
4816.1,,,html-slider-response,491,2595792,0.0-24.0-0.0-0.21,23106,List1A,black,man,,,,,,,,survey_race,98,,,I have a lot in common with the average person of my race.,average
4165.9,,,html-slider-response,492,2599961,0.0-24.0-0.0-0.22,23106,List1A,black,man,,,,,,,,survey_race,6,,,I am similar to the average person of my race.,similar
3534.7,,,html-slider-response,493,2603500,0.0-24.0-0.0-0.23,23106,List1A,black,man,,,,,,,,survey_race,0,,,I feel a bond with my race.,bond
14401,,,html-slider-response,494,2617905,0.0-24.0-0.0-0.24,23106,List1A,black,man,,,,,,,,survey_race,100,,,I am glad to be my race.,glad
3246.3,,,html-slider-response,495,2621156,0.0-24.0-0.0-0.25,23106,List1A,black,man,,,,,,,,survey_race,96,,,People of my race have a lot in common with each other.,common
6226.4,,,html-slider-response,496,2627385,0.0-24.0-0.0-0.26,23106,List1A,black,man,,,,,,,,survey_race,32,,,Getting older does not worry me.,filler
6066.6,,,html-slider-response,497,2633455,0.0-24.0-0.0-0.27,23106,List1A,black,man,,,,,,,,survey_race,92,,,I often think about the fact that I am my race.,often
3977.5,,,html-slider-response,498,2637436,0.0-24.0-1.0-0.0,23106,List1A,black,man,,,,,,,,survey_gender,70,,,My friends understand me.,filler
2311.4,,,html-slider-response,499,2639751,0.0-24.0-1.0-0.1,23106,List1A,black,man,,,,,,,,survey_gender,79,,,I consider myself a highly empathetic person.,filler
3083.1,,,html-slider-response,500,2642837,0.0-24.0-1.0-0.2,23106,List1A,black,man,,,,,,,,survey_gender,93,,,Routine is not important to me.,filler
3762.9,,,html-slider-response,501,2646604,0.0-24.0-1.0-0.3,23106,List1A,black,man,,,,,,,,survey_gender,100,,,Being around my friends gives me a good feeling.,filler
6452.8,,,html-slider-response,502,2653061,0.0-24.0-1.0-0.4,23106,List1A,black,man,,,,,,,,survey_gender,81,,,It is pleasant to be my gender.,pleasant
4433.7,,,html-slider-response,503,2657498,0.0-24.0-1.0-0.5,23106,List1A,black,man,,,,,,,,survey_gender,97,,,I am glad to be my gender.,glad
5159.7,,,html-slider-response,504,2662669,0.0-24.0-1.0-0.6,23106,List1A,black,man,,,,,,,,survey_gender,95,,,It is not always easy for people to know what I am thinking.,filler
3385.7,,,html-slider-response,505,2666058,0.0-24.0-1.0-0.7,23106,List1A,black,man,,,,,,,,survey_gender,93,,,I often think about the fact that I am my gender.,often
44448.3,,,html-slider-response,506,2710510,0.0-24.0-1.0-0.8,23106,List1A,black,man,,,,,,,,survey_gender,81,,,I feel committed to my gender.,committed
3062.2,,,html-slider-response,507,2713576,0.0-24.0-1.0-0.9,23106,List1A,black,man,,,,,,,,survey_gender,98,,,I feel a bond with my friends.,filler
4597.6,,,html-slider-response,508,2718176,0.0-24.0-1.0-0.10,23106,List1A,black,man,,,,,,,,survey_gender,100,,,I would say I am an animal person.,filler
52662,,,html-slider-response,509,2770838,0.0-24.0-1.0-0.11,23106,List1A,black,man,,,,,,,,survey_gender,100,,,Being my gender is an important part of how I see myself.,important
3672.4,,,html-slider-response,510,2774514,0.0-24.0-1.0-0.12,23106,List1A,black,man,,,,,,,,survey_gender,100,,,I feel solidarity with my gender.,solidarity
3005.6,,,html-slider-response,511,2777522,0.0-24.0-1.0-0.13,23106,List1A,black,man,,,,,,,,survey_gender,100,,,The fact that I am my gender is an important part of my identity.,identity
6433.8,,,html-slider-response,512,2783959,0.0-24.0-1.0-0.14,23106,List1A,black,man,,,,,,,,survey_gender,94,,,I have a lot in common with the average person of my gender.,average
2674.4,,,html-slider-response,513,2786637,0.0-24.0-1.0-0.15,23106,List1A,black,man,,,,,,,,survey_gender,94,,,I feel a bond with my gender.,bond
10242.7,,,html-slider-response,514,2796882,0.0-24.0-1.0-0.16,23106,List1A,black,man,,,,,,,,survey_gender,63,,,I have a lot in common with my friends.,filler
10683.5,,,html-slider-response,515,2807569,0.0-24.0-1.0-0.17,23106,List1A,black,man,,,,,,,,survey_gender,8,,,Family is not more important to me than friendship.,filler
6908.9,,,html-slider-response,516,2814481,0.0-24.0-1.0-0.18,23106,List1A,black,man,,,,,,,,survey_gender,76,,,People of my gender have a lot in common with each other.,common
3004.5,,,html-slider-response,517,2817489,0.0-24.0-1.0-0.19,23106,List1A,black,man,,,,,,,,survey_gender,81,,,I am glad to have the friends that I have.,filler
2184.6,,,html-slider-response,518,2819676,0.0-24.0-1.0-0.20,23106,List1A,black,man,,,,,,,,survey_gender,64,,,People of my gender are very similar to each other.,verysimilar
2919.4,,,html-slider-response,519,2822599,0.0-24.0-1.0-0.21,23106,List1A,black,man,,,,,,,,survey_gender,84,,,Being my gender gives me a good feeling.,feeling
2474.2,,,html-slider-response,520,2825076,0.0-24.0-1.0-0.22,23106,List1A,black,man,,,,,,,,survey_gender,78,,,I feel solidarity with my friends.,filler
3591.5,,,html-slider-response,521,2828670,0.0-24.0-1.0-0.23,23106,List1A,black,man,,,,,,,,survey_gender,86,,,Most of the friends in my life are very similar to me.,filler
3109.5,,,html-slider-response,522,2831783,0.0-24.0-1.0-0.24,23106,List1A,black,man,,,,,,,,survey_gender,83,,,I often think about my actions.,filler
2808.2,,,html-slider-response,523,2834595,0.0-24.0-1.0-0.25,23106,List1A,black,man,,,,,,,,survey_gender,84,,,My friends have a lot in common with each other.,filler
2850,,,html-slider-response,524,2837448,0.0-24.0-1.0-0.26,23106,List1A,black,man,,,,,,,,survey_gender,86,,,I am similar to the average person of my gender.,similar
1983.3,,,html-slider-response,525,2839434,0.0-24.0-1.0-0.27,23106,List1A,black,man,,,,,,,,survey_gender,83,,,I think that my gender has a lot to be proud of.,proud
15630.7,,,survey-text,526,2855071,0.0-25.0,23106,List1A,black,man,,,,,"{""Q0"":""ccc""}",,,worker_id,,,,,
2111.8,,,external-html,527,2857624,0.0-26.0,23106,List1A,black,man,debrief.html,,,,,,,,,,,,
