rt,stimulus,button_pressed,trial_type,trial_index,time_elapsed,internal_node_id,subject,list,ppt_race,ppt_gender,url,first_guess,correct,key_press,responses,image_type,phrase_type,test_part,response,stimulus1,stimulus2,question_type,survey_item
3927.6,Welcome to the experiment. Press Continue to begin.,0,html-button-response,0,3953,0.0-0.0,23421,List1B,black,woman,,,,,,,,,,,,,
416926.3,,,external-html,1,422076,0.0-1.0,23421,List1B,black,woman,consent.html,,,,,,,,,,,,
29251.3,"<p>On the next page, you will see portraits of 8 people and their names.</p><p>Your first task is to take a few minutes to memorise the names of these people.</p><p>You will have to recall their names during the rest of the experiment, so it is</p><p>essential that you try to memorise these people and their names as best as you can.</p><br><p><strong>You will then be tested on your memory of these names and portraits.</strong></p><br><p>The experiment will start after you have completed this memory test.</p><br><p>Ready?</p>",0,html-button-response,2,451331,0.0-2.0,23421,List1B,black,woman,,,,,,,,,,,,,
217033.6,"<img src='img/portrait_matrix_list1.jpg' style='width:900px;height:500px;''></img><p>If you have memorised all the portraits and names and are ready to start, press Continue.</p><p><strong>Please note: Your memory of these faces will be tested 4 times during this experiment.</strong></p>",0,html-button-response,3,669382,0.0-3.0-0.0,23421,List1B,black,woman,,,,,,,,,,,,,
32105.9,"<img src=""portrait/WW1.jpg""style=""height:400px;""></img>",1,html-button-response,4,702509,0.0-3.0-1.0,23421,List1B,black,woman,,TRUE,1,,,,,,,,,,
null,CORRECT,,html-keyboard-response,5,704041,0.0-3.0-2.0-0.0,23421,List1B,black,woman,,,,null,,,,,,,,,
4055.5,"<img src=""portrait/BW2.jpg""style=""height:400px;""></img>",2,html-button-response,6,708101,0.0-3.0-4.0,23421,List1B,black,woman,,TRUE,2,,,,,,,,,,
null,CORRECT,,html-keyboard-response,7,709637,0.0-3.0-5.0-0.0,23421,List1B,black,woman,,,,null,,,,,,,,,
8418.6,"<img src=""portrait/WM2.jpg""style=""height:400px;""></img>",7,html-button-response,8,718060,0.0-3.0-7.0,23421,List1B,black,woman,,TRUE,7,,,,,,,,,,
null,CORRECT,,html-keyboard-response,9,719588,0.0-3.0-8.0-0.0,23421,List1B,black,woman,,,,null,,,,,,,,,
3791.6,"<img src=""portrait/BM2.jpg""style=""height:400px;""></img>",5,html-button-response,10,723383,0.0-3.0-10.0,23421,List1B,black,woman,,TRUE,5,,,,,,,,,,
null,CORRECT,,html-keyboard-response,11,724889,0.0-3.0-11.0-0.0,23421,List1B,black,woman,,,,null,,,,,,,,,
7951.4,"<img src=""portrait/WM1.jpg""style=""height:400px;""></img>",6,html-button-response,12,732843,0.0-3.0-13.0,23421,List1B,black,woman,,TRUE,6,,,,,,,,,,
null,CORRECT,,html-keyboard-response,13,734359,0.0-3.0-14.0-0.0,23421,List1B,black,woman,,,,null,,,,,,,,,
6729.2,"<img src=""portrait/BM1.jpg""style=""height:400px;""></img>",4,html-button-response,14,741092,0.0-3.0-16.0,23421,List1B,black,woman,,TRUE,4,,,,,,,,,,
null,CORRECT,,html-keyboard-response,15,742611,0.0-3.0-17.0-0.0,23421,List1B,black,woman,,,,null,,,,,,,,,
6665.3,"<img src=""portrait/BW1.jpg""style=""height:400px;""></img>",0,html-button-response,16,749279,0.0-3.0-19.0,23421,List1B,black,woman,,TRUE,0,,,,,,,,,,
null,CORRECT,,html-keyboard-response,17,750801,0.0-3.0-20.0-0.0,23421,List1B,black,woman,,,,null,,,,,,,,,
4261.9,"<img src=""portrait/WW2.jpg""style=""height:400px;""></img>",3,html-button-response,18,755066,0.0-3.0-22.0,23421,List1B,black,woman,,TRUE,3,,,,,,,,,,
null,CORRECT,,html-keyboard-response,19,756596,0.0-3.0-23.0-0.0,23421,List1B,black,woman,,,,null,,,,,,,,,
3623.1,<p>You got 8 out of 8 right first time. Press Continue.</p>,0,html-button-response,20,760223,0.0-3.0-25.0,23421,List1B,black,woman,,,,,,,,,,,,,
136133.2,"<p>In this experiment, you will view photographs of the people from the memory game interacting.</p><p>By using the <strong>exact</strong> phrase given <i>after</i> the photograph appears and recalling the correct names of the people in the photographs, form a sentence describing the interaction. You do not need to capitalise names.</p><p>Type your answer in the space provided. Please complete every sentence before moving onto the next trial.</p><p>You will only have a few seconds to memorise each given photograph and phrase before you can respond, so try your best to focus.</p><p>An example is given below. Press 'Continue' when you are ready.</p><img src='img/speaking_example.jpg' style='width:800px;height:460px;''></img>",0,html-button-response,21,897366,0.0-4.0,23421,List1B,black,woman,,,,,,,,,,,,,
5719.8,"<p>Before the experiment starts, you will watch two example trials. Press 'Continue'.</p>",0,html-button-response,22,904095,0.0-5.0,23421,List1B,black,woman,,,,,,,,,,,,,
null,<img src='img/play_eg.gif' style='height:400px;''></img>,,html-keyboard-response,23,907115,0.0-6.0,23421,List1B,black,woman,,,,null,,,,,,,,,
null,<p>is playing with</p>,,html-keyboard-response,24,909125,0.0-7.0,23421,List1B,black,woman,,,,null,,,,,,,,,
5765.3,<p><b>Answer:</b> kate is playing with beth</p>,0,html-button-response,25,914894,0.0-8.0,23421,List1B,black,woman,,,,,,,,,,,,,
null,<img src='img/dance_eg.gif' style='height:400px;''></img>,,html-keyboard-response,26,917926,0.0-9.0,23421,List1B,black,woman,,,,null,,,,,,,,,
null,<p>is being entertained by</p>,,html-keyboard-response,27,919929,0.0-10.0,23421,List1B,black,woman,,,,null,,,,,,,,,
4155.1,<p><b>Answer:</b> luke is being entertained by dave</p>,0,html-button-response,28,924086,0.0-11.0,23421,List1B,black,woman,,,,,,,,,,,,,
26100.8,"<p>Ready to start the experiment?</p><br><p><strong>Remember to describe the picture using a full sentence,</strong></p><p><strong>that combines the names of the people with the <i>exact</i> phrase given.</strong></p><p><strong>To receive full payment you must do this correctly.</strong></p><p><strong> You do not need to capitalise names or use punctuation.</strong></p><br><p>Press 'Continue' to begin.</p>",0,html-button-response,29,951192,0.0-12.0,23421,List1B,black,woman,,,,,,,,,,,,,
null,"<div style=""font-size:60px;"">+</div>",,html-keyboard-response,30,952706,0.0-13.0-0.0,23421,List1B,black,woman,,,,null,,,,,,,,,
null,"<img src=""stim_listB/shout1.gif""style=""height:400px;""></stim_listB>",,html-keyboard-response,31,954719,0.0-13.0-1.0,23421,List1B,black,woman,,,,null,,,,,,,,,
null,is shouting at,,html-keyboard-response,32,956723,0.0-13.0-2.0,23421,List1B,black,woman,,,,null,,,,,,,,,
18563.4,,,survey-text,33,975297,0.0-13.0-3.0,23421,List1B,black,woman,,,,,"{""Q0"":""fred is yelling at beth""}","<img src=""stim_listB/shout1.gif""style=""height:400px;""></stim_listB>",is shouting at,,,,,,
null,"<div style=""font-size:60px;"">+</div>",,html-keyboard-response,34,975803,0.0-13.0-0.1,23421,List1B,black,woman,,,,null,,,,,,,,,
null,"<img src=""stim_listB/challenge3.gif""style=""height:400px;""></stim_listB>",,html-keyboard-response,35,977812,0.0-13.0-1.1,23421,List1B,black,woman,,,,null,,,,,,,,,
null,is challenging,,html-keyboard-response,36,979825,0.0-13.0-2.1,23421,List1B,black,woman,,,,null,,,,,,,,,
8728.3,,,survey-text,37,988562,0.0-13.0-3.1,23421,List1B,black,woman,,,,,"{""Q0"":""dave is challenging jane""}","<img src=""stim_listB/challenge3.gif""style=""height:400px;""></stim_listB>",is challenging,,,,,,
null,"<div style=""font-size:60px;"">+</div>",,html-keyboard-response,38,989079,0.0-13.0-0.2,23421,List1B,black,woman,,,,null,,,,,,,,,
null,"<img src=""stim_listB/challenge5.gif""style=""height:400px;""></stim_listB>",,html-keyboard-response,39,991099,0.0-13.0-1.2,23421,List1B,black,woman,,,,null,,,,,,,,,
null,is challenging,,html-keyboard-response,40,993111,0.0-13.0-2.2,23421,List1B,black,woman,,,,null,,,,,,,,,
5884.9,,,survey-text,41,999003,0.0-13.0-3.2,23421,List1B,black,woman,,,,,"{""Q0"":""luke is challenging mike""}","<img src=""stim_listB/challenge5.gif""style=""height:400px;""></stim_listB>",is challenging,,,,,,
null,"<div style=""font-size:60px;"">+</div>",,html-keyboard-response,42,999520,0.0-13.0-0.3,23421,List1B,black,woman,,,,null,,,,,,,,,
null,"<img src=""stim_listB/look2.gif""style=""height:400px;""></stim_listB>",,html-keyboard-response,43,1001536,0.0-13.0-1.3,23421,List1B,black,woman,,,,null,,,,,,,,,
null,is being looked at by,,html-keyboard-response,44,1003550,0.0-13.0-2.3,23421,List1B,black,woman,,,,null,,,,,,,,,
17742.6,,,survey-text,45,1021299,0.0-13.0-3.3,23421,List1B,black,woman,,,,,"{""Q0"":""mike is challenging kate""}","<img src=""stim_listB/look2.gif""style=""height:400px;""></stim_listB>",is being looked at by,,,,,,
null,"<div style=""font-size:60px;"">+</div>",,html-keyboard-response,46,1021815,0.0-13.0-0.4,23421,List1B,black,woman,,,,null,,,,,,,,,
null,"<img src=""stim_listB/shout7.gif""style=""height:400px;""></stim_listB>",,html-keyboard-response,47,1023823,0.0-13.0-1.4,23421,List1B,black,woman,,,,null,,,,,,,,,
null,is shouting at,,html-keyboard-response,48,1025826,0.0-13.0-2.4,23421,List1B,black,woman,,,,null,,,,,,,,,
11075.2,,,survey-text,49,1036910,0.0-13.0-3.4,23421,List1B,black,woman,,,,,"{""Q0"":""ruth is shouting at kate""}","<img src=""stim_listB/shout7.gif""style=""height:400px;""></stim_listB>",is shouting at,,,,,,
null,"<div style=""font-size:60px;"">+</div>",,html-keyboard-response,50,1037426,0.0-13.0-0.5,23421,List1B,black,woman,,,,null,,,,,,,,,
null,"<img src=""stim_listB/hug1.gif""style=""height:400px;""></stim_listB>",,html-keyboard-response,51,1039439,0.0-13.0-1.5,23421,List1B,black,woman,,,,null,,,,,,,,,
null,is hugging,,html-keyboard-response,52,1041456,0.0-13.0-2.5,23421,List1B,black,woman,,,,null,,,,,,,,,
12838.4,,,survey-text,53,1054304,0.0-13.0-3.5,23421,List1B,black,woman,,,,,"{""Q0"":""fred is hugging beth""}","<img src=""stim_listB/hug1.gif""style=""height:400px;""></stim_listB>",is hugging,,,,,,
null,"<div style=""font-size:60px;"">+</div>",,html-keyboard-response,54,1054820,0.0-13.0-0.6,23421,List1B,black,woman,,,,null,,,,,,,,,
null,"<img src=""stim_listB/touch2.gif""style=""height:400px;""></stim_listB>",,html-keyboard-response,55,1056835,0.0-13.0-1.6,23421,List1B,black,woman,,,,null,,,,,,,,,
null,is being touched by,,html-keyboard-response,56,1058838,0.0-13.0-2.6,23421,List1B,black,woman,,,,null,,,,,,,,,
8934.2,,,survey-text,57,1067782,0.0-13.0-3.6,23421,List1B,black,woman,,,,,"{""Q0"":""fred is being touched by beth""}","<img src=""stim_listB/touch2.gif""style=""height:400px;""></stim_listB>",is being touched by,,,,,,
null,"<div style=""font-size:60px;"">+</div>",,html-keyboard-response,58,1068292,0.0-13.0-0.7,23421,List1B,black,woman,,,,null,,,,,,,,,
null,"<img src=""stim_listB/greet4.gif""style=""height:400px;""></stim_listB>",,html-keyboard-response,59,1070307,0.0-13.0-1.7,23421,List1B,black,woman,,,,null,,,,,,,,,
null,is being greeted by,,html-keyboard-response,60,1072319,0.0-13.0-2.7,23421,List1B,black,woman,,,,null,,,,,,,,,
15169.2,,,survey-text,61,1087497,0.0-13.0-3.7,23421,List1B,black,woman,,,,,"{""Q0"":""jane is being greeted by luke""}","<img src=""stim_listB/greet4.gif""style=""height:400px;""></stim_listB>",is being greeted by,,,,,,
null,"<div style=""font-size:60px;"">+</div>",,html-keyboard-response,62,1088005,0.0-13.0-0.8,23421,List1B,black,woman,,,,null,,,,,,,,,
null,"<img src=""stim_listB/greet7.gif""style=""height:400px;""></stim_listB>",,html-keyboard-response,63,1090016,0.0-13.0-1.8,23421,List1B,black,woman,,,,null,,,,,,,,,
null,is greeting,,html-keyboard-response,64,1092018,0.0-13.0-2.8,23421,List1B,black,woman,,,,null,,,,,,,,,
17082.5,,,survey-text,65,1109108,0.0-13.0-3.8,23421,List1B,black,woman,,,,,"{""Q0"":""jane is greeting ruth""}","<img src=""stim_listB/greet7.gif""style=""height:400px;""></stim_listB>",is greeting,,,,,,
null,"<div style=""font-size:60px;"">+</div>",,html-keyboard-response,66,1109626,0.0-13.0-0.9,23421,List1B,black,woman,,,,null,,,,,,,,,
null,"<img src=""stim_listB/copy7.gif""style=""height:400px;""></stim_listB>",,html-keyboard-response,67,1111632,0.0-13.0-1.9,23421,List1B,black,woman,,,,null,,,,,,,,,
null,is copying,,html-keyboard-response,68,1113643,0.0-13.0-2.9,23421,List1B,black,woman,,,,null,,,,,,,,,
9619.5,,,survey-text,69,1123273,0.0-13.0-3.9,23421,List1B,black,woman,,,,,"{""Q0"":""jane is greeting kate""}","<img src=""stim_listB/copy7.gif""style=""height:400px;""></stim_listB>",is copying,,,,,,
null,"<div style=""font-size:60px;"">+</div>",,html-keyboard-response,70,1123793,0.0-13.0-0.10,23421,List1B,black,woman,,,,null,,,,,,,,,
null,"<img src=""stim_listB/greet8.gif""style=""height:400px;""></stim_listB>",,html-keyboard-response,71,1125808,0.0-13.0-1.10,23421,List1B,black,woman,,,,null,,,,,,,,,
null,is being greeted by,,html-keyboard-response,72,1127824,0.0-13.0-2.10,23421,List1B,black,woman,,,,null,,,,,,,,,
15350.6,,,survey-text,73,1143179,0.0-13.0-3.10,23421,List1B,black,woman,,,,,"{""Q0"":""beth is being greeted by jane""}","<img src=""stim_listB/greet8.gif""style=""height:400px;""></stim_listB>",is being greeted by,,,,,,
null,"<div style=""font-size:60px;"">+</div>",,html-keyboard-response,74,1143700,0.0-13.0-0.11,23421,List1B,black,woman,,,,null,,,,,,,,,
null,"<img src=""stim_listB/seduce1.gif""style=""height:400px;""></stim_listB>",,html-keyboard-response,75,1145719,0.0-13.0-1.11,23421,List1B,black,woman,,,,null,,,,,,,,,
null,is seducing,,html-keyboard-response,76,1147730,0.0-13.0-2.11,23421,List1B,black,woman,,,,null,,,,,,,,,
4877.7,,,survey-text,77,1152617,0.0-13.0-3.11,23421,List1B,black,woman,,,,,"{""Q0"":""ke is suducing kete""}","<img src=""stim_listB/seduce1.gif""style=""height:400px;""></stim_listB>",is seducing,,,,,,
null,"<div style=""font-size:60px;"">+</div>",,html-keyboard-response,78,1153126,0.0-13.0-0.12,23421,List1B,black,woman,,,,null,,,,,,,,,
null,"<img src=""stim_listB/challenge7.gif""style=""height:400px;""></stim_listB>",,html-keyboard-response,79,1155138,0.0-13.0-1.12,23421,List1B,black,woman,,,,null,,,,,,,,,
null,is challenging,,html-keyboard-response,80,1157141,0.0-13.0-2.12,23421,List1B,black,woman,,,,null,,,,,,,,,
6704.6,,,survey-text,81,1163854,0.0-13.0-3.12,23421,List1B,black,woman,,,,,"{""Q0"":""jane is challenging beth""}","<img src=""stim_listB/challenge7.gif""style=""height:400px;""></stim_listB>",is challenging,,,,,,
null,"<div style=""font-size:60px;"">+</div>",,html-keyboard-response,82,1164363,0.0-13.0-0.13,23421,List1B,black,woman,,,,null,,,,,,,,,
null,"<img src=""stim_listB/kiss3.gif""style=""height:400px;""></stim_listB>",,html-keyboard-response,83,1166373,0.0-13.0-1.13,23421,List1B,black,woman,,,,null,,,,,,,,,
null,is kissing,,html-keyboard-response,84,1168376,0.0-13.0-2.13,23421,List1B,black,woman,,,,null,,,,,,,,,
5623.8,,,survey-text,85,1174010,0.0-13.0-3.13,23421,List1B,black,woman,,,,,"{""Q0"":""luke is kissing jane""}","<img src=""stim_listB/kiss3.gif""style=""height:400px;""></stim_listB>",is kissing,,,,,,
null,"<div style=""font-size:60px;"">+</div>",,html-keyboard-response,86,1174518,0.0-13.0-0.14,23421,List1B,black,woman,,,,null,,,,,,,,,
null,"<img src=""stim_listB/challenge6.gif""style=""height:400px;""></stim_listB>",,html-keyboard-response,87,1176536,0.0-13.0-1.14,23421,List1B,black,woman,,,,null,,,,,,,,,
null,is being challenged by,,html-keyboard-response,88,1178548,0.0-13.0-2.14,23421,List1B,black,woman,,,,null,,,,,,,,,
21084.1,,,survey-text,89,1199643,0.0-13.0-3.14,23421,List1B,black,woman,,,,,"{""Q0"":""fred  being challenged by luke""}","<img src=""stim_listB/challenge6.gif""style=""height:400px;""></stim_listB>",is being challenged by,,,,,,
null,"<div style=""font-size:60px;"">+</div>",,html-keyboard-response,90,1200161,0.0-13.0-0.15,23421,List1B,black,woman,,,,null,,,,,,,,,
null,"<img src=""stim_listB/kiss4.gif""style=""height:400px;""></stim_listB>",,html-keyboard-response,91,1202171,0.0-13.0-1.15,23421,List1B,black,woman,,,,null,,,,,,,,,
null,is being kissed by,,html-keyboard-response,92,1204184,0.0-13.0-2.15,23421,List1B,black,woman,,,,null,,,,,,,,,
23809.8,,,survey-text,93,1228004,0.0-13.0-3.15,23421,List1B,black,woman,,,,,"{""Q0"":""jane is being kissed by dave""}","<img src=""stim_listB/kiss4.gif""style=""height:400px;""></stim_listB>",is being kissed by,,,,,,
null,"<div style=""font-size:60px;"">+</div>",,html-keyboard-response,94,1228514,0.0-13.0-0.16,23421,List1B,black,woman,,,,null,,,,,,,,,
null,"<img src=""stim_listB/touch4.gif""style=""height:400px;""></stim_listB>",,html-keyboard-response,95,1230531,0.0-13.0-1.16,23421,List1B,black,woman,,,,null,,,,,,,,,
null,is being touched by,,html-keyboard-response,96,1232549,0.0-13.0-2.16,23421,List1B,black,woman,,,,null,,,,,,,,,
13876.4,,,survey-text,97,1246435,0.0-13.0-3.16,23421,List1B,black,woman,,,,,"{""Q0"":""luke is being touched by jane""}","<img src=""stim_listB/touch4.gif""style=""height:400px;""></stim_listB>",is being touched by,,,,,,
null,"<div style=""font-size:60px;"">+</div>",,html-keyboard-response,98,1246955,0.0-13.0-0.17,23421,List1B,black,woman,,,,null,,,,,,,,,
null,"<img src=""stim_listB/hug6.gif""style=""height:400px;""></stim_listB>",,html-keyboard-response,99,1248964,0.0-13.0-1.17,23421,List1B,black,woman,,,,null,,,,,,,,,
null,is being hugged by,,html-keyboard-response,100,1250984,0.0-13.0-2.17,23421,List1B,black,woman,,,,null,,,,,,,,,
15020.3,,,survey-text,101,1266013,0.0-13.0-3.17,23421,List1B,black,woman,,,,,"{""Q0"":""luke is being hugged by mike""}","<img src=""stim_listB/hug6.gif""style=""height:400px;""></stim_listB>",is being hugged by,,,,,,
null,"<div style=""font-size:60px;"">+</div>",,html-keyboard-response,102,1266530,0.0-13.0-0.18,23421,List1B,black,woman,,,,null,,,,,,,,,
null,"<img src=""stim_listB/greet1.gif""style=""height:400px;""></stim_listB>",,html-keyboard-response,103,1268545,0.0-13.0-1.18,23421,List1B,black,woman,,,,null,,,,,,,,,
null,is greeting,,html-keyboard-response,104,1270548,0.0-13.0-2.18,23421,List1B,black,woman,,,,null,,,,,,,,,
7688.7,,,survey-text,105,1278246,0.0-13.0-3.18,23421,List1B,black,woman,,,,,"{""Q0"":""beth is greeted by mike""}","<img src=""stim_listB/greet1.gif""style=""height:400px;""></stim_listB>",is greeting,,,,,,
null,"<div style=""font-size:60px;"">+</div>",,html-keyboard-response,106,1278758,0.0-13.0-0.19,23421,List1B,black,woman,,,,null,,,,,,,,,
null,"<img src=""stim_listB/challenge1.gif""style=""height:400px;""></stim_listB>",,html-keyboard-response,107,1280776,0.0-13.0-1.19,23421,List1B,black,woman,,,,null,,,,,,,,,
null,is challenging,,html-keyboard-response,108,1282787,0.0-13.0-2.19,23421,List1B,black,woman,,,,null,,,,,,,,,
5911.6,,,survey-text,109,1288716,0.0-13.0-3.19,23421,List1B,black,woman,,,,,"{""Q0"":""beth is challenging mike""}","<img src=""stim_listB/challenge1.gif""style=""height:400px;""></stim_listB>",is challenging,,,,,,
52025.7,"<img src='img/portrait_matrix_list1.jpg' style='width:900px;height:500px;''></img><p>If you have memorised all the portraits and names and are ready to start, press Continue.</p><p><strong>Please note: Your memory of these faces will be tested 4 times during this experiment.</strong></p>",0,html-button-response,110,1340746,0.0-14.0-0.0,23421,List1B,black,woman,,,,,,,,,,,,,
5426.1,"<img src=""portrait/BW1.jpg""style=""height:400px;""></img>",0,html-button-response,111,1347178,0.0-14.0-1.0,23421,List1B,black,woman,,TRUE,0,,,,,,,,,,
null,CORRECT,,html-keyboard-response,112,1348690,0.0-14.0-2.0-0.0,23421,List1B,black,woman,,,,null,,,,,,,,,
4011.7,"<img src=""portrait/WW2.jpg""style=""height:400px;""></img>",3,html-button-response,113,1352706,0.0-14.0-4.0,23421,List1B,black,woman,,TRUE,3,,,,,,,,,,
null,CORRECT,,html-keyboard-response,114,1354219,0.0-14.0-5.0-0.0,23421,List1B,black,woman,,,,null,,,,,,,,,
2864.8,"<img src=""portrait/BW2.jpg""style=""height:400px;""></img>",2,html-button-response,115,1357088,0.0-14.0-7.0,23421,List1B,black,woman,,TRUE,2,,,,,,,,,,
null,CORRECT,,html-keyboard-response,116,1358608,0.0-14.0-8.0-0.0,23421,List1B,black,woman,,,,null,,,,,,,,,
3978.9,"<img src=""portrait/WM2.jpg""style=""height:400px;""></img>",7,html-button-response,117,1362591,0.0-14.0-10.0,23421,List1B,black,woman,,TRUE,7,,,,,,,,,,
null,CORRECT,,html-keyboard-response,118,1364117,0.0-14.0-11.0-0.0,23421,List1B,black,woman,,,,null,,,,,,,,,
3250.5,"<img src=""portrait/WM1.jpg""style=""height:400px;""></img>",6,html-button-response,119,1367371,0.0-14.0-13.0,23421,List1B,black,woman,,TRUE,6,,,,,,,,,,
null,CORRECT,,html-keyboard-response,120,1368882,0.0-14.0-14.0-0.0,23421,List1B,black,woman,,,,null,,,,,,,,,
2811.5,"<img src=""portrait/BM2.jpg""style=""height:400px;""></img>",5,html-button-response,121,1371698,0.0-14.0-16.0,23421,List1B,black,woman,,TRUE,5,,,,,,,,,,
null,CORRECT,,html-keyboard-response,122,1373223,0.0-14.0-17.0-0.0,23421,List1B,black,woman,,,,null,,,,,,,,,
1987.5,"<img src=""portrait/BM1.jpg""style=""height:400px;""></img>",4,html-button-response,123,1375214,0.0-14.0-19.0,23421,List1B,black,woman,,TRUE,4,,,,,,,,,,
null,CORRECT,,html-keyboard-response,124,1376733,0.0-14.0-20.0-0.0,23421,List1B,black,woman,,,,null,,,,,,,,,
3034.5,"<img src=""portrait/WW1.jpg""style=""height:400px;""></img>",1,html-button-response,125,1379771,0.0-14.0-22.0,23421,List1B,black,woman,,TRUE,1,,,,,,,,,,
null,CORRECT,,html-keyboard-response,126,1381289,0.0-14.0-23.0-0.0,23421,List1B,black,woman,,,,null,,,,,,,,,
2706.2,<p>You got 8 out of 8 right first time. Press Continue.</p>,0,html-button-response,127,1383998,0.0-14.0-25.0,23421,List1B,black,woman,,,,,,,,,,,,,
null,"<div style=""font-size:60px;"">+</div>",,html-keyboard-response,128,1385512,0.0-15.0-0.0,23421,List1B,black,woman,,,,null,,,,,,,,,
null,"<img src=""stim_listB/shout6.gif""style=""height:400px;""></stim_listB>",,html-keyboard-response,129,1387530,0.0-15.0-1.0,23421,List1B,black,woman,,,,null,,,,,,,,,
null,is being shouted at by,,html-keyboard-response,130,1389540,0.0-15.0-2.0,23421,List1B,black,woman,,,,null,,,,,,,,,
9897.8,,,survey-text,131,1399446,0.0-15.0-3.0,23421,List1B,black,woman,,,,,"{""Q0"":""dave is shouted at by mike""}","<img src=""stim_listB/shout6.gif""style=""height:400px;""></stim_listB>",is being shouted at by,,,,,,
null,"<div style=""font-size:60px;"">+</div>",,html-keyboard-response,132,1399959,0.0-15.0-0.1,23421,List1B,black,woman,,,,null,,,,,,,,,
null,"<img src=""stim_listB/seduce5.gif""style=""height:400px;""></stim_listB>",,html-keyboard-response,133,1401978,0.0-15.0-1.1,23421,List1B,black,woman,,,,null,,,,,,,,,
null,is seducing,,html-keyboard-response,134,1403993,0.0-15.0-2.1,23421,List1B,black,woman,,,,null,,,,,,,,,
20255.6,,,survey-text,135,1424258,0.0-15.0-3.1,23421,List1B,black,woman,,,,,"{""Q0"":""fred is seducing dave""}","<img src=""stim_listB/seduce5.gif""style=""height:400px;""></stim_listB>",is seducing,,,,,,
null,"<div style=""font-size:60px;"">+</div>",,html-keyboard-response,136,1424768,0.0-15.0-0.2,23421,List1B,black,woman,,,,null,,,,,,,,,
null,"<img src=""stim_listB/oppose5.gif""style=""height:400px;""></stim_listB>",,html-keyboard-response,137,1426782,0.0-15.0-1.2,23421,List1B,black,woman,,,,null,,,,,,,,,
null,is opposing,,html-keyboard-response,138,1428787,0.0-15.0-2.2,23421,List1B,black,woman,,,,null,,,,,,,,,
6332,,,survey-text,139,1435129,0.0-15.0-3.2,23421,List1B,black,woman,,,,,"{""Q0"":""mike is opposing dave""}","<img src=""stim_listB/oppose5.gif""style=""height:400px;""></stim_listB>",is opposing,,,,,,
null,"<div style=""font-size:60px;"">+</div>",,html-keyboard-response,140,1435637,0.0-15.0-0.3,23421,List1B,black,woman,,,,null,,,,,,,,,
null,"<img src=""stim_listB/look7.gif""style=""height:400px;""></stim_listB>",,html-keyboard-response,141,1437655,0.0-15.0-1.3,23421,List1B,black,woman,,,,null,,,,,,,,,
null,is looking at,,html-keyboard-response,142,1439673,0.0-15.0-2.3,23421,List1B,black,woman,,,,null,,,,,,,,,
6250.3,,,survey-text,143,1445934,0.0-15.0-3.3,23421,List1B,black,woman,,,,,"{""Q0"":""beth is looking at jane""}","<img src=""stim_listB/look7.gif""style=""height:400px;""></stim_listB>",is looking at,,,,,,
null,"<div style=""font-size:60px;"">+</div>",,html-keyboard-response,144,1446454,0.0-15.0-0.4,23421,List1B,black,woman,,,,null,,,,,,,,,
null,"<img src=""stim_listB/oppose3.gif""style=""height:400px;""></stim_listB>",,html-keyboard-response,145,1448473,0.0-15.0-1.4,23421,List1B,black,woman,,,,null,,,,,,,,,
null,is opposing,,html-keyboard-response,146,1450484,0.0-15.0-2.4,23421,List1B,black,woman,,,,null,,,,,,,,,
10423.3,,,survey-text,147,1460918,0.0-15.0-3.4,23421,List1B,black,woman,,,,,"{""Q0"":""jane is opposing luke""}","<img src=""stim_listB/oppose3.gif""style=""height:400px;""></stim_listB>",is opposing,,,,,,
null,"<div style=""font-size:60px;"">+</div>",,html-keyboard-response,148,1461430,0.0-15.0-0.5,23421,List1B,black,woman,,,,null,,,,,,,,,
null,"<img src=""stim_listB/hug8.gif""style=""height:400px;""></stim_listB>",,html-keyboard-response,149,1463437,0.0-15.0-1.5,23421,List1B,black,woman,,,,null,,,,,,,,,
null,is being hugged by,,html-keyboard-response,150,1465454,0.0-15.0-2.5,23421,List1B,black,woman,,,,null,,,,,,,,,
13944.9,,,survey-text,151,1479414,0.0-15.0-3.5,23421,List1B,black,woman,,,,,"{""Q0"":""kate is being hugged by jane""}","<img src=""stim_listB/hug8.gif""style=""height:400px;""></stim_listB>",is being hugged by,,,,,,
null,"<div style=""font-size:60px;"">+</div>",,html-keyboard-response,152,1479922,0.0-15.0-0.6,23421,List1B,black,woman,,,,null,,,,,,,,,
null,"<img src=""stim_listB/copy8.gif""style=""height:400px;""></stim_listB>",,html-keyboard-response,153,1481933,0.0-15.0-1.6,23421,List1B,black,woman,,,,null,,,,,,,,,
null,is being copied by,,html-keyboard-response,154,1483936,0.0-15.0-2.6,23421,List1B,black,woman,,,,null,,,,,,,,,
8991,,,survey-text,155,1492938,0.0-15.0-3.6,23421,List1B,black,woman,,,,,"{""Q0"":""beth is being copied by jane""}","<img src=""stim_listB/copy8.gif""style=""height:400px;""></stim_listB>",is being copied by,,,,,,
null,"<div style=""font-size:60px;"">+</div>",,html-keyboard-response,156,1493456,0.0-15.0-0.7,23421,List1B,black,woman,,,,null,,,,,,,,,
null,"<img src=""stim_listB/oppose2.gif""style=""height:400px;""></stim_listB>",,html-keyboard-response,157,1495472,0.0-15.0-1.7,23421,List1B,black,woman,,,,null,,,,,,,,,
null,is being opposed by,,html-keyboard-response,158,1497484,0.0-15.0-2.7,23421,List1B,black,woman,,,,null,,,,,,,,,
13694.9,,,survey-text,159,1511186,0.0-15.0-3.7,23421,List1B,black,woman,,,,,"{""Q0"":""beth is being opposed by fred""}","<img src=""stim_listB/oppose2.gif""style=""height:400px;""></stim_listB>",is being opposed by,,,,,,
null,"<div style=""font-size:60px;"">+</div>",,html-keyboard-response,160,1511704,0.0-15.0-0.8,23421,List1B,black,woman,,,,null,,,,,,,,,
null,"<img src=""stim_listB/kiss8.gif""style=""height:400px;""></stim_listB>",,html-keyboard-response,161,1513711,0.0-15.0-1.8,23421,List1B,black,woman,,,,null,,,,,,,,,
null,is being kissed by,,html-keyboard-response,162,1515729,0.0-15.0-2.8,23421,List1B,black,woman,,,,null,,,,,,,,,
8668.5,,,survey-text,163,1524410,0.0-15.0-3.8,23421,List1B,black,woman,,,,,"{""Q0"":"" kate is being kissed by jane""}","<img src=""stim_listB/kiss8.gif""style=""height:400px;""></stim_listB>",is being kissed by,,,,,,
null,"<div style=""font-size:60px;"">+</div>",,html-keyboard-response,164,1524931,0.0-15.0-0.9,23421,List1B,black,woman,,,,null,,,,,,,,,
null,"<img src=""stim_listB/kiss7.gif""style=""height:400px;""></stim_listB>",,html-keyboard-response,165,1526948,0.0-15.0-1.9,23421,List1B,black,woman,,,,null,,,,,,,,,
null,is kissing,,html-keyboard-response,166,1528961,0.0-15.0-2.9,23421,List1B,black,woman,,,,null,,,,,,,,,
9394.4,,,survey-text,167,1538363,0.0-15.0-3.9,23421,List1B,black,woman,,,,,"{""Q0"":""beth is kissing jane""}","<img src=""stim_listB/kiss7.gif""style=""height:400px;""></stim_listB>",is kissing,,,,,,
null,"<div style=""font-size:60px;"">+</div>",,html-keyboard-response,168,1538873,0.0-15.0-0.10,23421,List1B,black,woman,,,,null,,,,,,,,,
null,"<img src=""stim_listB/look8.gif""style=""height:400px;""></stim_listB>",,html-keyboard-response,169,1540880,0.0-15.0-1.10,23421,List1B,black,woman,,,,null,,,,,,,,,
null,is being looked at by,,html-keyboard-response,170,1542883,0.0-15.0-2.10,23421,List1B,black,woman,,,,null,,,,,,,,,
12946.4,,,survey-text,171,1555838,0.0-15.0-3.10,23421,List1B,black,woman,,,,,"{""Q0"":""kate is being looked at by jane""}","<img src=""stim_listB/look8.gif""style=""height:400px;""></stim_listB>",is being looked at by,,,,,,
null,"<div style=""font-size:60px;"">+</div>",,html-keyboard-response,172,1556348,0.0-15.0-0.11,23421,List1B,black,woman,,,,null,,,,,,,,,
null,"<img src=""stim_listB/copy4.gif""style=""height:400px;""></stim_listB>",,html-keyboard-response,173,1558359,0.0-15.0-1.11,23421,List1B,black,woman,,,,null,,,,,,,,,
null,is being copied by,,html-keyboard-response,174,1560367,0.0-15.0-2.11,23421,List1B,black,woman,,,,null,,,,,,,,,
13667,,,survey-text,175,1574045,0.0-15.0-3.11,23421,List1B,black,woman,,,,,"{""Q0"":""jane is being copied by luke""}","<img src=""stim_listB/copy4.gif""style=""height:400px;""></stim_listB>",is being copied by,,,,,,
null,"<div style=""font-size:60px;"">+</div>",,html-keyboard-response,176,1574562,0.0-15.0-0.12,23421,List1B,black,woman,,,,null,,,,,,,,,
null,"<img src=""stim_listB/copy2.gif""style=""height:400px;""></stim_listB>",,html-keyboard-response,177,1576576,0.0-15.0-1.12,23421,List1B,black,woman,,,,null,,,,,,,,,
null,is being copied by,,html-keyboard-response,178,1578579,0.0-15.0-2.12,23421,List1B,black,woman,,,,null,,,,,,,,,
7161.9,,,survey-text,179,1585751,0.0-15.0-3.12,23421,List1B,black,woman,,,,,"{""Q0"":""fred is being copied by kate""}","<img src=""stim_listB/copy2.gif""style=""height:400px;""></stim_listB>",is being copied by,,,,,,
null,"<div style=""font-size:60px;"">+</div>",,html-keyboard-response,180,1586268,0.0-15.0-0.13,23421,List1B,black,woman,,,,null,,,,,,,,,
null,"<img src=""stim_listB/seduce2.gif""style=""height:400px;""></stim_listB>",,html-keyboard-response,181,1588278,0.0-15.0-1.13,23421,List1B,black,woman,,,,null,,,,,,,,,
null,is being seduced by,,html-keyboard-response,182,1590297,0.0-15.0-2.13,23421,List1B,black,woman,,,,null,,,,,,,,,
34270.4,,,survey-text,183,1624572,0.0-15.0-3.13,23421,List1B,black,woman,,,,,"{""Q0"":""mike is being seduced by beth""}","<img src=""stim_listB/seduce2.gif""style=""height:400px;""></stim_listB>",is being seduced by,,,,,,
null,"<div style=""font-size:60px;"">+</div>",,html-keyboard-response,184,1625090,0.0-15.0-0.14,23421,List1B,black,woman,,,,null,,,,,,,,,
null,"<img src=""stim_listB/seduce3.gif""style=""height:400px;""></stim_listB>",,html-keyboard-response,185,1627096,0.0-15.0-1.14,23421,List1B,black,woman,,,,null,,,,,,,,,
null,is seducing,,html-keyboard-response,186,1629100,0.0-15.0-2.14,23421,List1B,black,woman,,,,null,,,,,,,,,
10900.3,,,survey-text,187,1640010,0.0-15.0-3.14,23421,List1B,black,woman,,,,,"{""Q0"":""jane is seducing luke""}","<img src=""stim_listB/seduce3.gif""style=""height:400px;""></stim_listB>",is seducing,,,,,,
null,"<div style=""font-size:60px;"">+</div>",,html-keyboard-response,188,1640518,0.0-15.0-0.15,23421,List1B,black,woman,,,,null,,,,,,,,,
null,"<img src=""stim_listB/hug3.gif""style=""height:400px;""></stim_listB>",,html-keyboard-response,189,1642529,0.0-15.0-1.15,23421,List1B,black,woman,,,,null,,,,,,,,,
null,is hugging,,html-keyboard-response,190,1644533,0.0-15.0-2.15,23421,List1B,black,woman,,,,null,,,,,,,,,
4879.4,,,survey-text,191,1649421,0.0-15.0-3.15,23421,List1B,black,woman,,,,,"{""Q0"":""ruth is hugging luke""}","<img src=""stim_listB/hug3.gif""style=""height:400px;""></stim_listB>",is hugging,,,,,,
null,"<div style=""font-size:60px;"">+</div>",,html-keyboard-response,192,1649937,0.0-15.0-0.16,23421,List1B,black,woman,,,,null,,,,,,,,,
null,"<img src=""stim_listB/hug4.gif""style=""height:400px;""></stim_listB>",,html-keyboard-response,193,1651957,0.0-15.0-1.16,23421,List1B,black,woman,,,,null,,,,,,,,,
null,is being hugged by,,html-keyboard-response,194,1653969,0.0-15.0-2.16,23421,List1B,black,woman,,,,null,,,,,,,,,
5559.2,,,survey-text,195,1659538,0.0-15.0-3.16,23421,List1B,black,woman,,,,,"{""Q0"":""jane is bugging dave""}","<img src=""stim_listB/hug4.gif""style=""height:400px;""></stim_listB>",is being hugged by,,,,,,
null,"<div style=""font-size:60px;"">+</div>",,html-keyboard-response,196,1660046,0.0-15.0-0.17,23421,List1B,black,woman,,,,null,,,,,,,,,
null,"<img src=""stim_listB/touch5.gif""style=""height:400px;""></stim_listB>",,html-keyboard-response,197,1662062,0.0-15.0-1.17,23421,List1B,black,woman,,,,null,,,,,,,,,
null,is touching,,html-keyboard-response,198,1664073,0.0-15.0-2.17,23421,List1B,black,woman,,,,null,,,,,,,,,
3887.7,,,survey-text,199,1667971,0.0-15.0-3.17,23421,List1B,black,woman,,,,,"{""Q0"":""dave is touching mike""}","<img src=""stim_listB/touch5.gif""style=""height:400px;""></stim_listB>",is touching,,,,,,
null,"<div style=""font-size:60px;"">+</div>",,html-keyboard-response,200,1668488,0.0-15.0-0.18,23421,List1B,black,woman,,,,null,,,,,,,,,
null,"<img src=""stim_listB/copy5.gif""style=""height:400px;""></stim_listB>",,html-keyboard-response,201,1670498,0.0-15.0-1.18,23421,List1B,black,woman,,,,null,,,,,,,,,
null,is copying,,html-keyboard-response,202,1672502,0.0-15.0-2.18,23421,List1B,black,woman,,,,null,,,,,,,,,
6255,,,survey-text,203,1678768,0.0-15.0-3.18,23421,List1B,black,woman,,,,,"{""Q0"":""luke is copying mike""}","<img src=""stim_listB/copy5.gif""style=""height:400px;""></stim_listB>",is copying,,,,,,
null,"<div style=""font-size:60px;"">+</div>",,html-keyboard-response,204,1679288,0.0-15.0-0.19,23421,List1B,black,woman,,,,null,,,,,,,,,
null,"<img src=""stim_listB/kiss6.gif""style=""height:400px;""></stim_listB>",,html-keyboard-response,205,1681298,0.0-15.0-1.19,23421,List1B,black,woman,,,,null,,,,,,,,,
null,is being kissed by,,html-keyboard-response,206,1683309,0.0-15.0-2.19,23421,List1B,black,woman,,,,null,,,,,,,,,
11497.1,,,survey-text,207,1694818,0.0-15.0-3.19,23421,List1B,black,woman,,,,,"{""Q0"":""dave is being kissed by mike""}","<img src=""stim_listB/kiss6.gif""style=""height:400px;""></stim_listB>",is being kissed by,,,,,,
17447.7,"<img src='img/portrait_matrix_list1.jpg' style='width:900px;height:500px;''></img><p>If you have memorised all the portraits and names and are ready to start, press Continue.</p><p><strong>Please note: Your memory of these faces will be tested 4 times during this experiment.</strong></p>",0,html-button-response,208,1712273,0.0-16.0-0.0,23421,List1B,black,woman,,,,,,,,,,,,,
6364.5,"<img src=""portrait/WM1.jpg""style=""height:400px;""></img>",6,html-button-response,209,1719648,0.0-16.0-1.0,23421,List1B,black,woman,,TRUE,6,,,,,,,,,,
null,CORRECT,,html-keyboard-response,210,1721183,0.0-16.0-2.0-0.0,23421,List1B,black,woman,,,,null,,,,,,,,,
1839.3,"<img src=""portrait/WM2.jpg""style=""height:400px;""></img>",7,html-button-response,211,1723027,0.0-16.0-4.0,23421,List1B,black,woman,,TRUE,7,,,,,,,,,,
null,CORRECT,,html-keyboard-response,212,1724544,0.0-16.0-5.0-0.0,23421,List1B,black,woman,,,,null,,,,,,,,,
3195.8,"<img src=""portrait/BM2.jpg""style=""height:400px;""></img>",5,html-button-response,213,1727744,0.0-16.0-7.0,23421,List1B,black,woman,,TRUE,5,,,,,,,,,,
null,CORRECT,,html-keyboard-response,214,1729266,0.0-16.0-8.0-0.0,23421,List1B,black,woman,,,,null,,,,,,,,,
2271.9,"<img src=""portrait/BM1.jpg""style=""height:400px;""></img>",4,html-button-response,215,1731543,0.0-16.0-10.0,23421,List1B,black,woman,,TRUE,4,,,,,,,,,,
null,CORRECT,,html-keyboard-response,216,1733054,0.0-16.0-11.0-0.0,23421,List1B,black,woman,,,,null,,,,,,,,,
3224.8,"<img src=""portrait/WW1.jpg""style=""height:400px;""></img>",1,html-button-response,217,1736284,0.0-16.0-13.0,23421,List1B,black,woman,,TRUE,1,,,,,,,,,,
null,CORRECT,,html-keyboard-response,218,1737809,0.0-16.0-14.0-0.0,23421,List1B,black,woman,,,,null,,,,,,,,,
1677.1,"<img src=""portrait/BW2.jpg""style=""height:400px;""></img>",2,html-button-response,219,1739490,0.0-16.0-16.0,23421,List1B,black,woman,,TRUE,2,,,,,,,,,,
null,CORRECT,,html-keyboard-response,220,1741011,0.0-16.0-17.0-0.0,23421,List1B,black,woman,,,,null,,,,,,,,,
2920.7,"<img src=""portrait/BW1.jpg""style=""height:400px;""></img>",0,html-button-response,221,1743935,0.0-16.0-19.0,23421,List1B,black,woman,,TRUE,0,,,,,,,,,,
null,CORRECT,,html-keyboard-response,222,1745464,0.0-16.0-20.0-0.0,23421,List1B,black,woman,,,,null,,,,,,,,,
2188.4,"<img src=""portrait/WW2.jpg""style=""height:400px;""></img>",3,html-button-response,223,1747656,0.0-16.0-22.0,23421,List1B,black,woman,,TRUE,3,,,,,,,,,,
null,CORRECT,,html-keyboard-response,224,1749176,0.0-16.0-23.0-0.0,23421,List1B,black,woman,,,,null,,,,,,,,,
1997.9,<p>You got 8 out of 8 right first time. Press Continue.</p>,0,html-button-response,225,1751177,0.0-16.0-25.0,23421,List1B,black,woman,,,,,,,,,,,,,
null,"<div style=""font-size:60px;"">+</div>",,html-keyboard-response,226,1752705,0.0-17.0-0.0,23421,List1B,black,woman,,,,null,,,,,,,,,
null,"<img src=""stim_listB/seduce8.gif""style=""height:400px;""></stim_listB>",,html-keyboard-response,227,1754727,0.0-17.0-1.0,23421,List1B,black,woman,,,,null,,,,,,,,,
null,is being seduced by,,html-keyboard-response,228,1756736,0.0-17.0-2.0,23421,List1B,black,woman,,,,null,,,,,,,,,
10323.1,,,survey-text,229,1767068,0.0-17.0-3.0,23421,List1B,black,woman,,,,,"{""Q0"":""kate is being seduced by ruth""}","<img src=""stim_listB/seduce8.gif""style=""height:400px;""></stim_listB>",is being seduced by,,,,,,
null,"<div style=""font-size:60px;"">+</div>",,html-keyboard-response,230,1767576,0.0-17.0-0.1,23421,List1B,black,woman,,,,null,,,,,,,,,
null,"<img src=""stim_listB/oppose1.gif""style=""height:400px;""></stim_listB>",,html-keyboard-response,231,1769590,0.0-17.0-1.1,23421,List1B,black,woman,,,,null,,,,,,,,,
null,is opposing,,html-keyboard-response,232,1771605,0.0-17.0-2.1,23421,List1B,black,woman,,,,null,,,,,,,,,
6706,,,survey-text,233,1778321,0.0-17.0-3.1,23421,List1B,black,woman,,,,,"{""Q0"":""jane is opposing mike""}","<img src=""stim_listB/oppose1.gif""style=""height:400px;""></stim_listB>",is opposing,,,,,,
null,"<div style=""font-size:60px;"">+</div>",,html-keyboard-response,234,1778831,0.0-17.0-0.2,23421,List1B,black,woman,,,,null,,,,,,,,,
null,"<img src=""stim_listB/challenge4.gif""style=""height:400px;""></stim_listB>",,html-keyboard-response,235,1780844,0.0-17.0-1.2,23421,List1B,black,woman,,,,null,,,,,,,,,
null,is being challenged by,,html-keyboard-response,236,1782847,0.0-17.0-2.2,23421,List1B,black,woman,,,,null,,,,,,,,,
14314.2,,,survey-text,237,1797170,0.0-17.0-3.2,23421,List1B,black,woman,,,,,"{""Q0"":""ruth is opposing luke""}","<img src=""stim_listB/challenge4.gif""style=""height:400px;""></stim_listB>",is being challenged by,,,,,,
null,"<div style=""font-size:60px;"">+</div>",,html-keyboard-response,238,1797688,0.0-17.0-0.3,23421,List1B,black,woman,,,,null,,,,,,,,,
null,"<img src=""stim_listB/hug7.gif""style=""height:400px;""></stim_listB>",,html-keyboard-response,239,1799695,0.0-17.0-1.3,23421,List1B,black,woman,,,,null,,,,,,,,,
null,is hugging,,html-keyboard-response,240,1801706,0.0-17.0-2.3,23421,List1B,black,woman,,,,null,,,,,,,,,
4571.6,,,survey-text,241,1806283,0.0-17.0-3.3,23421,List1B,black,woman,,,,,"{""Q0"":""ruth is hugging beth""}","<img src=""stim_listB/hug7.gif""style=""height:400px;""></stim_listB>",is hugging,,,,,,
null,"<div style=""font-size:60px;"">+</div>",,html-keyboard-response,242,1806800,0.0-17.0-0.4,23421,List1B,black,woman,,,,null,,,,,,,,,
null,"<img src=""stim_listB/oppose6.gif""style=""height:400px;""></stim_listB>",,html-keyboard-response,243,1808813,0.0-17.0-1.4,23421,List1B,black,woman,,,,null,,,,,,,,,
null,is being opposed by,,html-keyboard-response,244,1810823,0.0-17.0-2.4,23421,List1B,black,woman,,,,null,,,,,,,,,
7920.5,,,survey-text,245,1818754,0.0-17.0-3.4,23421,List1B,black,woman,,,,,"{""Q0"":""luke is being opposed by fred""}","<img src=""stim_listB/oppose6.gif""style=""height:400px;""></stim_listB>",is being opposed by,,,,,,
null,"<div style=""font-size:60px;"">+</div>",,html-keyboard-response,246,1819262,0.0-17.0-0.5,23421,List1B,black,woman,,,,null,,,,,,,,,
null,"<img src=""stim_listB/oppose7.gif""style=""height:400px;""></stim_listB>",,html-keyboard-response,247,1821274,0.0-17.0-1.5,23421,List1B,black,woman,,,,null,,,,,,,,,
null,is opposing,,html-keyboard-response,248,1823277,0.0-17.0-2.5,23421,List1B,black,woman,,,,null,,,,,,,,,
7661,,,survey-text,249,1830949,0.0-17.0-3.5,23421,List1B,black,woman,,,,,"{""Q0"":""jane is opposing kate""}","<img src=""stim_listB/oppose7.gif""style=""height:400px;""></stim_listB>",is opposing,,,,,,
null,"<div style=""font-size:60px;"">+</div>",,html-keyboard-response,250,1831469,0.0-17.0-0.6,23421,List1B,black,woman,,,,null,,,,,,,,,
null,"<img src=""stim_listB/touch6.gif""style=""height:400px;""></stim_listB>",,html-keyboard-response,251,1833481,0.0-17.0-1.6,23421,List1B,black,woman,,,,null,,,,,,,,,
null,is being touched by,,html-keyboard-response,252,1835500,0.0-17.0-2.6,23421,List1B,black,woman,,,,null,,,,,,,,,
12447.5,,,survey-text,253,1847957,0.0-17.0-3.6,23421,List1B,black,woman,,,,,"{""Q0"":""lukeis being touched by fred""}","<img src=""stim_listB/touch6.gif""style=""height:400px;""></stim_listB>",is being touched by,,,,,,
null,"<div style=""font-size:60px;"">+</div>",,html-keyboard-response,254,1848479,0.0-17.0-0.7,23421,List1B,black,woman,,,,null,,,,,,,,,
null,"<img src=""stim_listB/touch7.gif""style=""height:400px;""></stim_listB>",,html-keyboard-response,255,1850497,0.0-17.0-1.7,23421,List1B,black,woman,,,,null,,,,,,,,,
null,is touching,,html-keyboard-response,256,1852509,0.0-17.0-2.7,23421,List1B,black,woman,,,,null,,,,,,,,,
6919,,,survey-text,257,1859438,0.0-17.0-3.7,23421,List1B,black,woman,,,,,"{""Q0"":""kate is touching jane""}","<img src=""stim_listB/touch7.gif""style=""height:400px;""></stim_listB>",is touching,,,,,,
null,"<div style=""font-size:60px;"">+</div>",,html-keyboard-response,258,1859948,0.0-17.0-0.8,23421,List1B,black,woman,,,,null,,,,,,,,,
null,"<img src=""stim_listB/challenge8.gif""style=""height:400px;""></stim_listB>",,html-keyboard-response,259,1861962,0.0-17.0-1.8,23421,List1B,black,woman,,,,null,,,,,,,,,
null,is being challenged by,,html-keyboard-response,260,1863969,0.0-17.0-2.8,23421,List1B,black,woman,,,,null,,,,,,,,,
13851,,,survey-text,261,1877830,0.0-17.0-3.8,23421,List1B,black,woman,,,,,"{""Q0"":""kate is being challenged by jane""}","<img src=""stim_listB/challenge8.gif""style=""height:400px;""></stim_listB>",is being challenged by,,,,,,
null,"<div style=""font-size:60px;"">+</div>",,html-keyboard-response,262,1878339,0.0-17.0-0.9,23421,List1B,black,woman,,,,null,,,,,,,,,
null,"<img src=""stim_listB/oppose8.gif""style=""height:400px;""></stim_listB>",,html-keyboard-response,263,1880359,0.0-17.0-1.9,23421,List1B,black,woman,,,,null,,,,,,,,,
null,is being opposed by,,html-keyboard-response,264,1882378,0.0-17.0-2.9,23421,List1B,black,woman,,,,null,,,,,,,,,
13726.7,,,survey-text,265,1896111,0.0-17.0-3.9,23421,List1B,black,woman,,,,,"{""Q0"":""ruth is being opposed by beth""}","<img src=""stim_listB/oppose8.gif""style=""height:400px;""></stim_listB>",is being opposed by,,,,,,
null,"<div style=""font-size:60px;"">+</div>",,html-keyboard-response,266,1896628,0.0-17.0-0.10,23421,List1B,black,woman,,,,null,,,,,,,,,
null,"<img src=""stim_listB/copy6.gif""style=""height:400px;""></stim_listB>",,html-keyboard-response,267,1898644,0.0-17.0-1.10,23421,List1B,black,woman,,,,null,,,,,,,,,
null,is being copied by,,html-keyboard-response,268,1900655,0.0-17.0-2.10,23421,List1B,black,woman,,,,null,,,,,,,,,
10150.3,,,survey-text,269,1910814,0.0-17.0-3.10,23421,List1B,black,woman,,,,,"{""Q0"":""dave is being copied by fred""}","<img src=""stim_listB/copy6.gif""style=""height:400px;""></stim_listB>",is being copied by,,,,,,
null,"<div style=""font-size:60px;"">+</div>",,html-keyboard-response,270,1911329,0.0-17.0-0.11,23421,List1B,black,woman,,,,null,,,,,,,,,
null,"<img src=""stim_listB/shout2.gif""style=""height:400px;""></stim_listB>",,html-keyboard-response,271,1913347,0.0-17.0-1.11,23421,List1B,black,woman,,,,null,,,,,,,,,
null,is being shouted at by,,html-keyboard-response,272,1915356,0.0-17.0-2.11,23421,List1B,black,woman,,,,null,,,,,,,,,
11704.7,,,survey-text,273,1927066,0.0-17.0-3.11,23421,List1B,black,woman,,,,,"{""Q0"":""kate is being shouted at by mike""}","<img src=""stim_listB/shout2.gif""style=""height:400px;""></stim_listB>",is being shouted at by,,,,,,
null,"<div style=""font-size:60px;"">+</div>",,html-keyboard-response,274,1927574,0.0-17.0-0.12,23421,List1B,black,woman,,,,null,,,,,,,,,
null,"<img src=""stim_listB/touch1.gif""style=""height:400px;""></stim_listB>",,html-keyboard-response,275,1929585,0.0-17.0-1.12,23421,List1B,black,woman,,,,null,,,,,,,,,
null,is touching,,html-keyboard-response,276,1931588,0.0-17.0-2.12,23421,List1B,black,woman,,,,null,,,,,,,,,
10047.8,,,survey-text,277,1941645,0.0-17.0-3.12,23421,List1B,black,woman,,,,,"{""Q0"":""kate is being touched by mike""}","<img src=""stim_listB/touch1.gif""style=""height:400px;""></stim_listB>",is touching,,,,,,
null,"<div style=""font-size:60px;"">+</div>",,html-keyboard-response,278,1942161,0.0-17.0-0.13,23421,List1B,black,woman,,,,null,,,,,,,,,
null,"<img src=""stim_listB/look1.gif""style=""height:400px;""></stim_listB>",,html-keyboard-response,279,1944168,0.0-17.0-1.13,23421,List1B,black,woman,,,,null,,,,,,,,,
null,is looking at,,html-keyboard-response,280,1946183,0.0-17.0-2.13,23421,List1B,black,woman,,,,null,,,,,,,,,
8344.8,,,survey-text,281,1954564,0.0-17.0-3.13,23421,List1B,black,woman,,,,,"{""Q0"":""fred is looking at beth""}","<img src=""stim_listB/look1.gif""style=""height:400px;""></stim_listB>",is looking at,,,,,,
null,"<div style=""font-size:60px;"">+</div>",,html-keyboard-response,282,1955080,0.0-17.0-0.14,23421,List1B,black,woman,,,,null,,,,,,,,,
null,"<img src=""stim_listB/shout4.gif""style=""height:400px;""></stim_listB>",,html-keyboard-response,283,1957090,0.0-17.0-1.14,23421,List1B,black,woman,,,,null,,,,,,,,,
null,is being shouted at by,,html-keyboard-response,284,1959106,0.0-17.0-2.14,23421,List1B,black,woman,,,,null,,,,,,,,,
7859.7,,,survey-text,285,1966977,0.0-17.0-3.14,23421,List1B,black,woman,,,,,"{""Q0"":""dave is being shouted at by jane""}","<img src=""stim_listB/shout4.gif""style=""height:400px;""></stim_listB>",is being shouted at by,,,,,,
null,"<div style=""font-size:60px;"">+</div>",,html-keyboard-response,286,1967494,0.0-17.0-0.15,23421,List1B,black,woman,,,,null,,,,,,,,,
null,"<img src=""stim_listB/greet5.gif""style=""height:400px;""></stim_listB>",,html-keyboard-response,287,1969506,0.0-17.0-1.15,23421,List1B,black,woman,,,,null,,,,,,,,,
null,is greeting,,html-keyboard-response,288,1971509,0.0-17.0-2.15,23421,List1B,black,woman,,,,null,,,,,,,,,
8523.8,,,survey-text,289,1980042,0.0-17.0-3.15,23421,List1B,black,woman,,,,,"{""Q0"":""luke is greeted by mike""}","<img src=""stim_listB/greet5.gif""style=""height:400px;""></stim_listB>",is greeting,,,,,,
null,"<div style=""font-size:60px;"">+</div>",,html-keyboard-response,290,1980551,0.0-17.0-0.16,23421,List1B,black,woman,,,,null,,,,,,,,,
null,"<img src=""stim_listB/kiss2.gif""style=""height:400px;""></stim_listB>",,html-keyboard-response,291,1982558,0.0-17.0-1.16,23421,List1B,black,woman,,,,null,,,,,,,,,
null,is being kissed by,,html-keyboard-response,292,1984566,0.0-17.0-2.16,23421,List1B,black,woman,,,,null,,,,,,,,,
10668.7,,,survey-text,293,1995245,0.0-17.0-3.16,23421,List1B,black,woman,,,,,"{""Q0"":""kate is being kissed by mike""}","<img src=""stim_listB/kiss2.gif""style=""height:400px;""></stim_listB>",is being kissed by,,,,,,
null,"<div style=""font-size:60px;"">+</div>",,html-keyboard-response,294,1995753,0.0-17.0-0.17,23421,List1B,black,woman,,,,null,,,,,,,,,
null,"<img src=""stim_listB/hug5.gif""style=""height:400px;""></stim_listB>",,html-keyboard-response,295,1997763,0.0-17.0-1.17,23421,List1B,black,woman,,,,null,,,,,,,,,
null,is hugging,,html-keyboard-response,296,1999776,0.0-17.0-2.17,23421,List1B,black,woman,,,,null,,,,,,,,,
8393.1,,,survey-text,297,2008177,0.0-17.0-3.17,23421,List1B,black,woman,,,,,"{""Q0"":""fred is hugging luke""}","<img src=""stim_listB/hug5.gif""style=""height:400px;""></stim_listB>",is hugging,,,,,,
null,"<div style=""font-size:60px;"">+</div>",,html-keyboard-response,298,2008696,0.0-17.0-0.18,23421,List1B,black,woman,,,,null,,,,,,,,,
null,"<img src=""stim_listB/seduce7.gif""style=""height:400px;""></stim_listB>",,html-keyboard-response,299,2010711,0.0-17.0-1.18,23421,List1B,black,woman,,,,null,,,,,,,,,
null,is seducing,,html-keyboard-response,300,2012726,0.0-17.0-2.18,23421,List1B,black,woman,,,,null,,,,,,,,,
7232.1,,,survey-text,301,2019967,0.0-17.0-3.18,23421,List1B,black,woman,,,,,"{""Q0"":""beth is seducing jane""}","<img src=""stim_listB/seduce7.gif""style=""height:400px;""></stim_listB>",is seducing,,,,,,
null,"<div style=""font-size:60px;"">+</div>",,html-keyboard-response,302,2020474,0.0-17.0-0.19,23421,List1B,black,woman,,,,null,,,,,,,,,
null,"<img src=""stim_listB/look6.gif""style=""height:400px;""></stim_listB>",,html-keyboard-response,303,2022481,0.0-17.0-1.19,23421,List1B,black,woman,,,,null,,,,,,,,,
null,is being looked at by,,html-keyboard-response,304,2024483,0.0-17.0-2.19,23421,List1B,black,woman,,,,null,,,,,,,,,
6714.1,,,survey-text,305,2031206,0.0-17.0-3.19,23421,List1B,black,woman,,,,,"{""Q0"":""dave is being looked at by mike""}","<img src=""stim_listB/look6.gif""style=""height:400px;""></stim_listB>",is being looked at by,,,,,,
10187.1,"<img src='img/portrait_matrix_list1.jpg' style='width:900px;height:500px;''></img><p>If you have memorised all the portraits and names and are ready to start, press Continue.</p><p><strong>Please note: Your memory of these faces will be tested 4 times during this experiment.</strong></p>",0,html-button-response,306,2041399,0.0-18.0-0.0,23421,List1B,black,woman,,,,,,,,,,,,,
4265.5,"<img src=""portrait/WM2.jpg""style=""height:400px;""></img>",7,html-button-response,307,2046684,0.0-18.0-1.0,23421,List1B,black,woman,,TRUE,7,,,,,,,,,,
null,CORRECT,,html-keyboard-response,308,2048202,0.0-18.0-2.0-0.0,23421,List1B,black,woman,,,,null,,,,,,,,,
2353.9,"<img src=""portrait/BM2.jpg""style=""height:400px;""></img>",5,html-button-response,309,2050559,0.0-18.0-4.0,23421,List1B,black,woman,,TRUE,5,,,,,,,,,,
null,CORRECT,,html-keyboard-response,310,2052080,0.0-18.0-5.0-0.0,23421,List1B,black,woman,,,,null,,,,,,,,,
2191.7,"<img src=""portrait/WM1.jpg""style=""height:400px;""></img>",6,html-button-response,311,2054275,0.0-18.0-7.0,23421,List1B,black,woman,,TRUE,6,,,,,,,,,,
null,CORRECT,,html-keyboard-response,312,2055789,0.0-18.0-8.0-0.0,23421,List1B,black,woman,,,,null,,,,,,,,,
4826.7,"<img src=""portrait/WW1.jpg""style=""height:400px;""></img>",1,html-button-response,313,2060619,0.0-18.0-10.0,23421,List1B,black,woman,,TRUE,1,,,,,,,,,,
null,CORRECT,,html-keyboard-response,314,2062137,0.0-18.0-11.0-0.0,23421,List1B,black,woman,,,,null,,,,,,,,,
2207.6,"<img src=""portrait/BM1.jpg""style=""height:400px;""></img>",4,html-button-response,315,2064348,0.0-18.0-13.0,23421,List1B,black,woman,,TRUE,4,,,,,,,,,,
null,CORRECT,,html-keyboard-response,316,2065853,0.0-18.0-14.0-0.0,23421,List1B,black,woman,,,,null,,,,,,,,,
1851.2,"<img src=""portrait/BW2.jpg""style=""height:400px;""></img>",2,html-button-response,317,2067709,0.0-18.0-16.0,23421,List1B,black,woman,,TRUE,2,,,,,,,,,,
null,CORRECT,,html-keyboard-response,318,2069229,0.0-18.0-17.0-0.0,23421,List1B,black,woman,,,,null,,,,,,,,,
2564.5,"<img src=""portrait/BW1.jpg""style=""height:400px;""></img>",0,html-button-response,319,2071797,0.0-18.0-19.0,23421,List1B,black,woman,,TRUE,0,,,,,,,,,,
null,CORRECT,,html-keyboard-response,320,2073324,0.0-18.0-20.0-0.0,23421,List1B,black,woman,,,,null,,,,,,,,,
2187.4,"<img src=""portrait/WW2.jpg""style=""height:400px;""></img>",3,html-button-response,321,2075516,0.0-18.0-22.0,23421,List1B,black,woman,,TRUE,3,,,,,,,,,,
null,CORRECT,,html-keyboard-response,322,2077037,0.0-18.0-23.0-0.0,23421,List1B,black,woman,,,,null,,,,,,,,,
3517.4,<p>You got 8 out of 8 right first time. Press Continue.</p>,0,html-button-response,323,2080558,0.0-18.0-25.0,23421,List1B,black,woman,,,,,,,,,,,,,
null,"<div style=""font-size:60px;"">+</div>",,html-keyboard-response,324,2082084,0.0-19.0-0.0,23421,List1B,black,woman,,,,null,,,,,,,,,
null,"<img src=""stim_listB/challenge2.gif""style=""height:400px;""></stim_listB>",,html-keyboard-response,325,2084094,0.0-19.0-1.0,23421,List1B,black,woman,,,,null,,,,,,,,,
null,is being challenged by,,html-keyboard-response,326,2086111,0.0-19.0-2.0,23421,List1B,black,woman,,,,null,,,,,,,,,
10915.3,,,survey-text,327,2097037,0.0-19.0-3.0,23421,List1B,black,woman,,,,,"{""Q0"":""kate is being challenged by fred""}","<img src=""stim_listB/challenge2.gif""style=""height:400px;""></stim_listB>",is being challenged by,,,,,,
null,"<div style=""font-size:60px;"">+</div>",,html-keyboard-response,328,2097545,0.0-19.0-0.1,23421,List1B,black,woman,,,,null,,,,,,,,,
null,"<img src=""stim_listB/copy1.gif""style=""height:400px;""></stim_listB>",,html-keyboard-response,329,2099562,0.0-19.0-1.1,23421,List1B,black,woman,,,,null,,,,,,,,,
null,is copying,,html-keyboard-response,330,2101572,0.0-19.0-2.1,23421,List1B,black,woman,,,,null,,,,,,,,,
7291.6,,,survey-text,331,2108872,0.0-19.0-3.1,23421,List1B,black,woman,,,,,"{""Q0"":""my phone rang""}","<img src=""stim_listB/copy1.gif""style=""height:400px;""></stim_listB>",is copying,,,,,,
null,"<div style=""font-size:60px;"">+</div>",,html-keyboard-response,332,2109381,0.0-19.0-0.2,23421,List1B,black,woman,,,,null,,,,,,,,,
null,"<img src=""stim_listB/look5.gif""style=""height:400px;""></stim_listB>",,html-keyboard-response,333,2111399,0.0-19.0-1.2,23421,List1B,black,woman,,,,null,,,,,,,,,
null,is looking at,,html-keyboard-response,334,2113411,0.0-19.0-2.2,23421,List1B,black,woman,,,,null,,,,,,,,,
8032.8,,,survey-text,335,2121452,0.0-19.0-3.2,23421,List1B,black,woman,,,,,"{""Q0"":""luke is looking at fred""}","<img src=""stim_listB/look5.gif""style=""height:400px;""></stim_listB>",is looking at,,,,,,
null,"<div style=""font-size:60px;"">+</div>",,html-keyboard-response,336,2121969,0.0-19.0-0.3,23421,List1B,black,woman,,,,null,,,,,,,,,
null,"<img src=""stim_listB/greet3.gif""style=""height:400px;""></stim_listB>",,html-keyboard-response,337,2123983,0.0-19.0-1.3,23421,List1B,black,woman,,,,null,,,,,,,,,
null,is greeting,,html-keyboard-response,338,2125986,0.0-19.0-2.3,23421,List1B,black,woman,,,,null,,,,,,,,,
6146.4,,,survey-text,339,2132144,0.0-19.0-3.3,23421,List1B,black,woman,,,,,"{""Q0"":""dave is greeting jane""}","<img src=""stim_listB/greet3.gif""style=""height:400px;""></stim_listB>",is greeting,,,,,,
null,"<div style=""font-size:60px;"">+</div>",,html-keyboard-response,340,2132661,0.0-19.0-0.4,23421,List1B,black,woman,,,,null,,,,,,,,,
null,"<img src=""stim_listB/look4.gif""style=""height:400px;""></stim_listB>",,html-keyboard-response,341,2134676,0.0-19.0-1.4,23421,List1B,black,woman,,,,null,,,,,,,,,
null,is being looked at by,,html-keyboard-response,342,2136687,0.0-19.0-2.4,23421,List1B,black,woman,,,,null,,,,,,,,,
8104.6,,,survey-text,343,2144802,0.0-19.0-3.4,23421,List1B,black,woman,,,,,"{""Q0"":""dave is being looked at by jane""}","<img src=""stim_listB/look4.gif""style=""height:400px;""></stim_listB>",is being looked at by,,,,,,
null,"<div style=""font-size:60px;"">+</div>",,html-keyboard-response,344,2145311,0.0-19.0-0.5,23421,List1B,black,woman,,,,null,,,,,,,,,
null,"<img src=""stim_listB/look3.gif""style=""height:400px;""></stim_listB>",,html-keyboard-response,345,2147324,0.0-19.0-1.5,23421,List1B,black,woman,,,,null,,,,,,,,,
null,is looking at,,html-keyboard-response,346,2149339,0.0-19.0-2.5,23421,List1B,black,woman,,,,null,,,,,,,,,
7198.4,,,survey-text,347,2156546,0.0-19.0-3.5,23421,List1B,black,woman,,,,,"{""Q0"":""luke is looking at ruth""}","<img src=""stim_listB/look3.gif""style=""height:400px;""></stim_listB>",is looking at,,,,,,
null,"<div style=""font-size:60px;"">+</div>",,html-keyboard-response,348,2157060,0.0-19.0-0.6,23421,List1B,black,woman,,,,null,,,,,,,,,
null,"<img src=""stim_listB/hug2.gif""style=""height:400px;""></stim_listB>",,html-keyboard-response,349,2159079,0.0-19.0-1.6,23421,List1B,black,woman,,,,null,,,,,,,,,
null,is being hugged by,,html-keyboard-response,350,2161090,0.0-19.0-2.6,23421,List1B,black,woman,,,,null,,,,,,,,,
16693.8,,,survey-text,351,2177793,0.0-19.0-3.6,23421,List1B,black,woman,,,,,"{""Q0"":""kate is being hugged by mike""}","<img src=""stim_listB/hug2.gif""style=""height:400px;""></stim_listB>",is being hugged by,,,,,,
null,"<div style=""font-size:60px;"">+</div>",,html-keyboard-response,352,2178311,0.0-19.0-0.7,23421,List1B,black,woman,,,,null,,,,,,,,,
null,"<img src=""stim_listB/kiss1.gif""style=""height:400px;""></stim_listB>",,html-keyboard-response,353,2180320,0.0-19.0-1.7,23421,List1B,black,woman,,,,null,,,,,,,,,
null,is kissing,,html-keyboard-response,354,2182335,0.0-19.0-2.7,23421,List1B,black,woman,,,,null,,,,,,,,,
6064.6,,,survey-text,355,2188408,0.0-19.0-3.7,23421,List1B,black,woman,,,,,"{""Q0"":""beth is kissing fred""}","<img src=""stim_listB/kiss1.gif""style=""height:400px;""></stim_listB>",is kissing,,,,,,
null,"<div style=""font-size:60px;"">+</div>",,html-keyboard-response,356,2188925,0.0-19.0-0.8,23421,List1B,black,woman,,,,null,,,,,,,,,
null,"<img src=""stim_listB/copy3.gif""style=""height:400px;""></stim_listB>",,html-keyboard-response,357,2190944,0.0-19.0-1.8,23421,List1B,black,woman,,,,null,,,,,,,,,
null,is copying,,html-keyboard-response,358,2192960,0.0-19.0-2.8,23421,List1B,black,woman,,,,null,,,,,,,,,
6892.4,,,survey-text,359,2199862,0.0-19.0-3.8,23421,List1B,black,woman,,,,,"{""Q0"":""ruth is copying luke""}","<img src=""stim_listB/copy3.gif""style=""height:400px;""></stim_listB>",is copying,,,,,,
null,"<div style=""font-size:60px;"">+</div>",,html-keyboard-response,360,2200384,0.0-19.0-0.9,23421,List1B,black,woman,,,,null,,,,,,,,,
null,"<img src=""stim_listB/seduce6.gif""style=""height:400px;""></stim_listB>",,html-keyboard-response,361,2202396,0.0-19.0-1.9,23421,List1B,black,woman,,,,null,,,,,,,,,
null,is being seduced by,,html-keyboard-response,362,2204413,0.0-19.0-2.9,23421,List1B,black,woman,,,,null,,,,,,,,,
15837.5,,,survey-text,363,2220259,0.0-19.0-3.9,23421,List1B,black,woman,,,,,"{""Q0"":""luke is being seduced by mike""}","<img src=""stim_listB/seduce6.gif""style=""height:400px;""></stim_listB>",is being seduced by,,,,,,
null,"<div style=""font-size:60px;"">+</div>",,html-keyboard-response,364,2220770,0.0-19.0-0.10,23421,List1B,black,woman,,,,null,,,,,,,,,
null,"<img src=""stim_listB/touch8.gif""style=""height:400px;""></stim_listB>",,html-keyboard-response,365,2222787,0.0-19.0-1.10,23421,List1B,black,woman,,,,null,,,,,,,,,
null,is being touched by,,html-keyboard-response,366,2224801,0.0-19.0-2.10,23421,List1B,black,woman,,,,null,,,,,,,,,
6615.6,,,survey-text,367,2231425,0.0-19.0-3.10,23421,List1B,black,woman,,,,,"{""Q0"":""ruth is being touched by beth""}","<img src=""stim_listB/touch8.gif""style=""height:400px;""></stim_listB>",is being touched by,,,,,,
null,"<div style=""font-size:60px;"">+</div>",,html-keyboard-response,368,2231942,0.0-19.0-0.11,23421,List1B,black,woman,,,,null,,,,,,,,,
null,"<img src=""stim_listB/greet6.gif""style=""height:400px;""></stim_listB>",,html-keyboard-response,369,2233957,0.0-19.0-1.11,23421,List1B,black,woman,,,,null,,,,,,,,,
null,is being greeted by,,html-keyboard-response,370,2235961,0.0-19.0-2.11,23421,List1B,black,woman,,,,null,,,,,,,,,
16206.4,,,survey-text,371,2252176,0.0-19.0-3.11,23421,List1B,black,woman,,,,,"{""Q0"":""dave is being greeted by fred""}","<img src=""stim_listB/greet6.gif""style=""height:400px;""></stim_listB>",is being greeted by,,,,,,
null,"<div style=""font-size:60px;"">+</div>",,html-keyboard-response,372,2252684,0.0-19.0-0.12,23421,List1B,black,woman,,,,null,,,,,,,,,
null,"<img src=""stim_listB/shout3.gif""style=""height:400px;""></stim_listB>",,html-keyboard-response,373,2254700,0.0-19.0-1.12,23421,List1B,black,woman,,,,null,,,,,,,,,
null,is shouting at,,html-keyboard-response,374,2256703,0.0-19.0-2.12,23421,List1B,black,woman,,,,null,,,,,,,,,
8021.7,,,survey-text,375,2264735,0.0-19.0-3.12,23421,List1B,black,woman,,,,,"{""Q0"":""luke is shouting at ruth""}","<img src=""stim_listB/shout3.gif""style=""height:400px;""></stim_listB>",is shouting at,,,,,,
null,"<div style=""font-size:60px;"">+</div>",,html-keyboard-response,376,2265252,0.0-19.0-0.13,23421,List1B,black,woman,,,,null,,,,,,,,,
null,"<img src=""stim_listB/oppose4.gif""style=""height:400px;""></stim_listB>",,html-keyboard-response,377,2267262,0.0-19.0-1.13,23421,List1B,black,woman,,,,null,,,,,,,,,
null,is being opposed by,,html-keyboard-response,378,2269267,0.0-19.0-2.13,23421,List1B,black,woman,,,,null,,,,,,,,,
12152.3,,,survey-text,379,2281426,0.0-19.0-3.13,23421,List1B,black,woman,,,,,"{""Q0"":""ruth is being opposed by luke""}","<img src=""stim_listB/oppose4.gif""style=""height:400px;""></stim_listB>",is being opposed by,,,,,,
null,"<div style=""font-size:60px;"">+</div>",,html-keyboard-response,380,2281935,0.0-19.0-0.14,23421,List1B,black,woman,,,,null,,,,,,,,,
null,"<img src=""stim_listB/kiss5.gif""style=""height:400px;""></stim_listB>",,html-keyboard-response,381,2283948,0.0-19.0-1.14,23421,List1B,black,woman,,,,null,,,,,,,,,
null,is kissing,,html-keyboard-response,382,2285952,0.0-19.0-2.14,23421,List1B,black,woman,,,,null,,,,,,,,,
10844.1,,,survey-text,383,2296805,0.0-19.0-3.14,23421,List1B,black,woman,,,,,"{""Q0"":""fred is kissing luke""}","<img src=""stim_listB/kiss5.gif""style=""height:400px;""></stim_listB>",is kissing,,,,,,
null,"<div style=""font-size:60px;"">+</div>",,html-keyboard-response,384,2297321,0.0-19.0-0.15,23421,List1B,black,woman,,,,null,,,,,,,,,
null,"<img src=""stim_listB/greet2.gif""style=""height:400px;""></stim_listB>",,html-keyboard-response,385,2299333,0.0-19.0-1.15,23421,List1B,black,woman,,,,null,,,,,,,,,
null,is being greeted by,,html-keyboard-response,386,2301336,0.0-19.0-2.15,23421,List1B,black,woman,,,,null,,,,,,,,,
10539.5,,,survey-text,387,2311887,0.0-19.0-3.15,23421,List1B,black,woman,,,,,"{""Q0"":""kate is being greeted by fred""}","<img src=""stim_listB/greet2.gif""style=""height:400px;""></stim_listB>",is being greeted by,,,,,,
null,"<div style=""font-size:60px;"">+</div>",,html-keyboard-response,388,2312404,0.0-19.0-0.16,23421,List1B,black,woman,,,,null,,,,,,,,,
null,"<img src=""stim_listB/seduce4.gif""style=""height:400px;""></stim_listB>",,html-keyboard-response,389,2314417,0.0-19.0-1.16,23421,List1B,black,woman,,,,null,,,,,,,,,
null,is being seduced by,,html-keyboard-response,390,2316429,0.0-19.0-2.16,23421,List1B,black,woman,,,,null,,,,,,,,,
8003.4,,,survey-text,391,2324465,0.0-19.0-3.16,23421,List1B,black,woman,,,,,"{""Q0"":""ruth is being seduced by ""}","<img src=""stim_listB/seduce4.gif""style=""height:400px;""></stim_listB>",is being seduced by,,,,,,
null,"<div style=""font-size:60px;"">+</div>",,html-keyboard-response,392,2324969,0.0-19.0-0.17,23421,List1B,black,woman,,,,null,,,,,,,,,
null,"<img src=""stim_listB/touch3.gif""style=""height:400px;""></stim_listB>",,html-keyboard-response,393,2326987,0.0-19.0-1.17,23421,List1B,black,woman,,,,null,,,,,,,,,
null,is touching,,html-keyboard-response,394,2328999,0.0-19.0-2.17,23421,List1B,black,woman,,,,null,,,,,,,,,
24258.8,,,survey-text,395,2353265,0.0-19.0-3.17,23421,List1B,black,woman,,,,,"{""Q0"":""luke is looking at touching and kissing ruth""}","<img src=""stim_listB/touch3.gif""style=""height:400px;""></stim_listB>",is touching,,,,,,
null,"<div style=""font-size:60px;"">+</div>",,html-keyboard-response,396,2353773,0.0-19.0-0.18,23421,List1B,black,woman,,,,null,,,,,,,,,
null,"<img src=""stim_listB/shout8.gif""style=""height:400px;""></stim_listB>",,html-keyboard-response,397,2355782,0.0-19.0-1.18,23421,List1B,black,woman,,,,null,,,,,,,,,
null,is being shouted at by,,html-keyboard-response,398,2357791,0.0-19.0-2.18,23421,List1B,black,woman,,,,null,,,,,,,,,
10579.5,,,survey-text,399,2368377,0.0-19.0-3.18,23421,List1B,black,woman,,,,,"{""Q0"":""beth is shouting at jane""}","<img src=""stim_listB/shout8.gif""style=""height:400px;""></stim_listB>",is being shouted at by,,,,,,
null,"<div style=""font-size:60px;"">+</div>",,html-keyboard-response,400,2368886,0.0-19.0-0.19,23421,List1B,black,woman,,,,null,,,,,,,,,
null,"<img src=""stim_listB/shout5.gif""style=""height:400px;""></stim_listB>",,html-keyboard-response,401,2370900,0.0-19.0-1.19,23421,List1B,black,woman,,,,null,,,,,,,,,
null,is shouting at,,html-keyboard-response,402,2372909,0.0-19.0-2.19,23421,List1B,black,woman,,,,null,,,,,,,,,
9954.1,,,survey-text,403,2382873,0.0-19.0-3.19,23421,List1B,black,woman,,,,,"{""Q0"":""fred is shouting at luke""}","<img src=""stim_listB/shout5.gif""style=""height:400px;""></stim_listB>",is shouting at,,,,,,
5082.7,<p>Thank you for completing that task.</p><p>The final part of this session is a questionnaire that will take about 4 minutes.</p><p>Press Continue.</p>,0,html-button-response,404,2387963,0.0-20.0,23421,List1B,black,woman,,,,,,,,,,,,,
56998.4,,,survey-text,405,2445995,0.0-21.0,23421,List1B,black,woman,,,,,"{""Q0"":""50"",""Q1"":""English"",""Q2"":""English"",""Q3"":""United States"",""Q4"":""American"",""Q5"":""Afro American"",""Q6"":""female""}",,,demographics,,,,,
3836.5,<p>Have you lived in the USA for the last 5 years or more?</p>,0,html-button-response,406,2449840,0.0-22.0,23421,List1B,black,woman,,,,,,,,fiveyears,,,,,
4434.2,<p>Move the slider to show the extent to which you agree with the following statements.</p>,0,html-button-response,407,2455295,0.0-23.0,23421,List1B,black,woman,,,,,,,,,,,,,
11651.8,,,html-slider-response,408,2467954,0.0-24.0-0.0-0.0,23421,List1B,black,woman,,,,,,,,survey_race,80,,,I am glad to be the age I am.,filler
9640.6,,,html-slider-response,409,2477600,0.0-24.0-0.0-0.1,23421,List1B,black,woman,,,,,,,,survey_race,36,,,I have a lot in common with people of a similar age to me.,filler
10765.3,,,html-slider-response,410,2488372,0.0-24.0-0.0-0.2,23421,List1B,black,woman,,,,,,,,survey_race,51,,,People of my race are very similar to each other.,verysimilar
7245.4,,,html-slider-response,411,2495624,0.0-24.0-0.0-0.3,23421,List1B,black,woman,,,,,,,,survey_race,0,,,I consider myself an extrovert.,filler
5033.7,,,html-slider-response,412,2500663,0.0-24.0-0.0-0.4,23421,List1B,black,woman,,,,,,,,survey_race,100,,,I feel committed to my race.,committed
6742.8,,,html-slider-response,413,2507442,0.0-24.0-0.0-0.5,23421,List1B,black,woman,,,,,,,,survey_race,47,,,I feel solidarity with people the same age as me.,filler
6092.7,,,html-slider-response,414,2513541,0.0-24.0-0.0-0.6,23421,List1B,black,woman,,,,,,,,survey_race,100,,,I consider myself an introvert.,filler
9285.4,,,html-slider-response,415,2522830,0.0-24.0-0.0-0.7,23421,List1B,black,woman,,,,,,,,survey_race,93,,,I often think about the fact that I am my age.,filler
6087.9,,,html-slider-response,416,2528925,0.0-24.0-0.0-0.8,23421,List1B,black,woman,,,,,,,,survey_race,47,,,I enjoy being in large groups.,filler
9572.9,,,html-slider-response,417,2538504,0.0-24.0-0.0-0.9,23421,List1B,black,woman,,,,,,,,survey_race,99,,,I think that my race has a lot to be proud of.,proud
7285.4,,,html-slider-response,418,2545794,0.0-24.0-0.0-0.10,23421,List1B,black,woman,,,,,,,,survey_race,70,,,It is pleasant to be my race.,pleasant
11192.4,,,html-slider-response,419,2556992,0.0-24.0-0.0-0.11,23421,List1B,black,woman,,,,,,,,survey_race,96,,,Being my race gives me a good feeling.,feeling
7022.9,,,html-slider-response,420,2564022,0.0-24.0-0.0-0.12,23421,List1B,black,woman,,,,,,,,survey_race,0,,,My age is not an important part of who I am.,filler
5517.1,,,html-slider-response,421,2569544,0.0-24.0-0.0-0.13,23421,List1B,black,woman,,,,,,,,survey_race,100,,,I feel a bond with my race.,bond
8030.5,,,html-slider-response,422,2577581,0.0-24.0-0.0-0.14,23421,List1B,black,woman,,,,,,,,survey_race,94,,,I have a lot in common with the average person of my race.,average
7200.8,,,html-slider-response,423,2584788,0.0-24.0-0.0-0.15,23421,List1B,black,woman,,,,,,,,survey_race,18,,,I often think about the fact that I am my race.,often
7754.3,,,html-slider-response,424,2592549,0.0-24.0-0.0-0.16,23421,List1B,black,woman,,,,,,,,survey_race,100,,,I feel solidarity with my race.,solidarity
12067.7,,,html-slider-response,425,2604622,0.0-24.0-0.0-0.17,23421,List1B,black,woman,,,,,,,,survey_race,74,,,I am glad to be my age.,filler
10651,,,html-slider-response,426,2615279,0.0-24.0-0.0-0.18,23421,List1B,black,woman,,,,,,,,survey_race,53,,,People my age have a lot in common with each other.,filler
9529.4,,,html-slider-response,427,2624815,0.0-24.0-0.0-0.19,23421,List1B,black,woman,,,,,,,,survey_race,81,,,"The older I get, the wiser I feel.",filler
6005.9,,,html-slider-response,428,2630828,0.0-24.0-0.0-0.20,23421,List1B,black,woman,,,,,,,,survey_race,63,,,Being my age gives me a good feeling.,filler
7750,,,html-slider-response,429,2638584,0.0-24.0-0.0-0.21,23421,List1B,black,woman,,,,,,,,survey_race,5,,,Getting older does not worry me.,filler
10679.6,,,html-slider-response,430,2649270,0.0-24.0-0.0-0.22,23421,List1B,black,woman,,,,,,,,survey_race,48,,,I feel a bond with people the same age as me.,filler
5213.9,,,html-slider-response,431,2654491,0.0-24.0-0.0-0.23,23421,List1B,black,woman,,,,,,,,survey_race,100,,,I am glad to be my race.,glad
7002.9,,,html-slider-response,432,2661499,0.0-24.0-0.0-0.24,23421,List1B,black,woman,,,,,,,,survey_race,80,,,Being my race is an important part of how I see myself.,important
6537.9,,,html-slider-response,433,2668043,0.0-24.0-0.0-0.25,23421,List1B,black,woman,,,,,,,,survey_race,90,,,I am similar to the average person of my race.,similar
6114,,,html-slider-response,434,2674162,0.0-24.0-0.0-0.26,23421,List1B,black,woman,,,,,,,,survey_race,91,,,People of my race have a lot in common with each other.,common
6452.3,,,html-slider-response,435,2680621,0.0-24.0-0.0-0.27,23421,List1B,black,woman,,,,,,,,survey_race,74,,,The fact that I am my race is an important part of my identity.,identity
8940.4,,,html-slider-response,436,2689568,0.0-24.0-1.0-0.0,23421,List1B,black,woman,,,,,,,,survey_gender,96,,,I would say I am an animal person.,filler
7017.4,,,html-slider-response,437,2696591,0.0-24.0-1.0-0.1,23421,List1B,black,woman,,,,,,,,survey_gender,41,,,Most of the friends in my life are very similar to me.,filler
8092.4,,,html-slider-response,438,2704688,0.0-24.0-1.0-0.2,23421,List1B,black,woman,,,,,,,,survey_gender,48,,,I am glad to have the friends that I have.,filler
7995,,,html-slider-response,439,2712688,0.0-24.0-1.0-0.3,23421,List1B,black,woman,,,,,,,,survey_gender,93,,,My friends have a lot in common with each other.,filler
6191,,,html-slider-response,440,2718884,0.0-24.0-1.0-0.4,23421,List1B,black,woman,,,,,,,,survey_gender,46,,,Being around my friends gives me a good feeling.,filler
8824.1,,,html-slider-response,441,2727713,0.0-24.0-1.0-0.5,23421,List1B,black,woman,,,,,,,,survey_gender,69,,,People of my gender are very similar to each other.,verysimilar
7195.8,,,html-slider-response,442,2734914,0.0-24.0-1.0-0.6,23421,List1B,black,woman,,,,,,,,survey_gender,100,,,I often think about my actions.,filler
6404.2,,,html-slider-response,443,2741323,0.0-24.0-1.0-0.7,23421,List1B,black,woman,,,,,,,,survey_gender,86,,,The fact that I am my gender is an important part of my identity.,identity
7505.5,,,html-slider-response,444,2748834,0.0-24.0-1.0-0.8,23421,List1B,black,woman,,,,,,,,survey_gender,66,,,It is not always easy for people to know what I am thinking.,filler
6183.9,,,html-slider-response,445,2755024,0.0-24.0-1.0-0.9,23421,List1B,black,woman,,,,,,,,survey_gender,73,,,People of my gender have a lot in common with each other.,common
5712.8,,,html-slider-response,446,2760740,0.0-24.0-1.0-0.10,23421,List1B,black,woman,,,,,,,,survey_gender,100,,,I consider myself a highly empathetic person.,filler
4412.5,,,html-slider-response,447,2765155,0.0-24.0-1.0-0.11,23421,List1B,black,woman,,,,,,,,survey_gender,76,,,I feel solidarity with my gender.,solidarity
5900.2,,,html-slider-response,448,2771058,0.0-24.0-1.0-0.12,23421,List1B,black,woman,,,,,,,,survey_gender,60,,,I am similar to the average person of my gender.,similar
4537.7,,,html-slider-response,449,2775601,0.0-24.0-1.0-0.13,23421,List1B,black,woman,,,,,,,,survey_gender,47,,,I feel solidarity with my friends.,filler
7607.4,,,html-slider-response,450,2783214,0.0-24.0-1.0-0.14,23421,List1B,black,woman,,,,,,,,survey_gender,73,,,Being my gender is an important part of how I see myself.,important
5994.7,,,html-slider-response,451,2789215,0.0-24.0-1.0-0.15,23421,List1B,black,woman,,,,,,,,survey_gender,5,,,I often think about the fact that I am my gender.,often
5251.2,,,html-slider-response,452,2794469,0.0-24.0-1.0-0.16,23421,List1B,black,woman,,,,,,,,survey_gender,39,,,My friends understand me.,filler
6050.3,,,html-slider-response,453,2800524,0.0-24.0-1.0-0.17,23421,List1B,black,woman,,,,,,,,survey_gender,83,,,Being my gender gives me a good feeling.,feeling
5979.7,,,html-slider-response,454,2806507,0.0-24.0-1.0-0.18,23421,List1B,black,woman,,,,,,,,survey_gender,41,,,I have a lot in common with the average person of my gender.,average
7027.3,,,html-slider-response,455,2813539,0.0-24.0-1.0-0.19,23421,List1B,black,woman,,,,,,,,survey_gender,3,,,Family is not more important to me than friendship.,filler
4247.3,,,html-slider-response,456,2817790,0.0-24.0-1.0-0.20,23421,List1B,black,woman,,,,,,,,survey_gender,44,,,I feel a bond with my friends.,filler
4043.1,,,html-slider-response,457,2821838,0.0-24.0-1.0-0.21,23421,List1B,black,woman,,,,,,,,survey_gender,37,,,I have a lot in common with my friends.,filler
6540.3,,,html-slider-response,458,2828383,0.0-24.0-1.0-0.22,23421,List1B,black,woman,,,,,,,,survey_gender,100,,,I think that my gender has a lot to be proud of.,proud
4418.2,,,html-slider-response,459,2832805,0.0-24.0-1.0-0.23,23421,List1B,black,woman,,,,,,,,survey_gender,100,,,I am glad to be my gender.,glad
8230.4,,,html-slider-response,460,2841041,0.0-24.0-1.0-0.24,23421,List1B,black,woman,,,,,,,,survey_gender,44,,,I feel a bond with my gender.,bond
4738.2,,,html-slider-response,461,2845785,0.0-24.0-1.0-0.25,23421,List1B,black,woman,,,,,,,,survey_gender,100,,,I feel committed to my gender.,committed
6708.3,,,html-slider-response,462,2852498,0.0-24.0-1.0-0.26,23421,List1B,black,woman,,,,,,,,survey_gender,4,,,Routine is not important to me.,filler
8765.4,,,html-slider-response,463,2861270,0.0-24.0-1.0-0.27,23421,List1B,black,woman,,,,,,,,survey_gender,100,,,It is pleasant to be my gender.,pleasant
16109.7,,,survey-text,464,2877395,0.0-25.0,23421,List1B,black,woman,,,,,"{""Q0"":""ccc""}",,,worker_id,,,,,
31243.7,,,external-html,465,2909867,0.0-26.0,23421,List1B,black,woman,debrief.html,,,,,,,,,,,,
