"rt","stimulus","button_pressed","trial_type","trial_index","time_elapsed","internal_node_id","subject","list","ppt_race","ppt_gender","url","first_guess","correct","key_press","responses","image_type","phrase_type","test_part","response","stimulus1","stimulus2","question_type","survey_item"
"2237.600000023842","Welcome to the experiment. Press Continue to begin.","0","html-button-response","0","2244","0.0-0.0","2377","List1B","white","woman","","","","","","","","","","","","",""
"6290","","","external-html","1","9864","0.0-1.0","2377","List1B","white","woman","consent.html","","","","","","","","","","","",""
"10491.400000035763","<p>On the next page, you will see portraits of 8 people and their names.</p><p>Your first task is to take a few minutes to memorise the names of these people.</p><p>You will have to recall their names during the rest of the experiment, so it is</p><p>essential that you try to memorise these people and their names as best as you can.</p><br><p><strong>You will then be tested on your memory of these names and portraits.</strong></p><br><p>The experiment will start after you have completed this memory test.</p><br><p>Ready?</p>","0","html-button-response","2","20358","0.0-2.0","2377","List1B","white","woman","","","","","","","","","","","","",""
"54802.60000002384","<img src='img/portrait_matrix_list1.jpg' style='width:900px;height:500px;''></img><p>If you have memorised all the portraits and names and are ready to start, press Continue.</p><p><strong>Please note: Your memory of these faces will be tested 4 times during this experiment.</strong></p>","0","html-button-response","3","76164","0.0-3.0-0.0","2377","List1B","white","woman","","","","","","","","","","","","",""
"6407.699999988079","<img src=""portrait/WW2.jpg""style=""height:400px;""></img>","3","html-button-response","4","83583","0.0-3.0-1.0","2377","List1B","white","woman","","true","3","","","","","","","","","",""
"null","CORRECT","","html-keyboard-response","5","85101","0.0-3.0-2.0-0.0","2377","List1B","white","woman","","","","null","","","","","","","","",""
"5745.600000023842","<img src=""portrait/WW1.jpg""style=""height:400px;""></img>","1","html-button-response","6","90849","0.0-3.0-4.0","2377","List1B","white","woman","","true","1","","","","","","","","","",""
"null","CORRECT","","html-keyboard-response","7","92371","0.0-3.0-5.0-0.0","2377","List1B","white","woman","","","","null","","","","","","","","",""
"2259.5","<img src=""portrait/WM2.jpg""style=""height:400px;""></img>","7","html-button-response","8","94633","0.0-3.0-7.0","2377","List1B","white","woman","","true","7","","","","","","","","","",""
"null","CORRECT","","html-keyboard-response","9","96152","0.0-3.0-8.0-0.0","2377","List1B","white","woman","","","","null","","","","","","","","",""
"2475.100000023842","<img src=""portrait/WM1.jpg""style=""height:400px;""></img>","6","html-button-response","10","98629","0.0-3.0-10.0","2377","List1B","white","woman","","true","6","","","","","","","","","",""
"null","CORRECT","","html-keyboard-response","11","100140","0.0-3.0-11.0-0.0","2377","List1B","white","woman","","","","null","","","","","","","","",""
"3618.800000011921","<img src=""portrait/BW1.jpg""style=""height:400px;""></img>","0","html-button-response","12","103762","0.0-3.0-13.0","2377","List1B","white","woman","","true","0","","","","","","","","","",""
"null","CORRECT","","html-keyboard-response","13","105286","0.0-3.0-14.0-0.0","2377","List1B","white","woman","","","","null","","","","","","","","",""
"2098.800000011921","<img src=""portrait/BM1.jpg""style=""height:400px;""></img>","4","html-button-response","14","107387","0.0-3.0-16.0","2377","List1B","white","woman","","true","4","","","","","","","","","",""
"null","CORRECT","","html-keyboard-response","15","108903","0.0-3.0-17.0-0.0","2377","List1B","white","woman","","","","null","","","","","","","","",""
"2135.400000035763","<img src=""portrait/BW2.jpg""style=""height:400px;""></img>","2","html-button-response","16","111041","0.0-3.0-19.0","2377","List1B","white","woman","","true","2","","","","","","","","","",""
"null","CORRECT","","html-keyboard-response","17","112556","0.0-3.0-20.0-0.0","2377","List1B","white","woman","","","","null","","","","","","","","",""
"8664.800000011921","<img src=""portrait/BM2.jpg""style=""height:400px;""></img>","5","html-button-response","18","121223","0.0-3.0-22.0","2377","List1B","white","woman","","true","5","","","","","","","","","",""
"null","CORRECT","","html-keyboard-response","19","122733","0.0-3.0-23.0-0.0","2377","List1B","white","woman","","","","null","","","","","","","","",""
"1769.5999999642372","<p>You got 8 out of 8 right first time. Press Continue.</p>","0","html-button-response","20","124505","0.0-3.0-25.0","2377","List1B","white","woman","","","","","","","","","","","","",""
"22566","<p>In this experiment, you will view photographs of the people from the memory game interacting.</p><p>By using the <strong>exact</strong> phrase given <i>after</i> the photograph appears and recalling the correct names of the people in the photographs, form a sentence describing the interaction. You do not need to capitalise names.</p><p>Type your answer in the space provided. Please complete every sentence before moving onto the next trial.</p><p>You will only have a few seconds to memorise each given photograph and phrase before you can respond, so try your best to focus.</p><p>An example is given below. Press 'Continue' when you are ready.</p><img src='img/speaking_example.jpg' style='width:800px;height:460px;''></img>","0","html-button-response","21","148081","0.0-4.0","2377","List1B","white","woman","","","","","","","","","","","","",""
"1675.699999988079","<p>Before the experiment starts, you will watch two example trials. Press 'Continue'.</p>","0","html-button-response","22","150759","0.0-5.0","2377","List1B","white","woman","","","","","","","","","","","","",""
"null","<img src='img/play_eg.gif' style='height:400px;''></img>","","html-keyboard-response","23","153778","0.0-6.0","2377","List1B","white","woman","","","","null","","","","","","","","",""
"null","<p>is playing with</p>","","html-keyboard-response","24","155788","0.0-7.0","2377","List1B","white","woman","","","","null","","","","","","","","",""
"5341.400000035763","<p><b>Answer:</b> kate is playing with beth</p>","0","html-button-response","25","161131","0.0-8.0","2377","List1B","white","woman","","","","","","","","","","","","",""
"null","<img src='img/dance_eg.gif' style='height:400px;''></img>","","html-keyboard-response","26","164142","0.0-9.0","2377","List1B","white","woman","","","","null","","","","","","","","",""
"null","<p>is being entertained by</p>","","html-keyboard-response","27","166147","0.0-10.0","2377","List1B","white","woman","","","","null","","","","","","","","",""
"2560.699999988079","<p><b>Answer:</b> luke is being entertained by dave</p>","0","html-button-response","28","168709","0.0-11.0","2377","List1B","white","woman","","","","","","","","","","","","",""
"55004.09999996424","<p>Ready to start the experiment?</p><br><p><strong>Remember to describe the picture using a full sentence,</strong></p><p><strong>that combines the names of the people with the <i>exact</i> phrase given.</strong></p><p><strong>To receive full payment you must do this correctly.</strong></p><p><strong> You do not need to capitalise names or use punctuation.</strong></p><br><p>Press 'Continue' to begin.</p>","0","html-button-response","29","224725","0.0-12.0","2377","List1B","white","woman","","","","","","","","","","","","",""
"null","<div style=""font-size:60px;"">+</div>","","html-keyboard-response","30","226234","0.0-13.0-0.0","2377","List1B","white","woman","","","","null","","","","","","","","",""
"null","<img src=""stim_listB/oppose1.gif""style=""height:400px;""></stim_listB>","","html-keyboard-response","31","228239","0.0-13.0-1.0","2377","List1B","white","woman","","","","null","","","","","","","","",""
"null","is opposing","","html-keyboard-response","32","230240","0.0-13.0-2.0","2377","List1B","white","woman","","","","null","","","","","","","","",""
"5983.100000023842","","","survey-text","33","236230","0.0-13.0-3.0","2377","List1B","white","woman","","","","","{""Q0"":""Mike is opposing Kate""}","<img src=""stim_listB/oppose1.gif""style=""height:400px;""></stim_listB>","is opposing","","","","","",""
"null","<div style=""font-size:60px;"">+</div>","","html-keyboard-response","34","236742","0.0-13.0-0.1","2377","List1B","white","woman","","","","null","","","","","","","","",""
"null","<img src=""stim_listB/hug2.gif""style=""height:400px;""></stim_listB>","","html-keyboard-response","35","238750","0.0-13.0-1.1","2377","List1B","white","woman","","","","null","","","","","","","","",""
"null","is being hugged by","","html-keyboard-response","36","240758","0.0-13.0-2.1","2377","List1B","white","woman","","","","null","","","","","","","","",""
"5213.699999988079","","","survey-text","37","245975","0.0-13.0-3.1","2377","List1B","white","woman","","","","","{""Q0"":""kate is being hugged by mike""}","<img src=""stim_listB/hug2.gif""style=""height:400px;""></stim_listB>","is being hugged by","","","","","",""
"null","<div style=""font-size:60px;"">+</div>","","html-keyboard-response","38","246482","0.0-13.0-0.2","2377","List1B","white","woman","","","","null","","","","","","","","",""
"null","<img src=""stim_listB/shout1.gif""style=""height:400px;""></stim_listB>","","html-keyboard-response","39","248490","0.0-13.0-1.2","2377","List1B","white","woman","","","","null","","","","","","","","",""
"null","is shouting at","","html-keyboard-response","40","250494","0.0-13.0-2.2","2377","List1B","white","woman","","","","null","","","","","","","","",""
"4152.400000035763","","","survey-text","41","254649","0.0-13.0-3.2","2377","List1B","white","woman","","","","","{""Q0"":""Fred is shouting at Beth""}","<img src=""stim_listB/shout1.gif""style=""height:400px;""></stim_listB>","is shouting at","","","","","",""
"null","<div style=""font-size:60px;"">+</div>","","html-keyboard-response","42","255155","0.0-13.0-0.3","2377","List1B","white","woman","","","","null","","","","","","","","",""
"null","<img src=""stim_listB/seduce5.gif""style=""height:400px;""></stim_listB>","","html-keyboard-response","43","257161","0.0-13.0-1.3","2377","List1B","white","woman","","","","null","","","","","","","","",""
"null","is seducing","","html-keyboard-response","44","259169","0.0-13.0-2.3","2377","List1B","white","woman","","","","null","","","","","","","","",""
"10186.600000023842","","","survey-text","45","269359","0.0-13.0-3.3","2377","List1B","white","woman","","","","","{""Q0"":""Fred is gazing at Dave""}","<img src=""stim_listB/seduce5.gif""style=""height:400px;""></stim_listB>","is seducing","","","","","",""
"null","<div style=""font-size:60px;"">+</div>","","html-keyboard-response","46","269862","0.0-13.0-0.4","2377","List1B","white","woman","","","","null","","","","","","","","",""
"null","<img src=""stim_listB/greet7.gif""style=""height:400px;""></stim_listB>","","html-keyboard-response","47","271868","0.0-13.0-1.4","2377","List1B","white","woman","","","","null","","","","","","","","",""
"null","is greeting","","html-keyboard-response","48","273876","0.0-13.0-2.4","2377","List1B","white","woman","","","","null","","","","","","","","",""
"4530","","","survey-text","49","278409","0.0-13.0-3.4","2377","List1B","white","woman","","","","","{""Q0"":""Kate is greeting Ruth""}","<img src=""stim_listB/greet7.gif""style=""height:400px;""></stim_listB>","is greeting","","","","","",""
"null","<div style=""font-size:60px;"">+</div>","","html-keyboard-response","50","278921","0.0-13.0-0.5","2377","List1B","white","woman","","","","null","","","","","","","","",""
"null","<img src=""stim_listB/look3.gif""style=""height:400px;""></stim_listB>","","html-keyboard-response","51","280929","0.0-13.0-1.5","2377","List1B","white","woman","","","","null","","","","","","","","",""
"null","is looking at","","html-keyboard-response","52","282931","0.0-13.0-2.5","2377","List1B","white","woman","","","","null","","","","","","","","",""
"5113.800000011921","","","survey-text","53","288048","0.0-13.0-3.5","2377","List1B","white","woman","","","","","{""Q0"":""Ruth is looking at Luke""}","<img src=""stim_listB/look3.gif""style=""height:400px;""></stim_listB>","is looking at","","","","","",""
"null","<div style=""font-size:60px;"">+</div>","","html-keyboard-response","54","288555","0.0-13.0-0.6","2377","List1B","white","woman","","","","null","","","","","","","","",""
"null","<img src=""stim_listB/shout6.gif""style=""height:400px;""></stim_listB>","","html-keyboard-response","55","290564","0.0-13.0-1.6","2377","List1B","white","woman","","","","null","","","","","","","","",""
"null","is being shouted at by","","html-keyboard-response","56","292576","0.0-13.0-2.6","2377","List1B","white","woman","","","","null","","","","","","","","",""
"4469","","","survey-text","57","297048","0.0-13.0-3.6","2377","List1B","white","woman","","","","","{""Q0"":""mike is being shouted at by dave""}","<img src=""stim_listB/shout6.gif""style=""height:400px;""></stim_listB>","is being shouted at by","","","","","",""
"null","<div style=""font-size:60px;"">+</div>","","html-keyboard-response","58","297552","0.0-13.0-0.7","2377","List1B","white","woman","","","","null","","","","","","","","",""
"null","<img src=""stim_listB/hug4.gif""style=""height:400px;""></stim_listB>","","html-keyboard-response","59","299560","0.0-13.0-1.7","2377","List1B","white","woman","","","","null","","","","","","","","",""
"null","is being hugged by","","html-keyboard-response","60","301566","0.0-13.0-2.7","2377","List1B","white","woman","","","","null","","","","","","","","",""
"4754.400000035763","","","survey-text","61","306324","0.0-13.0-3.7","2377","List1B","white","woman","","","","","{""Q0"":""Jane is being hugged by dave""}","<img src=""stim_listB/hug4.gif""style=""height:400px;""></stim_listB>","is being hugged by","","","","","",""
"null","<div style=""font-size:60px;"">+</div>","","html-keyboard-response","62","306833","0.0-13.0-0.8","2377","List1B","white","woman","","","","null","","","","","","","","",""
"null","<img src=""stim_listB/challenge3.gif""style=""height:400px;""></stim_listB>","","html-keyboard-response","63","308845","0.0-13.0-1.8","2377","List1B","white","woman","","","","null","","","","","","","","",""
"null","is challenging","","html-keyboard-response","64","310851","0.0-13.0-2.8","2377","List1B","white","woman","","","","null","","","","","","","","",""
"4469.100000023842","","","survey-text","65","315324","0.0-13.0-3.8","2377","List1B","white","woman","","","","","{""Q0"":""ruth is challenging dave""}","<img src=""stim_listB/challenge3.gif""style=""height:400px;""></stim_listB>","is challenging","","","","","",""
"null","<div style=""font-size:60px;"">+</div>","","html-keyboard-response","66","315830","0.0-13.0-0.9","2377","List1B","white","woman","","","","null","","","","","","","","",""
"null","<img src=""stim_listB/seduce4.gif""style=""height:400px;""></stim_listB>","","html-keyboard-response","67","317838","0.0-13.0-1.9","2377","List1B","white","woman","","","","null","","","","","","","","",""
"null","is being seduced by","","html-keyboard-response","68","319850","0.0-13.0-2.9","2377","List1B","white","woman","","","","null","","","","","","","","",""
"8233.699999988079","","","survey-text","69","328087","0.0-13.0-3.9","2377","List1B","white","woman","","","","","{""Q0"":""Dave is being seduced by ruth""}","<img src=""stim_listB/seduce4.gif""style=""height:400px;""></stim_listB>","is being seduced by","","","","","",""
"null","<div style=""font-size:60px;"">+</div>","","html-keyboard-response","70","328594","0.0-13.0-0.10","2377","List1B","white","woman","","","","null","","","","","","","","",""
"null","<img src=""stim_listB/copy8.gif""style=""height:400px;""></stim_listB>","","html-keyboard-response","71","330600","0.0-13.0-1.10","2377","List1B","white","woman","","","","null","","","","","","","","",""
"null","is being copied by","","html-keyboard-response","72","332608","0.0-13.0-2.10","2377","List1B","white","woman","","","","null","","","","","","","","",""
"4429","","","survey-text","73","337041","0.0-13.0-3.10","2377","List1B","white","woman","","","","","{""Q0"":""Beth is being copied by Jane""}","<img src=""stim_listB/copy8.gif""style=""height:400px;""></stim_listB>","is being copied by","","","","","",""
"null","<div style=""font-size:60px;"">+</div>","","html-keyboard-response","74","337546","0.0-13.0-0.11","2377","List1B","white","woman","","","","null","","","","","","","","",""
"null","<img src=""stim_listB/look7.gif""style=""height:400px;""></stim_listB>","","html-keyboard-response","75","339551","0.0-13.0-1.11","2377","List1B","white","woman","","","","null","","","","","","","","",""
"null","is looking at","","html-keyboard-response","76","341560","0.0-13.0-2.11","2377","List1B","white","woman","","","","null","","","","","","","","",""
"3148.899999976158","","","survey-text","77","344711","0.0-13.0-3.11","2377","List1B","white","woman","","","","","{""Q0"":""ruth is looking at beth""}","<img src=""stim_listB/look7.gif""style=""height:400px;""></stim_listB>","is looking at","","","","","",""
"null","<div style=""font-size:60px;"">+</div>","","html-keyboard-response","78","345226","0.0-13.0-0.12","2377","List1B","white","woman","","","","null","","","","","","","","",""
"null","<img src=""stim_listB/kiss8.gif""style=""height:400px;""></stim_listB>","","html-keyboard-response","79","347231","0.0-13.0-1.12","2377","List1B","white","woman","","","","null","","","","","","","","",""
"null","is being kissed by","","html-keyboard-response","80","349240","0.0-13.0-2.12","2377","List1B","white","woman","","","","null","","","","","","","","",""
"4994.699999988079","","","survey-text","81","354238","0.0-13.0-3.12","2377","List1B","white","woman","","","","","{""Q0"":""jane is being kissed by beth""}","<img src=""stim_listB/kiss8.gif""style=""height:400px;""></stim_listB>","is being kissed by","","","","","",""
"null","<div style=""font-size:60px;"">+</div>","","html-keyboard-response","82","354740","0.0-13.0-0.13","2377","List1B","white","woman","","","","null","","","","","","","","",""
"null","<img src=""stim_listB/touch4.gif""style=""height:400px;""></stim_listB>","","html-keyboard-response","83","356749","0.0-13.0-1.13","2377","List1B","white","woman","","","","null","","","","","","","","",""
"null","is being touched by","","html-keyboard-response","84","358759","0.0-13.0-2.13","2377","List1B","white","woman","","","","null","","","","","","","","",""
"4721.200000047684","","","survey-text","85","363484","0.0-13.0-3.13","2377","List1B","white","woman","","","","","{""Q0"":""ruth is being touched by luke""}","<img src=""stim_listB/touch4.gif""style=""height:400px;""></stim_listB>","is being touched by","","","","","",""
"null","<div style=""font-size:60px;"">+</div>","","html-keyboard-response","86","363991","0.0-13.0-0.14","2377","List1B","white","woman","","","","null","","","","","","","","",""
"null","<img src=""stim_listB/seduce1.gif""style=""height:400px;""></stim_listB>","","html-keyboard-response","87","365995","0.0-13.0-1.14","2377","List1B","white","woman","","","","null","","","","","","","","",""
"null","is seducing","","html-keyboard-response","88","368005","0.0-13.0-2.14","2377","List1B","white","woman","","","","null","","","","","","","","",""
"4094.600000023842","","","survey-text","89","372104","0.0-13.0-3.14","2377","List1B","white","woman","","","","","{""Q0"":""fred is seducing kate""}","<img src=""stim_listB/seduce1.gif""style=""height:400px;""></stim_listB>","is seducing","","","","","",""
"null","<div style=""font-size:60px;"">+</div>","","html-keyboard-response","90","372617","0.0-13.0-0.15","2377","List1B","white","woman","","","","null","","","","","","","","",""
"null","<img src=""stim_listB/challenge8.gif""style=""height:400px;""></stim_listB>","","html-keyboard-response","91","374628","0.0-13.0-1.15","2377","List1B","white","woman","","","","null","","","","","","","","",""
"null","is being challenged by","","html-keyboard-response","92","376630","0.0-13.0-2.15","2377","List1B","white","woman","","","","null","","","","","","","","",""
"4378.5","","","survey-text","93","381013","0.0-13.0-3.15","2377","List1B","white","woman","","","","","{""Q0"":""jane is being challenged by beth""}","<img src=""stim_listB/challenge8.gif""style=""height:400px;""></stim_listB>","is being challenged by","","","","","",""
"null","<div style=""font-size:60px;"">+</div>","","html-keyboard-response","94","381522","0.0-13.0-0.16","2377","List1B","white","woman","","","","null","","","","","","","","",""
"null","<img src=""stim_listB/shout5.gif""style=""height:400px;""></stim_listB>","","html-keyboard-response","95","383528","0.0-13.0-1.16","2377","List1B","white","woman","","","","null","","","","","","","","",""
"null","is shouting at","","html-keyboard-response","96","385539","0.0-13.0-2.16","2377","List1B","white","woman","","","","null","","","","","","","","",""
"3666.600000023842","","","survey-text","97","389209","0.0-13.0-3.16","2377","List1B","white","woman","","","","","{""Q0"":""luke is shouting at fred""}","<img src=""stim_listB/shout5.gif""style=""height:400px;""></stim_listB>","is shouting at","","","","","",""
"null","<div style=""font-size:60px;"">+</div>","","html-keyboard-response","98","389719","0.0-13.0-0.17","2377","List1B","white","woman","","","","null","","","","","","","","",""
"null","<img src=""stim_listB/hug1.gif""style=""height:400px;""></stim_listB>","","html-keyboard-response","99","391734","0.0-13.0-1.17","2377","List1B","white","woman","","","","null","","","","","","","","",""
"null","is hugging","","html-keyboard-response","100","393739","0.0-13.0-2.17","2377","List1B","white","woman","","","","null","","","","","","","","",""
"4169.5","","","survey-text","101","397912","0.0-13.0-3.17","2377","List1B","white","woman","","","","","{""Q0"":""beth is hugging fred""}","<img src=""stim_listB/hug1.gif""style=""height:400px;""></stim_listB>","is hugging","","","","","",""
"null","<div style=""font-size:60px;"">+</div>","","html-keyboard-response","102","398419","0.0-13.0-0.18","2377","List1B","white","woman","","","","null","","","","","","","","",""
"null","<img src=""stim_listB/oppose3.gif""style=""height:400px;""></stim_listB>","","html-keyboard-response","103","400429","0.0-13.0-1.18","2377","List1B","white","woman","","","","null","","","","","","","","",""
"null","is opposing","","html-keyboard-response","104","402436","0.0-13.0-2.18","2377","List1B","white","woman","","","","null","","","","","","","","",""
"3241.699999988079","","","survey-text","105","405681","0.0-13.0-3.18","2377","List1B","white","woman","","","","","{""Q0"":""jane is opposing dave""}","<img src=""stim_listB/oppose3.gif""style=""height:400px;""></stim_listB>","is opposing","","","","","",""
"null","<div style=""font-size:60px;"">+</div>","","html-keyboard-response","106","406190","0.0-13.0-0.19","2377","List1B","white","woman","","","","null","","","","","","","","",""
"null","<img src=""stim_listB/greet8.gif""style=""height:400px;""></stim_listB>","","html-keyboard-response","107","408195","0.0-13.0-1.19","2377","List1B","white","woman","","","","null","","","","","","","","",""
"null","is being greeted by","","html-keyboard-response","108","410199","0.0-13.0-2.19","2377","List1B","white","woman","","","","null","","","","","","","","",""
"6602.300000011921","","","survey-text","109","416805","0.0-13.0-3.19","2377","List1B","white","woman","","","","","{""Q0"":""beth is being greeted by jane""}","<img src=""stim_listB/greet8.gif""style=""height:400px;""></stim_listB>","is being greeted by","","","","","",""
"26428.19999998808","<img src='img/portrait_matrix_list1.jpg' style='width:900px;height:500px;''></img><p>If you have memorised all the portraits and names and are ready to start, press Continue.</p><p><strong>Please note: Your memory of these faces will be tested 4 times during this experiment.</strong></p>","0","html-button-response","110","443235","0.0-14.0-0.0","2377","List1B","white","woman","","","","","","","","","","","","",""
"1680.4000000357628","<img src=""portrait/WW2.jpg""style=""height:400px;""></img>","3","html-button-response","111","445922","0.0-14.0-1.0","2377","List1B","white","woman","","true","3","","","","","","","","","",""
"null","CORRECT","","html-keyboard-response","112","447442","0.0-14.0-2.0-0.0","2377","List1B","white","woman","","","","null","","","","","","","","",""
"1716.800000011921","<img src=""portrait/WM1.jpg""style=""height:400px;""></img>","6","html-button-response","113","449161","0.0-14.0-4.0","2377","List1B","white","woman","","true","6","","","","","","","","","",""
"null","CORRECT","","html-keyboard-response","114","450670","0.0-14.0-5.0-0.0","2377","List1B","white","woman","","","","null","","","","","","","","",""
"1426","<img src=""portrait/BM2.jpg""style=""height:400px;""></img>","5","html-button-response","115","452098","0.0-14.0-7.0","2377","List1B","white","woman","","true","5","","","","","","","","","",""
"null","CORRECT","","html-keyboard-response","116","453607","0.0-14.0-8.0-0.0","2377","List1B","white","woman","","","","null","","","","","","","","",""
"1946.5999999642372","<img src=""portrait/WM2.jpg""style=""height:400px;""></img>","7","html-button-response","117","455557","0.0-14.0-10.0","2377","List1B","white","woman","","true","7","","","","","","","","","",""
"null","CORRECT","","html-keyboard-response","118","457069","0.0-14.0-11.0-0.0","2377","List1B","white","woman","","","","null","","","","","","","","",""
"1466.5","<img src=""portrait/BM1.jpg""style=""height:400px;""></img>","4","html-button-response","119","458538","0.0-14.0-13.0","2377","List1B","white","woman","","true","4","","","","","","","","","",""
"null","CORRECT","","html-keyboard-response","120","460044","0.0-14.0-14.0-0.0","2377","List1B","white","woman","","","","null","","","","","","","","",""
"1764.2999999523163","<img src=""portrait/BW2.jpg""style=""height:400px;""></img>","2","html-button-response","121","461811","0.0-14.0-16.0","2377","List1B","white","woman","","true","2","","","","","","","","","",""
"null","CORRECT","","html-keyboard-response","122","463322","0.0-14.0-17.0-0.0","2377","List1B","white","woman","","","","null","","","","","","","","",""
"1896","<img src=""portrait/BW1.jpg""style=""height:400px;""></img>","0","html-button-response","123","465220","0.0-14.0-19.0","2377","List1B","white","woman","","true","0","","","","","","","","","",""
"null","CORRECT","","html-keyboard-response","124","466730","0.0-14.0-20.0-0.0","2377","List1B","white","woman","","","","null","","","","","","","","",""
"1072.300000011921","<img src=""portrait/WW1.jpg""style=""height:400px;""></img>","1","html-button-response","125","467804","0.0-14.0-22.0","2377","List1B","white","woman","","true","1","","","","","","","","","",""
"null","CORRECT","","html-keyboard-response","126","469321","0.0-14.0-23.0-0.0","2377","List1B","white","woman","","","","null","","","","","","","","",""
"1532.0999999642372","<p>You got 8 out of 8 right first time. Press Continue.</p>","0","html-button-response","127","470856","0.0-14.0-25.0","2377","List1B","white","woman","","","","","","","","","","","","",""
"null","<div style=""font-size:60px;"">+</div>","","html-keyboard-response","128","472378","0.0-15.0-0.0","2377","List1B","white","woman","","","","null","","","","","","","","",""
"null","<img src=""stim_listB/touch7.gif""style=""height:400px;""></stim_listB>","","html-keyboard-response","129","474383","0.0-15.0-1.0","2377","List1B","white","woman","","","","null","","","","","","","","",""
"null","is touching","","html-keyboard-response","130","476390","0.0-15.0-2.0","2377","List1B","white","woman","","","","null","","","","","","","","",""
"2920.600000023842","","","survey-text","131","479313","0.0-15.0-3.0","2377","List1B","white","woman","","","","","{""Q0"":""kate is touching jane""}","<img src=""stim_listB/touch7.gif""style=""height:400px;""></stim_listB>","is touching","","","","","",""
"null","<div style=""font-size:60px;"">+</div>","","html-keyboard-response","132","479821","0.0-15.0-0.1","2377","List1B","white","woman","","","","null","","","","","","","","",""
"null","<img src=""stim_listB/copy6.gif""style=""height:400px;""></stim_listB>","","html-keyboard-response","133","481828","0.0-15.0-1.1","2377","List1B","white","woman","","","","null","","","","","","","","",""
"null","is being copied by","","html-keyboard-response","134","483832","0.0-15.0-2.1","2377","List1B","white","woman","","","","null","","","","","","","","",""
"4894.800000011921","","","survey-text","135","488731","0.0-15.0-3.1","2377","List1B","white","woman","","","","","{""Q0"":""fred is being copied by dave""}","<img src=""stim_listB/copy6.gif""style=""height:400px;""></stim_listB>","is being copied by","","","","","",""
"null","<div style=""font-size:60px;"">+</div>","","html-keyboard-response","136","489232","0.0-15.0-0.2","2377","List1B","white","woman","","","","null","","","","","","","","",""
"null","<img src=""stim_listB/shout8.gif""style=""height:400px;""></stim_listB>","","html-keyboard-response","137","491242","0.0-15.0-1.2","2377","List1B","white","woman","","","","null","","","","","","","","",""
"null","is being shouted at by","","html-keyboard-response","138","493249","0.0-15.0-2.2","2377","List1B","white","woman","","","","null","","","","","","","","",""
"4323.800000011921","","","survey-text","139","497577","0.0-15.0-3.2","2377","List1B","white","woman","","","","","{""Q0"":""kate is being shouted at by jane""}","<img src=""stim_listB/shout8.gif""style=""height:400px;""></stim_listB>","is being shouted at by","","","","","",""
"null","<div style=""font-size:60px;"">+</div>","","html-keyboard-response","140","498088","0.0-15.0-0.3","2377","List1B","white","woman","","","","null","","","","","","","","",""
"null","<img src=""stim_listB/shout4.gif""style=""height:400px;""></stim_listB>","","html-keyboard-response","141","500099","0.0-15.0-1.3","2377","List1B","white","woman","","","","null","","","","","","","","",""
"null","is being shouted at by","","html-keyboard-response","142","502109","0.0-15.0-2.3","2377","List1B","white","woman","","","","null","","","","","","","","",""
"5486","","","survey-text","143","507598","0.0-15.0-3.3","2377","List1B","white","woman","","","","","{""Q0"":""dave is being shouted at by jane""}","<img src=""stim_listB/shout4.gif""style=""height:400px;""></stim_listB>","is being shouted at by","","","","","",""
"null","<div style=""font-size:60px;"">+</div>","","html-keyboard-response","144","508100","0.0-15.0-0.4","2377","List1B","white","woman","","","","null","","","","","","","","",""
"null","<img src=""stim_listB/look2.gif""style=""height:400px;""></stim_listB>","","html-keyboard-response","145","510103","0.0-15.0-1.4","2377","List1B","white","woman","","","","null","","","","","","","","",""
"null","is being looked at by","","html-keyboard-response","146","512108","0.0-15.0-2.4","2377","List1B","white","woman","","","","null","","","","","","","","",""
"4094.699999988079","","","survey-text","147","516206","0.0-15.0-3.4","2377","List1B","white","woman","","","","","{""Q0"":""kate is being looked at by mike""}","<img src=""stim_listB/look2.gif""style=""height:400px;""></stim_listB>","is being looked at by","","","","","",""
"null","<div style=""font-size:60px;"">+</div>","","html-keyboard-response","148","516710","0.0-15.0-0.5","2377","List1B","white","woman","","","","null","","","","","","","","",""
"null","<img src=""stim_listB/oppose6.gif""style=""height:400px;""></stim_listB>","","html-keyboard-response","149","518724","0.0-15.0-1.5","2377","List1B","white","woman","","","","null","","","","","","","","",""
"null","is being opposed by","","html-keyboard-response","150","520731","0.0-15.0-2.5","2377","List1B","white","woman","","","","null","","","","","","","","",""
"4866.5","","","survey-text","151","525602","0.0-15.0-3.5","2377","List1B","white","woman","","","","","{""Q0"":""fred is being opposed by luke""}","<img src=""stim_listB/oppose6.gif""style=""height:400px;""></stim_listB>","is being opposed by","","","","","",""
"null","<div style=""font-size:60px;"">+</div>","","html-keyboard-response","152","526105","0.0-15.0-0.6","2377","List1B","white","woman","","","","null","","","","","","","","",""
"null","<img src=""stim_listB/greet6.gif""style=""height:400px;""></stim_listB>","","html-keyboard-response","153","528119","0.0-15.0-1.6","2377","List1B","white","woman","","","","null","","","","","","","","",""
"null","is being greeted by","","html-keyboard-response","154","530136","0.0-15.0-2.6","2377","List1B","white","woman","","","","null","","","","","","","","",""
"4487.300000011921","","","survey-text","155","534627","0.0-15.0-3.6","2377","List1B","white","woman","","","","","{""Q0"":""fred is being greeted by dave""}","<img src=""stim_listB/greet6.gif""style=""height:400px;""></stim_listB>","is being greeted by","","","","","",""
"null","<div style=""font-size:60px;"">+</div>","","html-keyboard-response","156","535137","0.0-15.0-0.7","2377","List1B","white","woman","","","","null","","","","","","","","",""
"null","<img src=""stim_listB/hug5.gif""style=""height:400px;""></stim_listB>","","html-keyboard-response","157","537141","0.0-15.0-1.7","2377","List1B","white","woman","","","","null","","","","","","","","",""
"null","is hugging","","html-keyboard-response","158","539144","0.0-15.0-2.7","2377","List1B","white","woman","","","","null","","","","","","","","",""
"3581.399999976158","","","survey-text","159","542729","0.0-15.0-3.7","2377","List1B","white","woman","","","","","{""Q0"":""fred is hugging luke""}","<img src=""stim_listB/hug5.gif""style=""height:400px;""></stim_listB>","is hugging","","","","","",""
"null","<div style=""font-size:60px;"">+</div>","","html-keyboard-response","160","543230","0.0-15.0-0.8","2377","List1B","white","woman","","","","null","","","","","","","","",""
"null","<img src=""stim_listB/greet5.gif""style=""height:400px;""></stim_listB>","","html-keyboard-response","161","545238","0.0-15.0-1.8","2377","List1B","white","woman","","","","null","","","","","","","","",""
"null","is greeting","","html-keyboard-response","162","547242","0.0-15.0-2.8","2377","List1B","white","woman","","","","null","","","","","","","","",""
"2924.099999964237","","","survey-text","163","550169","0.0-15.0-3.8","2377","List1B","white","woman","","","","","{""Q0"":""luke is greeting mike""}","<img src=""stim_listB/greet5.gif""style=""height:400px;""></stim_listB>","is greeting","","","","","",""
"null","<div style=""font-size:60px;"">+</div>","","html-keyboard-response","164","550675","0.0-15.0-0.9","2377","List1B","white","woman","","","","null","","","","","","","","",""
"null","<img src=""stim_listB/kiss2.gif""style=""height:400px;""></stim_listB>","","html-keyboard-response","165","552683","0.0-15.0-1.9","2377","List1B","white","woman","","","","null","","","","","","","","",""
"null","is being kissed by","","html-keyboard-response","166","554687","0.0-15.0-2.9","2377","List1B","white","woman","","","","null","","","","","","","","",""
"4330.399999976158","","","survey-text","167","559021","0.0-15.0-3.9","2377","List1B","white","woman","","","","","{""Q0"":""kate is being kissed by mike""}","<img src=""stim_listB/kiss2.gif""style=""height:400px;""></stim_listB>","is being kissed by","","","","","",""
"null","<div style=""font-size:60px;"">+</div>","","html-keyboard-response","168","559530","0.0-15.0-0.10","2377","List1B","white","woman","","","","null","","","","","","","","",""
"null","<img src=""stim_listB/copy2.gif""style=""height:400px;""></stim_listB>","","html-keyboard-response","169","561534","0.0-15.0-1.10","2377","List1B","white","woman","","","","null","","","","","","","","",""
"null","is being copied by","","html-keyboard-response","170","563537","0.0-15.0-2.10","2377","List1B","white","woman","","","","null","","","","","","","","",""
"3837.2000000476837","","","survey-text","171","567378","0.0-15.0-3.10","2377","List1B","white","woman","","","","","{""Q0"":""kate is being copied by fred""}","<img src=""stim_listB/copy2.gif""style=""height:400px;""></stim_listB>","is being copied by","","","","","",""
"null","<div style=""font-size:60px;"">+</div>","","html-keyboard-response","172","567884","0.0-15.0-0.11","2377","List1B","white","woman","","","","null","","","","","","","","",""
"null","<img src=""stim_listB/shout2.gif""style=""height:400px;""></stim_listB>","","html-keyboard-response","173","569890","0.0-15.0-1.11","2377","List1B","white","woman","","","","null","","","","","","","","",""
"null","is being shouted at by","","html-keyboard-response","174","571900","0.0-15.0-2.11","2377","List1B","white","woman","","","","null","","","","","","","","",""
"5549.099999964237","","","survey-text","175","577453","0.0-15.0-3.11","2377","List1B","white","woman","","","","","{""Q0"":""kate is being shouted at by mike""}","<img src=""stim_listB/shout2.gif""style=""height:400px;""></stim_listB>","is being shouted at by","","","","","",""
"null","<div style=""font-size:60px;"">+</div>","","html-keyboard-response","176","577956","0.0-15.0-0.12","2377","List1B","white","woman","","","","null","","","","","","","","",""
"null","<img src=""stim_listB/touch5.gif""style=""height:400px;""></stim_listB>","","html-keyboard-response","177","579972","0.0-15.0-1.12","2377","List1B","white","woman","","","","null","","","","","","","","",""
"null","is touching","","html-keyboard-response","178","581979","0.0-15.0-2.12","2377","List1B","white","woman","","","","null","","","","","","","","",""
"3937.900000035763","","","survey-text","179","585920","0.0-15.0-3.12","2377","List1B","white","woman","","","","","{""Q0"":""luke is touching mike""}","<img src=""stim_listB/touch5.gif""style=""height:400px;""></stim_listB>","is touching","","","","","",""
"null","<div style=""font-size:60px;"">+</div>","","html-keyboard-response","180","586425","0.0-15.0-0.13","2377","List1B","white","woman","","","","null","","","","","","","","",""
"null","<img src=""stim_listB/challenge1.gif""style=""height:400px;""></stim_listB>","","html-keyboard-response","181","588441","0.0-15.0-1.13","2377","List1B","white","woman","","","","null","","","","","","","","",""
"null","is challenging","","html-keyboard-response","182","590451","0.0-15.0-2.13","2377","List1B","white","woman","","","","null","","","","","","","","",""
"4240.100000023842","","","survey-text","183","594694","0.0-15.0-3.13","2377","List1B","white","woman","","","","","{""Q0"":""beth is challenging mike""}","<img src=""stim_listB/challenge1.gif""style=""height:400px;""></stim_listB>","is challenging","","","","","",""
"null","<div style=""font-size:60px;"">+</div>","","html-keyboard-response","184","595198","0.0-15.0-0.14","2377","List1B","white","woman","","","","null","","","","","","","","",""
"null","<img src=""stim_listB/greet3.gif""style=""height:400px;""></stim_listB>","","html-keyboard-response","185","597207","0.0-15.0-1.14","2377","List1B","white","woman","","","","null","","","","","","","","",""
"null","is greeting","","html-keyboard-response","186","599213","0.0-15.0-2.14","2377","List1B","white","woman","","","","null","","","","","","","","",""
"4496.100000023842","","","survey-text","187","603713","0.0-15.0-3.14","2377","List1B","white","woman","","","","","{""Q0"":""dave is greeting ruth""}","<img src=""stim_listB/greet3.gif""style=""height:400px;""></stim_listB>","is greeting","","","","","",""
"null","<div style=""font-size:60px;"">+</div>","","html-keyboard-response","188","604219","0.0-15.0-0.15","2377","List1B","white","woman","","","","null","","","","","","","","",""
"null","<img src=""stim_listB/touch1.gif""style=""height:400px;""></stim_listB>","","html-keyboard-response","189","606223","0.0-15.0-1.15","2377","List1B","white","woman","","","","null","","","","","","","","",""
"null","is touching","","html-keyboard-response","190","608230","0.0-15.0-2.15","2377","List1B","white","woman","","","","null","","","","","","","","",""
"4060.599999964237","","","survey-text","191","612294","0.0-15.0-3.15","2377","List1B","white","woman","","","","","{""Q0"":""mike is touching kate""}","<img src=""stim_listB/touch1.gif""style=""height:400px;""></stim_listB>","is touching","","","","","",""
"null","<div style=""font-size:60px;"">+</div>","","html-keyboard-response","192","612802","0.0-15.0-0.16","2377","List1B","white","woman","","","","null","","","","","","","","",""
"null","<img src=""stim_listB/oppose7.gif""style=""height:400px;""></stim_listB>","","html-keyboard-response","193","614812","0.0-15.0-1.16","2377","List1B","white","woman","","","","null","","","","","","","","",""
"null","is opposing","","html-keyboard-response","194","616825","0.0-15.0-2.16","2377","List1B","white","woman","","","","null","","","","","","","","",""
"2934.699999988079","","","survey-text","195","619763","0.0-15.0-3.16","2377","List1B","white","woman","","","","","{""Q0"":""kate is opposing jane""}","<img src=""stim_listB/oppose7.gif""style=""height:400px;""></stim_listB>","is opposing","","","","","",""
"null","<div style=""font-size:60px;"">+</div>","","html-keyboard-response","196","620271","0.0-15.0-0.17","2377","List1B","white","woman","","","","null","","","","","","","","",""
"null","<img src=""stim_listB/copy3.gif""style=""height:400px;""></stim_listB>","","html-keyboard-response","197","622280","0.0-15.0-1.17","2377","List1B","white","woman","","","","null","","","","","","","","",""
"null","is copying","","html-keyboard-response","198","624285","0.0-15.0-2.17","2377","List1B","white","woman","","","","null","","","","","","","","",""
"4276.300000011921","","","survey-text","199","628565","0.0-15.0-3.17","2377","List1B","white","woman","","","","","{""Q0"":""dave is copying jane""}","<img src=""stim_listB/copy3.gif""style=""height:400px;""></stim_listB>","is copying","","","","","",""
"null","<div style=""font-size:60px;"">+</div>","","html-keyboard-response","200","629069","0.0-15.0-0.18","2377","List1B","white","woman","","","","null","","","","","","","","",""
"null","<img src=""stim_listB/touch3.gif""style=""height:400px;""></stim_listB>","","html-keyboard-response","201","631077","0.0-15.0-1.18","2377","List1B","white","woman","","","","null","","","","","","","","",""
"null","is touching","","html-keyboard-response","202","633084","0.0-15.0-2.18","2377","List1B","white","woman","","","","null","","","","","","","","",""
"3080.199999988079","","","survey-text","203","636167","0.0-15.0-3.18","2377","List1B","white","woman","","","","","{""Q0"":""dave is touching jane""}","<img src=""stim_listB/touch3.gif""style=""height:400px;""></stim_listB>","is touching","","","","","",""
"null","<div style=""font-size:60px;"">+</div>","","html-keyboard-response","204","636670","0.0-15.0-0.19","2377","List1B","white","woman","","","","null","","","","","","","","",""
"null","<img src=""stim_listB/greet2.gif""style=""height:400px;""></stim_listB>","","html-keyboard-response","205","638678","0.0-15.0-1.19","2377","List1B","white","woman","","","","null","","","","","","","","",""
"null","is being greeted by","","html-keyboard-response","206","640689","0.0-15.0-2.19","2377","List1B","white","woman","","","","null","","","","","","","","",""
"6096.900000035763","","","survey-text","207","646788","0.0-15.0-3.19","2377","List1B","white","woman","","","","","{""Q0"":""kate is being greeted by fred""}","<img src=""stim_listB/greet2.gif""style=""height:400px;""></stim_listB>","is being greeted by","","","","","",""
"1945.199999988079","<img src='img/portrait_matrix_list1.jpg' style='width:900px;height:500px;''></img><p>If you have memorised all the portraits and names and are ready to start, press Continue.</p><p><strong>Please note: Your memory of these faces will be tested 4 times during this experiment.</strong></p>","0","html-button-response","208","648735","0.0-16.0-0.0","2377","List1B","white","woman","","","","","","","","","","","","",""
"2080.600000023842","<img src=""portrait/BW1.jpg""style=""height:400px;""></img>","0","html-button-response","209","651821","0.0-16.0-1.0","2377","List1B","white","woman","","true","0","","","","","","","","","",""
"null","CORRECT","","html-keyboard-response","210","653337","0.0-16.0-2.0-0.0","2377","List1B","white","woman","","","","null","","","","","","","","",""
"1218.300000011921","<img src=""portrait/WW1.jpg""style=""height:400px;""></img>","1","html-button-response","211","654558","0.0-16.0-4.0","2377","List1B","white","woman","","true","1","","","","","","","","","",""
"null","CORRECT","","html-keyboard-response","212","656081","0.0-16.0-5.0-0.0","2377","List1B","white","woman","","","","null","","","","","","","","",""
"980.6999999880791","<img src=""portrait/BW2.jpg""style=""height:400px;""></img>","2","html-button-response","213","657065","0.0-16.0-7.0","2377","List1B","white","woman","","true","2","","","","","","","","","",""
"null","CORRECT","","html-keyboard-response","214","658577","0.0-16.0-8.0-0.0","2377","List1B","white","woman","","","","null","","","","","","","","",""
"833.3000000119209","<img src=""portrait/WW2.jpg""style=""height:400px;""></img>","3","html-button-response","215","659413","0.0-16.0-10.0","2377","List1B","white","woman","","true","3","","","","","","","","","",""
"null","CORRECT","","html-keyboard-response","216","660919","0.0-16.0-11.0-0.0","2377","List1B","white","woman","","","","null","","","","","","","","",""
"1119.300000011921","<img src=""portrait/BM1.jpg""style=""height:400px;""></img>","4","html-button-response","217","662041","0.0-16.0-13.0","2377","List1B","white","woman","","true","4","","","","","","","","","",""
"null","CORRECT","","html-keyboard-response","218","663561","0.0-16.0-14.0-0.0","2377","List1B","white","woman","","","","null","","","","","","","","",""
"1427.199999988079","<img src=""portrait/BM2.jpg""style=""height:400px;""></img>","5","html-button-response","219","664991","0.0-16.0-16.0","2377","List1B","white","woman","","true","5","","","","","","","","","",""
"null","CORRECT","","html-keyboard-response","220","666509","0.0-16.0-17.0-0.0","2377","List1B","white","woman","","","","null","","","","","","","","",""
"1022.8000000119209","<img src=""portrait/WM1.jpg""style=""height:400px;""></img>","6","html-button-response","221","667534","0.0-16.0-19.0","2377","List1B","white","woman","","true","6","","","","","","","","","",""
"null","CORRECT","","html-keyboard-response","222","669058","0.0-16.0-20.0-0.0","2377","List1B","white","woman","","","","null","","","","","","","","",""
"564.5","<img src=""portrait/WM2.jpg""style=""height:400px;""></img>","7","html-button-response","223","669625","0.0-16.0-22.0","2377","List1B","white","woman","","true","7","","","","","","","","","",""
"null","CORRECT","","html-keyboard-response","224","671135","0.0-16.0-23.0-0.0","2377","List1B","white","woman","","","","null","","","","","","","","",""
"943.8000000119209","<p>You got 8 out of 8 right first time. Press Continue.</p>","0","html-button-response","225","672081","0.0-16.0-25.0","2377","List1B","white","woman","","","","","","","","","","","","",""
"null","<div style=""font-size:60px;"">+</div>","","html-keyboard-response","226","673591","0.0-17.0-0.0","2377","List1B","white","woman","","","","null","","","","","","","","",""
"null","<img src=""stim_listB/challenge7.gif""style=""height:400px;""></stim_listB>","","html-keyboard-response","227","675599","0.0-17.0-1.0","2377","List1B","white","woman","","","","null","","","","","","","","",""
"null","is challenging","","html-keyboard-response","228","677606","0.0-17.0-2.0","2377","List1B","white","woman","","","","null","","","","","","","","",""
"2942.099999964237","","","survey-text","229","680551","0.0-17.0-3.0","2377","List1B","white","woman","","","","","{""Q0"":""kate is challenging ruth""}","<img src=""stim_listB/challenge7.gif""style=""height:400px;""></stim_listB>","is challenging","","","","","",""
"null","<div style=""font-size:60px;"">+</div>","","html-keyboard-response","230","681060","0.0-17.0-0.1","2377","List1B","white","woman","","","","null","","","","","","","","",""
"null","<img src=""stim_listB/kiss3.gif""style=""height:400px;""></stim_listB>","","html-keyboard-response","231","683063","0.0-17.0-1.1","2377","List1B","white","woman","","","","null","","","","","","","","",""
"null","is kissing","","html-keyboard-response","232","685066","0.0-17.0-2.1","2377","List1B","white","woman","","","","null","","","","","","","","",""
"2656.399999976158","","","survey-text","233","687726","0.0-17.0-3.1","2377","List1B","white","woman","","","","","{""Q0"":""ruth is kissing luke""}","<img src=""stim_listB/kiss3.gif""style=""height:400px;""></stim_listB>","is kissing","","","","","",""
"null","<div style=""font-size:60px;"">+</div>","","html-keyboard-response","234","688233","0.0-17.0-0.2","2377","List1B","white","woman","","","","null","","","","","","","","",""
"null","<img src=""stim_listB/seduce8.gif""style=""height:400px;""></stim_listB>","","html-keyboard-response","235","690239","0.0-17.0-1.2","2377","List1B","white","woman","","","","null","","","","","","","","",""
"null","is being seduced by","","html-keyboard-response","236","692244","0.0-17.0-2.2","2377","List1B","white","woman","","","","null","","","","","","","","",""
"3830","","","survey-text","237","696077","0.0-17.0-3.2","2377","List1B","white","woman","","","","","{""Q0"":""ruth is being seduced by kate""}","<img src=""stim_listB/seduce8.gif""style=""height:400px;""></stim_listB>","is being seduced by","","","","","",""
"null","<div style=""font-size:60px;"">+</div>","","html-keyboard-response","238","696584","0.0-17.0-0.3","2377","List1B","white","woman","","","","null","","","","","","","","",""
"null","<img src=""stim_listB/touch2.gif""style=""height:400px;""></stim_listB>","","html-keyboard-response","239","698596","0.0-17.0-1.3","2377","List1B","white","woman","","","","null","","","","","","","","",""
"null","is being touched by","","html-keyboard-response","240","700603","0.0-17.0-2.3","2377","List1B","white","woman","","","","null","","","","","","","","",""
"4683.699999988079","","","survey-text","241","705291","0.0-17.0-3.3","2377","List1B","white","woman","","","","","{""Q0"":""fred is being touched by beth""}","<img src=""stim_listB/touch2.gif""style=""height:400px;""></stim_listB>","is being touched by","","","","","",""
"null","<div style=""font-size:60px;"">+</div>","","html-keyboard-response","242","705798","0.0-17.0-0.4","2377","List1B","white","woman","","","","null","","","","","","","","",""
"null","<img src=""stim_listB/touch6.gif""style=""height:400px;""></stim_listB>","","html-keyboard-response","243","707807","0.0-17.0-1.4","2377","List1B","white","woman","","","","null","","","","","","","","",""
"null","is being touched by","","html-keyboard-response","244","709810","0.0-17.0-2.4","2377","List1B","white","woman","","","","null","","","","","","","","",""
"4900.100000023842","","","survey-text","245","714714","0.0-17.0-3.4","2377","List1B","white","woman","","","","","{""Q0"":""fred is being touched by luke""}","<img src=""stim_listB/touch6.gif""style=""height:400px;""></stim_listB>","is being touched by","","","","","",""
"null","<div style=""font-size:60px;"">+</div>","","html-keyboard-response","246","715221","0.0-17.0-0.5","2377","List1B","white","woman","","","","null","","","","","","","","",""
"null","<img src=""stim_listB/challenge2.gif""style=""height:400px;""></stim_listB>","","html-keyboard-response","247","717230","0.0-17.0-1.5","2377","List1B","white","woman","","","","null","","","","","","","","",""
"null","is being challenged by","","html-keyboard-response","248","719239","0.0-17.0-2.5","2377","List1B","white","woman","","","","null","","","","","","","","",""
"5738.599999964237","","","survey-text","249","724981","0.0-17.0-3.5","2377","List1B","white","woman","","","","","{""Q0"":""fred is being challenged by kate""}","<img src=""stim_listB/challenge2.gif""style=""height:400px;""></stim_listB>","is being challenged by","","","","","",""
"null","<div style=""font-size:60px;"">+</div>","","html-keyboard-response","250","725493","0.0-17.0-0.6","2377","List1B","white","woman","","","","null","","","","","","","","",""
"null","<img src=""stim_listB/seduce7.gif""style=""height:400px;""></stim_listB>","","html-keyboard-response","251","727500","0.0-17.0-1.6","2377","List1B","white","woman","","","","null","","","","","","","","",""
"null","is seducing","","html-keyboard-response","252","729510","0.0-17.0-2.6","2377","List1B","white","woman","","","","null","","","","","","","","",""
"3233.099999964237","","","survey-text","253","732747","0.0-17.0-3.6","2377","List1B","white","woman","","","","","{""Q0"":""jane is seducing beth""}","<img src=""stim_listB/seduce7.gif""style=""height:400px;""></stim_listB>","is seducing","","","","","",""
"null","<div style=""font-size:60px;"">+</div>","","html-keyboard-response","254","733257","0.0-17.0-0.7","2377","List1B","white","woman","","","","null","","","","","","","","",""
"null","<img src=""stim_listB/look1.gif""style=""height:400px;""></stim_listB>","","html-keyboard-response","255","735264","0.0-17.0-1.7","2377","List1B","white","woman","","","","null","","","","","","","","",""
"null","is looking at","","html-keyboard-response","256","737270","0.0-17.0-2.7","2377","List1B","white","woman","","","","null","","","","","","","","",""
"3745.899999976158","","","survey-text","257","741019","0.0-17.0-3.7","2377","List1B","white","woman","","","","","{""Q0"":""beth is looking at fred""}","<img src=""stim_listB/look1.gif""style=""height:400px;""></stim_listB>","is looking at","","","","","",""
"null","<div style=""font-size:60px;"">+</div>","","html-keyboard-response","258","741534","0.0-17.0-0.8","2377","List1B","white","woman","","","","null","","","","","","","","",""
"null","<img src=""stim_listB/greet4.gif""style=""height:400px;""></stim_listB>","","html-keyboard-response","259","743540","0.0-17.0-1.8","2377","List1B","white","woman","","","","null","","","","","","","","",""
"null","is being greeted by","","html-keyboard-response","260","745549","0.0-17.0-2.8","2377","List1B","white","woman","","","","null","","","","","","","","",""
"6348.399999976158","","","survey-text","261","751901","0.0-17.0-3.8","2377","List1B","white","woman","","","","","{""Q0"":""luke is being greeted by jane""}","<img src=""stim_listB/greet4.gif""style=""height:400px;""></stim_listB>","is being greeted by","","","","","",""
"null","<div style=""font-size:60px;"">+</div>","","html-keyboard-response","262","752411","0.0-17.0-0.9","2377","List1B","white","woman","","","","null","","","","","","","","",""
"null","<img src=""stim_listB/shout7.gif""style=""height:400px;""></stim_listB>","","html-keyboard-response","263","754419","0.0-17.0-1.9","2377","List1B","white","woman","","","","null","","","","","","","","",""
"null","is shouting at","","html-keyboard-response","264","756429","0.0-17.0-2.9","2377","List1B","white","woman","","","","null","","","","","","","","",""
"3631","","","survey-text","265","760064","0.0-17.0-3.9","2377","List1B","white","woman","","","","","{""Q0"":""ruth is shouting at beth""}","<img src=""stim_listB/shout7.gif""style=""height:400px;""></stim_listB>","is shouting at","","","","","",""
"null","<div style=""font-size:60px;"">+</div>","","html-keyboard-response","266","760575","0.0-17.0-0.10","2377","List1B","white","woman","","","","null","","","","","","","","",""
"null","<img src=""stim_listB/touch8.gif""style=""height:400px;""></stim_listB>","","html-keyboard-response","267","762583","0.0-17.0-1.10","2377","List1B","white","woman","","","","null","","","","","","","","",""
"null","is being touched by","","html-keyboard-response","268","764590","0.0-17.0-2.10","2377","List1B","white","woman","","","","null","","","","","","","","",""
"3874.5","","","survey-text","269","768468","0.0-17.0-3.10","2377","List1B","white","woman","","","","","{""Q0"":""ruth is being touched by beth""}","<img src=""stim_listB/touch8.gif""style=""height:400px;""></stim_listB>","is being touched by","","","","","",""
"null","<div style=""font-size:60px;"">+</div>","","html-keyboard-response","270","768972","0.0-17.0-0.11","2377","List1B","white","woman","","","","null","","","","","","","","",""
"null","<img src=""stim_listB/shout3.gif""style=""height:400px;""></stim_listB>","","html-keyboard-response","271","770978","0.0-17.0-1.11","2377","List1B","white","woman","","","","null","","","","","","","","",""
"null","is shouting at","","html-keyboard-response","272","772987","0.0-17.0-2.11","2377","List1B","white","woman","","","","null","","","","","","","","",""
"6194.900000035763","","","survey-text","273","779186","0.0-17.0-3.11","2377","List1B","white","woman","","","","","{""Q0"":""ruth is shouting at luke""}","<img src=""stim_listB/shout3.gif""style=""height:400px;""></stim_listB>","is shouting at","","","","","",""
"null","<div style=""font-size:60px;"">+</div>","","html-keyboard-response","274","779690","0.0-17.0-0.12","2377","List1B","white","woman","","","","null","","","","","","","","",""
"null","<img src=""stim_listB/look6.gif""style=""height:400px;""></stim_listB>","","html-keyboard-response","275","781693","0.0-17.0-1.12","2377","List1B","white","woman","","","","null","","","","","","","","",""
"null","is being looked at by","","html-keyboard-response","276","783705","0.0-17.0-2.12","2377","List1B","white","woman","","","","null","","","","","","","","",""
"4185.699999988079","","","survey-text","277","787893","0.0-17.0-3.12","2377","List1B","white","woman","","","","","{""Q0"":""mike is being looked at by dave""}","<img src=""stim_listB/look6.gif""style=""height:400px;""></stim_listB>","is being looked at by","","","","","",""
"null","<div style=""font-size:60px;"">+</div>","","html-keyboard-response","278","788395","0.0-17.0-0.13","2377","List1B","white","woman","","","","null","","","","","","","","",""
"null","<img src=""stim_listB/hug3.gif""style=""height:400px;""></stim_listB>","","html-keyboard-response","279","790402","0.0-17.0-1.13","2377","List1B","white","woman","","","","null","","","","","","","","",""
"null","is hugging","","html-keyboard-response","280","792406","0.0-17.0-2.13","2377","List1B","white","woman","","","","null","","","","","","","","",""
"5751.100000023842","","","survey-text","281","798160","0.0-17.0-3.13","2377","List1B","white","woman","","","","","{""Q0"":""ruth is hugging luke""}","<img src=""stim_listB/hug3.gif""style=""height:400px;""></stim_listB>","is hugging","","","","","",""
"null","<div style=""font-size:60px;"">+</div>","","html-keyboard-response","282","798664","0.0-17.0-0.14","2377","List1B","white","woman","","","","null","","","","","","","","",""
"null","<img src=""stim_listB/challenge4.gif""style=""height:400px;""></stim_listB>","","html-keyboard-response","283","800669","0.0-17.0-1.14","2377","List1B","white","woman","","","","null","","","","","","","","",""
"null","is being challenged by","","html-keyboard-response","284","802678","0.0-17.0-2.14","2377","List1B","white","woman","","","","null","","","","","","","","",""
"5733.800000011921","","","survey-text","285","808415","0.0-17.0-3.14","2377","List1B","white","woman","","","","","{""Q0"":""jane is being challenged by luke""}","<img src=""stim_listB/challenge4.gif""style=""height:400px;""></stim_listB>","is being challenged by","","","","","",""
"null","<div style=""font-size:60px;"">+</div>","","html-keyboard-response","286","808920","0.0-17.0-0.15","2377","List1B","white","woman","","","","null","","","","","","","","",""
"null","<img src=""stim_listB/kiss4.gif""style=""height:400px;""></stim_listB>","","html-keyboard-response","287","810928","0.0-17.0-1.15","2377","List1B","white","woman","","","","null","","","","","","","","",""
"null","is being kissed by","","html-keyboard-response","288","812938","0.0-17.0-2.15","2377","List1B","white","woman","","","","null","","","","","","","","",""
"3886.199999988079","","","survey-text","289","816828","0.0-17.0-3.15","2377","List1B","white","woman","","","","","{""Q0"":""jane is being kissed by dave""}","<img src=""stim_listB/kiss4.gif""style=""height:400px;""></stim_listB>","is being kissed by","","","","","",""
"null","<div style=""font-size:60px;"">+</div>","","html-keyboard-response","290","817336","0.0-17.0-0.16","2377","List1B","white","woman","","","","null","","","","","","","","",""
"null","<img src=""stim_listB/oppose4.gif""style=""height:400px;""></stim_listB>","","html-keyboard-response","291","819348","0.0-17.0-1.16","2377","List1B","white","woman","","","","null","","","","","","","","",""
"null","is being opposed by","","html-keyboard-response","292","821358","0.0-17.0-2.16","2377","List1B","white","woman","","","","null","","","","","","","","",""
"5607.300000011921","","","survey-text","293","826969","0.0-17.0-3.16","2377","List1B","white","woman","","","","","{""Q0"":""ruth is being opposed by luke""}","<img src=""stim_listB/oppose4.gif""style=""height:400px;""></stim_listB>","is being opposed by","","","","","",""
"null","<div style=""font-size:60px;"">+</div>","","html-keyboard-response","294","827477","0.0-17.0-0.17","2377","List1B","white","woman","","","","null","","","","","","","","",""
"null","<img src=""stim_listB/oppose2.gif""style=""height:400px;""></stim_listB>","","html-keyboard-response","295","829480","0.0-17.0-1.17","2377","List1B","white","woman","","","","null","","","","","","","","",""
"null","is being opposed by","","html-keyboard-response","296","831483","0.0-17.0-2.17","2377","List1B","white","woman","","","","null","","","","","","","","",""
"5979.300000011921","","","survey-text","297","837465","0.0-17.0-3.17","2377","List1B","white","woman","","","","","{""Q0"":""beth is being opposed by fred""}","<img src=""stim_listB/oppose2.gif""style=""height:400px;""></stim_listB>","is being opposed by","","","","","",""
"null","<div style=""font-size:60px;"">+</div>","","html-keyboard-response","298","837970","0.0-17.0-0.18","2377","List1B","white","woman","","","","null","","","","","","","","",""
"null","<img src=""stim_listB/copy4.gif""style=""height:400px;""></stim_listB>","","html-keyboard-response","299","839980","0.0-17.0-1.18","2377","List1B","white","woman","","","","null","","","","","","","","",""
"null","is being copied by","","html-keyboard-response","300","841985","0.0-17.0-2.18","2377","List1B","white","woman","","","","null","","","","","","","","",""
"4125.300000011921","","","survey-text","301","846114","0.0-17.0-3.18","2377","List1B","white","woman","","","","","{""Q0"":""luke is being copied by jane""}","<img src=""stim_listB/copy4.gif""style=""height:400px;""></stim_listB>","is being copied by","","","","","",""
"null","<div style=""font-size:60px;"">+</div>","","html-keyboard-response","302","846618","0.0-17.0-0.19","2377","List1B","white","woman","","","","null","","","","","","","","",""
"null","<img src=""stim_listB/seduce6.gif""style=""height:400px;""></stim_listB>","","html-keyboard-response","303","848623","0.0-17.0-1.19","2377","List1B","white","woman","","","","null","","","","","","","","",""
"null","is being seduced by","","html-keyboard-response","304","850631","0.0-17.0-2.19","2377","List1B","white","woman","","","","null","","","","","","","","",""
"6666.600000023842","","","survey-text","305","857301","0.0-17.0-3.19","2377","List1B","white","woman","","","","","{""Q0"":""mike is being seduced by luke""}","<img src=""stim_listB/seduce6.gif""style=""height:400px;""></stim_listB>","is being seduced by","","","","","",""
"3909.899999976158","<img src='img/portrait_matrix_list1.jpg' style='width:900px;height:500px;''></img><p>If you have memorised all the portraits and names and are ready to start, press Continue.</p><p><strong>Please note: Your memory of these faces will be tested 4 times during this experiment.</strong></p>","0","html-button-response","306","861213","0.0-18.0-0.0","2377","List1B","white","woman","","","","","","","","","","","","",""
"1529.9000000357628","<img src=""portrait/BM2.jpg""style=""height:400px;""></img>","5","html-button-response","307","863749","0.0-18.0-1.0","2377","List1B","white","woman","","true","5","","","","","","","","","",""
"null","CORRECT","","html-keyboard-response","308","865272","0.0-18.0-2.0-0.0","2377","List1B","white","woman","","","","null","","","","","","","","",""
"1703.0999999642372","<img src=""portrait/BW2.jpg""style=""height:400px;""></img>","2","html-button-response","309","866978","0.0-18.0-4.0","2377","List1B","white","woman","","true","2","","","","","","","","","",""
"null","CORRECT","","html-keyboard-response","310","868496","0.0-18.0-5.0-0.0","2377","List1B","white","woman","","","","null","","","","","","","","",""
"1816.5","<img src=""portrait/BW1.jpg""style=""height:400px;""></img>","0","html-button-response","311","870315","0.0-18.0-7.0","2377","List1B","white","woman","","true","0","","","","","","","","","",""
"null","CORRECT","","html-keyboard-response","312","871833","0.0-18.0-8.0-0.0","2377","List1B","white","woman","","","","null","","","","","","","","",""
"1286.699999988079","<img src=""portrait/WW2.jpg""style=""height:400px;""></img>","3","html-button-response","313","873122","0.0-18.0-10.0","2377","List1B","white","woman","","true","3","","","","","","","","","",""
"null","CORRECT","","html-keyboard-response","314","874640","0.0-18.0-11.0-0.0","2377","List1B","white","woman","","","","null","","","","","","","","",""
"1248.3999999761581","<img src=""portrait/WM2.jpg""style=""height:400px;""></img>","7","html-button-response","315","875892","0.0-18.0-13.0","2377","List1B","white","woman","","true","7","","","","","","","","","",""
"null","CORRECT","","html-keyboard-response","316","877401","0.0-18.0-14.0-0.0","2377","List1B","white","woman","","","","null","","","","","","","","",""
"2140.699999988079","<img src=""portrait/BM1.jpg""style=""height:400px;""></img>","4","html-button-response","317","879544","0.0-18.0-16.0","2377","List1B","white","woman","","true","4","","","","","","","","","",""
"null","CORRECT","","html-keyboard-response","318","881068","0.0-18.0-17.0-0.0","2377","List1B","white","woman","","","","null","","","","","","","","",""
"2905","<img src=""portrait/WM1.jpg""style=""height:400px;""></img>","6","html-button-response","319","883977","0.0-18.0-19.0","2377","List1B","white","woman","","true","6","","","","","","","","","",""
"null","CORRECT","","html-keyboard-response","320","885493","0.0-18.0-20.0-0.0","2377","List1B","white","woman","","","","null","","","","","","","","",""
"1623.5","<img src=""portrait/WW1.jpg""style=""height:400px;""></img>","1","html-button-response","321","887120","0.0-18.0-22.0","2377","List1B","white","woman","","true","1","","","","","","","","","",""
"null","CORRECT","","html-keyboard-response","322","888630","0.0-18.0-23.0-0.0","2377","List1B","white","woman","","","","null","","","","","","","","",""
"2784.399999976158","<p>You got 8 out of 8 right first time. Press Continue.</p>","0","html-button-response","323","891417","0.0-18.0-25.0","2377","List1B","white","woman","","","","","","","","","","","","",""
"null","<div style=""font-size:60px;"">+</div>","","html-keyboard-response","324","892930","0.0-19.0-0.0","2377","List1B","white","woman","","","","null","","","","","","","","",""
"null","<img src=""stim_listB/kiss1.gif""style=""height:400px;""></stim_listB>","","html-keyboard-response","325","894939","0.0-19.0-1.0","2377","List1B","white","woman","","","","null","","","","","","","","",""
"null","is kissing","","html-keyboard-response","326","896949","0.0-19.0-2.0","2377","List1B","white","woman","","","","null","","","","","","","","",""
"3004","","","survey-text","327","899957","0.0-19.0-3.0","2377","List1B","white","woman","","","","","{""Q0"":""fred is kissing beth""}","<img src=""stim_listB/kiss1.gif""style=""height:400px;""></stim_listB>","is kissing","","","","","",""
"null","<div style=""font-size:60px;"">+</div>","","html-keyboard-response","328","900464","0.0-19.0-0.1","2377","List1B","white","woman","","","","null","","","","","","","","",""
"null","<img src=""stim_listB/look4.gif""style=""height:400px;""></stim_listB>","","html-keyboard-response","329","902469","0.0-19.0-1.1","2377","List1B","white","woman","","","","null","","","","","","","","",""
"null","is being looked at by","","html-keyboard-response","330","904487","0.0-19.0-2.1","2377","List1B","white","woman","","","","null","","","","","","","","",""
"4965.899999976158","","","survey-text","331","909456","0.0-19.0-3.1","2377","List1B","white","woman","","","","","{""Q0"":""jane is being looked at by dave""}","<img src=""stim_listB/look4.gif""style=""height:400px;""></stim_listB>","is being looked at by","","","","","",""
"null","<div style=""font-size:60px;"">+</div>","","html-keyboard-response","332","909963","0.0-19.0-0.2","2377","List1B","white","woman","","","","null","","","","","","","","",""
"null","<img src=""stim_listB/copy1.gif""style=""height:400px;""></stim_listB>","","html-keyboard-response","333","911970","0.0-19.0-1.2","2377","List1B","white","woman","","","","null","","","","","","","","",""
"null","is copying","","html-keyboard-response","334","913975","0.0-19.0-2.2","2377","List1B","white","woman","","","","null","","","","","","","","",""
"3401.399999976158","","","survey-text","335","917381","0.0-19.0-3.2","2377","List1B","white","woman","","","","","{""Q0"":""beth is copying mike""}","<img src=""stim_listB/copy1.gif""style=""height:400px;""></stim_listB>","is copying","","","","","",""
"null","<div style=""font-size:60px;"">+</div>","","html-keyboard-response","336","917885","0.0-19.0-0.3","2377","List1B","white","woman","","","","null","","","","","","","","",""
"null","<img src=""stim_listB/challenge5.gif""style=""height:400px;""></stim_listB>","","html-keyboard-response","337","919902","0.0-19.0-1.3","2377","List1B","white","woman","","","","null","","","","","","","","",""
"null","is challenging","","html-keyboard-response","338","921904","0.0-19.0-2.3","2377","List1B","white","woman","","","","null","","","","","","","","",""
"4374.399999976158","","","survey-text","339","926283","0.0-19.0-3.3","2377","List1B","white","woman","","","","","{""Q0"":""mike is challenging luke""}","<img src=""stim_listB/challenge5.gif""style=""height:400px;""></stim_listB>","is challenging","","","","","",""
"null","<div style=""font-size:60px;"">+</div>","","html-keyboard-response","340","926793","0.0-19.0-0.4","2377","List1B","white","woman","","","","null","","","","","","","","",""
"null","<img src=""stim_listB/oppose5.gif""style=""height:400px;""></stim_listB>","","html-keyboard-response","341","928805","0.0-19.0-1.4","2377","List1B","white","woman","","","","null","","","","","","","","",""
"null","is opposing","","html-keyboard-response","342","930814","0.0-19.0-2.4","2377","List1B","white","woman","","","","null","","","","","","","","",""
"3127.5","","","survey-text","343","933944","0.0-19.0-3.4","2377","List1B","white","woman","","","","","{""Q0"":""dave is opposing mike""}","<img src=""stim_listB/oppose5.gif""style=""height:400px;""></stim_listB>","is opposing","","","","","",""
"null","<div style=""font-size:60px;"">+</div>","","html-keyboard-response","344","934449","0.0-19.0-0.5","2377","List1B","white","woman","","","","null","","","","","","","","",""
"null","<img src=""stim_listB/challenge6.gif""style=""height:400px;""></stim_listB>","","html-keyboard-response","345","936464","0.0-19.0-1.5","2377","List1B","white","woman","","","","null","","","","","","","","",""
"null","is being challenged by","","html-keyboard-response","346","938474","0.0-19.0-2.5","2377","List1B","white","woman","","","","null","","","","","","","","",""
"6150.699999988079","","","survey-text","347","944628","0.0-19.0-3.5","2377","List1B","white","woman","","","","","{""Q0"":""dave is being challenged by fred""}","<img src=""stim_listB/challenge6.gif""style=""height:400px;""></stim_listB>","is being challenged by","","","","","",""
"null","<div style=""font-size:60px;"">+</div>","","html-keyboard-response","348","945131","0.0-19.0-0.6","2377","List1B","white","woman","","","","null","","","","","","","","",""
"null","<img src=""stim_listB/copy7.gif""style=""height:400px;""></stim_listB>","","html-keyboard-response","349","947139","0.0-19.0-1.6","2377","List1B","white","woman","","","","null","","","","","","","","",""
"null","is copying","","html-keyboard-response","350","949156","0.0-19.0-2.6","2377","List1B","white","woman","","","","null","","","","","","","","",""
"3606.300000011921","","","survey-text","351","952765","0.0-19.0-3.6","2377","List1B","white","woman","","","","","{""Q0"":""ruth is copying kate""}","<img src=""stim_listB/copy7.gif""style=""height:400px;""></stim_listB>","is copying","","","","","",""
"null","<div style=""font-size:60px;"">+</div>","","html-keyboard-response","352","953276","0.0-19.0-0.7","2377","List1B","white","woman","","","","null","","","","","","","","",""
"null","<img src=""stim_listB/greet1.gif""style=""height:400px;""></stim_listB>","","html-keyboard-response","353","955280","0.0-19.0-1.7","2377","List1B","white","woman","","","","null","","","","","","","","",""
"null","is greeting","","html-keyboard-response","354","957286","0.0-19.0-2.7","2377","List1B","white","woman","","","","null","","","","","","","","",""
"3647.5","","","survey-text","355","960937","0.0-19.0-3.7","2377","List1B","white","woman","","","","","{""Q0"":""beth is greeting mike""}","<img src=""stim_listB/greet1.gif""style=""height:400px;""></stim_listB>","is greeting","","","","","",""
"null","<div style=""font-size:60px;"">+</div>","","html-keyboard-response","356","961447","0.0-19.0-0.8","2377","List1B","white","woman","","","","null","","","","","","","","",""
"null","<img src=""stim_listB/hug6.gif""style=""height:400px;""></stim_listB>","","html-keyboard-response","357","963457","0.0-19.0-1.8","2377","List1B","white","woman","","","","null","","","","","","","","",""
"null","is being hugged by","","html-keyboard-response","358","965469","0.0-19.0-2.8","2377","List1B","white","woman","","","","null","","","","","","","","",""
"10566.400000035763","","","survey-text","359","976039","0.0-19.0-3.8","2377","List1B","white","woman","","","","","{""Q0"":""mike is being hugged by beth""}","<img src=""stim_listB/hug6.gif""style=""height:400px;""></stim_listB>","is being hugged by","","","","","",""
"null","<div style=""font-size:60px;"">+</div>","","html-keyboard-response","360","976545","0.0-19.0-0.9","2377","List1B","white","woman","","","","null","","","","","","","","",""
"null","<img src=""stim_listB/look5.gif""style=""height:400px;""></stim_listB>","","html-keyboard-response","361","978549","0.0-19.0-1.9","2377","List1B","white","woman","","","","null","","","","","","","","",""
"null","is looking at","","html-keyboard-response","362","980555","0.0-19.0-2.9","2377","List1B","white","woman","","","","null","","","","","","","","",""
"5707.699999988079","","","survey-text","363","986265","0.0-19.0-3.9","2377","List1B","white","woman","","","","","{""Q0"":""fred is looking at luke""}","<img src=""stim_listB/look5.gif""style=""height:400px;""></stim_listB>","is looking at","","","","","",""
"null","<div style=""font-size:60px;"">+</div>","","html-keyboard-response","364","986779","0.0-19.0-0.10","2377","List1B","white","woman","","","","null","","","","","","","","",""
"null","<img src=""stim_listB/copy5.gif""style=""height:400px;""></stim_listB>","","html-keyboard-response","365","988786","0.0-19.0-1.10","2377","List1B","white","woman","","","","null","","","","","","","","",""
"null","is copying","","html-keyboard-response","366","990795","0.0-19.0-2.10","2377","List1B","white","woman","","","","null","","","","","","","","",""
"3769.5","","","survey-text","367","994568","0.0-19.0-3.10","2377","List1B","white","woman","","","","","{""Q0"":""luke is copying mike""}","<img src=""stim_listB/copy5.gif""style=""height:400px;""></stim_listB>","is copying","","","","","",""
"null","<div style=""font-size:60px;"">+</div>","","html-keyboard-response","368","995073","0.0-19.0-0.11","2377","List1B","white","woman","","","","null","","","","","","","","",""
"null","<img src=""stim_listB/oppose8.gif""style=""height:400px;""></stim_listB>","","html-keyboard-response","369","997083","0.0-19.0-1.11","2377","List1B","white","woman","","","","null","","","","","","","","",""
"null","is being opposed by","","html-keyboard-response","370","999085","0.0-19.0-2.11","2377","List1B","white","woman","","","","null","","","","","","","","",""
"5120.799999952316","","","survey-text","371","1004209","0.0-19.0-3.11","2377","List1B","white","woman","","","","","{""Q0"":""beth is being opposed by ruth""}","<img src=""stim_listB/oppose8.gif""style=""height:400px;""></stim_listB>","is being opposed by","","","","","",""
"null","<div style=""font-size:60px;"">+</div>","","html-keyboard-response","372","1004724","0.0-19.0-0.12","2377","List1B","white","woman","","","","null","","","","","","","","",""
"null","<img src=""stim_listB/seduce3.gif""style=""height:400px;""></stim_listB>","","html-keyboard-response","373","1006727","0.0-19.0-1.12","2377","List1B","white","woman","","","","null","","","","","","","","",""
"null","is seducing","","html-keyboard-response","374","1008732","0.0-19.0-2.12","2377","List1B","white","woman","","","","null","","","","","","","","",""
"2890.400000035763","","","survey-text","375","1011625","0.0-19.0-3.12","2377","List1B","white","woman","","","","","{""Q0"":""jane is seducing luke""}","<img src=""stim_listB/seduce3.gif""style=""height:400px;""></stim_listB>","is seducing","","","","","",""
"null","<div style=""font-size:60px;"">+</div>","","html-keyboard-response","376","1012127","0.0-19.0-0.13","2377","List1B","white","woman","","","","null","","","","","","","","",""
"null","<img src=""stim_listB/hug7.gif""style=""height:400px;""></stim_listB>","","html-keyboard-response","377","1014137","0.0-19.0-1.13","2377","List1B","white","woman","","","","null","","","","","","","","",""
"null","is hugging","","html-keyboard-response","378","1016153","0.0-19.0-2.13","2377","List1B","white","woman","","","","null","","","","","","","","",""
"3743.100000023842","","","survey-text","379","1019899","0.0-19.0-3.13","2377","List1B","white","woman","","","","","{""Q0"":""ruth is hugging beth""}","<img src=""stim_listB/hug7.gif""style=""height:400px;""></stim_listB>","is hugging","","","","","",""
"null","<div style=""font-size:60px;"">+</div>","","html-keyboard-response","380","1020406","0.0-19.0-0.14","2377","List1B","white","woman","","","","null","","","","","","","","",""
"null","<img src=""stim_listB/hug8.gif""style=""height:400px;""></stim_listB>","","html-keyboard-response","381","1022411","0.0-19.0-1.14","2377","List1B","white","woman","","","","null","","","","","","","","",""
"null","is being hugged by","","html-keyboard-response","382","1024422","0.0-19.0-2.14","2377","List1B","white","woman","","","","null","","","","","","","","",""
"6461.199999988079","","","survey-text","383","1030887","0.0-19.0-3.14","2377","List1B","white","woman","","","","","{""Q0"":""kate is being hugged by jane""}","<img src=""stim_listB/hug8.gif""style=""height:400px;""></stim_listB>","is being hugged by","","","","","",""
"null","<div style=""font-size:60px;"">+</div>","","html-keyboard-response","384","1031390","0.0-19.0-0.15","2377","List1B","white","woman","","","","null","","","","","","","","",""
"null","<img src=""stim_listB/kiss7.gif""style=""height:400px;""></stim_listB>","","html-keyboard-response","385","1033401","0.0-19.0-1.15","2377","List1B","white","woman","","","","null","","","","","","","","",""
"null","is kissing","","html-keyboard-response","386","1035411","0.0-19.0-2.15","2377","List1B","white","woman","","","","null","","","","","","","","",""
"3713.899999976158","","","survey-text","387","1039129","0.0-19.0-3.15","2377","List1B","white","woman","","","","","{""Q0"":""ruth is kissing beth""}","<img src=""stim_listB/kiss7.gif""style=""height:400px;""></stim_listB>","is kissing","","","","","",""
"null","<div style=""font-size:60px;"">+</div>","","html-keyboard-response","388","1039642","0.0-19.0-0.16","2377","List1B","white","woman","","","","null","","","","","","","","",""
"null","<img src=""stim_listB/seduce2.gif""style=""height:400px;""></stim_listB>","","html-keyboard-response","389","1041659","0.0-19.0-1.16","2377","List1B","white","woman","","","","null","","","","","","","","",""
"null","is being seduced by","","html-keyboard-response","390","1043662","0.0-19.0-2.16","2377","List1B","white","woman","","","","null","","","","","","","","",""
"5741.5","","","survey-text","391","1049410","0.0-19.0-3.16","2377","List1B","white","woman","","","","","{""Q0"":""beth is being seduced by mike""}","<img src=""stim_listB/seduce2.gif""style=""height:400px;""></stim_listB>","is being seduced by","","","","","",""
"null","<div style=""font-size:60px;"">+</div>","","html-keyboard-response","392","1049926","0.0-19.0-0.17","2377","List1B","white","woman","","","","null","","","","","","","","",""
"null","<img src=""stim_listB/kiss6.gif""style=""height:400px;""></stim_listB>","","html-keyboard-response","393","1051932","0.0-19.0-1.17","2377","List1B","white","woman","","","","null","","","","","","","","",""
"null","is being kissed by","","html-keyboard-response","394","1053941","0.0-19.0-2.17","2377","List1B","white","woman","","","","null","","","","","","","","",""
"4529.099999964237","","","survey-text","395","1058474","0.0-19.0-3.17","2377","List1B","white","woman","","","","","{""Q0"":""dave is being kissed by mike""}","<img src=""stim_listB/kiss6.gif""style=""height:400px;""></stim_listB>","is being kissed by","","","","","",""
"null","<div style=""font-size:60px;"">+</div>","","html-keyboard-response","396","1058977","0.0-19.0-0.18","2377","List1B","white","woman","","","","null","","","","","","","","",""
"null","<img src=""stim_listB/kiss5.gif""style=""height:400px;""></stim_listB>","","html-keyboard-response","397","1060986","0.0-19.0-1.18","2377","List1B","white","woman","","","","null","","","","","","","","",""
"null","is kissing","","html-keyboard-response","398","1062998","0.0-19.0-2.18","2377","List1B","white","woman","","","","null","","","","","","","","",""
"4199.5","","","survey-text","399","1067202","0.0-19.0-3.18","2377","List1B","white","woman","","","","","{""Q0"":""luke is kissing fred""}","<img src=""stim_listB/kiss5.gif""style=""height:400px;""></stim_listB>","is kissing","","","","","",""
"null","<div style=""font-size:60px;"">+</div>","","html-keyboard-response","400","1067711","0.0-19.0-0.19","2377","List1B","white","woman","","","","null","","","","","","","","",""
"null","<img src=""stim_listB/look8.gif""style=""height:400px;""></stim_listB>","","html-keyboard-response","401","1069722","0.0-19.0-1.19","2377","List1B","white","woman","","","","null","","","","","","","","",""
"null","is being looked at by","","html-keyboard-response","402","1071737","0.0-19.0-2.19","2377","List1B","white","woman","","","","null","","","","","","","","",""
"4492.699999988079","","","survey-text","403","1076233","0.0-19.0-3.19","2377","List1B","white","woman","","","","","{""Q0"":""jane is being looked at by kate""}","<img src=""stim_listB/look8.gif""style=""height:400px;""></stim_listB>","is being looked at by","","","","","",""
"3145.7999999523163","<p>Thank you for completing that task.</p><p>The final part of this session is a questionnaire that will take about 4 minutes.</p><p>Press Continue.</p>","0","html-button-response","404","1079381","0.0-20.0","2377","List1B","white","woman","","","","","","","","","","","","",""
"17452.899999976158","","","survey-text","405","1097855","0.0-21.0","2377","List1B","white","woman","","","","","{""Q0"":""25"",""Q1"":""english"",""Q2"":""english"",""Q3"":""United States"",""Q4"":""American"",""Q5"":""White"",""Q6"":""Female""}","","","demographics","","","","",""
"1913.8999999761581","<p>Have you lived in the USA for the last 5 years or more?</p>","0","html-button-response","406","1099774","0.0-22.0","2377","List1B","white","woman","","","","","","","","fiveyears","","","","",""
"1470.0999999642372","<p>Move the slider to show the extent to which you agree with the following statements.</p>","0","html-button-response","407","1102251","0.0-23.0","2377","List1B","white","woman","","","","","","","","","","","","",""
"6774.600000023842","","","html-slider-response","408","1110033","0.0-24.0-0.0-0.0","2377","List1B","white","woman","","","","","","","","survey_gender","42","","","Family is not more important to me than friendship.","filler"
"5564.5","","","html-slider-response","409","1115602","0.0-24.0-0.0-0.1","2377","List1B","white","woman","","","","","","","","survey_gender","76","","","I have a lot in common with the average person of my gender.","average"
"2916.699999988079","","","html-slider-response","410","1118522","0.0-24.0-0.0-0.2","2377","List1B","white","woman","","","","","","","","survey_gender","84","","","I feel a bond with my gender.","bond"
"5121.699999988079","","","html-slider-response","411","1123648","0.0-24.0-0.0-0.3","2377","List1B","white","woman","","","","","","","","survey_gender","43","","","I often think about the fact that I am my gender.","often"
"3189.5","","","html-slider-response","412","1126841","0.0-24.0-0.0-0.4","2377","List1B","white","woman","","","","","","","","survey_gender","88","","","I feel committed to my gender.","committed"
"4272.100000023842","","","html-slider-response","413","1131117","0.0-24.0-0.0-0.5","2377","List1B","white","woman","","","","","","","","survey_gender","89","","","Being my gender is an important part of how I see myself.","important"
"3101.800000011921","","","html-slider-response","414","1134222","0.0-24.0-0.0-0.6","2377","List1B","white","woman","","","","","","","","survey_gender","85","","","It is not always easy for people to know what I am thinking.","filler"
"2953.2999999523163","","","html-slider-response","415","1137180","0.0-24.0-0.0-0.7","2377","List1B","white","woman","","","","","","","","survey_gender","69","","","I have a lot in common with my friends.","filler"
"2774.699999988079","","","html-slider-response","416","1139957","0.0-24.0-0.0-0.8","2377","List1B","white","woman","","","","","","","","survey_gender","79","","","My friends have a lot in common with each other.","filler"
"2911.199999988079","","","html-slider-response","417","1142871","0.0-24.0-0.0-0.9","2377","List1B","white","woman","","","","","","","","survey_gender","36","","","Most of the friends in my life are very similar to me.","filler"
"2279.400000035763","","","html-slider-response","418","1145154","0.0-24.0-0.0-0.10","2377","List1B","white","woman","","","","","","","","survey_gender","63","","","I feel solidarity with my gender.","solidarity"
"3747.899999976158","","","html-slider-response","419","1148905","0.0-24.0-0.0-0.11","2377","List1B","white","woman","","","","","","","","survey_gender","92","","","I would say I am an animal person.","filler"
"3238.599999964237","","","html-slider-response","420","1152148","0.0-24.0-0.0-0.12","2377","List1B","white","woman","","","","","","","","survey_gender","62","","","The fact that I am my gender is an important part of my identity.","identity"
"3761.5","","","html-slider-response","421","1155912","0.0-24.0-0.0-0.13","2377","List1B","white","woman","","","","","","","","survey_gender","39","","","People of my gender have a lot in common with each other.","common"
"2418.400000035763","","","html-slider-response","422","1158333","0.0-24.0-0.0-0.14","2377","List1B","white","woman","","","","","","","","survey_gender","40","","","People of my gender are very similar to each other.","verysimilar"
"3474.399999976158","","","html-slider-response","423","1161811","0.0-24.0-0.0-0.15","2377","List1B","white","woman","","","","","","","","survey_gender","39","","","Routine is not important to me.","filler"
"3655","","","html-slider-response","424","1165469","0.0-24.0-0.0-0.16","2377","List1B","white","woman","","","","","","","","survey_gender","48","","","Being my gender gives me a good feeling.","feeling"
"2989.5","","","html-slider-response","425","1168462","0.0-24.0-0.0-0.17","2377","List1B","white","woman","","","","","","","","survey_gender","72","","","My friends understand me.","filler"
"2264.699999988079","","","html-slider-response","426","1170731","0.0-24.0-0.0-0.18","2377","List1B","white","woman","","","","","","","","survey_gender","86","","","I feel a bond with my friends.","filler"
"4363.400000035763","","","html-slider-response","427","1175097","0.0-24.0-0.0-0.19","2377","List1B","white","woman","","","","","","","","survey_gender","96","","","I am glad to have the friends that I have.","filler"
"3060.599999964237","","","html-slider-response","428","1178162","0.0-24.0-0.0-0.20","2377","List1B","white","woman","","","","","","","","survey_gender","86","","","I often think about my actions.","filler"
"2157.800000011921","","","html-slider-response","429","1180322","0.0-24.0-0.0-0.21","2377","List1B","white","woman","","","","","","","","survey_gender","56","","","I am glad to be my gender.","glad"
"2810.699999988079","","","html-slider-response","430","1183136","0.0-24.0-0.0-0.22","2377","List1B","white","woman","","","","","","","","survey_gender","100","","","I consider myself a highly empathetic person.","filler"
"2466.800000011921","","","html-slider-response","431","1185605","0.0-24.0-0.0-0.23","2377","List1B","white","woman","","","","","","","","survey_gender","74","","","I am similar to the average person of my gender.","similar"
"2674.5","","","html-slider-response","432","1188282","0.0-24.0-0.0-0.24","2377","List1B","white","woman","","","","","","","","survey_gender","64","","","I think that my gender has a lot to be proud of.","proud"
"2130.400000035763","","","html-slider-response","433","1190416","0.0-24.0-0.0-0.25","2377","List1B","white","woman","","","","","","","","survey_gender","82","","","I feel solidarity with my friends.","filler"
"2731.2000000476837","","","html-slider-response","434","1193150","0.0-24.0-0.0-0.26","2377","List1B","white","woman","","","","","","","","survey_gender","44","","","It is pleasant to be my gender.","pleasant"
"2403.199999988079","","","html-slider-response","435","1195555","0.0-24.0-0.0-0.27","2377","List1B","white","woman","","","","","","","","survey_gender","86","","","Being around my friends gives me a good feeling.","filler"
"2724","","","html-slider-response","436","1198282","0.0-24.0-1.0-0.0","2377","List1B","white","woman","","","","","","","","survey_race","66","","","I feel a bond with people the same age as me.","filler"
"2845.199999988079","","","html-slider-response","437","1201131","0.0-24.0-1.0-0.1","2377","List1B","white","woman","","","","","","","","survey_race","41","","","I feel solidarity with my race.","solidarity"
"2402.300000011921","","","html-slider-response","438","1203536","0.0-24.0-1.0-0.2","2377","List1B","white","woman","","","","","","","","survey_race","33","","","People of my race are very similar to each other.","verysimilar"
"2216.300000011921","","","html-slider-response","439","1205755","0.0-24.0-1.0-0.3","2377","List1B","white","woman","","","","","","","","survey_race","39","","","I consider myself an extrovert.","filler"
"2953.300000011921","","","html-slider-response","440","1208711","0.0-24.0-1.0-0.4","2377","List1B","white","woman","","","","","","","","survey_race","36","","","People of my race have a lot in common with each other.","common"
"3223.899999976158","","","html-slider-response","441","1211939","0.0-24.0-1.0-0.5","2377","List1B","white","woman","","","","","","","","survey_race","71","","","I often think about the fact that I am my race.","often"
"3117.800000011921","","","html-slider-response","442","1215060","0.0-24.0-1.0-0.6","2377","List1B","white","woman","","","","","","","","survey_race","70","","","I feel committed to my race.","committed"
"2544.399999976158","","","html-slider-response","443","1217608","0.0-24.0-1.0-0.7","2377","List1B","white","woman","","","","","","","","survey_race","62","","","The fact that I am my race is an important part of my identity.","identity"
"3318.399999976158","","","html-slider-response","444","1220929","0.0-24.0-1.0-0.8","2377","List1B","white","woman","","","","","","","","survey_race","23","","","Getting older does not worry me.","filler"
"2250.899999976158","","","html-slider-response","445","1223183","0.0-24.0-1.0-0.9","2377","List1B","white","woman","","","","","","","","survey_race","62","","","I consider myself an introvert.","filler"
"2309","","","html-slider-response","446","1225495","0.0-24.0-1.0-0.10","2377","List1B","white","woman","","","","","","","","survey_race","38","","","I am glad to be my race.","glad"
"2202.199999988079","","","html-slider-response","447","1227699","0.0-24.0-1.0-0.11","2377","List1B","white","woman","","","","","","","","survey_race","76","","","I am glad to be the age I am.","filler"
"1765.0999999642372","","","html-slider-response","448","1229467","0.0-24.0-1.0-0.12","2377","List1B","white","woman","","","","","","","","survey_race","74","","","I am glad to be my age.","filler"
"2152.5","","","html-slider-response","449","1231622","0.0-24.0-1.0-0.13","2377","List1B","white","woman","","","","","","","","survey_race","67","","","People my age have a lot in common with each other.","filler"
"2774.599999964237","","","html-slider-response","450","1234399","0.0-24.0-1.0-0.14","2377","List1B","white","woman","","","","","","","","survey_race","58","","","I am similar to the average person of my race.","similar"
"2243.699999988079","","","html-slider-response","451","1236646","0.0-24.0-1.0-0.15","2377","List1B","white","woman","","","","","","","","survey_race","40","","","I feel a bond with my race.","bond"
"1943.800000011921","","","html-slider-response","452","1238593","0.0-24.0-1.0-0.16","2377","List1B","white","woman","","","","","","","","survey_race","69","","","Being my age gives me a good feeling.","filler"
"2131.100000023842","","","html-slider-response","453","1240727","0.0-24.0-1.0-0.17","2377","List1B","white","woman","","","","","","","","survey_race","37","","","Being my race gives me a good feeling.","feeling"
"3059.400000035763","","","html-slider-response","454","1243789","0.0-24.0-1.0-0.18","2377","List1B","white","woman","","","","","","","","survey_race","68","","","It is pleasant to be my race.","pleasant"
"2766.100000023842","","","html-slider-response","455","1246558","0.0-24.0-1.0-0.19","2377","List1B","white","woman","","","","","","","","survey_race","58","","","Being my race is an important part of how I see myself.","important"
"2151.300000011921","","","html-slider-response","456","1248711","0.0-24.0-1.0-0.20","2377","List1B","white","woman","","","","","","","","survey_race","71","","","The older I get, the wiser I feel.","filler"
"2576.800000011921","","","html-slider-response","457","1251290","0.0-24.0-1.0-0.21","2377","List1B","white","woman","","","","","","","","survey_race","33","","","I enjoy being in large groups.","filler"
"2859.899999976158","","","html-slider-response","458","1254152","0.0-24.0-1.0-0.22","2377","List1B","white","woman","","","","","","","","survey_race","63","","","I have a lot in common with the average person of my race.","average"
"2745.199999988079","","","html-slider-response","459","1256900","0.0-24.0-1.0-0.23","2377","List1B","white","woman","","","","","","","","survey_race","57","","","I feel solidarity with people the same age as me.","filler"
"3727.600000023842","","","html-slider-response","460","1260630","0.0-24.0-1.0-0.24","2377","List1B","white","woman","","","","","","","","survey_race","56","","","I have a lot in common with people of a similar age to me.","filler"
"2916.2999999523163","","","html-slider-response","461","1263550","0.0-24.0-1.0-0.25","2377","List1B","white","woman","","","","","","","","survey_race","40","","","I think that my race has a lot to be proud of.","proud"
"5788.300000011921","","","html-slider-response","462","1269341","0.0-24.0-1.0-0.26","2377","List1B","white","woman","","","","","","","","survey_race","61","","","My age is not an important part of who I am.","filler"
"4339.800000011921","","","html-slider-response","463","1273685","0.0-24.0-1.0-0.27","2377","List1B","white","woman","","","","","","","","survey_race","61","","","I often think about the fact that I am my age.","filler"
"8392.699999988079","","","survey-text","464","1282084","0.0-25.0","2377","List1B","white","woman","","","","","{""Q0"":""6108b1fa43120fa89f0c20dd""}","","","worker_id","","","","",""
"3484.199999988079","","","external-html","465","1285963","0.0-26.0","2377","List1B","white","woman","debrief.html","","","","","","","","","","","",""
