"rt","stimulus","button_pressed","trial_type","trial_index","time_elapsed","internal_node_id","subject","list","ppt_race","ppt_gender","url","first_guess","correct","key_press","responses","image_type","phrase_type","test_part","response","stimulus1","stimulus2","question_type","survey_item"
"32275.599999904633","Welcome to the experiment. Press Continue to begin.","0","html-button-response","0","32281","0.0-0.0","238","List1A","black","man","","","","","","","","","","","","",""
"23872.299999952316","","","external-html","1","57551","0.0-1.0","238","List1A","black","man","consent.html","","","","","","","","","","","",""
"13926","<p>On the next page, you will see portraits of 8 people and their names.</p><p>Your first task is to take a few minutes to memorise the names of these people.</p><p>You will have to recall their names during the rest of the experiment, so it is</p><p>essential that you try to memorise these people and their names as best as you can.</p><br><p><strong>You will then be tested on your memory of these names and portraits.</strong></p><br><p>The experiment will start after you have completed this memory test.</p><br><p>Ready?</p>","0","html-button-response","2","71478","0.0-2.0","238","List1A","black","man","","","","","","","","","","","","",""
"55421.10000014305","<img src='img/portrait_matrix_list1.jpg' style='width:900px;height:500px;''></img><p>If you have memorised all the portraits and names and are ready to start, press Continue.</p><p><strong>Please note: Your memory of these faces will be tested 4 times during this experiment.</strong></p>","0","html-button-response","3","127904","0.0-3.0-0.0","238","List1A","black","man","","","","","","","","","","","","",""
"2566","<img src=""portrait/BM2.jpg""style=""height:400px;""></img>","5","html-button-response","4","131476","0.0-3.0-1.0","238","List1A","black","man","","true","5","","","","","","","","","",""
"null","CORRECT","","html-keyboard-response","5","132984","0.0-3.0-2.0-0.0","238","List1A","black","man","","","","null","","","","","","","","",""
"3585.699999809265","<img src=""portrait/BM1.jpg""style=""height:400px;""></img>","4","html-button-response","6","136573","0.0-3.0-4.0","238","List1A","black","man","","true","4","","","","","","","","","",""
"null","CORRECT","","html-keyboard-response","7","138082","0.0-3.0-5.0-0.0","238","List1A","black","man","","","","null","","","","","","","","",""
"5285.799999952316","<img src=""portrait/BW2.jpg""style=""height:400px;""></img>","2","html-button-response","8","143370","0.0-3.0-7.0","238","List1A","black","man","","true","2","","","","","","","","","",""
"null","CORRECT","","html-keyboard-response","9","144888","0.0-3.0-8.0-0.0","238","List1A","black","man","","","","null","","","","","","","","",""
"4209.100000143051","<img src=""portrait/WM2.jpg""style=""height:400px;""></img>","7","html-button-response","10","149099","0.0-3.0-10.0","238","List1A","black","man","","true","7","","","","","","","","","",""
"null","CORRECT","","html-keyboard-response","11","150625","0.0-3.0-11.0-0.0","238","List1A","black","man","","","","null","","","","","","","","",""
"4548.799999952316","<img src=""portrait/WW1.jpg""style=""height:400px;""></img>","1","html-button-response","12","155177","0.0-3.0-13.0","238","List1A","black","man","","true","1","","","","","","","","","",""
"null","CORRECT","","html-keyboard-response","13","156691","0.0-3.0-14.0-0.0","238","List1A","black","man","","","","null","","","","","","","","",""
"2895.899999856949","<img src=""portrait/WM1.jpg""style=""height:400px;""></img>","6","html-button-response","14","159589","0.0-3.0-16.0","238","List1A","black","man","","true","6","","","","","","","","","",""
"null","CORRECT","","html-keyboard-response","15","161102","0.0-3.0-17.0-0.0","238","List1A","black","man","","","","null","","","","","","","","",""
"10297.399999856949","<img src=""portrait/WW2.jpg""style=""height:400px;""></img>","3","html-button-response","16","171402","0.0-3.0-19.0","238","List1A","black","man","","true","3","","","","","","","","","",""
"null","CORRECT","","html-keyboard-response","17","172920","0.0-3.0-20.0-0.0","238","List1A","black","man","","","","null","","","","","","","","",""
"13449.299999952316","<img src=""portrait/BW1.jpg""style=""height:400px;""></img>","2","html-button-response","18","186372","0.0-3.0-22.0","238","List1A","black","man","","true","0","","","","","","","","","",""
"1406.7000000476837","<img src=""portrait/BW1.jpg""style=""height:400px;""></img>","0","html-button-response","19","188796","0.0-3.0-24.0-0.0","238","List1A","black","man","","false","0","","","","","","","","","",""
"null","CORRECT","","html-keyboard-response","20","190304","0.0-3.0-24.0-1.0-0.0","238","List1A","black","man","","","","null","","","","","","","","",""
"5697.899999856949","<p>You got 7 out of 8 right first time. Press Continue.</p>","0","html-button-response","21","196005","0.0-3.0-25.0","238","List1A","black","man","","","","","","","","","","","","",""
"19142.400000095367","As you did not score 100%, the memory game will repeat. Press Continue.","0","html-button-response","22","216154","0.0-3.0-26.0-0.0","238","List1A","black","man","","","","","","","","","","","","",""
"18158.10000014305","<img src='img/portrait_matrix_list1.jpg' style='width:900px;height:500px;''></img><p>If you have memorised all the portraits and names and are ready to start, press Continue.</p><p><strong>Please note: Your memory of these faces will be tested 4 times during this experiment.</strong></p>","0","html-button-response","23","235325","0.0-3.1-0.1","238","List1A","black","man","","","","","","","","","","","","",""
"2385.399999856949","<img src=""portrait/BM2.jpg""style=""height:400px;""></img>","5","html-button-response","24","238712","0.0-3.1-1.1","238","List1A","black","man","","true","5","","","","","","","","","",""
"null","CORRECT","","html-keyboard-response","25","240216","0.0-3.1-2.1-0.1","238","List1A","black","man","","","","null","","","","","","","","",""
"3200.5","<img src=""portrait/BM1.jpg""style=""height:400px;""></img>","4","html-button-response","26","243419","0.0-3.1-4.1","238","List1A","black","man","","true","4","","","","","","","","","",""
"null","CORRECT","","html-keyboard-response","27","244930","0.0-3.1-5.1-0.1","238","List1A","black","man","","","","null","","","","","","","","",""
"3159.2000000476837","<img src=""portrait/BW2.jpg""style=""height:400px;""></img>","2","html-button-response","28","248090","0.0-3.1-7.1","238","List1A","black","man","","true","2","","","","","","","","","",""
"null","CORRECT","","html-keyboard-response","29","249606","0.0-3.1-8.1-0.1","238","List1A","black","man","","","","null","","","","","","","","",""
"4069.9000000953674","<img src=""portrait/WM2.jpg""style=""height:400px;""></img>","7","html-button-response","30","253678","0.0-3.1-10.1","238","List1A","black","man","","true","7","","","","","","","","","",""
"null","CORRECT","","html-keyboard-response","31","255199","0.0-3.1-11.1-0.1","238","List1A","black","man","","","","null","","","","","","","","",""
"5744.799999952316","<img src=""portrait/WW1.jpg""style=""height:400px;""></img>","1","html-button-response","32","260946","0.0-3.1-13.1","238","List1A","black","man","","true","1","","","","","","","","","",""
"null","CORRECT","","html-keyboard-response","33","262454","0.0-3.1-14.1-0.1","238","List1A","black","man","","","","null","","","","","","","","",""
"1524.3999998569489","<img src=""portrait/WM1.jpg""style=""height:400px;""></img>","6","html-button-response","34","263980","0.0-3.1-16.1","238","List1A","black","man","","true","6","","","","","","","","","",""
"null","CORRECT","","html-keyboard-response","35","265486","0.0-3.1-17.1-0.1","238","List1A","black","man","","","","null","","","","","","","","",""
"3232.399999856949","<img src=""portrait/WW2.jpg""style=""height:400px;""></img>","3","html-button-response","36","268720","0.0-3.1-19.1","238","List1A","black","man","","true","3","","","","","","","","","",""
"null","CORRECT","","html-keyboard-response","37","270232","0.0-3.1-20.1-0.1","238","List1A","black","man","","","","null","","","","","","","","",""
"2642.7000000476837","<img src=""portrait/BW1.jpg""style=""height:400px;""></img>","0","html-button-response","38","272877","0.0-3.1-22.1","238","List1A","black","man","","true","0","","","","","","","","","",""
"null","CORRECT","","html-keyboard-response","39","274398","0.0-3.1-23.1-0.1","238","List1A","black","man","","","","null","","","","","","","","",""
"70132.29999995232","<p>You got 8 out of 8 right first time. Press Continue.</p>","0","html-button-response","40","344533","0.0-3.1-25.1","238","List1A","black","man","","","","","","","","","","","","",""
"12144.200000047684","<p>In this experiment, you will view photographs of the people from the memory game interacting.</p><p>By using the <strong>exact</strong> phrase given <i>after</i> the photograph appears and recalling the correct names of the people in the photographs, form a sentence describing the interaction. You do not need to capitalise names.</p><p>Type your answer in the space provided. Please complete every sentence before moving onto the next trial.</p><p>You will only have a few seconds to memorise each given photograph and phrase before you can respond, so try your best to focus.</p><p>An example is given below. Press 'Continue' when you are ready.</p><img src='img/speaking_example.jpg' style='width:800px;height:460px;''></img>","0","html-button-response","41","357694","0.0-4.0","238","List1A","black","man","","","","","","","","","","","","",""
"1452.7000000476837","<p>Before the experiment starts, you will watch two example trials. Press 'Continue'.</p>","0","html-button-response","42","360151","0.0-5.0","238","List1A","black","man","","","","","","","","","","","","",""
"null","<img src='img/play_eg.gif' style='height:400px;''></img>","","html-keyboard-response","43","363180","0.0-6.0","238","List1A","black","man","","","","null","","","","","","","","",""
"null","<p>is playing with</p>","","html-keyboard-response","44","365196","0.0-7.0","238","List1A","black","man","","","","null","","","","","","","","",""
"4239.200000047684","<p><b>Answer:</b> kate is playing with beth</p>","0","html-button-response","45","369437","0.0-8.0","238","List1A","black","man","","","","","","","","","","","","",""
"null","<img src='img/dance_eg.gif' style='height:400px;''></img>","","html-keyboard-response","46","372454","0.0-9.0","238","List1A","black","man","","","","null","","","","","","","","",""
"null","<p>is being entertained by</p>","","html-keyboard-response","47","374468","0.0-10.0","238","List1A","black","man","","","","null","","","","","","","","",""
"1925.9000000953674","<p><b>Answer:</b> luke is being entertained by dave</p>","0","html-button-response","48","376395","0.0-11.0","238","List1A","black","man","","","","","","","","","","","","",""
"8557.599999904633","<p>Ready to start the experiment?</p><br><p><strong>Remember to describe the picture using a full sentence,</strong></p><p><strong>that combines the names of the people with the <i>exact</i> phrase given.</strong></p><p><strong>To receive full payment you must do this correctly.</strong></p><p><strong> You do not need to capitalise names or use punctuation.</strong></p><br><p>Press 'Continue' to begin.</p>","0","html-button-response","49","385971","0.0-12.0","238","List1A","black","man","","","","","","","","","","","","",""
"null","<div style=""font-size:60px;"">+</div>","","html-keyboard-response","50","387478","0.0-13.0-0.0","238","List1A","black","man","","","","null","","","","","","","","",""
"null","<img src=""stim_listA/oppose5.gif""style=""height:400px;""></stim_listA>","","html-keyboard-response","51","389483","0.0-13.0-1.0","238","List1A","black","man","","","","null","","","","","","","","",""
"null","is opposing","","html-keyboard-response","52","391488","0.0-13.0-2.0","238","List1A","black","man","","","","null","","","","","","","","",""
"10687.5","","","survey-text","53","402180","0.0-13.0-3.0","238","List1A","black","man","","","","","{""Q0"":""dave is opposing luke""}","<img src=""stim_listA/oppose5.gif""style=""height:400px;""></stim_listA>","is opposing","","","","","",""
"null","<div style=""font-size:60px;"">+</div>","","html-keyboard-response","54","402684","0.0-13.0-0.1","238","List1A","black","man","","","","null","","","","","","","","",""
"null","<img src=""stim_listA/oppose4.gif""style=""height:400px;""></stim_listA>","","html-keyboard-response","55","404685","0.0-13.0-1.1","238","List1A","black","man","","","","null","","","","","","","","",""
"null","is being opposed by","","html-keyboard-response","56","406690","0.0-13.0-2.1","238","List1A","black","man","","","","null","","","","","","","","",""
"13024.200000047684","","","survey-text","57","419718","0.0-13.0-3.1","238","List1A","black","man","","","","","{""Q0"":""ruth is being opposed by luke""}","<img src=""stim_listA/oppose4.gif""style=""height:400px;""></stim_listA>","is being opposed by","","","","","",""
"null","<div style=""font-size:60px;"">+</div>","","html-keyboard-response","58","420229","0.0-13.0-0.2","238","List1A","black","man","","","","null","","","","","","","","",""
"null","<img src=""stim_listA/shout5.gif""style=""height:400px;""></stim_listA>","","html-keyboard-response","59","422233","0.0-13.0-1.2","238","List1A","black","man","","","","null","","","","","","","","",""
"null","is shouting at","","html-keyboard-response","60","424234","0.0-13.0-2.2","238","List1A","black","man","","","","null","","","","","","","","",""
"5255.599999904633","","","survey-text","61","429499","0.0-13.0-3.2","238","List1A","black","man","","","","","{""Q0"":""fred is shouting at luke""}","<img src=""stim_listA/shout5.gif""style=""height:400px;""></stim_listA>","is shouting at","","","","","",""
"null","<div style=""font-size:60px;"">+</div>","","html-keyboard-response","62","430006","0.0-13.0-0.3","238","List1A","black","man","","","","null","","","","","","","","",""
"null","<img src=""stim_listA/challenge5.gif""style=""height:400px;""></stim_listA>","","html-keyboard-response","63","432010","0.0-13.0-1.3","238","List1A","black","man","","","","null","","","","","","","","",""
"null","is challenging","","html-keyboard-response","64","434020","0.0-13.0-2.3","238","List1A","black","man","","","","null","","","","","","","","",""
"6505.299999952316","","","survey-text","65","440529","0.0-13.0-3.3","238","List1A","black","man","","","","","{""Q0"":""luke is being challenged by mike""}","<img src=""stim_listA/challenge5.gif""style=""height:400px;""></stim_listA>","is challenging","","","","","",""
"null","<div style=""font-size:60px;"">+</div>","","html-keyboard-response","66","441039","0.0-13.0-0.4","238","List1A","black","man","","","","null","","","","","","","","",""
"null","<img src=""stim_listA/oppose2.gif""style=""height:400px;""></stim_listA>","","html-keyboard-response","67","443051","0.0-13.0-1.4","238","List1A","black","man","","","","null","","","","","","","","",""
"null","is being opposed by","","html-keyboard-response","68","445064","0.0-13.0-2.4","238","List1A","black","man","","","","null","","","","","","","","",""
"5119.099999904633","","","survey-text","69","450187","0.0-13.0-3.4","238","List1A","black","man","","","","","{""Q0"":""beth is being opposed by fred""}","<img src=""stim_listA/oppose2.gif""style=""height:400px;""></stim_listA>","is being opposed by","","","","","",""
"null","<div style=""font-size:60px;"">+</div>","","html-keyboard-response","70","450699","0.0-13.0-0.5","238","List1A","black","man","","","","null","","","","","","","","",""
"null","<img src=""stim_listA/look7.gif""style=""height:400px;""></stim_listA>","","html-keyboard-response","71","452704","0.0-13.0-1.5","238","List1A","black","man","","","","null","","","","","","","","",""
"null","is looking at","","html-keyboard-response","72","454716","0.0-13.0-2.5","238","List1A","black","man","","","","null","","","","","","","","",""
"3673.2000000476837","","","survey-text","73","458394","0.0-13.0-3.5","238","List1A","black","man","","","","","{""Q0"":""beth is looking at ruth""}","<img src=""stim_listA/look7.gif""style=""height:400px;""></stim_listA>","is looking at","","","","","",""
"null","<div style=""font-size:60px;"">+</div>","","html-keyboard-response","74","458905","0.0-13.0-0.6","238","List1A","black","man","","","","null","","","","","","","","",""
"null","<img src=""stim_listA/seduce7.gif""style=""height:400px;""></stim_listA>","","html-keyboard-response","75","460913","0.0-13.0-1.6","238","List1A","black","man","","","","null","","","","","","","","",""
"null","is seducing","","html-keyboard-response","76","462931","0.0-13.0-2.6","238","List1A","black","man","","","","null","","","","","","","","",""
"6519.200000047684","","","survey-text","77","469455","0.0-13.0-3.6","238","List1A","black","man","","","","","{""Q0"":""beth is seducing jane""}","<img src=""stim_listA/seduce7.gif""style=""height:400px;""></stim_listA>","is seducing","","","","","",""
"null","<div style=""font-size:60px;"">+</div>","","html-keyboard-response","78","469958","0.0-13.0-0.7","238","List1A","black","man","","","","null","","","","","","","","",""
"null","<img src=""stim_listA/copy1.gif""style=""height:400px;""></stim_listA>","","html-keyboard-response","79","471961","0.0-13.0-1.7","238","List1A","black","man","","","","null","","","","","","","","",""
"null","is copying","","html-keyboard-response","80","473970","0.0-13.0-2.7","238","List1A","black","man","","","","null","","","","","","","","",""
"13206.5","","","survey-text","81","487180","0.0-13.0-3.7","238","List1A","black","man","","","","","{""Q0"":""beth is copying mike""}","<img src=""stim_listA/copy1.gif""style=""height:400px;""></stim_listA>","is copying","","","","","",""
"null","<div style=""font-size:60px;"">+</div>","","html-keyboard-response","82","487691","0.0-13.0-0.8","238","List1A","black","man","","","","null","","","","","","","","",""
"null","<img src=""stim_listA/hug7.gif""style=""height:400px;""></stim_listA>","","html-keyboard-response","83","489697","0.0-13.0-1.8","238","List1A","black","man","","","","null","","","","","","","","",""
"null","is hugging","","html-keyboard-response","84","491703","0.0-13.0-2.8","238","List1A","black","man","","","","null","","","","","","","","",""
"5427.599999904633","","","survey-text","85","497134","0.0-13.0-3.8","238","List1A","black","man","","","","","{""Q0"":""beth is hugging ruth""}","<img src=""stim_listA/hug7.gif""style=""height:400px;""></stim_listA>","is hugging","","","","","",""
"null","<div style=""font-size:60px;"">+</div>","","html-keyboard-response","86","497646","0.0-13.0-0.9","238","List1A","black","man","","","","null","","","","","","","","",""
"null","<img src=""stim_listA/copy8.gif""style=""height:400px;""></stim_listA>","","html-keyboard-response","87","499649","0.0-13.0-1.9","238","List1A","black","man","","","","null","","","","","","","","",""
"null","is being copied by","","html-keyboard-response","88","501663","0.0-13.0-2.9","238","List1A","black","man","","","","null","","","","","","","","",""
"6171.700000047684","","","survey-text","89","507838","0.0-13.0-3.9","238","List1A","black","man","","","","","{""Q0"":""jane is being copied by beth""}","<img src=""stim_listA/copy8.gif""style=""height:400px;""></stim_listA>","is being copied by","","","","","",""
"null","<div style=""font-size:60px;"">+</div>","","html-keyboard-response","90","508348","0.0-13.0-0.10","238","List1A","black","man","","","","null","","","","","","","","",""
"null","<img src=""stim_listA/hug6.gif""style=""height:400px;""></stim_listA>","","html-keyboard-response","91","510353","0.0-13.0-1.10","238","List1A","black","man","","","","null","","","","","","","","",""
"null","is being hugged by","","html-keyboard-response","92","512367","0.0-13.0-2.10","238","List1A","black","man","","","","null","","","","","","","","",""
"4438.700000047684","","","survey-text","93","516809","0.0-13.0-3.10","238","List1A","black","man","","","","","{""Q0"":""dave is being hugged by mike""}","<img src=""stim_listA/hug6.gif""style=""height:400px;""></stim_listA>","is being hugged by","","","","","",""
"null","<div style=""font-size:60px;"">+</div>","","html-keyboard-response","94","517321","0.0-13.0-0.11","238","List1A","black","man","","","","null","","","","","","","","",""
"null","<img src=""stim_listA/hug5.gif""style=""height:400px;""></stim_listA>","","html-keyboard-response","95","519324","0.0-13.0-1.11","238","List1A","black","man","","","","null","","","","","","","","",""
"null","is hugging","","html-keyboard-response","96","521328","0.0-13.0-2.11","238","List1A","black","man","","","","null","","","","","","","","",""
"6005.099999904633","","","survey-text","97","527336","0.0-13.0-3.11","238","List1A","black","man","","","","","{""Q0"":""fred is hugging luke""}","<img src=""stim_listA/hug5.gif""style=""height:400px;""></stim_listA>","is hugging","","","","","",""
"null","<div style=""font-size:60px;"">+</div>","","html-keyboard-response","98","527848","0.0-13.0-0.12","238","List1A","black","man","","","","null","","","","","","","","",""
"null","<img src=""stim_listA/challenge2.gif""style=""height:400px;""></stim_listA>","","html-keyboard-response","99","529855","0.0-13.0-1.12","238","List1A","black","man","","","","null","","","","","","","","",""
"null","is being challenged by","","html-keyboard-response","100","531872","0.0-13.0-2.12","238","List1A","black","man","","","","null","","","","","","","","",""
"4509.900000095367","","","survey-text","101","536385","0.0-13.0-3.12","238","List1A","black","man","","","","","{""Q0"":""kate is being challenged by fred""}","<img src=""stim_listA/challenge2.gif""style=""height:400px;""></stim_listA>","is being challenged by","","","","","",""
"null","<div style=""font-size:60px;"">+</div>","","html-keyboard-response","102","536892","0.0-13.0-0.13","238","List1A","black","man","","","","null","","","","","","","","",""
"null","<img src=""stim_listA/seduce4.gif""style=""height:400px;""></stim_listA>","","html-keyboard-response","103","538906","0.0-13.0-1.13","238","List1A","black","man","","","","null","","","","","","","","",""
"null","is being seduced by","","html-keyboard-response","104","540913","0.0-13.0-2.13","238","List1A","black","man","","","","null","","","","","","","","",""
"8511.900000095367","","","survey-text","105","549429","0.0-13.0-3.13","238","List1A","black","man","","","","","{""Q0"":""dave is being seduced by ruth""}","<img src=""stim_listA/seduce4.gif""style=""height:400px;""></stim_listA>","is being seduced by","","","","","",""
"null","<div style=""font-size:60px;"">+</div>","","html-keyboard-response","106","549936","0.0-13.0-0.14","238","List1A","black","man","","","","null","","","","","","","","",""
"null","<img src=""stim_listA/hug8.gif""style=""height:400px;""></stim_listA>","","html-keyboard-response","107","551942","0.0-13.0-1.14","238","List1A","black","man","","","","null","","","","","","","","",""
"null","is being hugged by","","html-keyboard-response","108","553951","0.0-13.0-2.14","238","List1A","black","man","","","","null","","","","","","","","",""
"4602.5","","","survey-text","109","558557","0.0-13.0-3.14","238","List1A","black","man","","","","","{""Q0"":""jane is being hugged by kate""}","<img src=""stim_listA/hug8.gif""style=""height:400px;""></stim_listA>","is being hugged by","","","","","",""
"null","<div style=""font-size:60px;"">+</div>","","html-keyboard-response","110","559071","0.0-13.0-0.15","238","List1A","black","man","","","","null","","","","","","","","",""
"null","<img src=""stim_listA/copy3.gif""style=""height:400px;""></stim_listA>","","html-keyboard-response","111","561076","0.0-13.0-1.15","238","List1A","black","man","","","","null","","","","","","","","",""
"null","is copying","","html-keyboard-response","112","563078","0.0-13.0-2.15","238","List1A","black","man","","","","null","","","","","","","","",""
"8736.200000047684","","","survey-text","113","571819","0.0-13.0-3.15","238","List1A","black","man","","","","","{""Q0"":""dave is copying ruth""}","<img src=""stim_listA/copy3.gif""style=""height:400px;""></stim_listA>","is copying","","","","","",""
"null","<div style=""font-size:60px;"">+</div>","","html-keyboard-response","114","572323","0.0-13.0-0.16","238","List1A","black","man","","","","null","","","","","","","","",""
"null","<img src=""stim_listA/touch6.gif""style=""height:400px;""></stim_listA>","","html-keyboard-response","115","574332","0.0-13.0-1.16","238","List1A","black","man","","","","null","","","","","","","","",""
"null","is being touched by","","html-keyboard-response","116","576334","0.0-13.0-2.16","238","List1A","black","man","","","","null","","","","","","","","",""
"6703.200000047684","","","survey-text","117","583042","0.0-13.0-3.16","238","List1A","black","man","","","","","{""Q0"":""luke is being touched by fred""}","<img src=""stim_listA/touch6.gif""style=""height:400px;""></stim_listA>","is being touched by","","","","","",""
"null","<div style=""font-size:60px;"">+</div>","","html-keyboard-response","118","583555","0.0-13.0-0.17","238","List1A","black","man","","","","null","","","","","","","","",""
"null","<img src=""stim_listA/seduce1.gif""style=""height:400px;""></stim_listA>","","html-keyboard-response","119","585571","0.0-13.0-1.17","238","List1A","black","man","","","","null","","","","","","","","",""
"null","is seducing","","html-keyboard-response","120","587574","0.0-13.0-2.17","238","List1A","black","man","","","","null","","","","","","","","",""
"5638.200000047684","","","survey-text","121","593216","0.0-13.0-3.17","238","List1A","black","man","","","","","{""Q0"":""jane is seducing kate""}","<img src=""stim_listA/seduce1.gif""style=""height:400px;""></stim_listA>","is seducing","","","","","",""
"null","<div style=""font-size:60px;"">+</div>","","html-keyboard-response","122","593728","0.0-13.0-0.18","238","List1A","black","man","","","","null","","","","","","","","",""
"null","<img src=""stim_listA/look5.gif""style=""height:400px;""></stim_listA>","","html-keyboard-response","123","595732","0.0-13.0-1.18","238","List1A","black","man","","","","null","","","","","","","","",""
"null","is looking at","","html-keyboard-response","124","597741","0.0-13.0-2.18","238","List1A","black","man","","","","null","","","","","","","","",""
"5966","","","survey-text","125","603711","0.0-13.0-3.18","238","List1A","black","man","","","","","{""Q0"":""fred is looking at luke""}","<img src=""stim_listA/look5.gif""style=""height:400px;""></stim_listA>","is looking at","","","","","",""
"null","<div style=""font-size:60px;"">+</div>","","html-keyboard-response","126","604216","0.0-13.0-0.19","238","List1A","black","man","","","","null","","","","","","","","",""
"null","<img src=""stim_listA/touch2.gif""style=""height:400px;""></stim_listA>","","html-keyboard-response","127","606230","0.0-13.0-1.19","238","List1A","black","man","","","","null","","","","","","","","",""
"null","is being touched by","","html-keyboard-response","128","608245","0.0-13.0-2.19","238","List1A","black","man","","","","null","","","","","","","","",""
"4631.400000095367","","","survey-text","129","612880","0.0-13.0-3.19","238","List1A","black","man","","","","","{""Q0"":""beth is being touched by fred""}","<img src=""stim_listA/touch2.gif""style=""height:400px;""></stim_listA>","is being touched by","","","","","",""
"183744.5","<img src='img/portrait_matrix_list1.jpg' style='width:900px;height:500px;''></img><p>If you have memorised all the portraits and names and are ready to start, press Continue.</p><p><strong>Please note: Your memory of these faces will be tested 4 times during this experiment.</strong></p>","0","html-button-response","130","796626","0.0-14.0-0.0","238","List1A","black","man","","","","","","","","","","","","",""
"4653.100000143051","<img src=""portrait/WM1.jpg""style=""height:400px;""></img>","6","html-button-response","131","802284","0.0-14.0-1.0","238","List1A","black","man","","true","6","","","","","","","","","",""
"null","CORRECT","","html-keyboard-response","132","803792","0.0-14.0-2.0-0.0","238","List1A","black","man","","","","null","","","","","","","","",""
"1394.5","<img src=""portrait/WW2.jpg""style=""height:400px;""></img>","3","html-button-response","133","805189","0.0-14.0-4.0","238","List1A","black","man","","true","3","","","","","","","","","",""
"null","CORRECT","","html-keyboard-response","134","806703","0.0-14.0-5.0-0.0","238","List1A","black","man","","","","null","","","","","","","","",""
"2459.4000000953674","<img src=""portrait/WM2.jpg""style=""height:400px;""></img>","7","html-button-response","135","809165","0.0-14.0-7.0","238","List1A","black","man","","true","7","","","","","","","","","",""
"null","CORRECT","","html-keyboard-response","136","810681","0.0-14.0-8.0-0.0","238","List1A","black","man","","","","null","","","","","","","","",""
"2135.7000000476837","<img src=""portrait/BM2.jpg""style=""height:400px;""></img>","5","html-button-response","137","812820","0.0-14.0-10.0","238","List1A","black","man","","true","5","","","","","","","","","",""
"null","CORRECT","","html-keyboard-response","138","814332","0.0-14.0-11.0-0.0","238","List1A","black","man","","","","null","","","","","","","","",""
"1597.8000001907349","<img src=""portrait/BM1.jpg""style=""height:400px;""></img>","4","html-button-response","139","815932","0.0-14.0-13.0","238","List1A","black","man","","true","4","","","","","","","","","",""
"null","CORRECT","","html-keyboard-response","140","817452","0.0-14.0-14.0-0.0","238","List1A","black","man","","","","null","","","","","","","","",""
"1827.5","<img src=""portrait/BW2.jpg""style=""height:400px;""></img>","2","html-button-response","141","819282","0.0-14.0-16.0","238","List1A","black","man","","true","2","","","","","","","","","",""
"null","CORRECT","","html-keyboard-response","142","820795","0.0-14.0-17.0-0.0","238","List1A","black","man","","","","null","","","","","","","","",""
"1103.7999999523163","<img src=""portrait/WW1.jpg""style=""height:400px;""></img>","1","html-button-response","143","821902","0.0-14.0-19.0","238","List1A","black","man","","true","1","","","","","","","","","",""
"null","CORRECT","","html-keyboard-response","144","823416","0.0-14.0-20.0-0.0","238","List1A","black","man","","","","null","","","","","","","","",""
"784.2000000476837","<img src=""portrait/BW1.jpg""style=""height:400px;""></img>","0","html-button-response","145","824203","0.0-14.0-22.0","238","List1A","black","man","","true","0","","","","","","","","","",""
"null","CORRECT","","html-keyboard-response","146","825710","0.0-14.0-23.0-0.0","238","List1A","black","man","","","","null","","","","","","","","",""
"1429.6000001430511","<p>You got 8 out of 8 right first time. Press Continue.</p>","0","html-button-response","147","827143","0.0-14.0-25.0","238","List1A","black","man","","","","","","","","","","","","",""
"null","<div style=""font-size:60px;"">+</div>","","html-keyboard-response","148","828664","0.0-15.0-0.0","238","List1A","black","man","","","","null","","","","","","","","",""
"null","<img src=""stim_listA/greet2.gif""style=""height:400px;""></stim_listA>","","html-keyboard-response","149","830668","0.0-15.0-1.0","238","List1A","black","man","","","","null","","","","","","","","",""
"null","is being greeted by","","html-keyboard-response","150","832677","0.0-15.0-2.0","238","List1A","black","man","","","","null","","","","","","","","",""
"5400.400000095367","","","survey-text","151","838082","0.0-15.0-3.0","238","List1A","black","man","","","","","{""Q0"":""fred is being greeted by kate""}","<img src=""stim_listA/greet2.gif""style=""height:400px;""></stim_listA>","is being greeted by","","","","","",""
"null","<div style=""font-size:60px;"">+</div>","","html-keyboard-response","152","838593","0.0-15.0-0.1","238","List1A","black","man","","","","null","","","","","","","","",""
"null","<img src=""stim_listA/touch1.gif""style=""height:400px;""></stim_listA>","","html-keyboard-response","153","840597","0.0-15.0-1.1","238","List1A","black","man","","","","null","","","","","","","","",""
"null","is touching","","html-keyboard-response","154","842612","0.0-15.0-2.1","238","List1A","black","man","","","","null","","","","","","","","",""
"4493.899999856949","","","survey-text","155","847110","0.0-15.0-3.1","238","List1A","black","man","","","","","{""Q0"":""mike is touching kate""}","<img src=""stim_listA/touch1.gif""style=""height:400px;""></stim_listA>","is touching","","","","","",""
"null","<div style=""font-size:60px;"">+</div>","","html-keyboard-response","156","847613","0.0-15.0-0.2","238","List1A","black","man","","","","null","","","","","","","","",""
"null","<img src=""stim_listA/look2.gif""style=""height:400px;""></stim_listA>","","html-keyboard-response","157","849619","0.0-15.0-1.2","238","List1A","black","man","","","","null","","","","","","","","",""
"null","is being looked at by","","html-keyboard-response","158","851624","0.0-15.0-2.2","238","List1A","black","man","","","","null","","","","","","","","",""
"7032.099999904633","","","survey-text","159","858660","0.0-15.0-3.2","238","List1A","black","man","","","","","{""Q0"":""kate is being looked at by mike""}","<img src=""stim_listA/look2.gif""style=""height:400px;""></stim_listA>","is being looked at by","","","","","",""
"null","<div style=""font-size:60px;"">+</div>","","html-keyboard-response","160","859167","0.0-15.0-0.3","238","List1A","black","man","","","","null","","","","","","","","",""
"null","<img src=""stim_listA/shout8.gif""style=""height:400px;""></stim_listA>","","html-keyboard-response","161","861175","0.0-15.0-1.3","238","List1A","black","man","","","","null","","","","","","","","",""
"null","is being shouted at by","","html-keyboard-response","162","863184","0.0-15.0-2.3","238","List1A","black","man","","","","null","","","","","","","","",""
"4717.200000047684","","","survey-text","163","867905","0.0-15.0-3.3","238","List1A","black","man","","","","","{""Q0"":""jane is being shouted at by kate""}","<img src=""stim_listA/shout8.gif""style=""height:400px;""></stim_listA>","is being shouted at by","","","","","",""
"null","<div style=""font-size:60px;"">+</div>","","html-keyboard-response","164","868409","0.0-15.0-0.4","238","List1A","black","man","","","","null","","","","","","","","",""
"null","<img src=""stim_listA/kiss1.gif""style=""height:400px;""></stim_listA>","","html-keyboard-response","165","870416","0.0-15.0-1.4","238","List1A","black","man","","","","null","","","","","","","","",""
"null","is kissing","","html-keyboard-response","166","872422","0.0-15.0-2.4","238","List1A","black","man","","","","null","","","","","","","","",""
"2843.800000190735","","","survey-text","167","875270","0.0-15.0-3.4","238","List1A","black","man","","","","","{""Q0"":""fred is kissing beth""}","<img src=""stim_listA/kiss1.gif""style=""height:400px;""></stim_listA>","is kissing","","","","","",""
"null","<div style=""font-size:60px;"">+</div>","","html-keyboard-response","168","875785","0.0-15.0-0.5","238","List1A","black","man","","","","null","","","","","","","","",""
"null","<img src=""stim_listA/hug2.gif""style=""height:400px;""></stim_listA>","","html-keyboard-response","169","877796","0.0-15.0-1.5","238","List1A","black","man","","","","null","","","","","","","","",""
"null","is being hugged by","","html-keyboard-response","170","879811","0.0-15.0-2.5","238","List1A","black","man","","","","null","","","","","","","","",""
"3707.7000000476837","","","survey-text","171","883523","0.0-15.0-3.5","238","List1A","black","man","","","","","{""Q0"":""kate is being hugged by mike""}","<img src=""stim_listA/hug2.gif""style=""height:400px;""></stim_listA>","is being hugged by","","","","","",""
"null","<div style=""font-size:60px;"">+</div>","","html-keyboard-response","172","884035","0.0-15.0-0.6","238","List1A","black","man","","","","null","","","","","","","","",""
"null","<img src=""stim_listA/kiss7.gif""style=""height:400px;""></stim_listA>","","html-keyboard-response","173","886047","0.0-15.0-1.6","238","List1A","black","man","","","","null","","","","","","","","",""
"null","is kissing","","html-keyboard-response","174","888054","0.0-15.0-2.6","238","List1A","black","man","","","","null","","","","","","","","",""
"4043.7000000476837","","","survey-text","175","892101","0.0-15.0-3.6","238","List1A","black","man","","","","","{""Q0"":""beth is kissing ruth ""}","<img src=""stim_listA/kiss7.gif""style=""height:400px;""></stim_listA>","is kissing","","","","","",""
"null","<div style=""font-size:60px;"">+</div>","","html-keyboard-response","176","892611","0.0-15.0-0.7","238","List1A","black","man","","","","null","","","","","","","","",""
"null","<img src=""stim_listA/shout2.gif""style=""height:400px;""></stim_listA>","","html-keyboard-response","177","894629","0.0-15.0-1.7","238","List1A","black","man","","","","null","","","","","","","","",""
"null","is being shouted at by","","html-keyboard-response","178","896646","0.0-15.0-2.7","238","List1A","black","man","","","","null","","","","","","","","",""
"7107.400000095367","","","survey-text","179","903757","0.0-15.0-3.7","238","List1A","black","man","","","","","{""Q0"":""kate is being shouted at by mike""}","<img src=""stim_listA/shout2.gif""style=""height:400px;""></stim_listA>","is being shouted at by","","","","","",""
"null","<div style=""font-size:60px;"">+</div>","","html-keyboard-response","180","904272","0.0-15.0-0.8","238","List1A","black","man","","","","null","","","","","","","","",""
"null","<img src=""stim_listA/greet5.gif""style=""height:400px;""></stim_listA>","","html-keyboard-response","181","906291","0.0-15.0-1.8","238","List1A","black","man","","","","null","","","","","","","","",""
"null","is greeting","","html-keyboard-response","182","908295","0.0-15.0-2.8","238","List1A","black","man","","","","null","","","","","","","","",""
"4572.900000095367","","","survey-text","183","912872","0.0-15.0-3.8","238","List1A","black","man","","","","","{""Q0"":""luke is greeting mike""}","<img src=""stim_listA/greet5.gif""style=""height:400px;""></stim_listA>","is greeting","","","","","",""
"null","<div style=""font-size:60px;"">+</div>","","html-keyboard-response","184","913386","0.0-15.0-0.9","238","List1A","black","man","","","","null","","","","","","","","",""
"null","<img src=""stim_listA/oppose1.gif""style=""height:400px;""></stim_listA>","","html-keyboard-response","185","915402","0.0-15.0-1.9","238","List1A","black","man","","","","null","","","","","","","","",""
"null","is opposing","","html-keyboard-response","186","917419","0.0-15.0-2.9","238","List1A","black","man","","","","null","","","","","","","","",""
"11261.5","","","survey-text","187","928685","0.0-15.0-3.9","238","List1A","black","man","","","","","{""Q0"":""kate is opposing mike""}","<img src=""stim_listA/oppose1.gif""style=""height:400px;""></stim_listA>","is opposing","","","","","",""
"null","<div style=""font-size:60px;"">+</div>","","html-keyboard-response","188","929195","0.0-15.0-0.10","238","List1A","black","man","","","","null","","","","","","","","",""
"null","<img src=""stim_listA/oppose6.gif""style=""height:400px;""></stim_listA>","","html-keyboard-response","189","931219","0.0-15.0-1.10","238","List1A","black","man","","","","null","","","","","","","","",""
"null","is being opposed by","","html-keyboard-response","190","933234","0.0-15.0-2.10","238","List1A","black","man","","","","null","","","","","","","","",""
"4354.300000190735","","","survey-text","191","937592","0.0-15.0-3.10","238","List1A","black","man","","","","","{""Q0"":""luke is being opposed by fred""}","<img src=""stim_listA/oppose6.gif""style=""height:400px;""></stim_listA>","is being opposed by","","","","","",""
"null","<div style=""font-size:60px;"">+</div>","","html-keyboard-response","192","938108","0.0-15.0-0.11","238","List1A","black","man","","","","null","","","","","","","","",""
"null","<img src=""stim_listA/copy2.gif""style=""height:400px;""></stim_listA>","","html-keyboard-response","193","940114","0.0-15.0-1.11","238","List1A","black","man","","","","null","","","","","","","","",""
"null","is being copied by","","html-keyboard-response","194","942395","0.0-15.0-2.11","238","List1A","black","man","","","","null","","","","","","","","",""
"6410.400000095367","","","survey-text","195","948810","0.0-15.0-3.11","238","List1A","black","man","","","","","{""Q0"":""fred is seducing kate""}","<img src=""stim_listA/copy2.gif""style=""height:400px;""></stim_listA>","is being copied by","","","","","",""
"null","<div style=""font-size:60px;"">+</div>","","html-keyboard-response","196","949326","0.0-15.0-0.12","238","List1A","black","man","","","","null","","","","","","","","",""
"null","<img src=""stim_listA/look3.gif""style=""height:400px;""></stim_listA>","","html-keyboard-response","197","951330","0.0-15.0-1.12","238","List1A","black","man","","","","null","","","","","","","","",""
"null","is looking at","","html-keyboard-response","198","953346","0.0-15.0-2.12","238","List1A","black","man","","","","null","","","","","","","","",""
"3884.5","","","survey-text","199","957235","0.0-15.0-3.12","238","List1A","black","man","","","","","{""Q0"":""luke is looking at ruth""}","<img src=""stim_listA/look3.gif""style=""height:400px;""></stim_listA>","is looking at","","","","","",""
"null","<div style=""font-size:60px;"">+</div>","","html-keyboard-response","200","957743","0.0-15.0-0.13","238","List1A","black","man","","","","null","","","","","","","","",""
"null","<img src=""stim_listA/seduce6.gif""style=""height:400px;""></stim_listA>","","html-keyboard-response","201","959756","0.0-15.0-1.13","238","List1A","black","man","","","","null","","","","","","","","",""
"null","is being seduced by","","html-keyboard-response","202","961771","0.0-15.0-2.13","238","List1A","black","man","","","","null","","","","","","","","",""
"5194.599999904633","","","survey-text","203","966971","0.0-15.0-3.13","238","List1A","black","man","","","","","{""Q0"":""luke is being seduced by mike""}","<img src=""stim_listA/seduce6.gif""style=""height:400px;""></stim_listA>","is being seduced by","","","","","",""
"null","<div style=""font-size:60px;"">+</div>","","html-keyboard-response","204","967486","0.0-15.0-0.14","238","List1A","black","man","","","","null","","","","","","","","",""
"null","<img src=""stim_listA/touch7.gif""style=""height:400px;""></stim_listA>","","html-keyboard-response","205","969494","0.0-15.0-1.14","238","List1A","black","man","","","","null","","","","","","","","",""
"null","is touching","","html-keyboard-response","206","971501","0.0-15.0-2.14","238","List1A","black","man","","","","null","","","","","","","","",""
"3362.9000000953674","","","survey-text","207","974868","0.0-15.0-3.14","238","List1A","black","man","","","","","{""Q0"":""kate is touching jane""}","<img src=""stim_listA/touch7.gif""style=""height:400px;""></stim_listA>","is touching","","","","","",""
"null","<div style=""font-size:60px;"">+</div>","","html-keyboard-response","208","975386","0.0-15.0-0.15","238","List1A","black","man","","","","null","","","","","","","","",""
"null","<img src=""stim_listA/kiss3.gif""style=""height:400px;""></stim_listA>","","html-keyboard-response","209","977403","0.0-15.0-1.15","238","List1A","black","man","","","","null","","","","","","","","",""
"null","is kissing","","html-keyboard-response","210","979416","0.0-15.0-2.15","238","List1A","black","man","","","","null","","","","","","","","",""
"5188.799999952316","","","survey-text","211","984610","0.0-15.0-3.15","238","List1A","black","man","","","","","{""Q0"":""ruth is kissing luke""}","<img src=""stim_listA/kiss3.gif""style=""height:400px;""></stim_listA>","is kissing","","","","","",""
"null","<div style=""font-size:60px;"">+</div>","","html-keyboard-response","212","985122","0.0-15.0-0.16","238","List1A","black","man","","","","null","","","","","","","","",""
"null","<img src=""stim_listA/oppose7.gif""style=""height:400px;""></stim_listA>","","html-keyboard-response","213","987129","0.0-15.0-1.16","238","List1A","black","man","","","","null","","","","","","","","",""
"null","is opposing","","html-keyboard-response","214","989138","0.0-15.0-2.16","238","List1A","black","man","","","","null","","","","","","","","",""
"3939.300000190735","","","survey-text","215","993081","0.0-15.0-3.16","238","List1A","black","man","","","","","{""Q0"":""kate is opposing jane""}","<img src=""stim_listA/oppose7.gif""style=""height:400px;""></stim_listA>","is opposing","","","","","",""
"null","<div style=""font-size:60px;"">+</div>","","html-keyboard-response","216","993593","0.0-15.0-0.17","238","List1A","black","man","","","","null","","","","","","","","",""
"null","<img src=""stim_listA/challenge1.gif""style=""height:400px;""></stim_listA>","","html-keyboard-response","217","995601","0.0-15.0-1.17","238","List1A","black","man","","","","null","","","","","","","","",""
"null","is challenging","","html-keyboard-response","218","997612","0.0-15.0-2.17","238","List1A","black","man","","","","null","","","","","","","","",""
"3822.899999856949","","","survey-text","219","1001440","0.0-15.0-3.17","238","List1A","black","man","","","","","{""Q0"":""mike is challenging beth""}","<img src=""stim_listA/challenge1.gif""style=""height:400px;""></stim_listA>","is challenging","","","","","",""
"null","<div style=""font-size:60px;"">+</div>","","html-keyboard-response","220","1001944","0.0-15.0-0.18","238","List1A","black","man","","","","null","","","","","","","","",""
"null","<img src=""stim_listA/seduce8.gif""style=""height:400px;""></stim_listA>","","html-keyboard-response","221","1003951","0.0-15.0-1.18","238","List1A","black","man","","","","null","","","","","","","","",""
"null","is being seduced by","","html-keyboard-response","222","1005962","0.0-15.0-2.18","238","List1A","black","man","","","","null","","","","","","","","",""
"5464.5","","","survey-text","223","1011431","0.0-15.0-3.18","238","List1A","black","man","","","","","{""Q0"":""kate is being seduced by jane""}","<img src=""stim_listA/seduce8.gif""style=""height:400px;""></stim_listA>","is being seduced by","","","","","",""
"null","<div style=""font-size:60px;"">+</div>","","html-keyboard-response","224","1011935","0.0-15.0-0.19","238","List1A","black","man","","","","null","","","","","","","","",""
"null","<img src=""stim_listA/challenge8.gif""style=""height:400px;""></stim_listA>","","html-keyboard-response","225","1013942","0.0-15.0-1.19","238","List1A","black","man","","","","null","","","","","","","","",""
"null","is being challenged by","","html-keyboard-response","226","1015959","0.0-15.0-2.19","238","List1A","black","man","","","","null","","","","","","","","",""
"4600.5","","","survey-text","227","1020564","0.0-15.0-3.19","238","List1A","black","man","","","","","{""Q0"":""beth is being challenged by jane""}","<img src=""stim_listA/challenge8.gif""style=""height:400px;""></stim_listA>","is being challenged by","","","","","",""
"155329.79999995232","<img src='img/portrait_matrix_list1.jpg' style='width:900px;height:500px;''></img><p>If you have memorised all the portraits and names and are ready to start, press Continue.</p><p><strong>Please note: Your memory of these faces will be tested 4 times during this experiment.</strong></p>","0","html-button-response","228","1175895","0.0-16.0-0.0","238","List1A","black","man","","","","","","","","","","","","",""
"2309.100000143051","<img src=""portrait/WW1.jpg""style=""height:400px;""></img>","1","html-button-response","229","1179210","0.0-16.0-1.0","238","List1A","black","man","","true","1","","","","","","","","","",""
"null","CORRECT","","html-keyboard-response","230","1180719","0.0-16.0-2.0-0.0","238","List1A","black","man","","","","null","","","","","","","","",""
"1572.5999999046326","<img src=""portrait/BW2.jpg""style=""height:400px;""></img>","2","html-button-response","231","1182294","0.0-16.0-4.0","238","List1A","black","man","","true","2","","","","","","","","","",""
"null","CORRECT","","html-keyboard-response","232","1183805","0.0-16.0-5.0-0.0","238","List1A","black","man","","","","null","","","","","","","","",""
"1897.2000000476837","<img src=""portrait/BW1.jpg""style=""height:400px;""></img>","0","html-button-response","233","1185704","0.0-16.0-7.0","238","List1A","black","man","","true","0","","","","","","","","","",""
"null","CORRECT","","html-keyboard-response","234","1187221","0.0-16.0-8.0-0.0","238","List1A","black","man","","","","null","","","","","","","","",""
"1911.7000000476837","<img src=""portrait/BM1.jpg""style=""height:400px;""></img>","4","html-button-response","235","1189134","0.0-16.0-10.0","238","List1A","black","man","","true","4","","","","","","","","","",""
"null","CORRECT","","html-keyboard-response","236","1190640","0.0-16.0-11.0-0.0","238","List1A","black","man","","","","null","","","","","","","","",""
"1585.5","<img src=""portrait/WM2.jpg""style=""height:400px;""></img>","7","html-button-response","237","1192227","0.0-16.0-13.0","238","List1A","black","man","","true","7","","","","","","","","","",""
"null","CORRECT","","html-keyboard-response","238","1193740","0.0-16.0-14.0-0.0","238","List1A","black","man","","","","null","","","","","","","","",""
"1677","<img src=""portrait/WW2.jpg""style=""height:400px;""></img>","2","html-button-response","239","1195419","0.0-16.0-16.0","238","List1A","black","man","","true","3","","","","","","","","","",""
"2919.9000000953674","<img src=""portrait/WW2.jpg""style=""height:400px;""></img>","3","html-button-response","240","1199341","0.0-16.0-18.0-0.0","238","List1A","black","man","","false","3","","","","","","","","","",""
"null","CORRECT","","html-keyboard-response","241","1200850","0.0-16.0-18.0-1.0-0.0","238","List1A","black","man","","","","null","","","","","","","","",""
"1786","<img src=""portrait/BM2.jpg""style=""height:400px;""></img>","5","html-button-response","242","1202639","0.0-16.0-19.0","238","List1A","black","man","","true","5","","","","","","","","","",""
"null","CORRECT","","html-keyboard-response","243","1204153","0.0-16.0-20.0-0.0","238","List1A","black","man","","","","null","","","","","","","","",""
"1629.6999998092651","<img src=""portrait/WM1.jpg""style=""height:400px;""></img>","6","html-button-response","244","1205786","0.0-16.0-22.0","238","List1A","black","man","","true","6","","","","","","","","","",""
"null","CORRECT","","html-keyboard-response","245","1207291","0.0-16.0-23.0-0.0","238","List1A","black","man","","","","null","","","","","","","","",""
"1781.0999999046326","<p>You got 7 out of 8 right first time. Press Continue.</p>","0","html-button-response","246","1209074","0.0-16.0-25.0","238","List1A","black","man","","","","","","","","","","","","",""
"1241.0999999046326","As you did not score 100%, the memory game will repeat. Press Continue.","0","html-button-response","247","1211322","0.0-16.0-26.0-0.0","238","List1A","black","man","","","","","","","","","","","","",""
"1320.9000000953674","<img src='img/portrait_matrix_list1.jpg' style='width:900px;height:500px;''></img><p>If you have memorised all the portraits and names and are ready to start, press Continue.</p><p><strong>Please note: Your memory of these faces will be tested 4 times during this experiment.</strong></p>","0","html-button-response","248","1213658","0.0-16.1-0.1","238","List1A","black","man","","","","","","","","","","","","",""
"1249.7000000476837","<img src=""portrait/WW1.jpg""style=""height:400px;""></img>","1","html-button-response","249","1215912","0.0-16.1-1.1","238","List1A","black","man","","true","1","","","","","","","","","",""
"null","CORRECT","","html-keyboard-response","250","1217414","0.0-16.1-2.1-0.1","238","List1A","black","man","","","","null","","","","","","","","",""
"1098.5","<img src=""portrait/BW2.jpg""style=""height:400px;""></img>","2","html-button-response","251","1218516","0.0-16.1-4.1","238","List1A","black","man","","true","2","","","","","","","","","",""
"null","CORRECT","","html-keyboard-response","252","1220032","0.0-16.1-5.1-0.1","238","List1A","black","man","","","","null","","","","","","","","",""
"1367.2000000476837","<img src=""portrait/BW1.jpg""style=""height:400px;""></img>","0","html-button-response","253","1221402","0.0-16.1-7.1","238","List1A","black","man","","true","0","","","","","","","","","",""
"null","CORRECT","","html-keyboard-response","254","1222916","0.0-16.1-8.1-0.1","238","List1A","black","man","","","","null","","","","","","","","",""
"1111.1000001430511","<img src=""portrait/BM1.jpg""style=""height:400px;""></img>","4","html-button-response","255","1224029","0.0-16.1-10.1","238","List1A","black","man","","true","4","","","","","","","","","",""
"null","CORRECT","","html-keyboard-response","256","1225544","0.0-16.1-11.1-0.1","238","List1A","black","man","","","","null","","","","","","","","",""
"1397.9000000953674","<img src=""portrait/WM2.jpg""style=""height:400px;""></img>","7","html-button-response","257","1226945","0.0-16.1-13.1","238","List1A","black","man","","true","7","","","","","","","","","",""
"null","CORRECT","","html-keyboard-response","258","1228455","0.0-16.1-14.1-0.1","238","List1A","black","man","","","","null","","","","","","","","",""
"1461.2999999523163","<img src=""portrait/WW2.jpg""style=""height:400px;""></img>","3","html-button-response","259","1229919","0.0-16.1-16.1","238","List1A","black","man","","true","3","","","","","","","","","",""
"null","CORRECT","","html-keyboard-response","260","1231431","0.0-16.1-17.1-0.1","238","List1A","black","man","","","","null","","","","","","","","",""
"1081.3999998569489","<img src=""portrait/BM2.jpg""style=""height:400px;""></img>","5","html-button-response","261","1232515","0.0-16.1-19.1","238","List1A","black","man","","true","5","","","","","","","","","",""
"null","CORRECT","","html-keyboard-response","262","1234033","0.0-16.1-20.1-0.1","238","List1A","black","man","","","","null","","","","","","","","",""
"1075.0999999046326","<img src=""portrait/WM1.jpg""style=""height:400px;""></img>","6","html-button-response","263","1235112","0.0-16.1-22.1","238","List1A","black","man","","true","6","","","","","","","","","",""
"null","CORRECT","","html-keyboard-response","264","1236627","0.0-16.1-23.1-0.1","238","List1A","black","man","","","","null","","","","","","","","",""
"1121.7999999523163","<p>You got 8 out of 8 right first time. Press Continue.</p>","0","html-button-response","265","1237752","0.0-16.1-25.1","238","List1A","black","man","","","","","","","","","","","","",""
"null","<div style=""font-size:60px;"">+</div>","","html-keyboard-response","266","1239260","0.0-17.0-0.0","238","List1A","black","man","","","","null","","","","","","","","",""
"null","<img src=""stim_listA/greet6.gif""style=""height:400px;""></stim_listA>","","html-keyboard-response","267","1241269","0.0-17.0-1.0","238","List1A","black","man","","","","null","","","","","","","","",""
"null","is being greeted by","","html-keyboard-response","268","1243283","0.0-17.0-2.0","238","List1A","black","man","","","","null","","","","","","","","",""
"4983.299999952316","","","survey-text","269","1248270","0.0-17.0-3.0","238","List1A","black","man","","","","","{""Q0"":""dave is being greeted by fred""}","<img src=""stim_listA/greet6.gif""style=""height:400px;""></stim_listA>","is being greeted by","","","","","",""
"null","<div style=""font-size:60px;"">+</div>","","html-keyboard-response","270","1248782","0.0-17.0-0.1","238","List1A","black","man","","","","null","","","","","","","","",""
"null","<img src=""stim_listA/kiss4.gif""style=""height:400px;""></stim_listA>","","html-keyboard-response","271","1250793","0.0-17.0-1.1","238","List1A","black","man","","","","null","","","","","","","","",""
"null","is being kissed by","","html-keyboard-response","272","1252802","0.0-17.0-2.1","238","List1A","black","man","","","","null","","","","","","","","",""
"19932.099999904633","","","survey-text","273","1272738","0.0-17.0-3.1","238","List1A","black","man","","","","","{""Q0"":""dave is kissing jane""}","<img src=""stim_listA/kiss4.gif""style=""height:400px;""></stim_listA>","is being kissed by","","","","","",""
"null","<div style=""font-size:60px;"">+</div>","","html-keyboard-response","274","1273240","0.0-17.0-0.2","238","List1A","black","man","","","","null","","","","","","","","",""
"null","<img src=""stim_listA/kiss5.gif""style=""height:400px;""></stim_listA>","","html-keyboard-response","275","1275247","0.0-17.0-1.2","238","List1A","black","man","","","","null","","","","","","","","",""
"null","is kissing","","html-keyboard-response","276","1277260","0.0-17.0-2.2","238","List1A","black","man","","","","null","","","","","","","","",""
"4687.5","","","survey-text","277","1281951","0.0-17.0-3.2","238","List1A","black","man","","","","","{""Q0"":""luke is kissing fred""}","<img src=""stim_listA/kiss5.gif""style=""height:400px;""></stim_listA>","is kissing","","","","","",""
"null","<div style=""font-size:60px;"">+</div>","","html-keyboard-response","278","1282457","0.0-17.0-0.3","238","List1A","black","man","","","","null","","","","","","","","",""
"null","<img src=""stim_listA/greet3.gif""style=""height:400px;""></stim_listA>","","html-keyboard-response","279","1284473","0.0-17.0-1.3","238","List1A","black","man","","","","null","","","","","","","","",""
"null","is greeting","","html-keyboard-response","280","1286479","0.0-17.0-2.3","238","List1A","black","man","","","","null","","","","","","","","",""
"4385","","","survey-text","281","1290868","0.0-17.0-3.3","238","List1A","black","man","","","","","{""Q0"":""dave is greeting ruth""}","<img src=""stim_listA/greet3.gif""style=""height:400px;""></stim_listA>","is greeting","","","","","",""
"null","<div style=""font-size:60px;"">+</div>","","html-keyboard-response","282","1291376","0.0-17.0-0.4","238","List1A","black","man","","","","null","","","","","","","","",""
"null","<img src=""stim_listA/look8.gif""style=""height:400px;""></stim_listA>","","html-keyboard-response","283","1293382","0.0-17.0-1.4","238","List1A","black","man","","","","null","","","","","","","","",""
"null","is being looked at by","","html-keyboard-response","284","1295395","0.0-17.0-2.4","238","List1A","black","man","","","","null","","","","","","","","",""
"4792.299999952316","","","survey-text","285","1300191","0.0-17.0-3.4","238","List1A","black","man","","","","","{""Q0"":""jane is being looked at by kate""}","<img src=""stim_listA/look8.gif""style=""height:400px;""></stim_listA>","is being looked at by","","","","","",""
"null","<div style=""font-size:60px;"">+</div>","","html-keyboard-response","286","1300698","0.0-17.0-0.5","238","List1A","black","man","","","","null","","","","","","","","",""
"null","<img src=""stim_listA/touch4.gif""style=""height:400px;""></stim_listA>","","html-keyboard-response","287","1302704","0.0-17.0-1.5","238","List1A","black","man","","","","null","","","","","","","","",""
"null","is being touched by","","html-keyboard-response","288","1304720","0.0-17.0-2.5","238","List1A","black","man","","","","null","","","","","","","","",""
"5767.900000095367","","","survey-text","289","1310491","0.0-17.0-3.5","238","List1A","black","man","","","","","{""Q0"":""luke is being touched by ruth""}","<img src=""stim_listA/touch4.gif""style=""height:400px;""></stim_listA>","is being touched by","","","","","",""
"null","<div style=""font-size:60px;"">+</div>","","html-keyboard-response","290","1311005","0.0-17.0-0.6","238","List1A","black","man","","","","null","","","","","","","","",""
"null","<img src=""stim_listA/hug3.gif""style=""height:400px;""></stim_listA>","","html-keyboard-response","291","1313016","0.0-17.0-1.6","238","List1A","black","man","","","","null","","","","","","","","",""
"null","is hugging","","html-keyboard-response","292","1315029","0.0-17.0-2.6","238","List1A","black","man","","","","null","","","","","","","","",""
"5494.5","","","survey-text","293","1320527","0.0-17.0-3.6","238","List1A","black","man","","","","","{""Q0"":""luke is hugging ruth""}","<img src=""stim_listA/hug3.gif""style=""height:400px;""></stim_listA>","is hugging","","","","","",""
"null","<div style=""font-size:60px;"">+</div>","","html-keyboard-response","294","1321031","0.0-17.0-0.7","238","List1A","black","man","","","","null","","","","","","","","",""
"null","<img src=""stim_listA/look4.gif""style=""height:400px;""></stim_listA>","","html-keyboard-response","295","1323042","0.0-17.0-1.7","238","List1A","black","man","","","","null","","","","","","","","",""
"null","is being looked at by","","html-keyboard-response","296","1325044","0.0-17.0-2.7","238","List1A","black","man","","","","null","","","","","","","","",""
"13770.100000143051","","","survey-text","297","1338819","0.0-17.0-3.7","238","List1A","black","man","","","","","{""Q0"":""dave is being looked at by jane""}","<img src=""stim_listA/look4.gif""style=""height:400px;""></stim_listA>","is being looked at by","","","","","",""
"null","<div style=""font-size:60px;"">+</div>","","html-keyboard-response","298","1339320","0.0-17.0-0.8","238","List1A","black","man","","","","null","","","","","","","","",""
"null","<img src=""stim_listA/shout4.gif""style=""height:400px;""></stim_listA>","","html-keyboard-response","299","1341325","0.0-17.0-1.8","238","List1A","black","man","","","","null","","","","","","","","",""
"null","is being shouted at by","","html-keyboard-response","300","1343333","0.0-17.0-2.8","238","List1A","black","man","","","","null","","","","","","","","",""
"7169","","","survey-text","301","1350506","0.0-17.0-3.8","238","List1A","black","man","","","","","{""Q0"":""jane is being shouted at by dave""}","<img src=""stim_listA/shout4.gif""style=""height:400px;""></stim_listA>","is being shouted at by","","","","","",""
"null","<div style=""font-size:60px;"">+</div>","","html-keyboard-response","302","1351007","0.0-17.0-0.9","238","List1A","black","man","","","","null","","","","","","","","",""
"null","<img src=""stim_listA/greet7.gif""style=""height:400px;""></stim_listA>","","html-keyboard-response","303","1353014","0.0-17.0-1.9","238","List1A","black","man","","","","null","","","","","","","","",""
"null","is greeting","","html-keyboard-response","304","1355023","0.0-17.0-2.9","238","List1A","black","man","","","","null","","","","","","","","",""
"3071.600000143051","","","survey-text","305","1358097","0.0-17.0-3.9","238","List1A","black","man","","","","","{""Q0"":""kate is greeting ruth""}","<img src=""stim_listA/greet7.gif""style=""height:400px;""></stim_listA>","is greeting","","","","","",""
"null","<div style=""font-size:60px;"">+</div>","","html-keyboard-response","306","1358607","0.0-17.0-0.10","238","List1A","black","man","","","","null","","","","","","","","",""
"null","<img src=""stim_listA/copy5.gif""style=""height:400px;""></stim_listA>","","html-keyboard-response","307","1360623","0.0-17.0-1.10","238","List1A","black","man","","","","null","","","","","","","","",""
"null","is copying","","html-keyboard-response","308","1362637","0.0-17.0-2.10","238","List1A","black","man","","","","null","","","","","","","","",""
"2755.5","","","survey-text","309","1365396","0.0-17.0-3.10","238","List1A","black","man","","","","","{""Q0"":""mike is copying luke""}","<img src=""stim_listA/copy5.gif""style=""height:400px;""></stim_listA>","is copying","","","","","",""
"null","<div style=""font-size:60px;"">+</div>","","html-keyboard-response","310","1365899","0.0-17.0-0.11","238","List1A","black","man","","","","null","","","","","","","","",""
"null","<img src=""stim_listA/shout3.gif""style=""height:400px;""></stim_listA>","","html-keyboard-response","311","1367906","0.0-17.0-1.11","238","List1A","black","man","","","","null","","","","","","","","",""
"null","is shouting at","","html-keyboard-response","312","1369916","0.0-17.0-2.11","238","List1A","black","man","","","","null","","","","","","","","",""
"3474.7999999523163","","","survey-text","313","1373395","0.0-17.0-3.11","238","List1A","black","man","","","","","{""Q0"":""luke is shouting at ruth""}","<img src=""stim_listA/shout3.gif""style=""height:400px;""></stim_listA>","is shouting at","","","","","",""
"null","<div style=""font-size:60px;"">+</div>","","html-keyboard-response","314","1373901","0.0-17.0-0.12","238","List1A","black","man","","","","null","","","","","","","","",""
"null","<img src=""stim_listA/oppose8.gif""style=""height:400px;""></stim_listA>","","html-keyboard-response","315","1375907","0.0-17.0-1.12","238","List1A","black","man","","","","null","","","","","","","","",""
"null","is being opposed by","","html-keyboard-response","316","1377921","0.0-17.0-2.12","238","List1A","black","man","","","","null","","","","","","","","",""
"10099.600000143051","","","survey-text","317","1388024","0.0-17.0-3.12","238","List1A","black","man","","","","","{""Q0"":""beth is being opposed by ruth""}","<img src=""stim_listA/oppose8.gif""style=""height:400px;""></stim_listA>","is being opposed by","","","","","",""
"null","<div style=""font-size:60px;"">+</div>","","html-keyboard-response","318","1388539","0.0-17.0-0.13","238","List1A","black","man","","","","null","","","","","","","","",""
"null","<img src=""stim_listA/kiss8.gif""style=""height:400px;""></stim_listA>","","html-keyboard-response","319","1390551","0.0-17.0-1.13","238","List1A","black","man","","","","null","","","","","","","","",""
"null","is being kissed by","","html-keyboard-response","320","1392559","0.0-17.0-2.13","238","List1A","black","man","","","","null","","","","","","","","",""
"4570.799999952316","","","survey-text","321","1397133","0.0-17.0-3.13","238","List1A","black","man","","","","","{""Q0"":""kate is being kissed by jane""}","<img src=""stim_listA/kiss8.gif""style=""height:400px;""></stim_listA>","is being kissed by","","","","","",""
"null","<div style=""font-size:60px;"">+</div>","","html-keyboard-response","322","1397643","0.0-17.0-0.14","238","List1A","black","man","","","","null","","","","","","","","",""
"null","<img src=""stim_listA/greet1.gif""style=""height:400px;""></stim_listA>","","html-keyboard-response","323","1399656","0.0-17.0-1.14","238","List1A","black","man","","","","null","","","","","","","","",""
"null","is greeting","","html-keyboard-response","324","1401667","0.0-17.0-2.14","238","List1A","black","man","","","","null","","","","","","","","",""
"2985","","","survey-text","325","1404655","0.0-17.0-3.14","238","List1A","black","man","","","","","{""Q0"":""mike is greeting beth""}","<img src=""stim_listA/greet1.gif""style=""height:400px;""></stim_listA>","is greeting","","","","","",""
"null","<div style=""font-size:60px;"">+</div>","","html-keyboard-response","326","1405162","0.0-17.0-0.15","238","List1A","black","man","","","","null","","","","","","","","",""
"null","<img src=""stim_listA/look1.gif""style=""height:400px;""></stim_listA>","","html-keyboard-response","327","1407176","0.0-17.0-1.15","238","List1A","black","man","","","","null","","","","","","","","",""
"null","is looking at","","html-keyboard-response","328","1409192","0.0-17.0-2.15","238","List1A","black","man","","","","null","","","","","","","","",""
"3200.2000000476837","","","survey-text","329","1412395","0.0-17.0-3.15","238","List1A","black","man","","","","","{""Q0"":""beth is looking at fred""}","<img src=""stim_listA/look1.gif""style=""height:400px;""></stim_listA>","is looking at","","","","","",""
"null","<div style=""font-size:60px;"">+</div>","","html-keyboard-response","330","1412906","0.0-17.0-0.16","238","List1A","black","man","","","","null","","","","","","","","",""
"null","<img src=""stim_listA/copy6.gif""style=""height:400px;""></stim_listA>","","html-keyboard-response","331","1414911","0.0-17.0-1.16","238","List1A","black","man","","","","null","","","","","","","","",""
"null","is being copied by","","html-keyboard-response","332","1416927","0.0-17.0-2.16","238","List1A","black","man","","","","null","","","","","","","","",""
"4397.200000047684","","","survey-text","333","1421328","0.0-17.0-3.16","238","List1A","black","man","","","","","{""Q0"":""dave is being copied by fred""}","<img src=""stim_listA/copy6.gif""style=""height:400px;""></stim_listA>","is being copied by","","","","","",""
"null","<div style=""font-size:60px;"">+</div>","","html-keyboard-response","334","1421839","0.0-17.0-0.17","238","List1A","black","man","","","","null","","","","","","","","",""
"null","<img src=""stim_listA/challenge6.gif""style=""height:400px;""></stim_listA>","","html-keyboard-response","335","1423844","0.0-17.0-1.17","238","List1A","black","man","","","","null","","","","","","","","",""
"null","is being challenged by","","html-keyboard-response","336","1425859","0.0-17.0-2.17","238","List1A","black","man","","","","null","","","","","","","","",""
"8339.299999952316","","","survey-text","337","1434202","0.0-17.0-3.17","238","List1A","black","man","","","","","{""Q0"":""dave is being challenged by fred""}","<img src=""stim_listA/challenge6.gif""style=""height:400px;""></stim_listA>","is being challenged by","","","","","",""
"null","<div style=""font-size:60px;"">+</div>","","html-keyboard-response","338","1434707","0.0-17.0-0.18","238","List1A","black","man","","","","null","","","","","","","","",""
"null","<img src=""stim_listA/touch3.gif""style=""height:400px;""></stim_listA>","","html-keyboard-response","339","1436713","0.0-17.0-1.18","238","List1A","black","man","","","","null","","","","","","","","",""
"null","is touching","","html-keyboard-response","340","1438724","0.0-17.0-2.18","238","List1A","black","man","","","","null","","","","","","","","",""
"4729.700000047684","","","survey-text","341","1443457","0.0-17.0-3.18","238","List1A","black","man","","","","","{""Q0"":""dave is touching jane""}","<img src=""stim_listA/touch3.gif""style=""height:400px;""></stim_listA>","is touching","","","","","",""
"null","<div style=""font-size:60px;"">+</div>","","html-keyboard-response","342","1443970","0.0-17.0-0.19","238","List1A","black","man","","","","null","","","","","","","","",""
"null","<img src=""stim_listA/seduce5.gif""style=""height:400px;""></stim_listA>","","html-keyboard-response","343","1445975","0.0-17.0-1.19","238","List1A","black","man","","","","null","","","","","","","","",""
"null","is seducing","","html-keyboard-response","344","1447990","0.0-17.0-2.19","238","List1A","black","man","","","","null","","","","","","","","",""
"4258.299999952316","","","survey-text","345","1452252","0.0-17.0-3.19","238","List1A","black","man","","","","","{""Q0"":""fred is seducing dave""}","<img src=""stim_listA/seduce5.gif""style=""height:400px;""></stim_listA>","is seducing","","","","","",""
"233579.30000019073","<img src='img/portrait_matrix_list1.jpg' style='width:900px;height:500px;''></img><p>If you have memorised all the portraits and names and are ready to start, press Continue.</p><p><strong>Please note: Your memory of these faces will be tested 4 times during this experiment.</strong></p>","0","html-button-response","346","1685833","0.0-18.0-0.0","238","List1A","black","man","","","","","","","","","","","","",""
"4838.400000095367","<img src=""portrait/WW1.jpg""style=""height:400px;""></img>","1","html-button-response","347","1691684","0.0-18.0-1.0","238","List1A","black","man","","true","1","","","","","","","","","",""
"null","CORRECT","","html-keyboard-response","348","1693189","0.0-18.0-2.0-0.0","238","List1A","black","man","","","","null","","","","","","","","",""
"1968.7000000476837","<img src=""portrait/BW2.jpg""style=""height:400px;""></img>","2","html-button-response","349","1695160","0.0-18.0-4.0","238","List1A","black","man","","true","2","","","","","","","","","",""
"null","CORRECT","","html-keyboard-response","350","1696664","0.0-18.0-5.0-0.0","238","List1A","black","man","","","","null","","","","","","","","",""
"1943.6000001430511","<img src=""portrait/WM2.jpg""style=""height:400px;""></img>","7","html-button-response","351","1698610","0.0-18.0-7.0","238","List1A","black","man","","true","7","","","","","","","","","",""
"null","CORRECT","","html-keyboard-response","352","1700131","0.0-18.0-8.0-0.0","238","List1A","black","man","","","","null","","","","","","","","",""
"1086.0999999046326","<img src=""portrait/BM2.jpg""style=""height:400px;""></img>","5","html-button-response","353","1701219","0.0-18.0-10.0","238","List1A","black","man","","true","5","","","","","","","","","",""
"null","CORRECT","","html-keyboard-response","354","1702743","0.0-18.0-11.0-0.0","238","List1A","black","man","","","","null","","","","","","","","",""
"1491.2999999523163","<img src=""portrait/WM1.jpg""style=""height:400px;""></img>","6","html-button-response","355","1704237","0.0-18.0-13.0","238","List1A","black","man","","true","6","","","","","","","","","",""
"null","CORRECT","","html-keyboard-response","356","1705751","0.0-18.0-14.0-0.0","238","List1A","black","man","","","","null","","","","","","","","",""
"2417.300000190735","<img src=""portrait/BM1.jpg""style=""height:400px;""></img>","4","html-button-response","357","1708172","0.0-18.0-16.0","238","List1A","black","man","","true","4","","","","","","","","","",""
"null","CORRECT","","html-keyboard-response","358","1709683","0.0-18.0-17.0-0.0","238","List1A","black","man","","","","null","","","","","","","","",""
"1894.2000000476837","<img src=""portrait/BW1.jpg""style=""height:400px;""></img>","0","html-button-response","359","1711580","0.0-18.0-19.0","238","List1A","black","man","","true","0","","","","","","","","","",""
"null","CORRECT","","html-keyboard-response","360","1713096","0.0-18.0-20.0-0.0","238","List1A","black","man","","","","null","","","","","","","","",""
"1163.7999999523163","<img src=""portrait/WW2.jpg""style=""height:400px;""></img>","3","html-button-response","361","1714263","0.0-18.0-22.0","238","List1A","black","man","","true","3","","","","","","","","","",""
"null","CORRECT","","html-keyboard-response","362","1715783","0.0-18.0-23.0-0.0","238","List1A","black","man","","","","null","","","","","","","","",""
"718.7999999523163","<p>You got 8 out of 8 right first time. Press Continue.</p>","0","html-button-response","363","1716505","0.0-18.0-25.0","238","List1A","black","man","","","","","","","","","","","","",""
"null","<div style=""font-size:60px;"">+</div>","","html-keyboard-response","364","1718016","0.0-19.0-0.0","238","List1A","black","man","","","","null","","","","","","","","",""
"null","<img src=""stim_listA/kiss6.gif""style=""height:400px;""></stim_listA>","","html-keyboard-response","365","1720023","0.0-19.0-1.0","238","List1A","black","man","","","","null","","","","","","","","",""
"null","is being kissed by","","html-keyboard-response","366","1722036","0.0-19.0-2.0","238","List1A","black","man","","","","null","","","","","","","","",""
"6665.200000047684","","","survey-text","367","1728705","0.0-19.0-3.0","238","List1A","black","man","","","","","{""Q0"":""mike is being kissed by dave""}","<img src=""stim_listA/kiss6.gif""style=""height:400px;""></stim_listA>","is being kissed by","","","","","",""
"null","<div style=""font-size:60px;"">+</div>","","html-keyboard-response","368","1729215","0.0-19.0-0.1","238","List1A","black","man","","","","null","","","","","","","","",""
"null","<img src=""stim_listA/shout6.gif""style=""height:400px;""></stim_listA>","","html-keyboard-response","369","1731220","0.0-19.0-1.1","238","List1A","black","man","","","","null","","","","","","","","",""
"null","is being shouted at by","","html-keyboard-response","370","1733233","0.0-19.0-2.1","238","List1A","black","man","","","","null","","","","","","","","",""
"7050.700000047684","","","survey-text","371","1740287","0.0-19.0-3.1","238","List1A","black","man","","","","","{""Q0"":""dave is being shouted at by mike""}","<img src=""stim_listA/shout6.gif""style=""height:400px;""></stim_listA>","is being shouted at by","","","","","",""
"null","<div style=""font-size:60px;"">+</div>","","html-keyboard-response","372","1740799","0.0-19.0-0.2","238","List1A","black","man","","","","null","","","","","","","","",""
"null","<img src=""stim_listA/hug4.gif""style=""height:400px;""></stim_listA>","","html-keyboard-response","373","1742812","0.0-19.0-1.2","238","List1A","black","man","","","","null","","","","","","","","",""
"null","is being hugged by","","html-keyboard-response","374","1744825","0.0-19.0-2.2","238","List1A","black","man","","","","null","","","","","","","","",""
"6503.700000047684","","","survey-text","375","1751332","0.0-19.0-3.2","238","List1A","black","man","","","","","{""Q0"":""dave is being hugged by jane""}","<img src=""stim_listA/hug4.gif""style=""height:400px;""></stim_listA>","is being hugged by","","","","","",""
"null","<div style=""font-size:60px;"">+</div>","","html-keyboard-response","376","1751834","0.0-19.0-0.3","238","List1A","black","man","","","","null","","","","","","","","",""
"null","<img src=""stim_listA/challenge3.gif""style=""height:400px;""></stim_listA>","","html-keyboard-response","377","1753842","0.0-19.0-1.3","238","List1A","black","man","","","","null","","","","","","","","",""
"null","is challenging","","html-keyboard-response","378","1755848","0.0-19.0-2.3","238","List1A","black","man","","","","null","","","","","","","","",""
"5130.200000047684","","","survey-text","379","1760981","0.0-19.0-3.3","238","List1A","black","man","","","","","{""Q0"":""dave is challenging ruth""}","<img src=""stim_listA/challenge3.gif""style=""height:400px;""></stim_listA>","is challenging","","","","","",""
"null","<div style=""font-size:60px;"">+</div>","","html-keyboard-response","380","1761489","0.0-19.0-0.4","238","List1A","black","man","","","","null","","","","","","","","",""
"null","<img src=""stim_listA/seduce2.gif""style=""height:400px;""></stim_listA>","","html-keyboard-response","381","1763503","0.0-19.0-1.4","238","List1A","black","man","","","","null","","","","","","","","",""
"null","is being seduced by","","html-keyboard-response","382","1765513","0.0-19.0-2.4","238","List1A","black","man","","","","null","","","","","","","","",""
"5227.799999952316","","","survey-text","383","1770745","0.0-19.0-3.4","238","List1A","black","man","","","","","{""Q0"":""mike is being seduced by beth""}","<img src=""stim_listA/seduce2.gif""style=""height:400px;""></stim_listA>","is being seduced by","","","","","",""
"null","<div style=""font-size:60px;"">+</div>","","html-keyboard-response","384","1771257","0.0-19.0-0.5","238","List1A","black","man","","","","null","","","","","","","","",""
"null","<img src=""stim_listA/seduce3.gif""style=""height:400px;""></stim_listA>","","html-keyboard-response","385","1773261","0.0-19.0-1.5","238","List1A","black","man","","","","null","","","","","","","","",""
"null","is seducing","","html-keyboard-response","386","1775272","0.0-19.0-2.5","238","List1A","black","man","","","","null","","","","","","","","",""
"3114.2999999523163","","","survey-text","387","1778389","0.0-19.0-3.5","238","List1A","black","man","","","","","{""Q0"":""luke is seducing jane""}","<img src=""stim_listA/seduce3.gif""style=""height:400px;""></stim_listA>","is seducing","","","","","",""
"null","<div style=""font-size:60px;"">+</div>","","html-keyboard-response","388","1778893","0.0-19.0-0.6","238","List1A","black","man","","","","null","","","","","","","","",""
"null","<img src=""stim_listA/shout7.gif""style=""height:400px;""></stim_listA>","","html-keyboard-response","389","1780906","0.0-19.0-1.6","238","List1A","black","man","","","","null","","","","","","","","",""
"null","is shouting at","","html-keyboard-response","390","1782909","0.0-19.0-2.6","238","List1A","black","man","","","","null","","","","","","","","",""
"3022","","","survey-text","391","1785935","0.0-19.0-3.6","238","List1A","black","man","","","","","{""Q0"":""beth is shouting at ruth""}","<img src=""stim_listA/shout7.gif""style=""height:400px;""></stim_listA>","is shouting at","","","","","",""
"null","<div style=""font-size:60px;"">+</div>","","html-keyboard-response","392","1786444","0.0-19.0-0.7","238","List1A","black","man","","","","null","","","","","","","","",""
"null","<img src=""stim_listA/hug1.gif""style=""height:400px;""></stim_listA>","","html-keyboard-response","393","1788451","0.0-19.0-1.7","238","List1A","black","man","","","","null","","","","","","","","",""
"null","is hugging","","html-keyboard-response","394","1790466","0.0-19.0-2.7","238","List1A","black","man","","","","null","","","","","","","","",""
"3725.699999809265","","","survey-text","395","1794195","0.0-19.0-3.7","238","List1A","black","man","","","","","{""Q0"":""fred is hugging beth""}","<img src=""stim_listA/hug1.gif""style=""height:400px;""></stim_listA>","is hugging","","","","","",""
"null","<div style=""font-size:60px;"">+</div>","","html-keyboard-response","396","1794696","0.0-19.0-0.8","238","List1A","black","man","","","","null","","","","","","","","",""
"null","<img src=""stim_listA/challenge7.gif""style=""height:400px;""></stim_listA>","","html-keyboard-response","397","1796708","0.0-19.0-1.8","238","List1A","black","man","","","","null","","","","","","","","",""
"null","is challenging","","html-keyboard-response","398","1798713","0.0-19.0-2.8","238","List1A","black","man","","","","null","","","","","","","","",""
"7918.299999952316","","","survey-text","399","1806635","0.0-19.0-3.8","238","List1A","black","man","","","","","{""Q0"":""kate is challenging ruth""}","<img src=""stim_listA/challenge7.gif""style=""height:400px;""></stim_listA>","is challenging","","","","","",""
"null","<div style=""font-size:60px;"">+</div>","","html-keyboard-response","400","1807137","0.0-19.0-0.9","238","List1A","black","man","","","","null","","","","","","","","",""
"null","<img src=""stim_listA/greet8.gif""style=""height:400px;""></stim_listA>","","html-keyboard-response","401","1809154","0.0-19.0-1.9","238","List1A","black","man","","","","null","","","","","","","","",""
"null","is being greeted by","","html-keyboard-response","402","1811161","0.0-19.0-2.9","238","List1A","black","man","","","","null","","","","","","","","",""
"5565.700000047684","","","survey-text","403","1816730","0.0-19.0-3.9","238","List1A","black","man","","","","","{""Q0"":""beth is being greeted by jane""}","<img src=""stim_listA/greet8.gif""style=""height:400px;""></stim_listA>","is being greeted by","","","","","",""
"null","<div style=""font-size:60px;"">+</div>","","html-keyboard-response","404","1817237","0.0-19.0-0.10","238","List1A","black","man","","","","null","","","","","","","","",""
"null","<img src=""stim_listA/copy4.gif""style=""height:400px;""></stim_listA>","","html-keyboard-response","405","1819242","0.0-19.0-1.10","238","List1A","black","man","","","","null","","","","","","","","",""
"null","is being copied by","","html-keyboard-response","406","1821252","0.0-19.0-2.10","238","List1A","black","man","","","","null","","","","","","","","",""
"5895.099999904633","","","survey-text","407","1827151","0.0-19.0-3.10","238","List1A","black","man","","","","","{""Q0"":""luke is being copied by jane""}","<img src=""stim_listA/copy4.gif""style=""height:400px;""></stim_listA>","is being copied by","","","","","",""
"null","<div style=""font-size:60px;"">+</div>","","html-keyboard-response","408","1827654","0.0-19.0-0.11","238","List1A","black","man","","","","null","","","","","","","","",""
"null","<img src=""stim_listA/touch8.gif""style=""height:400px;""></stim_listA>","","html-keyboard-response","409","1829669","0.0-19.0-1.11","238","List1A","black","man","","","","null","","","","","","","","",""
"null","is being touched by","","html-keyboard-response","410","1831677","0.0-19.0-2.11","238","List1A","black","man","","","","null","","","","","","","","",""
"5410.900000095367","","","survey-text","411","1837090","0.0-19.0-3.11","238","List1A","black","man","","","","","{""Q0"":""ruth is being touched by beth""}","<img src=""stim_listA/touch8.gif""style=""height:400px;""></stim_listA>","is being touched by","","","","","",""
"null","<div style=""font-size:60px;"">+</div>","","html-keyboard-response","412","1837604","0.0-19.0-0.12","238","List1A","black","man","","","","null","","","","","","","","",""
"null","<img src=""stim_listA/oppose3.gif""style=""height:400px;""></stim_listA>","","html-keyboard-response","413","1839617","0.0-19.0-1.12","238","List1A","black","man","","","","null","","","","","","","","",""
"null","is opposing","","html-keyboard-response","414","1841629","0.0-19.0-2.12","238","List1A","black","man","","","","null","","","","","","","","",""
"6534","","","survey-text","415","1848166","0.0-19.0-3.12","238","List1A","black","man","","","","","{""Q0"":""dave is opposing jane""}","<img src=""stim_listA/oppose3.gif""style=""height:400px;""></stim_listA>","is opposing","","","","","",""
"null","<div style=""font-size:60px;"">+</div>","","html-keyboard-response","416","1848678","0.0-19.0-0.13","238","List1A","black","man","","","","null","","","","","","","","",""
"null","<img src=""stim_listA/copy7.gif""style=""height:400px;""></stim_listA>","","html-keyboard-response","417","1850687","0.0-19.0-1.13","238","List1A","black","man","","","","null","","","","","","","","",""
"null","is copying","","html-keyboard-response","418","1852696","0.0-19.0-2.13","238","List1A","black","man","","","","null","","","","","","","","",""
"6404.5","","","survey-text","419","1859104","0.0-19.0-3.13","238","List1A","black","man","","","","","{""Q0"":""kate is copying ruth""}","<img src=""stim_listA/copy7.gif""style=""height:400px;""></stim_listA>","is copying","","","","","",""
"null","<div style=""font-size:60px;"">+</div>","","html-keyboard-response","420","1859607","0.0-19.0-0.14","238","List1A","black","man","","","","null","","","","","","","","",""
"null","<img src=""stim_listA/touch5.gif""style=""height:400px;""></stim_listA>","","html-keyboard-response","421","1861614","0.0-19.0-1.14","238","List1A","black","man","","","","null","","","","","","","","",""
"null","is touching","","html-keyboard-response","422","1863624","0.0-19.0-2.14","238","List1A","black","man","","","","null","","","","","","","","",""
"5059.5","","","survey-text","423","1868686","0.0-19.0-3.14","238","List1A","black","man","","","","","{""Q0"":""mike is touching dave""}","<img src=""stim_listA/touch5.gif""style=""height:400px;""></stim_listA>","is touching","","","","","",""
"null","<div style=""font-size:60px;"">+</div>","","html-keyboard-response","424","1869198","0.0-19.0-0.15","238","List1A","black","man","","","","null","","","","","","","","",""
"null","<img src=""stim_listA/shout1.gif""style=""height:400px;""></stim_listA>","","html-keyboard-response","425","1871205","0.0-19.0-1.15","238","List1A","black","man","","","","null","","","","","","","","",""
"null","is shouting at","","html-keyboard-response","426","1873219","0.0-19.0-2.15","238","List1A","black","man","","","","null","","","","","","","","",""
"6403.399999856949","","","survey-text","427","1879626","0.0-19.0-3.15","238","List1A","black","man","","","","","{""Q0"":""beth is shouting at ruth""}","<img src=""stim_listA/shout1.gif""style=""height:400px;""></stim_listA>","is shouting at","","","","","",""
"null","<div style=""font-size:60px;"">+</div>","","html-keyboard-response","428","1880129","0.0-19.0-0.16","238","List1A","black","man","","","","null","","","","","","","","",""
"null","<img src=""stim_listA/greet4.gif""style=""height:400px;""></stim_listA>","","html-keyboard-response","429","1882142","0.0-19.0-1.16","238","List1A","black","man","","","","null","","","","","","","","",""
"null","is being greeted by","","html-keyboard-response","430","1884144","0.0-19.0-2.16","238","List1A","black","man","","","","null","","","","","","","","",""
"5589.700000047684","","","survey-text","431","1889737","0.0-19.0-3.16","238","List1A","black","man","","","","","{""Q0"":""luke is being greeted by jane""}","<img src=""stim_listA/greet4.gif""style=""height:400px;""></stim_listA>","is being greeted by","","","","","",""
"null","<div style=""font-size:60px;"">+</div>","","html-keyboard-response","432","1890245","0.0-19.0-0.17","238","List1A","black","man","","","","null","","","","","","","","",""
"null","<img src=""stim_listA/look6.gif""style=""height:400px;""></stim_listA>","","html-keyboard-response","433","1892260","0.0-19.0-1.17","238","List1A","black","man","","","","null","","","","","","","","",""
"null","is being looked at by","","html-keyboard-response","434","1894265","0.0-19.0-2.17","238","List1A","black","man","","","","null","","","","","","","","",""
"5896.5","","","survey-text","435","1900165","0.0-19.0-3.17","238","List1A","black","man","","","","","{""Q0"":""dave is being looked at by mike""}","<img src=""stim_listA/look6.gif""style=""height:400px;""></stim_listA>","is being looked at by","","","","","",""
"null","<div style=""font-size:60px;"">+</div>","","html-keyboard-response","436","1900674","0.0-19.0-0.18","238","List1A","black","man","","","","null","","","","","","","","",""
"null","<img src=""stim_listA/challenge4.gif""style=""height:400px;""></stim_listA>","","html-keyboard-response","437","1902680","0.0-19.0-1.18","238","List1A","black","man","","","","null","","","","","","","","",""
"null","is being challenged by","","html-keyboard-response","438","1904684","0.0-19.0-2.18","238","List1A","black","man","","","","null","","","","","","","","",""
"5059.599999904633","","","survey-text","439","1909747","0.0-19.0-3.18","238","List1A","black","man","","","","","{""Q0"":""luke is being challenged by jane""}","<img src=""stim_listA/challenge4.gif""style=""height:400px;""></stim_listA>","is being challenged by","","","","","",""
"null","<div style=""font-size:60px;"">+</div>","","html-keyboard-response","440","1910261","0.0-19.0-0.19","238","List1A","black","man","","","","null","","","","","","","","",""
"null","<img src=""stim_listA/kiss2.gif""style=""height:400px;""></stim_listA>","","html-keyboard-response","441","1912266","0.0-19.0-1.19","238","List1A","black","man","","","","null","","","","","","","","",""
"null","is being kissed by","","html-keyboard-response","442","1914273","0.0-19.0-2.19","238","List1A","black","man","","","","null","","","","","","","","",""
"3969.5999999046326","","","survey-text","443","1918246","0.0-19.0-3.19","238","List1A","black","man","","","","","{""Q0"":""mike is being kissed by kate""}","<img src=""stim_listA/kiss2.gif""style=""height:400px;""></stim_listA>","is being kissed by","","","","","",""
"2123.899999856949","<p>Thank you for completing that task.</p><p>The final part of this session is a questionnaire that will take about 4 minutes.</p><p>Press Continue.</p>","0","html-button-response","444","1920372","0.0-20.0","238","List1A","black","man","","","","","","","","","","","","",""
"27607.5","","","survey-text","445","1948988","0.0-21.0","238","List1A","black","man","","","","","{""Q0"":""24"",""Q1"":""English"",""Q2"":""English"",""Q3"":""United States"",""Q4"":""American"",""Q5"":""Black "",""Q6"":""Male""}","","","demographics","","","","",""
"2478.699999809265","<p>Have you lived in the USA for the last 5 years or more?</p>","0","html-button-response","446","1951469","0.0-22.0","238","List1A","black","man","","","","","","","","fiveyears","","","","",""
"120546.60000014305","<p>Move the slider to show the extent to which you agree with the following statements.</p>","0","html-button-response","447","2073032","0.0-23.0","238","List1A","black","man","","","","","","","","","","","","",""
"40822.89999985695","","","html-slider-response","448","2114863","0.0-24.0-0.0-0.0","238","List1A","black","man","","","","","","","","survey_gender","74","","","Routine is not important to me.","filler"
"4937.200000047684","","","html-slider-response","449","2119802","0.0-24.0-0.0-0.1","238","List1A","black","man","","","","","","","","survey_gender","70","","","Being my gender gives me a good feeling.","feeling"
"28418.700000047684","","","html-slider-response","450","2148222","0.0-24.0-0.0-0.2","238","List1A","black","man","","","","","","","","survey_gender","87","","","Being around my friends gives me a good feeling.","filler"
"6225.200000047684","","","html-slider-response","451","2154450","0.0-24.0-0.0-0.3","238","List1A","black","man","","","","","","","","survey_gender","100","","","I would say I am an animal person.","filler"
"3769.4000000953674","","","html-slider-response","452","2158221","0.0-24.0-0.0-0.4","238","List1A","black","man","","","","","","","","survey_gender","56","","","Family is not more important to me than friendship.","filler"
"2964.100000143051","","","html-slider-response","453","2161188","0.0-24.0-0.0-0.5","238","List1A","black","man","","","","","","","","survey_gender","78","","","My friends understand me.","filler"
"7319.700000047684","","","html-slider-response","454","2168510","0.0-24.0-0.0-0.6","238","List1A","black","man","","","","","","","","survey_gender","77","","","I feel solidarity with my gender.","solidarity"
"2322.600000143051","","","html-slider-response","455","2170835","0.0-24.0-0.0-0.7","238","List1A","black","man","","","","","","","","survey_gender","82","","","I feel a bond with my gender.","bond"
"4477.899999856949","","","html-slider-response","456","2175315","0.0-24.0-0.0-0.8","238","List1A","black","man","","","","","","","","survey_gender","53","","","People of my gender have a lot in common with each other.","common"
"2911.4000000953674","","","html-slider-response","457","2178229","0.0-24.0-0.0-0.9","238","List1A","black","man","","","","","","","","survey_gender","78","","","My friends have a lot in common with each other.","filler"
"2631.600000143051","","","html-slider-response","458","2180862","0.0-24.0-0.0-0.10","238","List1A","black","man","","","","","","","","survey_gender","81","","","I have a lot in common with my friends.","filler"
"4130.900000095367","","","html-slider-response","459","2184996","0.0-24.0-0.0-0.11","238","List1A","black","man","","","","","","","","survey_gender","63","","","Being my gender is an important part of how I see myself.","important"
"2684","","","html-slider-response","460","2187682","0.0-24.0-0.0-0.12","238","List1A","black","man","","","","","","","","survey_gender","78","","","I consider myself a highly empathetic person.","filler"
"3904.4000000953674","","","html-slider-response","461","2191588","0.0-24.0-0.0-0.13","238","List1A","black","man","","","","","","","","survey_gender","26","","","I think that my gender has a lot to be proud of.","proud"
"3232.7999999523163","","","html-slider-response","462","2194822","0.0-24.0-0.0-0.14","238","List1A","black","man","","","","","","","","survey_gender","57","","","The fact that I am my gender is an important part of my identity.","identity"
"5233.100000143051","","","html-slider-response","463","2200058","0.0-24.0-0.0-0.15","238","List1A","black","man","","","","","","","","survey_gender","52","","","I am similar to the average person of my gender.","similar"
"3351.2999999523163","","","html-slider-response","464","2203411","0.0-24.0-0.0-0.16","238","List1A","black","man","","","","","","","","survey_gender","25","","","Most of the friends in my life are very similar to me.","filler"
"7746.400000095367","","","html-slider-response","465","2211160","0.0-24.0-0.0-0.17","238","List1A","black","man","","","","","","","","survey_gender","83","","","I am glad to have the friends that I have.","filler"
"3568.9000000953674","","","html-slider-response","466","2214731","0.0-24.0-0.0-0.18","238","List1A","black","man","","","","","","","","survey_gender","47","","","I feel committed to my gender.","committed"
"2240.7999999523163","","","html-slider-response","467","2216974","0.0-24.0-0.0-0.19","238","List1A","black","man","","","","","","","","survey_gender","71","","","I often think about the fact that I am my gender.","often"
"1510.1999998092651","","","html-slider-response","468","2218487","0.0-24.0-0.0-0.20","238","List1A","black","man","","","","","","","","survey_gender","83","","","I am glad to be my gender.","glad"
"2817.5","","","html-slider-response","469","2221307","0.0-24.0-0.0-0.21","238","List1A","black","man","","","","","","","","survey_gender","40","","","I often think about my actions.","filler"
"1640.7000000476837","","","html-slider-response","470","2222950","0.0-24.0-0.0-0.22","238","List1A","black","man","","","","","","","","survey_gender","85","","","I feel solidarity with my friends.","filler"
"2956.9000000953674","","","html-slider-response","471","2225909","0.0-24.0-0.0-0.23","238","List1A","black","man","","","","","","","","survey_gender","71","","","It is pleasant to be my gender.","pleasant"
"4232.099999904633","","","html-slider-response","472","2230143","0.0-24.0-0.0-0.24","238","List1A","black","man","","","","","","","","survey_gender","64","","","I have a lot in common with the average person of my gender.","average"
"2700.5","","","html-slider-response","473","2232848","0.0-24.0-0.0-0.25","238","List1A","black","man","","","","","","","","survey_gender","83","","","I feel a bond with my friends.","filler"
"3105","","","html-slider-response","474","2235955","0.0-24.0-0.0-0.26","238","List1A","black","man","","","","","","","","survey_gender","77","","","It is not always easy for people to know what I am thinking.","filler"
"4432.100000143051","","","html-slider-response","475","2240391","0.0-24.0-0.0-0.27","238","List1A","black","man","","","","","","","","survey_gender","26","","","People of my gender are very similar to each other.","verysimilar"
"3599.7999999523163","","","html-slider-response","476","2243993","0.0-24.0-1.0-0.0","238","List1A","black","man","","","","","","","","survey_race","60","","","My age is not an important part of who I am.","filler"
"1953","","","html-slider-response","477","2245947","0.0-24.0-1.0-0.1","238","List1A","black","man","","","","","","","","survey_race","85","","","I am glad to be my race.","glad"
"2430.5","","","html-slider-response","478","2248380","0.0-24.0-1.0-0.2","238","List1A","black","man","","","","","","","","survey_race","88","","","I am glad to be the age I am.","filler"
"6922.899999856949","","","html-slider-response","479","2255305","0.0-24.0-1.0-0.3","238","List1A","black","man","","","","","","","","survey_race","38","","","I have a lot in common with the average person of my race.","average"
"1480.5","","","html-slider-response","480","2256788","0.0-24.0-1.0-0.4","238","List1A","black","man","","","","","","","","survey_race","72","","","Being my age gives me a good feeling.","filler"
"1250.7000000476837","","","html-slider-response","481","2258040","0.0-24.0-1.0-0.5","238","List1A","black","man","","","","","","","","survey_race","68","","","I feel solidarity with my race.","solidarity"
"1802.5","","","html-slider-response","482","2259844","0.0-24.0-1.0-0.6","238","List1A","black","man","","","","","","","","survey_race","69","","","I feel solidarity with people the same age as me.","filler"
"2318","","","html-slider-response","483","2262165","0.0-24.0-1.0-0.7","238","List1A","black","man","","","","","","","","survey_race","42","","","I consider myself an extrovert.","filler"
"1390.2000000476837","","","html-slider-response","484","2263557","0.0-24.0-1.0-0.8","238","List1A","black","man","","","","","","","","survey_race","75","","","I feel a bond with people the same age as me.","filler"
"11905","","","html-slider-response","485","2275465","0.0-24.0-1.0-0.9","238","List1A","black","man","","","","","","","","survey_race","66","","","People of my race have a lot in common with each other.","common"
