rt,stimulus,button_pressed,trial_type,trial_index,time_elapsed,internal_node_id,subject,list,ppt_race,ppt_gender,url,first_guess,correct,key_press,responses,image_type,phrase_type,test_part,response,stimulus1,stimulus2,question_type,survey_item
7606.7,Welcome to the experiment. Press Continue to begin.,0,html-button-response,0,7610,0.0-0.0,2398,List1A,black,woman,,,,,,,,,,,,,
49679.1,,,external-html,1,58872,0.0-1.0,2398,List1A,black,woman,consent.html,,,,,,,,,,,,
17796.6,"<p>On the next page, you will see portraits of 8 people and their names.</p><p>Your first task is to take a few minutes to memorise the names of these people.</p><p>You will have to recall their names during the rest of the experiment, so it is</p><p>essential that you try to memorise these people and their names as best as you can.</p><br><p><strong>You will then be tested on your memory of these names and portraits.</strong></p><br><p>The experiment will start after you have completed this memory test.</p><br><p>Ready?</p>",0,html-button-response,2,76670,0.0-2.0,2398,List1A,black,woman,,,,,,,,,,,,,
118811.3,"<img src='img/portrait_matrix_list1.jpg' style='width:900px;height:500px;''></img><p>If you have memorised all the portraits and names and are ready to start, press Continue.</p><p><strong>Please note: Your memory of these faces will be tested 4 times during this experiment.</strong></p>",0,html-button-response,3,196482,0.0-3.0-0.0,2398,List1A,black,woman,,,,,,,,,,,,,
5439.8,"<img src=""portrait/BW1.jpg""style=""height:400px;""></img>",0,html-button-response,4,202929,0.0-3.0-1.0,2398,List1A,black,woman,,TRUE,0,,,,,,,,,,
null,CORRECT,,html-keyboard-response,5,204448,0.0-3.0-2.0-0.0,2398,List1A,black,woman,,,,null,,,,,,,,,
4278.9,"<img src=""portrait/BM1.jpg""style=""height:400px;""></img>",4,html-button-response,6,208729,0.0-3.0-4.0,2398,List1A,black,woman,,TRUE,4,,,,,,,,,,
null,CORRECT,,html-keyboard-response,7,210250,0.0-3.0-5.0-0.0,2398,List1A,black,woman,,,,null,,,,,,,,,
3422.7,"<img src=""portrait/BM2.jpg""style=""height:400px;""></img>",5,html-button-response,8,213674,0.0-3.0-7.0,2398,List1A,black,woman,,TRUE,5,,,,,,,,,,
null,CORRECT,,html-keyboard-response,9,215193,0.0-3.0-8.0-0.0,2398,List1A,black,woman,,,,null,,,,,,,,,
13463.6,"<img src=""portrait/WW2.jpg""style=""height:400px;""></img>",3,html-button-response,10,228658,0.0-3.0-10.0,2398,List1A,black,woman,,TRUE,3,,,,,,,,,,
null,CORRECT,,html-keyboard-response,11,230175,0.0-3.0-11.0-0.0,2398,List1A,black,woman,,,,null,,,,,,,,,
2459.8,"<img src=""portrait/WM2.jpg""style=""height:400px;""></img>",7,html-button-response,12,232636,0.0-3.0-13.0,2398,List1A,black,woman,,TRUE,7,,,,,,,,,,
null,CORRECT,,html-keyboard-response,13,234158,0.0-3.0-14.0-0.0,2398,List1A,black,woman,,,,null,,,,,,,,,
4097.1,"<img src=""portrait/BW2.jpg""style=""height:400px;""></img>",2,html-button-response,14,238256,0.0-3.0-16.0,2398,List1A,black,woman,,TRUE,2,,,,,,,,,,
null,CORRECT,,html-keyboard-response,15,239783,0.0-3.0-17.0-0.0,2398,List1A,black,woman,,,,null,,,,,,,,,
4234.2,"<img src=""portrait/WM1.jpg""style=""height:400px;""></img>",6,html-button-response,16,244019,0.0-3.0-19.0,2398,List1A,black,woman,,TRUE,6,,,,,,,,,,
null,CORRECT,,html-keyboard-response,17,245540,0.0-3.0-20.0-0.0,2398,List1A,black,woman,,,,null,,,,,,,,,
5463.5,"<img src=""portrait/WW1.jpg""style=""height:400px;""></img>",2,html-button-response,18,251009,0.0-3.0-22.0,2398,List1A,black,woman,,TRUE,1,,,,,,,,,,
4951.5,"<img src=""portrait/WW1.jpg""style=""height:400px;""></img>",1,html-button-response,19,256975,0.0-3.0-24.0-0.0,2398,List1A,black,woman,,FALSE,1,,,,,,,,,,
null,CORRECT,,html-keyboard-response,20,258483,0.0-3.0-24.0-1.0-0.0,2398,List1A,black,woman,,,,null,,,,,,,,,
1384.4,<p>You got 7 out of 8 right first time. Press Continue.</p>,0,html-button-response,21,259869,0.0-3.0-25.0,2398,List1A,black,woman,,,,,,,,,,,,,
2330.8,"As you did not score 100%, the memory game will repeat. Press Continue.",0,html-button-response,22,263205,0.0-3.0-26.0-0.0,2398,List1A,black,woman,,,,,,,,,,,,,
13092.4,"<img src='img/portrait_matrix_list1.jpg' style='width:900px;height:500px;''></img><p>If you have memorised all the portraits and names and are ready to start, press Continue.</p><p><strong>Please note: Your memory of these faces will be tested 4 times during this experiment.</strong></p>",0,html-button-response,23,277309,0.0-3.1-0.1,2398,List1A,black,woman,,,,,,,,,,,,,
4629.4,"<img src=""portrait/BW1.jpg""style=""height:400px;""></img>",0,html-button-response,24,282943,0.0-3.1-1.1,2398,List1A,black,woman,,TRUE,0,,,,,,,,,,
null,CORRECT,,html-keyboard-response,25,284452,0.0-3.1-2.1-0.1,2398,List1A,black,woman,,,,null,,,,,,,,,
2057.4,"<img src=""portrait/BM1.jpg""style=""height:400px;""></img>",4,html-button-response,26,286511,0.0-3.1-4.1,2398,List1A,black,woman,,TRUE,4,,,,,,,,,,
null,CORRECT,,html-keyboard-response,27,288021,0.0-3.1-5.1-0.1,2398,List1A,black,woman,,,,null,,,,,,,,,
1939.3,"<img src=""portrait/BM2.jpg""style=""height:400px;""></img>",5,html-button-response,28,289961,0.0-3.1-7.1,2398,List1A,black,woman,,TRUE,5,,,,,,,,,,
null,CORRECT,,html-keyboard-response,29,291474,0.0-3.1-8.1-0.1,2398,List1A,black,woman,,,,null,,,,,,,,,
5499.8,"<img src=""portrait/WW2.jpg""style=""height:400px;""></img>",2,html-button-response,30,296975,0.0-3.1-10.1,2398,List1A,black,woman,,TRUE,3,,,,,,,,,,
2011.4,"<img src=""portrait/WW2.jpg""style=""height:400px;""></img>",3,html-button-response,31,299991,0.0-3.1-12.1-0.1,2398,List1A,black,woman,,FALSE,3,,,,,,,,,,
null,CORRECT,,html-keyboard-response,32,301514,0.0-3.1-12.1-1.1-0.1,2398,List1A,black,woman,,,,null,,,,,,,,,
2190.3,"<img src=""portrait/WM2.jpg""style=""height:400px;""></img>",7,html-button-response,33,303705,0.0-3.1-13.1,2398,List1A,black,woman,,TRUE,7,,,,,,,,,,
null,CORRECT,,html-keyboard-response,34,305209,0.0-3.1-14.1-0.1,2398,List1A,black,woman,,,,null,,,,,,,,,
1846.5,"<img src=""portrait/BW2.jpg""style=""height:400px;""></img>",2,html-button-response,35,307058,0.0-3.1-16.1,2398,List1A,black,woman,,TRUE,2,,,,,,,,,,
null,CORRECT,,html-keyboard-response,36,308577,0.0-3.1-17.1-0.1,2398,List1A,black,woman,,,,null,,,,,,,,,
1597.8,"<img src=""portrait/WM1.jpg""style=""height:400px;""></img>",6,html-button-response,37,310176,0.0-3.1-19.1,2398,List1A,black,woman,,TRUE,6,,,,,,,,,,
null,CORRECT,,html-keyboard-response,38,311690,0.0-3.1-20.1-0.1,2398,List1A,black,woman,,,,null,,,,,,,,,
3460.2,"<img src=""portrait/WW1.jpg""style=""height:400px;""></img>",1,html-button-response,39,315152,0.0-3.1-22.1,2398,List1A,black,woman,,TRUE,1,,,,,,,,,,
null,CORRECT,,html-keyboard-response,40,316661,0.0-3.1-23.1-0.1,2398,List1A,black,woman,,,,null,,,,,,,,,
1290.4,<p>You got 7 out of 8 right first time. Press Continue.</p>,0,html-button-response,41,317954,0.0-3.1-25.1,2398,List1A,black,woman,,,,,,,,,,,,,
1903.1,"As you did not score 100%, the memory game will repeat. Press Continue.",0,html-button-response,42,320870,0.0-3.1-26.1-0.1,2398,List1A,black,woman,,,,,,,,,,,,,
7824.3,"<img src='img/portrait_matrix_list1.jpg' style='width:900px;height:500px;''></img><p>If you have memorised all the portraits and names and are ready to start, press Continue.</p><p><strong>Please note: Your memory of these faces will be tested 4 times during this experiment.</strong></p>",0,html-button-response,43,329696,0.0-3.2-0.2,2398,List1A,black,woman,,,,,,,,,,,,,
1893.1,"<img src=""portrait/BW1.jpg""style=""height:400px;""></img>",0,html-button-response,44,332597,0.0-3.2-1.2,2398,List1A,black,woman,,TRUE,0,,,,,,,,,,
null,CORRECT,,html-keyboard-response,45,334115,0.0-3.2-2.2-0.2,2398,List1A,black,woman,,,,null,,,,,,,,,
1521.4,"<img src=""portrait/BM1.jpg""style=""height:400px;""></img>",4,html-button-response,46,335638,0.0-3.2-4.2,2398,List1A,black,woman,,TRUE,4,,,,,,,,,,
null,CORRECT,,html-keyboard-response,47,337159,0.0-3.2-5.2-0.2,2398,List1A,black,woman,,,,null,,,,,,,,,
2059.5,"<img src=""portrait/BM2.jpg""style=""height:400px;""></img>",5,html-button-response,48,339220,0.0-3.2-7.2,2398,List1A,black,woman,,TRUE,5,,,,,,,,,,
null,CORRECT,,html-keyboard-response,49,340729,0.0-3.2-8.2-0.2,2398,List1A,black,woman,,,,null,,,,,,,,,
3162.1,"<img src=""portrait/WW2.jpg""style=""height:400px;""></img>",2,html-button-response,50,343892,0.0-3.2-10.2,2398,List1A,black,woman,,TRUE,3,,,,,,,,,,
1608.9,"<img src=""portrait/WW2.jpg""style=""height:400px;""></img>",3,html-button-response,51,346514,0.0-3.2-12.2-0.2,2398,List1A,black,woman,,FALSE,3,,,,,,,,,,
null,CORRECT,,html-keyboard-response,52,348029,0.0-3.2-12.2-1.2-0.2,2398,List1A,black,woman,,,,null,,,,,,,,,
7381.4,"<img src=""portrait/WM2.jpg""style=""height:400px;""></img>",7,html-button-response,53,355412,0.0-3.2-13.2,2398,List1A,black,woman,,TRUE,7,,,,,,,,,,
null,CORRECT,,html-keyboard-response,54,356923,0.0-3.2-14.2-0.2,2398,List1A,black,woman,,,,null,,,,,,,,,
1547.6,"<img src=""portrait/BW2.jpg""style=""height:400px;""></img>",2,html-button-response,55,358474,0.0-3.2-16.2,2398,List1A,black,woman,,TRUE,2,,,,,,,,,,
null,CORRECT,,html-keyboard-response,56,359987,0.0-3.2-17.2-0.2,2398,List1A,black,woman,,,,null,,,,,,,,,
1617.9,"<img src=""portrait/WM1.jpg""style=""height:400px;""></img>",6,html-button-response,57,361606,0.0-3.2-19.2,2398,List1A,black,woman,,TRUE,6,,,,,,,,,,
null,CORRECT,,html-keyboard-response,58,363115,0.0-3.2-20.2-0.2,2398,List1A,black,woman,,,,null,,,,,,,,,
3559.8,"<img src=""portrait/WW1.jpg""style=""height:400px;""></img>",1,html-button-response,59,366676,0.0-3.2-22.2,2398,List1A,black,woman,,TRUE,1,,,,,,,,,,
null,CORRECT,,html-keyboard-response,60,368192,0.0-3.2-23.2-0.2,2398,List1A,black,woman,,,,null,,,,,,,,,
1338.3,<p>You got 7 out of 8 right first time. Press Continue.</p>,0,html-button-response,61,369532,0.0-3.2-25.2,2398,List1A,black,woman,,,,,,,,,,,,,
1541,"As you did not score 100%, the memory game will repeat. Press Continue.",0,html-button-response,62,372088,0.0-3.2-26.2-0.2,2398,List1A,black,woman,,,,,,,,,,,,,
5323.1,"<img src='img/portrait_matrix_list1.jpg' style='width:900px;height:500px;''></img><p>If you have memorised all the portraits and names and are ready to start, press Continue.</p><p><strong>Please note: Your memory of these faces will be tested 4 times during this experiment.</strong></p>",0,html-button-response,63,378426,0.0-3.3-0.3,2398,List1A,black,woman,,,,,,,,,,,,,
2161.9,"<img src=""portrait/BW1.jpg""style=""height:400px;""></img>",0,html-button-response,64,381599,0.0-3.3-1.3,2398,List1A,black,woman,,TRUE,0,,,,,,,,,,
null,CORRECT,,html-keyboard-response,65,383111,0.0-3.3-2.3-0.3,2398,List1A,black,woman,,,,null,,,,,,,,,
1902.9,"<img src=""portrait/BM1.jpg""style=""height:400px;""></img>",4,html-button-response,66,385015,0.0-3.3-4.3,2398,List1A,black,woman,,TRUE,4,,,,,,,,,,
null,CORRECT,,html-keyboard-response,67,386523,0.0-3.3-5.3-0.3,2398,List1A,black,woman,,,,null,,,,,,,,,
1877.8,"<img src=""portrait/BM2.jpg""style=""height:400px;""></img>",5,html-button-response,68,388402,0.0-3.3-7.3,2398,List1A,black,woman,,TRUE,5,,,,,,,,,,
null,CORRECT,,html-keyboard-response,69,389930,0.0-3.3-8.3-0.3,2398,List1A,black,woman,,,,null,,,,,,,,,
1294.8,"<img src=""portrait/WW2.jpg""style=""height:400px;""></img>",3,html-button-response,70,391226,0.0-3.3-10.3,2398,List1A,black,woman,,TRUE,3,,,,,,,,,,
null,CORRECT,,html-keyboard-response,71,392731,0.0-3.3-11.3-0.3,2398,List1A,black,woman,,,,null,,,,,,,,,
1551.6,"<img src=""portrait/WM2.jpg""style=""height:400px;""></img>",7,html-button-response,72,394284,0.0-3.3-13.3,2398,List1A,black,woman,,TRUE,7,,,,,,,,,,
null,CORRECT,,html-keyboard-response,73,395807,0.0-3.3-14.3-0.3,2398,List1A,black,woman,,,,null,,,,,,,,,
1471.7,"<img src=""portrait/BW2.jpg""style=""height:400px;""></img>",2,html-button-response,74,397280,0.0-3.3-16.3,2398,List1A,black,woman,,TRUE,2,,,,,,,,,,
null,CORRECT,,html-keyboard-response,75,398788,0.0-3.3-17.3-0.3,2398,List1A,black,woman,,,,null,,,,,,,,,
1374.6,"<img src=""portrait/WM1.jpg""style=""height:400px;""></img>",6,html-button-response,76,400164,0.0-3.3-19.3,2398,List1A,black,woman,,TRUE,6,,,,,,,,,,
null,CORRECT,,html-keyboard-response,77,401681,0.0-3.3-20.3-0.3,2398,List1A,black,woman,,,,null,,,,,,,,,
3363.3,"<img src=""portrait/WW1.jpg""style=""height:400px;""></img>",1,html-button-response,78,405046,0.0-3.3-22.3,2398,List1A,black,woman,,TRUE,1,,,,,,,,,,
null,CORRECT,,html-keyboard-response,79,406554,0.0-3.3-23.3-0.3,2398,List1A,black,woman,,,,null,,,,,,,,,
1420.5,<p>You got 8 out of 8 right first time. Press Continue.</p>,0,html-button-response,80,407976,0.0-3.3-25.3,2398,List1A,black,woman,,,,,,,,,,,,,
41625,"<p>In this experiment, you will view photographs of the people from the memory game interacting.</p><p>By using the <strong>exact</strong> phrase given <i>after</i> the photograph appears and recalling the correct names of the people in the photographs, form a sentence describing the interaction. You do not need to capitalise names.</p><p>Type your answer in the space provided. Please complete every sentence before moving onto the next trial.</p><p>You will only have a few seconds to memorise each given photograph and phrase before you can respond, so try your best to focus.</p><p>An example is given below. Press 'Continue' when you are ready.</p><img src='img/speaking_example.jpg' style='width:800px;height:460px;''></img>",0,html-button-response,81,450608,0.0-4.0,2398,List1A,black,woman,,,,,,,,,,,,,
9480.7,"<p>Before the experiment starts, you will watch two example trials. Press 'Continue'.</p>",0,html-button-response,82,461094,0.0-5.0,2398,List1A,black,woman,,,,,,,,,,,,,
null,<img src='img/play_eg.gif' style='height:400px;''></img>,,html-keyboard-response,83,464103,0.0-6.0,2398,List1A,black,woman,,,,null,,,,,,,,,
null,<p>is playing with</p>,,html-keyboard-response,84,466118,0.0-7.0,2398,List1A,black,woman,,,,null,,,,,,,,,
1860.9,<p><b>Answer:</b> kate is playing with beth</p>,0,html-button-response,85,467979,0.0-8.0,2398,List1A,black,woman,,,,,,,,,,,,,
null,<img src='img/dance_eg.gif' style='height:400px;''></img>,,html-keyboard-response,86,470992,0.0-9.0,2398,List1A,black,woman,,,,null,,,,,,,,,
null,<p>is being entertained by</p>,,html-keyboard-response,87,473004,0.0-10.0,2398,List1A,black,woman,,,,null,,,,,,,,,
2588.5,<p><b>Answer:</b> luke is being entertained by dave</p>,0,html-button-response,88,475594,0.0-11.0,2398,List1A,black,woman,,,,,,,,,,,,,
9715.3,"<p>Ready to start the experiment?</p><br><p><strong>Remember to describe the picture using a full sentence,</strong></p><p><strong>that combines the names of the people with the <i>exact</i> phrase given.</strong></p><p><strong>To receive full payment you must do this correctly.</strong></p><p><strong> You do not need to capitalise names or use punctuation.</strong></p><br><p>Press 'Continue' to begin.</p>",0,html-button-response,89,486314,0.0-12.0,2398,List1A,black,woman,,,,,,,,,,,,,
null,"<div style=""font-size:60px;"">+</div>",,html-keyboard-response,90,487823,0.0-13.0-0.0,2398,List1A,black,woman,,,,null,,,,,,,,,
null,"<img src=""stim_listA/shout4.gif""style=""height:400px;""></stim_listA>",,html-keyboard-response,91,489838,0.0-13.0-1.0,2398,List1A,black,woman,,,,null,,,,,,,,,
null,is being shouted at by,,html-keyboard-response,92,491842,0.0-13.0-2.0,2398,List1A,black,woman,,,,null,,,,,,,,,
16722.7,,,survey-text,93,508568,0.0-13.0-3.0,2398,List1A,black,woman,,,,,"{""Q0"":""jane is being shouted at by dave""}","<img src=""stim_listA/shout4.gif""style=""height:400px;""></stim_listA>",is being shouted at by,,,,,,
null,"<div style=""font-size:60px;"">+</div>",,html-keyboard-response,94,509072,0.0-13.0-0.1,2398,List1A,black,woman,,,,null,,,,,,,,,
null,"<img src=""stim_listA/kiss4.gif""style=""height:400px;""></stim_listA>",,html-keyboard-response,95,511087,0.0-13.0-1.1,2398,List1A,black,woman,,,,null,,,,,,,,,
null,is being kissed by,,html-keyboard-response,96,513096,0.0-13.0-2.1,2398,List1A,black,woman,,,,null,,,,,,,,,
10872.1,,,survey-text,97,523971,0.0-13.0-3.1,2398,List1A,black,woman,,,,,"{""Q0"":""dave is being kissed by jane""}","<img src=""stim_listA/kiss4.gif""style=""height:400px;""></stim_listA>",is being kissed by,,,,,,
null,"<div style=""font-size:60px;"">+</div>",,html-keyboard-response,98,524481,0.0-13.0-0.2,2398,List1A,black,woman,,,,null,,,,,,,,,
null,"<img src=""stim_listA/shout3.gif""style=""height:400px;""></stim_listA>",,html-keyboard-response,99,526496,0.0-13.0-1.2,2398,List1A,black,woman,,,,null,,,,,,,,,
null,is shouting at,,html-keyboard-response,100,528507,0.0-13.0-2.2,2398,List1A,black,woman,,,,null,,,,,,,,,
14319,,,survey-text,101,542829,0.0-13.0-3.2,2398,List1A,black,woman,,,,,"{""Q0"":""luke is shouting at ruth""}","<img src=""stim_listA/shout3.gif""style=""height:400px;""></stim_listA>",is shouting at,,,,,,
null,"<div style=""font-size:60px;"">+</div>",,html-keyboard-response,102,543343,0.0-13.0-0.3,2398,List1A,black,woman,,,,null,,,,,,,,,
null,"<img src=""stim_listA/hug7.gif""style=""height:400px;""></stim_listA>",,html-keyboard-response,103,545353,0.0-13.0-1.3,2398,List1A,black,woman,,,,null,,,,,,,,,
null,is hugging,,html-keyboard-response,104,547360,0.0-13.0-2.3,2398,List1A,black,woman,,,,null,,,,,,,,,
7838.4,,,survey-text,105,555201,0.0-13.0-3.3,2398,List1A,black,woman,,,,,"{""Q0"":""ruth is hugging beth""}","<img src=""stim_listA/hug7.gif""style=""height:400px;""></stim_listA>",is hugging,,,,,,
null,"<div style=""font-size:60px;"">+</div>",,html-keyboard-response,106,555713,0.0-13.0-0.4,2398,List1A,black,woman,,,,null,,,,,,,,,
null,"<img src=""stim_listA/kiss6.gif""style=""height:400px;""></stim_listA>",,html-keyboard-response,107,557724,0.0-13.0-1.4,2398,List1A,black,woman,,,,null,,,,,,,,,
null,is being kissed by,,html-keyboard-response,108,559739,0.0-13.0-2.4,2398,List1A,black,woman,,,,null,,,,,,,,,
8754.2,,,survey-text,109,568495,0.0-13.0-3.4,2398,List1A,black,woman,,,,,"{""Q0"":""mike is being kissed by dave""}","<img src=""stim_listA/kiss6.gif""style=""height:400px;""></stim_listA>",is being kissed by,,,,,,
null,"<div style=""font-size:60px;"">+</div>",,html-keyboard-response,110,568997,0.0-13.0-0.5,2398,List1A,black,woman,,,,null,,,,,,,,,
null,"<img src=""stim_listA/touch2.gif""style=""height:400px;""></stim_listA>",,html-keyboard-response,111,571005,0.0-13.0-1.5,2398,List1A,black,woman,,,,null,,,,,,,,,
null,is being touched by,,html-keyboard-response,112,573018,0.0-13.0-2.5,2398,List1A,black,woman,,,,null,,,,,,,,,
7586.5,,,survey-text,113,580607,0.0-13.0-3.5,2398,List1A,black,woman,,,,,"{""Q0"":""fred is being touched by beth""}","<img src=""stim_listA/touch2.gif""style=""height:400px;""></stim_listA>",is being touched by,,,,,,
null,"<div style=""font-size:60px;"">+</div>",,html-keyboard-response,114,581111,0.0-13.0-0.6,2398,List1A,black,woman,,,,null,,,,,,,,,
null,"<img src=""stim_listA/oppose7.gif""style=""height:400px;""></stim_listA>",,html-keyboard-response,115,583113,0.0-13.0-1.6,2398,List1A,black,woman,,,,null,,,,,,,,,
null,is opposing,,html-keyboard-response,116,585117,0.0-13.0-2.6,2398,List1A,black,woman,,,,null,,,,,,,,,
6865.5,,,survey-text,117,591985,0.0-13.0-3.6,2398,List1A,black,woman,,,,,"{""Q0"":""kate is opposing jane""}","<img src=""stim_listA/oppose7.gif""style=""height:400px;""></stim_listA>",is opposing,,,,,,
null,"<div style=""font-size:60px;"">+</div>",,html-keyboard-response,118,592495,0.0-13.0-0.7,2398,List1A,black,woman,,,,null,,,,,,,,,
null,"<img src=""stim_listA/copy3.gif""style=""height:400px;""></stim_listA>",,html-keyboard-response,119,594501,0.0-13.0-1.7,2398,List1A,black,woman,,,,null,,,,,,,,,
null,is copying,,html-keyboard-response,120,596514,0.0-13.0-2.7,2398,List1A,black,woman,,,,null,,,,,,,,,
6238.1,,,survey-text,121,602754,0.0-13.0-3.7,2398,List1A,black,woman,,,,,"{""Q0"":""ruth is copying dave""}","<img src=""stim_listA/copy3.gif""style=""height:400px;""></stim_listA>",is copying,,,,,,
null,"<div style=""font-size:60px;"">+</div>",,html-keyboard-response,122,603267,0.0-13.0-0.8,2398,List1A,black,woman,,,,null,,,,,,,,,
null,"<img src=""stim_listA/oppose3.gif""style=""height:400px;""></stim_listA>",,html-keyboard-response,123,605284,0.0-13.0-1.8,2398,List1A,black,woman,,,,null,,,,,,,,,
null,is opposing,,html-keyboard-response,124,607292,0.0-13.0-2.8,2398,List1A,black,woman,,,,null,,,,,,,,,
5578.7,,,survey-text,125,612873,0.0-13.0-3.8,2398,List1A,black,woman,,,,,"{""Q0"":""dave is opposing jane""}","<img src=""stim_listA/oppose3.gif""style=""height:400px;""></stim_listA>",is opposing,,,,,,
null,"<div style=""font-size:60px;"">+</div>",,html-keyboard-response,126,613377,0.0-13.0-0.9,2398,List1A,black,woman,,,,null,,,,,,,,,
null,"<img src=""stim_listA/greet4.gif""style=""height:400px;""></stim_listA>",,html-keyboard-response,127,615384,0.0-13.0-1.9,2398,List1A,black,woman,,,,null,,,,,,,,,
null,is being greeted by,,html-keyboard-response,128,617387,0.0-13.0-2.9,2398,List1A,black,woman,,,,null,,,,,,,,,
8140.2,,,survey-text,129,625529,0.0-13.0-3.9,2398,List1A,black,woman,,,,,"{""Q0"":""luke is being greeted by jane""}","<img src=""stim_listA/greet4.gif""style=""height:400px;""></stim_listA>",is being greeted by,,,,,,
null,"<div style=""font-size:60px;"">+</div>",,html-keyboard-response,130,626035,0.0-13.0-0.10,2398,List1A,black,woman,,,,null,,,,,,,,,
null,"<img src=""stim_listA/challenge3.gif""style=""height:400px;""></stim_listA>",,html-keyboard-response,131,628042,0.0-13.0-1.10,2398,List1A,black,woman,,,,null,,,,,,,,,
null,is challenging,,html-keyboard-response,132,630050,0.0-13.0-2.10,2398,List1A,black,woman,,,,null,,,,,,,,,
11229.5,,,survey-text,133,641282,0.0-13.0-3.10,2398,List1A,black,woman,,,,,"{""Q0"":""ruth is challenging dave""}","<img src=""stim_listA/challenge3.gif""style=""height:400px;""></stim_listA>",is challenging,,,,,,
null,"<div style=""font-size:60px;"">+</div>",,html-keyboard-response,134,641795,0.0-13.0-0.11,2398,List1A,black,woman,,,,null,,,,,,,,,
null,"<img src=""stim_listA/look8.gif""style=""height:400px;""></stim_listA>",,html-keyboard-response,135,643809,0.0-13.0-1.11,2398,List1A,black,woman,,,,null,,,,,,,,,
null,is being looked at by,,html-keyboard-response,136,645810,0.0-13.0-2.11,2398,List1A,black,woman,,,,null,,,,,,,,,
10212.5,,,survey-text,137,656025,0.0-13.0-3.11,2398,List1A,black,woman,,,,,"{""Q0"":""kate is be looked at by jane""}","<img src=""stim_listA/look8.gif""style=""height:400px;""></stim_listA>",is being looked at by,,,,,,
null,"<div style=""font-size:60px;"">+</div>",,html-keyboard-response,138,656536,0.0-13.0-0.12,2398,List1A,black,woman,,,,null,,,,,,,,,
null,"<img src=""stim_listA/look4.gif""style=""height:400px;""></stim_listA>",,html-keyboard-response,139,658542,0.0-13.0-1.12,2398,List1A,black,woman,,,,null,,,,,,,,,
null,is being looked at by,,html-keyboard-response,140,660544,0.0-13.0-2.12,2398,List1A,black,woman,,,,null,,,,,,,,,
8514.7,,,survey-text,141,669061,0.0-13.0-3.12,2398,List1A,black,woman,,,,,"{""Q0"":""dave is being looked at by jane""}","<img src=""stim_listA/look4.gif""style=""height:400px;""></stim_listA>",is being looked at by,,,,,,
null,"<div style=""font-size:60px;"">+</div>",,html-keyboard-response,142,669575,0.0-13.0-0.13,2398,List1A,black,woman,,,,null,,,,,,,,,
null,"<img src=""stim_listA/oppose1.gif""style=""height:400px;""></stim_listA>",,html-keyboard-response,143,671577,0.0-13.0-1.13,2398,List1A,black,woman,,,,null,,,,,,,,,
null,is opposing,,html-keyboard-response,144,673581,0.0-13.0-2.13,2398,List1A,black,woman,,,,null,,,,,,,,,
6016.5,,,survey-text,145,679604,0.0-13.0-3.13,2398,List1A,black,woman,,,,,"{""Q0"":""kate is opposing mike""}","<img src=""stim_listA/oppose1.gif""style=""height:400px;""></stim_listA>",is opposing,,,,,,
null,"<div style=""font-size:60px;"">+</div>",,html-keyboard-response,146,680117,0.0-13.0-0.14,2398,List1A,black,woman,,,,null,,,,,,,,,
null,"<img src=""stim_listA/challenge6.gif""style=""height:400px;""></stim_listA>",,html-keyboard-response,147,682134,0.0-13.0-1.14,2398,List1A,black,woman,,,,null,,,,,,,,,
null,is being challenged by,,html-keyboard-response,148,684147,0.0-13.0-2.14,2398,List1A,black,woman,,,,null,,,,,,,,,
9789.2,,,survey-text,149,693938,0.0-13.0-3.14,2398,List1A,black,woman,,,,,"{""Q0"":""fred is being challenged by dave""}","<img src=""stim_listA/challenge6.gif""style=""height:400px;""></stim_listA>",is being challenged by,,,,,,
null,"<div style=""font-size:60px;"">+</div>",,html-keyboard-response,150,694448,0.0-13.0-0.15,2398,List1A,black,woman,,,,null,,,,,,,,,
null,"<img src=""stim_listA/seduce7.gif""style=""height:400px;""></stim_listA>",,html-keyboard-response,151,696450,0.0-13.0-1.15,2398,List1A,black,woman,,,,null,,,,,,,,,
null,is seducing,,html-keyboard-response,152,698463,0.0-13.0-2.15,2398,List1A,black,woman,,,,null,,,,,,,,,
4254.3,,,survey-text,153,702719,0.0-13.0-3.15,2398,List1A,black,woman,,,,,"{""Q0"":""jane is seducing beth""}","<img src=""stim_listA/seduce7.gif""style=""height:400px;""></stim_listA>",is seducing,,,,,,
null,"<div style=""font-size:60px;"">+</div>",,html-keyboard-response,154,703235,0.0-13.0-0.16,2398,List1A,black,woman,,,,null,,,,,,,,,
null,"<img src=""stim_listA/touch7.gif""style=""height:400px;""></stim_listA>",,html-keyboard-response,155,705251,0.0-13.0-1.16,2398,List1A,black,woman,,,,null,,,,,,,,,
null,is touching,,html-keyboard-response,156,707253,0.0-13.0-2.16,2398,List1A,black,woman,,,,null,,,,,,,,,
4715.7,,,survey-text,157,711970,0.0-13.0-3.16,2398,List1A,black,woman,,,,,"{""Q0"":""kate is touching jane""}","<img src=""stim_listA/touch7.gif""style=""height:400px;""></stim_listA>",is touching,,,,,,
null,"<div style=""font-size:60px;"">+</div>",,html-keyboard-response,158,712480,0.0-13.0-0.17,2398,List1A,black,woman,,,,null,,,,,,,,,
null,"<img src=""stim_listA/copy8.gif""style=""height:400px;""></stim_listA>",,html-keyboard-response,159,714493,0.0-13.0-1.17,2398,List1A,black,woman,,,,null,,,,,,,,,
null,is being copied by,,html-keyboard-response,160,716499,0.0-13.0-2.17,2398,List1A,black,woman,,,,null,,,,,,,,,
6017,,,survey-text,161,722519,0.0-13.0-3.17,2398,List1A,black,woman,,,,,"{""Q0"":""beth is being copied by jane""}","<img src=""stim_listA/copy8.gif""style=""height:400px;""></stim_listA>",is being copied by,,,,,,
null,"<div style=""font-size:60px;"">+</div>",,html-keyboard-response,162,723032,0.0-13.0-0.18,2398,List1A,black,woman,,,,null,,,,,,,,,
null,"<img src=""stim_listA/challenge7.gif""style=""height:400px;""></stim_listA>",,html-keyboard-response,163,725043,0.0-13.0-1.18,2398,List1A,black,woman,,,,null,,,,,,,,,
null,is challenging,,html-keyboard-response,164,727052,0.0-13.0-2.18,2398,List1A,black,woman,,,,null,,,,,,,,,
7307.2,,,survey-text,165,734361,0.0-13.0-3.18,2398,List1A,black,woman,,,,,"{""Q0"":""kate is challenging ruth""}","<img src=""stim_listA/challenge7.gif""style=""height:400px;""></stim_listA>",is challenging,,,,,,
null,"<div style=""font-size:60px;"">+</div>",,html-keyboard-response,166,734872,0.0-13.0-0.19,2398,List1A,black,woman,,,,null,,,,,,,,,
null,"<img src=""stim_listA/seduce4.gif""style=""height:400px;""></stim_listA>",,html-keyboard-response,167,736881,0.0-13.0-1.19,2398,List1A,black,woman,,,,null,,,,,,,,,
null,is being seduced by,,html-keyboard-response,168,738888,0.0-13.0-2.19,2398,List1A,black,woman,,,,null,,,,,,,,,
8860.9,,,survey-text,169,747751,0.0-13.0-3.19,2398,List1A,black,woman,,,,,"{""Q0"":""ruth is being seduced by dave""}","<img src=""stim_listA/seduce4.gif""style=""height:400px;""></stim_listA>",is being seduced by,,,,,,
11349.4,"<img src='img/portrait_matrix_list1.jpg' style='width:900px;height:500px;''></img><p>If you have memorised all the portraits and names and are ready to start, press Continue.</p><p><strong>Please note: Your memory of these faces will be tested 4 times during this experiment.</strong></p>",0,html-button-response,170,759102,0.0-14.0-0.0,2398,List1A,black,woman,,,,,,,,,,,,,
1836.1,"<img src=""portrait/WM2.jpg""style=""height:400px;""></img>",7,html-button-response,171,761943,0.0-14.0-1.0,2398,List1A,black,woman,,TRUE,7,,,,,,,,,,
null,CORRECT,,html-keyboard-response,172,763472,0.0-14.0-2.0-0.0,2398,List1A,black,woman,,,,null,,,,,,,,,
2373.9,"<img src=""portrait/BM2.jpg""style=""height:400px;""></img>",5,html-button-response,173,765848,0.0-14.0-4.0,2398,List1A,black,woman,,TRUE,5,,,,,,,,,,
null,CORRECT,,html-keyboard-response,174,767376,0.0-14.0-5.0-0.0,2398,List1A,black,woman,,,,null,,,,,,,,,
1503.6,"<img src=""portrait/BM1.jpg""style=""height:400px;""></img>",4,html-button-response,175,768881,0.0-14.0-7.0,2398,List1A,black,woman,,TRUE,4,,,,,,,,,,
null,CORRECT,,html-keyboard-response,176,770409,0.0-14.0-8.0-0.0,2398,List1A,black,woman,,,,null,,,,,,,,,
1590.7,"<img src=""portrait/WW1.jpg""style=""height:400px;""></img>",1,html-button-response,177,772001,0.0-14.0-10.0,2398,List1A,black,woman,,TRUE,1,,,,,,,,,,
null,CORRECT,,html-keyboard-response,178,773514,0.0-14.0-11.0-0.0,2398,List1A,black,woman,,,,null,,,,,,,,,
1298.6,"<img src=""portrait/BW2.jpg""style=""height:400px;""></img>",2,html-button-response,179,774813,0.0-14.0-13.0,2398,List1A,black,woman,,TRUE,2,,,,,,,,,,
null,CORRECT,,html-keyboard-response,180,776334,0.0-14.0-14.0-0.0,2398,List1A,black,woman,,,,null,,,,,,,,,
975.9,"<img src=""portrait/WW2.jpg""style=""height:400px;""></img>",3,html-button-response,181,777311,0.0-14.0-16.0,2398,List1A,black,woman,,TRUE,3,,,,,,,,,,
null,CORRECT,,html-keyboard-response,182,778822,0.0-14.0-17.0-0.0,2398,List1A,black,woman,,,,null,,,,,,,,,
1623.7,"<img src=""portrait/BW1.jpg""style=""height:400px;""></img>",0,html-button-response,183,780447,0.0-14.0-19.0,2398,List1A,black,woman,,TRUE,0,,,,,,,,,,
null,CORRECT,,html-keyboard-response,184,781960,0.0-14.0-20.0-0.0,2398,List1A,black,woman,,,,null,,,,,,,,,
1488.4,"<img src=""portrait/WM1.jpg""style=""height:400px;""></img>",6,html-button-response,185,783449,0.0-14.0-22.0,2398,List1A,black,woman,,TRUE,6,,,,,,,,,,
null,CORRECT,,html-keyboard-response,186,784965,0.0-14.0-23.0-0.0,2398,List1A,black,woman,,,,null,,,,,,,,,
1359.9,<p>You got 8 out of 8 right first time. Press Continue.</p>,0,html-button-response,187,786325,0.0-14.0-25.0,2398,List1A,black,woman,,,,,,,,,,,,,
null,"<div style=""font-size:60px;"">+</div>",,html-keyboard-response,188,787835,0.0-15.0-0.0,2398,List1A,black,woman,,,,null,,,,,,,,,
null,"<img src=""stim_listA/greet2.gif""style=""height:400px;""></stim_listA>",,html-keyboard-response,189,789838,0.0-15.0-1.0,2398,List1A,black,woman,,,,null,,,,,,,,,
null,is being greeted by,,html-keyboard-response,190,791841,0.0-15.0-2.0,2398,List1A,black,woman,,,,null,,,,,,,,,
5318,,,survey-text,191,797162,0.0-15.0-3.0,2398,List1A,black,woman,,,,,"{""Q0"":""fred is being greeted by kate""}","<img src=""stim_listA/greet2.gif""style=""height:400px;""></stim_listA>",is being greeted by,,,,,,
null,"<div style=""font-size:60px;"">+</div>",,html-keyboard-response,192,797668,0.0-15.0-0.1,2398,List1A,black,woman,,,,null,,,,,,,,,
null,"<img src=""stim_listA/hug3.gif""style=""height:400px;""></stim_listA>",,html-keyboard-response,193,799681,0.0-15.0-1.1,2398,List1A,black,woman,,,,null,,,,,,,,,
null,is hugging,,html-keyboard-response,194,801683,0.0-15.0-2.1,2398,List1A,black,woman,,,,null,,,,,,,,,
5590.6,,,survey-text,195,807275,0.0-15.0-3.1,2398,List1A,black,woman,,,,,"{""Q0"":""luke is hugging ruth""}","<img src=""stim_listA/hug3.gif""style=""height:400px;""></stim_listA>",is hugging,,,,,,
null,"<div style=""font-size:60px;"">+</div>",,html-keyboard-response,196,807790,0.0-15.0-0.2,2398,List1A,black,woman,,,,null,,,,,,,,,
null,"<img src=""stim_listA/copy4.gif""style=""height:400px;""></stim_listA>",,html-keyboard-response,197,809800,0.0-15.0-1.2,2398,List1A,black,woman,,,,null,,,,,,,,,
null,is being copied by,,html-keyboard-response,198,811803,0.0-15.0-2.2,2398,List1A,black,woman,,,,null,,,,,,,,,
8071.6,,,survey-text,199,819876,0.0-15.0-3.2,2398,List1A,black,woman,,,,,"{""Q0"":""luke is being copied by jane""}","<img src=""stim_listA/copy4.gif""style=""height:400px;""></stim_listA>",is being copied by,,,,,,
null,"<div style=""font-size:60px;"">+</div>",,html-keyboard-response,200,820384,0.0-15.0-0.3,2398,List1A,black,woman,,,,null,,,,,,,,,
null,"<img src=""stim_listA/touch3.gif""style=""height:400px;""></stim_listA>",,html-keyboard-response,201,822388,0.0-15.0-1.3,2398,List1A,black,woman,,,,null,,,,,,,,,
null,is touching,,html-keyboard-response,202,824395,0.0-15.0-2.3,2398,List1A,black,woman,,,,null,,,,,,,,,
4579.1,,,survey-text,203,828976,0.0-15.0-3.3,2398,List1A,black,woman,,,,,"{""Q0"":""jane is touch dave""}","<img src=""stim_listA/touch3.gif""style=""height:400px;""></stim_listA>",is touching,,,,,,
null,"<div style=""font-size:60px;"">+</div>",,html-keyboard-response,204,829482,0.0-15.0-0.4,2398,List1A,black,woman,,,,null,,,,,,,,,
null,"<img src=""stim_listA/kiss1.gif""style=""height:400px;""></stim_listA>",,html-keyboard-response,205,831485,0.0-15.0-1.4,2398,List1A,black,woman,,,,null,,,,,,,,,
null,is kissing,,html-keyboard-response,206,833487,0.0-15.0-2.4,2398,List1A,black,woman,,,,null,,,,,,,,,
4501.6,,,survey-text,207,837991,0.0-15.0-3.4,2398,List1A,black,woman,,,,,"{""Q0"":""beth is kissing fred""}","<img src=""stim_listA/kiss1.gif""style=""height:400px;""></stim_listA>",is kissing,,,,,,
null,"<div style=""font-size:60px;"">+</div>",,html-keyboard-response,208,838494,0.0-15.0-0.5,2398,List1A,black,woman,,,,null,,,,,,,,,
null,"<img src=""stim_listA/hug6.gif""style=""height:400px;""></stim_listA>",,html-keyboard-response,209,840500,0.0-15.0-1.5,2398,List1A,black,woman,,,,null,,,,,,,,,
null,is being hugged by,,html-keyboard-response,210,842501,0.0-15.0-2.5,2398,List1A,black,woman,,,,null,,,,,,,,,
5595.9,,,survey-text,211,848100,0.0-15.0-3.5,2398,List1A,black,woman,,,,,"{""Q0"":""dave is being hugged by mike""}","<img src=""stim_listA/hug6.gif""style=""height:400px;""></stim_listA>",is being hugged by,,,,,,
null,"<div style=""font-size:60px;"">+</div>",,html-keyboard-response,212,848607,0.0-15.0-0.6,2398,List1A,black,woman,,,,null,,,,,,,,,
null,"<img src=""stim_listA/kiss2.gif""style=""height:400px;""></stim_listA>",,html-keyboard-response,213,850620,0.0-15.0-1.6,2398,List1A,black,woman,,,,null,,,,,,,,,
null,is being kissed by,,html-keyboard-response,214,852624,0.0-15.0-2.6,2398,List1A,black,woman,,,,null,,,,,,,,,
5972.3,,,survey-text,215,858598,0.0-15.0-3.6,2398,List1A,black,woman,,,,,"{""Q0"":""kate is being kissed by mike""}","<img src=""stim_listA/kiss2.gif""style=""height:400px;""></stim_listA>",is being kissed by,,,,,,
null,"<div style=""font-size:60px;"">+</div>",,html-keyboard-response,216,859112,0.0-15.0-0.7,2398,List1A,black,woman,,,,null,,,,,,,,,
null,"<img src=""stim_listA/copy5.gif""style=""height:400px;""></stim_listA>",,html-keyboard-response,217,861128,0.0-15.0-1.7,2398,List1A,black,woman,,,,null,,,,,,,,,
null,is copying,,html-keyboard-response,218,863143,0.0-15.0-2.7,2398,List1A,black,woman,,,,null,,,,,,,,,
9067.8,,,survey-text,219,872213,0.0-15.0-3.7,2398,List1A,black,woman,,,,,"{""Q0"":""luke is copying mike""}","<img src=""stim_listA/copy5.gif""style=""height:400px;""></stim_listA>",is copying,,,,,,
null,"<div style=""font-size:60px;"">+</div>",,html-keyboard-response,220,872716,0.0-15.0-0.8,2398,List1A,black,woman,,,,null,,,,,,,,,
null,"<img src=""stim_listA/shout6.gif""style=""height:400px;""></stim_listA>",,html-keyboard-response,221,874725,0.0-15.0-1.8,2398,List1A,black,woman,,,,null,,,,,,,,,
null,is being shouted at by,,html-keyboard-response,222,876731,0.0-15.0-2.8,2398,List1A,black,woman,,,,null,,,,,,,,,
6557.9,,,survey-text,223,883291,0.0-15.0-3.8,2398,List1A,black,woman,,,,,"{""Q0"":""dave is being shouted at by mike""}","<img src=""stim_listA/shout6.gif""style=""height:400px;""></stim_listA>",is being shouted at by,,,,,,
null,"<div style=""font-size:60px;"">+</div>",,html-keyboard-response,224,883795,0.0-15.0-0.9,2398,List1A,black,woman,,,,null,,,,,,,,,
null,"<img src=""stim_listA/hug8.gif""style=""height:400px;""></stim_listA>",,html-keyboard-response,225,885813,0.0-15.0-1.9,2398,List1A,black,woman,,,,null,,,,,,,,,
null,is being hugged by,,html-keyboard-response,226,887817,0.0-15.0-2.9,2398,List1A,black,woman,,,,null,,,,,,,,,
7124,,,survey-text,227,894943,0.0-15.0-3.9,2398,List1A,black,woman,,,,,"{""Q0"":""jane is being hugged by kate""}","<img src=""stim_listA/hug8.gif""style=""height:400px;""></stim_listA>",is being hugged by,,,,,,
null,"<div style=""font-size:60px;"">+</div>",,html-keyboard-response,228,895454,0.0-15.0-0.10,2398,List1A,black,woman,,,,null,,,,,,,,,
null,"<img src=""stim_listA/hug2.gif""style=""height:400px;""></stim_listA>",,html-keyboard-response,229,897469,0.0-15.0-1.10,2398,List1A,black,woman,,,,null,,,,,,,,,
null,is being hugged by,,html-keyboard-response,230,899483,0.0-15.0-2.10,2398,List1A,black,woman,,,,null,,,,,,,,,
8538.4,,,survey-text,231,908023,0.0-15.0-3.10,2398,List1A,black,woman,,,,,"{""Q0"":""kate is being hugged by mike""}","<img src=""stim_listA/hug2.gif""style=""height:400px;""></stim_listA>",is being hugged by,,,,,,
null,"<div style=""font-size:60px;"">+</div>",,html-keyboard-response,232,908537,0.0-15.0-0.11,2398,List1A,black,woman,,,,null,,,,,,,,,
null,"<img src=""stim_listA/greet8.gif""style=""height:400px;""></stim_listA>",,html-keyboard-response,233,910540,0.0-15.0-1.11,2398,List1A,black,woman,,,,null,,,,,,,,,
null,is being greeted by,,html-keyboard-response,234,912549,0.0-15.0-2.11,2398,List1A,black,woman,,,,null,,,,,,,,,
6592.1,,,survey-text,235,919143,0.0-15.0-3.11,2398,List1A,black,woman,,,,,"{""Q0"":""jane is being greeted by beth""}","<img src=""stim_listA/greet8.gif""style=""height:400px;""></stim_listA>",is being greeted by,,,,,,
null,"<div style=""font-size:60px;"">+</div>",,html-keyboard-response,236,919654,0.0-15.0-0.12,2398,List1A,black,woman,,,,null,,,,,,,,,
null,"<img src=""stim_listA/oppose5.gif""style=""height:400px;""></stim_listA>",,html-keyboard-response,237,921669,0.0-15.0-1.12,2398,List1A,black,woman,,,,null,,,,,,,,,
null,is opposing,,html-keyboard-response,238,923672,0.0-15.0-2.12,2398,List1A,black,woman,,,,null,,,,,,,,,
4324.3,,,survey-text,239,927999,0.0-15.0-3.12,2398,List1A,black,woman,,,,,"{""Q0"":""mike is opposing dave""}","<img src=""stim_listA/oppose5.gif""style=""height:400px;""></stim_listA>",is opposing,,,,,,
null,"<div style=""font-size:60px;"">+</div>",,html-keyboard-response,240,928506,0.0-15.0-0.13,2398,List1A,black,woman,,,,null,,,,,,,,,
null,"<img src=""stim_listA/hug5.gif""style=""height:400px;""></stim_listA>",,html-keyboard-response,241,930517,0.0-15.0-1.13,2398,List1A,black,woman,,,,null,,,,,,,,,
null,is hugging,,html-keyboard-response,242,932525,0.0-15.0-2.13,2398,List1A,black,woman,,,,null,,,,,,,,,
4320.3,,,survey-text,243,936847,0.0-15.0-3.13,2398,List1A,black,woman,,,,,"{""Q0"":""fred is hugging luke""}","<img src=""stim_listA/hug5.gif""style=""height:400px;""></stim_listA>",is hugging,,,,,,
null,"<div style=""font-size:60px;"">+</div>",,html-keyboard-response,244,937353,0.0-15.0-0.14,2398,List1A,black,woman,,,,null,,,,,,,,,
null,"<img src=""stim_listA/copy2.gif""style=""height:400px;""></stim_listA>",,html-keyboard-response,245,939357,0.0-15.0-1.14,2398,List1A,black,woman,,,,null,,,,,,,,,
null,is being copied by,,html-keyboard-response,246,941365,0.0-15.0-2.14,2398,List1A,black,woman,,,,null,,,,,,,,,
6718.8,,,survey-text,247,948086,0.0-15.0-3.14,2398,List1A,black,woman,,,,,"{""Q0"":""fred is being copied by kate""}","<img src=""stim_listA/copy2.gif""style=""height:400px;""></stim_listA>",is being copied by,,,,,,
null,"<div style=""font-size:60px;"">+</div>",,html-keyboard-response,248,948594,0.0-15.0-0.15,2398,List1A,black,woman,,,,null,,,,,,,,,
null,"<img src=""stim_listA/seduce6.gif""style=""height:400px;""></stim_listA>",,html-keyboard-response,249,950602,0.0-15.0-1.15,2398,List1A,black,woman,,,,null,,,,,,,,,
null,is being seduced by,,html-keyboard-response,250,952618,0.0-15.0-2.15,2398,List1A,black,woman,,,,null,,,,,,,,,
5844.8,,,survey-text,251,958465,0.0-15.0-3.15,2398,List1A,black,woman,,,,,"{""Q0"":""luke is being seduced by mike""}","<img src=""stim_listA/seduce6.gif""style=""height:400px;""></stim_listA>",is being seduced by,,,,,,
null,"<div style=""font-size:60px;"">+</div>",,html-keyboard-response,252,958971,0.0-15.0-0.16,2398,List1A,black,woman,,,,null,,,,,,,,,
null,"<img src=""stim_listA/touch1.gif""style=""height:400px;""></stim_listA>",,html-keyboard-response,253,960989,0.0-15.0-1.16,2398,List1A,black,woman,,,,null,,,,,,,,,
null,is touching,,html-keyboard-response,254,963005,0.0-15.0-2.16,2398,List1A,black,woman,,,,null,,,,,,,,,
5200.5,,,survey-text,255,968208,0.0-15.0-3.16,2398,List1A,black,woman,,,,,"{""Q0"":""mike is touching kate""}","<img src=""stim_listA/touch1.gif""style=""height:400px;""></stim_listA>",is touching,,,,,,
null,"<div style=""font-size:60px;"">+</div>",,html-keyboard-response,256,968713,0.0-15.0-0.17,2398,List1A,black,woman,,,,null,,,,,,,,,
null,"<img src=""stim_listA/seduce5.gif""style=""height:400px;""></stim_listA>",,html-keyboard-response,257,970718,0.0-15.0-1.17,2398,List1A,black,woman,,,,null,,,,,,,,,
null,is seducing,,html-keyboard-response,258,972723,0.0-15.0-2.17,2398,List1A,black,woman,,,,null,,,,,,,,,
3969.5,,,survey-text,259,976694,0.0-15.0-3.17,2398,List1A,black,woman,,,,,"{""Q0"":""fred is seducing dave""}","<img src=""stim_listA/seduce5.gif""style=""height:400px;""></stim_listA>",is seducing,,,,,,
null,"<div style=""font-size:60px;"">+</div>",,html-keyboard-response,260,977201,0.0-15.0-0.18,2398,List1A,black,woman,,,,null,,,,,,,,,
null,"<img src=""stim_listA/seduce3.gif""style=""height:400px;""></stim_listA>",,html-keyboard-response,261,979204,0.0-15.0-1.18,2398,List1A,black,woman,,,,null,,,,,,,,,
null,is seducing,,html-keyboard-response,262,981220,0.0-15.0-2.18,2398,List1A,black,woman,,,,null,,,,,,,,,
5116.9,,,survey-text,263,986339,0.0-15.0-3.18,2398,List1A,black,woman,,,,,"{""Q0"":""luke is seducing jane""}","<img src=""stim_listA/seduce3.gif""style=""height:400px;""></stim_listA>",is seducing,,,,,,
null,"<div style=""font-size:60px;"">+</div>",,html-keyboard-response,264,986845,0.0-15.0-0.19,2398,List1A,black,woman,,,,null,,,,,,,,,
null,"<img src=""stim_listA/greet5.gif""style=""height:400px;""></stim_listA>",,html-keyboard-response,265,988860,0.0-15.0-1.19,2398,List1A,black,woman,,,,null,,,,,,,,,
null,is greeting,,html-keyboard-response,266,990877,0.0-15.0-2.19,2398,List1A,black,woman,,,,null,,,,,,,,,
4219.9,,,survey-text,267,995099,0.0-15.0-3.19,2398,List1A,black,woman,,,,,"{""Q0"":""luke is greeting mike""}","<img src=""stim_listA/greet5.gif""style=""height:400px;""></stim_listA>",is greeting,,,,,,
13929.2,"<img src='img/portrait_matrix_list1.jpg' style='width:900px;height:500px;''></img><p>If you have memorised all the portraits and names and are ready to start, press Continue.</p><p><strong>Please note: Your memory of these faces will be tested 4 times during this experiment.</strong></p>",0,html-button-response,268,1009029,0.0-16.0-0.0,2398,List1A,black,woman,,,,,,,,,,,,,
3945.6,"<img src=""portrait/WM2.jpg""style=""height:400px;""></img>",7,html-button-response,269,1013982,0.0-16.0-1.0,2398,List1A,black,woman,,TRUE,7,,,,,,,,,,
null,CORRECT,,html-keyboard-response,270,1015502,0.0-16.0-2.0-0.0,2398,List1A,black,woman,,,,null,,,,,,,,,
1464,"<img src=""portrait/BW2.jpg""style=""height:400px;""></img>",2,html-button-response,271,1016968,0.0-16.0-4.0,2398,List1A,black,woman,,TRUE,2,,,,,,,,,,
null,CORRECT,,html-keyboard-response,272,1018481,0.0-16.0-5.0-0.0,2398,List1A,black,woman,,,,null,,,,,,,,,
1585.2,"<img src=""portrait/BW1.jpg""style=""height:400px;""></img>",0,html-button-response,273,1020067,0.0-16.0-7.0,2398,List1A,black,woman,,TRUE,0,,,,,,,,,,
null,CORRECT,,html-keyboard-response,274,1021589,0.0-16.0-8.0-0.0,2398,List1A,black,woman,,,,null,,,,,,,,,
1603.4,"<img src=""portrait/BM2.jpg""style=""height:400px;""></img>",5,html-button-response,275,1023194,0.0-16.0-10.0,2398,List1A,black,woman,,TRUE,5,,,,,,,,,,
null,CORRECT,,html-keyboard-response,276,1024715,0.0-16.0-11.0-0.0,2398,List1A,black,woman,,,,null,,,,,,,,,
1189.3,"<img src=""portrait/WM1.jpg""style=""height:400px;""></img>",6,html-button-response,277,1025906,0.0-16.0-13.0,2398,List1A,black,woman,,TRUE,6,,,,,,,,,,
null,CORRECT,,html-keyboard-response,278,1027415,0.0-16.0-14.0-0.0,2398,List1A,black,woman,,,,null,,,,,,,,,
1549.5,"<img src=""portrait/BM1.jpg""style=""height:400px;""></img>",4,html-button-response,279,1028966,0.0-16.0-16.0,2398,List1A,black,woman,,TRUE,4,,,,,,,,,,
null,CORRECT,,html-keyboard-response,280,1030491,0.0-16.0-17.0-0.0,2398,List1A,black,woman,,,,null,,,,,,,,,
1347.4,"<img src=""portrait/WW2.jpg""style=""height:400px;""></img>",3,html-button-response,281,1031840,0.0-16.0-19.0,2398,List1A,black,woman,,TRUE,3,,,,,,,,,,
null,CORRECT,,html-keyboard-response,282,1033370,0.0-16.0-20.0-0.0,2398,List1A,black,woman,,,,null,,,,,,,,,
1548.1,"<img src=""portrait/WW1.jpg""style=""height:400px;""></img>",1,html-button-response,283,1034920,0.0-16.0-22.0,2398,List1A,black,woman,,TRUE,1,,,,,,,,,,
null,CORRECT,,html-keyboard-response,284,1036436,0.0-16.0-23.0-0.0,2398,List1A,black,woman,,,,null,,,,,,,,,
1212.4,<p>You got 8 out of 8 right first time. Press Continue.</p>,0,html-button-response,285,1037650,0.0-16.0-25.0,2398,List1A,black,woman,,,,,,,,,,,,,
null,"<div style=""font-size:60px;"">+</div>",,html-keyboard-response,286,1039166,0.0-17.0-0.0,2398,List1A,black,woman,,,,null,,,,,,,,,
null,"<img src=""stim_listA/seduce2.gif""style=""height:400px;""></stim_listA>",,html-keyboard-response,287,1041179,0.0-17.0-1.0,2398,List1A,black,woman,,,,null,,,,,,,,,
null,is being seduced by,,html-keyboard-response,288,1043186,0.0-17.0-2.0,2398,List1A,black,woman,,,,null,,,,,,,,,
5793.6,,,survey-text,289,1048982,0.0-17.0-3.0,2398,List1A,black,woman,,,,,"{""Q0"":""beth is being seduced by mike""}","<img src=""stim_listA/seduce2.gif""style=""height:400px;""></stim_listA>",is being seduced by,,,,,,
null,"<div style=""font-size:60px;"">+</div>",,html-keyboard-response,290,1049487,0.0-17.0-0.1,2398,List1A,black,woman,,,,null,,,,,,,,,
null,"<img src=""stim_listA/shout1.gif""style=""height:400px;""></stim_listA>",,html-keyboard-response,291,1051503,0.0-17.0-1.1,2398,List1A,black,woman,,,,null,,,,,,,,,
null,is shouting at,,html-keyboard-response,292,1053517,0.0-17.0-2.1,2398,List1A,black,woman,,,,null,,,,,,,,,
7014,,,survey-text,293,1060533,0.0-17.0-3.1,2398,List1A,black,woman,,,,,"{""Q0"":""fred is shouting at beth""}","<img src=""stim_listA/shout1.gif""style=""height:400px;""></stim_listA>",is shouting at,,,,,,
null,"<div style=""font-size:60px;"">+</div>",,html-keyboard-response,294,1061048,0.0-17.0-0.2,2398,List1A,black,woman,,,,null,,,,,,,,,
null,"<img src=""stim_listA/touch5.gif""style=""height:400px;""></stim_listA>",,html-keyboard-response,295,1063061,0.0-17.0-1.2,2398,List1A,black,woman,,,,null,,,,,,,,,
null,is touching,,html-keyboard-response,296,1065075,0.0-17.0-2.2,2398,List1A,black,woman,,,,null,,,,,,,,,
4455.4,,,survey-text,297,1069532,0.0-17.0-3.2,2398,List1A,black,woman,,,,,"{""Q0"":""dave is touching mike""}","<img src=""stim_listA/touch5.gif""style=""height:400px;""></stim_listA>",is touching,,,,,,
null,"<div style=""font-size:60px;"">+</div>",,html-keyboard-response,298,1070036,0.0-17.0-0.3,2398,List1A,black,woman,,,,null,,,,,,,,,
null,"<img src=""stim_listA/copy6.gif""style=""height:400px;""></stim_listA>",,html-keyboard-response,299,1072046,0.0-17.0-1.3,2398,List1A,black,woman,,,,null,,,,,,,,,
null,is being copied by,,html-keyboard-response,300,1074047,0.0-17.0-2.3,2398,List1A,black,woman,,,,null,,,,,,,,,
6151.1,,,survey-text,301,1080200,0.0-17.0-3.3,2398,List1A,black,woman,,,,,"{""Q0"":""dave is being copied by fred""}","<img src=""stim_listA/copy6.gif""style=""height:400px;""></stim_listA>",is being copied by,,,,,,
null,"<div style=""font-size:60px;"">+</div>",,html-keyboard-response,302,1080703,0.0-17.0-0.4,2398,List1A,black,woman,,,,null,,,,,,,,,
null,"<img src=""stim_listA/look2.gif""style=""height:400px;""></stim_listA>",,html-keyboard-response,303,1082715,0.0-17.0-1.4,2398,List1A,black,woman,,,,null,,,,,,,,,
null,is being looked at by,,html-keyboard-response,304,1084730,0.0-17.0-2.4,2398,List1A,black,woman,,,,null,,,,,,,,,
5703.2,,,survey-text,305,1090435,0.0-17.0-3.4,2398,List1A,black,woman,,,,,"{""Q0"":""kate is being looked at by mike""}","<img src=""stim_listA/look2.gif""style=""height:400px;""></stim_listA>",is being looked at by,,,,,,
null,"<div style=""font-size:60px;"">+</div>",,html-keyboard-response,306,1090940,0.0-17.0-0.5,2398,List1A,black,woman,,,,null,,,,,,,,,
null,"<img src=""stim_listA/look7.gif""style=""height:400px;""></stim_listA>",,html-keyboard-response,307,1092943,0.0-17.0-1.5,2398,List1A,black,woman,,,,null,,,,,,,,,
null,is looking at,,html-keyboard-response,308,1094948,0.0-17.0-2.5,2398,List1A,black,woman,,,,null,,,,,,,,,
4794.6,,,survey-text,309,1099745,0.0-17.0-3.5,2398,List1A,black,woman,,,,,"{""Q0"":""ruth is looking at beth""}","<img src=""stim_listA/look7.gif""style=""height:400px;""></stim_listA>",is looking at,,,,,,
null,"<div style=""font-size:60px;"">+</div>",,html-keyboard-response,310,1100252,0.0-17.0-0.6,2398,List1A,black,woman,,,,null,,,,,,,,,
null,"<img src=""stim_listA/touch8.gif""style=""height:400px;""></stim_listA>",,html-keyboard-response,311,1102266,0.0-17.0-1.6,2398,List1A,black,woman,,,,null,,,,,,,,,
null,is being touched by,,html-keyboard-response,312,1104275,0.0-17.0-2.6,2398,List1A,black,woman,,,,null,,,,,,,,,
6223.8,,,survey-text,313,1110501,0.0-17.0-3.6,2398,List1A,black,woman,,,,,"{""Q0"":""ruth is being touched by beth""}","<img src=""stim_listA/touch8.gif""style=""height:400px;""></stim_listA>",is being touched by,,,,,,
null,"<div style=""font-size:60px;"">+</div>",,html-keyboard-response,314,1111007,0.0-17.0-0.7,2398,List1A,black,woman,,,,null,,,,,,,,,
null,"<img src=""stim_listA/oppose2.gif""style=""height:400px;""></stim_listA>",,html-keyboard-response,315,1113011,0.0-17.0-1.7,2398,List1A,black,woman,,,,null,,,,,,,,,
null,is being opposed by,,html-keyboard-response,316,1115022,0.0-17.0-2.7,2398,List1A,black,woman,,,,null,,,,,,,,,
6674.6,,,survey-text,317,1121699,0.0-17.0-3.7,2398,List1A,black,woman,,,,,"{""Q0"":""beth is being opposed by fred""}","<img src=""stim_listA/oppose2.gif""style=""height:400px;""></stim_listA>",is being opposed by,,,,,,
null,"<div style=""font-size:60px;"">+</div>",,html-keyboard-response,318,1122205,0.0-17.0-0.8,2398,List1A,black,woman,,,,null,,,,,,,,,
null,"<img src=""stim_listA/copy7.gif""style=""height:400px;""></stim_listA>",,html-keyboard-response,319,1124219,0.0-17.0-1.8,2398,List1A,black,woman,,,,null,,,,,,,,,
null,is copying,,html-keyboard-response,320,1126225,0.0-17.0-2.8,2398,List1A,black,woman,,,,null,,,,,,,,,
6069.3,,,survey-text,321,1132297,0.0-17.0-3.8,2398,List1A,black,woman,,,,,"{""Q0"":""ruth is coping kate""}","<img src=""stim_listA/copy7.gif""style=""height:400px;""></stim_listA>",is copying,,,,,,
null,"<div style=""font-size:60px;"">+</div>",,html-keyboard-response,322,1132817,0.0-17.0-0.9,2398,List1A,black,woman,,,,null,,,,,,,,,
null,"<img src=""stim_listA/greet3.gif""style=""height:400px;""></stim_listA>",,html-keyboard-response,323,1134831,0.0-17.0-1.9,2398,List1A,black,woman,,,,null,,,,,,,,,
null,is greeting,,html-keyboard-response,324,1136844,0.0-17.0-2.9,2398,List1A,black,woman,,,,null,,,,,,,,,
7017.7,,,survey-text,325,1143865,0.0-17.0-3.9,2398,List1A,black,woman,,,,,"{""Q0"":""ruth is greeting dave""}","<img src=""stim_listA/greet3.gif""style=""height:400px;""></stim_listA>",is greeting,,,,,,
null,"<div style=""font-size:60px;"">+</div>",,html-keyboard-response,326,1144366,0.0-17.0-0.10,2398,List1A,black,woman,,,,null,,,,,,,,,
null,"<img src=""stim_listA/shout8.gif""style=""height:400px;""></stim_listA>",,html-keyboard-response,327,1146376,0.0-17.0-1.10,2398,List1A,black,woman,,,,null,,,,,,,,,
null,is being shouted at by,,html-keyboard-response,328,1148387,0.0-17.0-2.10,2398,List1A,black,woman,,,,null,,,,,,,,,
7611.9,,,survey-text,329,1156001,0.0-17.0-3.10,2398,List1A,black,woman,,,,,"{""Q0"":""jane is being shouted at by kate""}","<img src=""stim_listA/shout8.gif""style=""height:400px;""></stim_listA>",is being shouted at by,,,,,,
null,"<div style=""font-size:60px;"">+</div>",,html-keyboard-response,330,1156509,0.0-17.0-0.11,2398,List1A,black,woman,,,,null,,,,,,,,,
null,"<img src=""stim_listA/challenge8.gif""style=""height:400px;""></stim_listA>",,html-keyboard-response,331,1158514,0.0-17.0-1.11,2398,List1A,black,woman,,,,null,,,,,,,,,
null,is being challenged by,,html-keyboard-response,332,1160520,0.0-17.0-2.11,2398,List1A,black,woman,,,,null,,,,,,,,,
6802.2,,,survey-text,333,1167324,0.0-17.0-3.11,2398,List1A,black,woman,,,,,"{""Q0"":""beth is being challenged by jane""}","<img src=""stim_listA/challenge8.gif""style=""height:400px;""></stim_listA>",is being challenged by,,,,,,
null,"<div style=""font-size:60px;"">+</div>",,html-keyboard-response,334,1167836,0.0-17.0-0.12,2398,List1A,black,woman,,,,null,,,,,,,,,
null,"<img src=""stim_listA/look1.gif""style=""height:400px;""></stim_listA>",,html-keyboard-response,335,1169847,0.0-17.0-1.12,2398,List1A,black,woman,,,,null,,,,,,,,,
null,is looking at,,html-keyboard-response,336,1171853,0.0-17.0-2.12,2398,List1A,black,woman,,,,null,,,,,,,,,
4242.8,,,survey-text,337,1176098,0.0-17.0-3.12,2398,List1A,black,woman,,,,,"{""Q0"":""fred is looking at beth""}","<img src=""stim_listA/look1.gif""style=""height:400px;""></stim_listA>",is looking at,,,,,,
null,"<div style=""font-size:60px;"">+</div>",,html-keyboard-response,338,1176612,0.0-17.0-0.13,2398,List1A,black,woman,,,,null,,,,,,,,,
null,"<img src=""stim_listA/look6.gif""style=""height:400px;""></stim_listA>",,html-keyboard-response,339,1178621,0.0-17.0-1.13,2398,List1A,black,woman,,,,null,,,,,,,,,
null,is being looked at by,,html-keyboard-response,340,1180636,0.0-17.0-2.13,2398,List1A,black,woman,,,,null,,,,,,,,,
6743.1,,,survey-text,341,1187381,0.0-17.0-3.13,2398,List1A,black,woman,,,,,"{""Q0"":""dave is being looked at by mike""}","<img src=""stim_listA/look6.gif""style=""height:400px;""></stim_listA>",is being looked at by,,,,,,
null,"<div style=""font-size:60px;"">+</div>",,html-keyboard-response,342,1187898,0.0-17.0-0.14,2398,List1A,black,woman,,,,null,,,,,,,,,
null,"<img src=""stim_listA/hug4.gif""style=""height:400px;""></stim_listA>",,html-keyboard-response,343,1189901,0.0-17.0-1.14,2398,List1A,black,woman,,,,null,,,,,,,,,
null,is being hugged by,,html-keyboard-response,344,1191917,0.0-17.0-2.14,2398,List1A,black,woman,,,,null,,,,,,,,,
4987.4,,,survey-text,345,1196907,0.0-17.0-3.14,2398,List1A,black,woman,,,,,"{""Q0"":""dave is being hugged by jane""}","<img src=""stim_listA/hug4.gif""style=""height:400px;""></stim_listA>",is being hugged by,,,,,,
null,"<div style=""font-size:60px;"">+</div>",,html-keyboard-response,346,1197414,0.0-17.0-0.15,2398,List1A,black,woman,,,,null,,,,,,,,,
null,"<img src=""stim_listA/hug1.gif""style=""height:400px;""></stim_listA>",,html-keyboard-response,347,1199431,0.0-17.0-1.15,2398,List1A,black,woman,,,,null,,,,,,,,,
null,is hugging,,html-keyboard-response,348,1201439,0.0-17.0-2.15,2398,List1A,black,woman,,,,null,,,,,,,,,
3996.5,,,survey-text,349,1205439,0.0-17.0-3.15,2398,List1A,black,woman,,,,,"{""Q0"":""beth is hugging fred""}","<img src=""stim_listA/hug1.gif""style=""height:400px;""></stim_listA>",is hugging,,,,,,
null,"<div style=""font-size:60px;"">+</div>",,html-keyboard-response,350,1205945,0.0-17.0-0.16,2398,List1A,black,woman,,,,null,,,,,,,,,
null,"<img src=""stim_listA/touch4.gif""style=""height:400px;""></stim_listA>",,html-keyboard-response,351,1207957,0.0-17.0-1.16,2398,List1A,black,woman,,,,null,,,,,,,,,
null,is being touched by,,html-keyboard-response,352,1209974,0.0-17.0-2.16,2398,List1A,black,woman,,,,null,,,,,,,,,
5416.3,,,survey-text,353,1215392,0.0-17.0-3.16,2398,List1A,black,woman,,,,,"{""Q0"":""luke is being touched by ruth""}","<img src=""stim_listA/touch4.gif""style=""height:400px;""></stim_listA>",is being touched by,,,,,,
null,"<div style=""font-size:60px;"">+</div>",,html-keyboard-response,354,1215897,0.0-17.0-0.17,2398,List1A,black,woman,,,,null,,,,,,,,,
null,"<img src=""stim_listA/challenge5.gif""style=""height:400px;""></stim_listA>",,html-keyboard-response,355,1217909,0.0-17.0-1.17,2398,List1A,black,woman,,,,null,,,,,,,,,
null,is challenging,,html-keyboard-response,356,1219922,0.0-17.0-2.17,2398,List1A,black,woman,,,,null,,,,,,,,,
5582.2,,,survey-text,357,1225507,0.0-17.0-3.17,2398,List1A,black,woman,,,,,"{""Q0"":""mike is challenging luke""}","<img src=""stim_listA/challenge5.gif""style=""height:400px;""></stim_listA>",is challenging,,,,,,
null,"<div style=""font-size:60px;"">+</div>",,html-keyboard-response,358,1226016,0.0-17.0-0.18,2398,List1A,black,woman,,,,null,,,,,,,,,
null,"<img src=""stim_listA/kiss3.gif""style=""height:400px;""></stim_listA>",,html-keyboard-response,359,1228021,0.0-17.0-1.18,2398,List1A,black,woman,,,,null,,,,,,,,,
null,is kissing,,html-keyboard-response,360,1230036,0.0-17.0-2.18,2398,List1A,black,woman,,,,null,,,,,,,,,
6517.3,,,survey-text,361,1236556,0.0-17.0-3.18,2398,List1A,black,woman,,,,,"{""Q0"":""ruth is kissing luke""}","<img src=""stim_listA/kiss3.gif""style=""height:400px;""></stim_listA>",is kissing,,,,,,
null,"<div style=""font-size:60px;"">+</div>",,html-keyboard-response,362,1237064,0.0-17.0-0.19,2398,List1A,black,woman,,,,null,,,,,,,,,
null,"<img src=""stim_listA/challenge1.gif""style=""height:400px;""></stim_listA>",,html-keyboard-response,363,1239104,0.0-17.0-1.19,2398,List1A,black,woman,,,,null,,,,,,,,,
null,is challenging,,html-keyboard-response,364,1241106,0.0-17.0-2.19,2398,List1A,black,woman,,,,null,,,,,,,,,
17231.2,,,survey-text,365,1258340,0.0-17.0-3.19,2398,List1A,black,woman,,,,,"{""Q0"":""d""}","<img src=""stim_listA/challenge1.gif""style=""height:400px;""></stim_listA>",is challenging,,,,,,
8820.1,"<img src='img/portrait_matrix_list1.jpg' style='width:900px;height:500px;''></img><p>If you have memorised all the portraits and names and are ready to start, press Continue.</p><p><strong>Please note: Your memory of these faces will be tested 4 times during this experiment.</strong></p>",0,html-button-response,366,1267162,0.0-18.0-0.0,2398,List1A,black,woman,,,,,,,,,,,,,
2226.1,"<img src=""portrait/WM1.jpg""style=""height:400px;""></img>",6,html-button-response,367,1270396,0.0-18.0-1.0,2398,List1A,black,woman,,TRUE,6,,,,,,,,,,
null,CORRECT,,html-keyboard-response,368,1271901,0.0-18.0-2.0-0.0,2398,List1A,black,woman,,,,null,,,,,,,,,
1197.6,"<img src=""portrait/BM1.jpg""style=""height:400px;""></img>",4,html-button-response,369,1273099,0.0-18.0-4.0,2398,List1A,black,woman,,TRUE,4,,,,,,,,,,
null,CORRECT,,html-keyboard-response,370,1274616,0.0-18.0-5.0-0.0,2398,List1A,black,woman,,,,null,,,,,,,,,
1976.6,"<img src=""portrait/BM2.jpg""style=""height:400px;""></img>",5,html-button-response,371,1276593,0.0-18.0-7.0,2398,List1A,black,woman,,TRUE,5,,,,,,,,,,
null,CORRECT,,html-keyboard-response,372,1278106,0.0-18.0-8.0-0.0,2398,List1A,black,woman,,,,null,,,,,,,,,
1942.7,"<img src=""portrait/BW2.jpg""style=""height:400px;""></img>",2,html-button-response,373,1280049,0.0-18.0-10.0,2398,List1A,black,woman,,TRUE,2,,,,,,,,,,
null,CORRECT,,html-keyboard-response,374,1281565,0.0-18.0-11.0-0.0,2398,List1A,black,woman,,,,null,,,,,,,,,
2160.6,"<img src=""portrait/BW1.jpg""style=""height:400px;""></img>",0,html-button-response,375,1283727,0.0-18.0-13.0,2398,List1A,black,woman,,TRUE,0,,,,,,,,,,
null,CORRECT,,html-keyboard-response,376,1285247,0.0-18.0-14.0-0.0,2398,List1A,black,woman,,,,null,,,,,,,,,
1338.4,"<img src=""portrait/WW2.jpg""style=""height:400px;""></img>",3,html-button-response,377,1286587,0.0-18.0-16.0,2398,List1A,black,woman,,TRUE,3,,,,,,,,,,
null,CORRECT,,html-keyboard-response,378,1288111,0.0-18.0-17.0-0.0,2398,List1A,black,woman,,,,null,,,,,,,,,
1354.8,"<img src=""portrait/WW1.jpg""style=""height:400px;""></img>",1,html-button-response,379,1289467,0.0-18.0-19.0,2398,List1A,black,woman,,TRUE,1,,,,,,,,,,
null,CORRECT,,html-keyboard-response,380,1290990,0.0-18.0-20.0-0.0,2398,List1A,black,woman,,,,null,,,,,,,,,
1476,"<img src=""portrait/WM2.jpg""style=""height:400px;""></img>",7,html-button-response,381,1292469,0.0-18.0-22.0,2398,List1A,black,woman,,TRUE,7,,,,,,,,,,
null,CORRECT,,html-keyboard-response,382,1293992,0.0-18.0-23.0-0.0,2398,List1A,black,woman,,,,null,,,,,,,,,
1279.7,<p>You got 8 out of 8 right first time. Press Continue.</p>,0,html-button-response,383,1295273,0.0-18.0-25.0,2398,List1A,black,woman,,,,,,,,,,,,,
null,"<div style=""font-size:60px;"">+</div>",,html-keyboard-response,384,1296788,0.0-19.0-0.0,2398,List1A,black,woman,,,,null,,,,,,,,,
null,"<img src=""stim_listA/oppose4.gif""style=""height:400px;""></stim_listA>",,html-keyboard-response,385,1298799,0.0-19.0-1.0,2398,List1A,black,woman,,,,null,,,,,,,,,
null,is being opposed by,,html-keyboard-response,386,1300815,0.0-19.0-2.0,2398,List1A,black,woman,,,,null,,,,,,,,,
9145.2,,,survey-text,387,1309963,0.0-19.0-3.0,2398,List1A,black,woman,,,,,"{""Q0"":""ruth is being opposed by luke""}","<img src=""stim_listA/oppose4.gif""style=""height:400px;""></stim_listA>",is being opposed by,,,,,,
null,"<div style=""font-size:60px;"">+</div>",,html-keyboard-response,388,1310476,0.0-19.0-0.1,2398,List1A,black,woman,,,,null,,,,,,,,,
null,"<img src=""stim_listA/kiss8.gif""style=""height:400px;""></stim_listA>",,html-keyboard-response,389,1312488,0.0-19.0-1.1,2398,List1A,black,woman,,,,null,,,,,,,,,
null,is being kissed by,,html-keyboard-response,390,1314492,0.0-19.0-2.1,2398,List1A,black,woman,,,,null,,,,,,,,,
5493.4,,,survey-text,391,1319987,0.0-19.0-3.1,2398,List1A,black,woman,,,,,"{""Q0"":""kate is being kissed by jane""}","<img src=""stim_listA/kiss8.gif""style=""height:400px;""></stim_listA>",is being kissed by,,,,,,
null,"<div style=""font-size:60px;"">+</div>",,html-keyboard-response,392,1320496,0.0-19.0-0.2,2398,List1A,black,woman,,,,null,,,,,,,,,
null,"<img src=""stim_listA/challenge2.gif""style=""height:400px;""></stim_listA>",,html-keyboard-response,393,1322512,0.0-19.0-1.2,2398,List1A,black,woman,,,,null,,,,,,,,,
null,is being challenged by,,html-keyboard-response,394,1324516,0.0-19.0-2.2,2398,List1A,black,woman,,,,null,,,,,,,,,
6553.3,,,survey-text,395,1331072,0.0-19.0-3.2,2398,List1A,black,woman,,,,,"{""Q0"":""fred is being challenged by kate""}","<img src=""stim_listA/challenge2.gif""style=""height:400px;""></stim_listA>",is being challenged by,,,,,,
null,"<div style=""font-size:60px;"">+</div>",,html-keyboard-response,396,1331581,0.0-19.0-0.3,2398,List1A,black,woman,,,,null,,,,,,,,,
null,"<img src=""stim_listA/oppose8.gif""style=""height:400px;""></stim_listA>",,html-keyboard-response,397,1333595,0.0-19.0-1.3,2398,List1A,black,woman,,,,null,,,,,,,,,
null,is being opposed by,,html-keyboard-response,398,1335610,0.0-19.0-2.3,2398,List1A,black,woman,,,,null,,,,,,,,,
6862.4,,,survey-text,399,1342474,0.0-19.0-3.3,2398,List1A,black,woman,,,,,"{""Q0"":""beth is being opposed by ruth""}","<img src=""stim_listA/oppose8.gif""style=""height:400px;""></stim_listA>",is being opposed by,,,,,,
null,"<div style=""font-size:60px;"">+</div>",,html-keyboard-response,400,1342987,0.0-19.0-0.4,2398,List1A,black,woman,,,,null,,,,,,,,,
null,"<img src=""stim_listA/challenge4.gif""style=""height:400px;""></stim_listA>",,html-keyboard-response,401,1344992,0.0-19.0-1.4,2398,List1A,black,woman,,,,null,,,,,,,,,
null,is being challenged by,,html-keyboard-response,402,1347003,0.0-19.0-2.4,2398,List1A,black,woman,,,,null,,,,,,,,,
11107.4,,,survey-text,403,1358113,0.0-19.0-3.4,2398,List1A,black,woman,,,,,"{""Q0"":""luke is being challenged by ruth""}","<img src=""stim_listA/challenge4.gif""style=""height:400px;""></stim_listA>",is being challenged by,,,,,,
null,"<div style=""font-size:60px;"">+</div>",,html-keyboard-response,404,1358626,0.0-19.0-0.5,2398,List1A,black,woman,,,,null,,,,,,,,,
null,"<img src=""stim_listA/shout2.gif""style=""height:400px;""></stim_listA>",,html-keyboard-response,405,1360633,0.0-19.0-1.5,2398,List1A,black,woman,,,,null,,,,,,,,,
null,is being shouted at by,,html-keyboard-response,406,1362636,0.0-19.0-2.5,2398,List1A,black,woman,,,,null,,,,,,,,,
8330.9,,,survey-text,407,1370970,0.0-19.0-3.5,2398,List1A,black,woman,,,,,"{""Q0"":""mike is being shouted at by kate""}","<img src=""stim_listA/shout2.gif""style=""height:400px;""></stim_listA>",is being shouted at by,,,,,,
null,"<div style=""font-size:60px;"">+</div>",,html-keyboard-response,408,1371481,0.0-19.0-0.6,2398,List1A,black,woman,,,,null,,,,,,,,,
null,"<img src=""stim_listA/look5.gif""style=""height:400px;""></stim_listA>",,html-keyboard-response,409,1373494,0.0-19.0-1.6,2398,List1A,black,woman,,,,null,,,,,,,,,
null,is looking at,,html-keyboard-response,410,1375504,0.0-19.0-2.6,2398,List1A,black,woman,,,,null,,,,,,,,,
4988.2,,,survey-text,411,1380494,0.0-19.0-3.6,2398,List1A,black,woman,,,,,"{""Q0"":""fred is looking at luke""}","<img src=""stim_listA/look5.gif""style=""height:400px;""></stim_listA>",is looking at,,,,,,
null,"<div style=""font-size:60px;"">+</div>",,html-keyboard-response,412,1381008,0.0-19.0-0.7,2398,List1A,black,woman,,,,null,,,,,,,,,
null,"<img src=""stim_listA/kiss7.gif""style=""height:400px;""></stim_listA>",,html-keyboard-response,413,1383024,0.0-19.0-1.7,2398,List1A,black,woman,,,,null,,,,,,,,,
null,is kissing,,html-keyboard-response,414,1385030,0.0-19.0-2.7,2398,List1A,black,woman,,,,null,,,,,,,,,
4287.7,,,survey-text,415,1389321,0.0-19.0-3.7,2398,List1A,black,woman,,,,,"{""Q0"":""beth is kissing ruth""}","<img src=""stim_listA/kiss7.gif""style=""height:400px;""></stim_listA>",is kissing,,,,,,
null,"<div style=""font-size:60px;"">+</div>",,html-keyboard-response,416,1389827,0.0-19.0-0.8,2398,List1A,black,woman,,,,null,,,,,,,,,
null,"<img src=""stim_listA/copy1.gif""style=""height:400px;""></stim_listA>",,html-keyboard-response,417,1391837,0.0-19.0-1.8,2398,List1A,black,woman,,,,null,,,,,,,,,
null,is copying,,html-keyboard-response,418,1393849,0.0-19.0-2.8,2398,List1A,black,woman,,,,null,,,,,,,,,
4205.3,,,survey-text,419,1398056,0.0-19.0-3.8,2398,List1A,black,woman,,,,,"{""Q0"":""mike is copying beth""}","<img src=""stim_listA/copy1.gif""style=""height:400px;""></stim_listA>",is copying,,,,,,
null,"<div style=""font-size:60px;"">+</div>",,html-keyboard-response,420,1398572,0.0-19.0-0.9,2398,List1A,black,woman,,,,null,,,,,,,,,
null,"<img src=""stim_listA/shout7.gif""style=""height:400px;""></stim_listA>",,html-keyboard-response,421,1400581,0.0-19.0-1.9,2398,List1A,black,woman,,,,null,,,,,,,,,
null,is shouting at,,html-keyboard-response,422,1402583,0.0-19.0-2.9,2398,List1A,black,woman,,,,null,,,,,,,,,
6644.5,,,survey-text,423,1409230,0.0-19.0-3.9,2398,List1A,black,woman,,,,,"{""Q0"":""ruth is shouting at beth""}","<img src=""stim_listA/shout7.gif""style=""height:400px;""></stim_listA>",is shouting at,,,,,,
null,"<div style=""font-size:60px;"">+</div>",,html-keyboard-response,424,1409736,0.0-19.0-0.10,2398,List1A,black,woman,,,,null,,,,,,,,,
null,"<img src=""stim_listA/kiss5.gif""style=""height:400px;""></stim_listA>",,html-keyboard-response,425,1411742,0.0-19.0-1.10,2398,List1A,black,woman,,,,null,,,,,,,,,
null,is kissing,,html-keyboard-response,426,1413752,0.0-19.0-2.10,2398,List1A,black,woman,,,,null,,,,,,,,,
5104.6,,,survey-text,427,1418859,0.0-19.0-3.10,2398,List1A,black,woman,,,,,"{""Q0"":""fred is kissing luke""}","<img src=""stim_listA/kiss5.gif""style=""height:400px;""></stim_listA>",is kissing,,,,,,
null,"<div style=""font-size:60px;"">+</div>",,html-keyboard-response,428,1419361,0.0-19.0-0.11,2398,List1A,black,woman,,,,null,,,,,,,,,
null,"<img src=""stim_listA/greet1.gif""style=""height:400px;""></stim_listA>",,html-keyboard-response,429,1421368,0.0-19.0-1.11,2398,List1A,black,woman,,,,null,,,,,,,,,
null,is greeting,,html-keyboard-response,430,1423374,0.0-19.0-2.11,2398,List1A,black,woman,,,,null,,,,,,,,,
3644.4,,,survey-text,431,1427020,0.0-19.0-3.11,2398,List1A,black,woman,,,,,"{""Q0"":""beth is greeting mike""}","<img src=""stim_listA/greet1.gif""style=""height:400px;""></stim_listA>",is greeting,,,,,,
null,"<div style=""font-size:60px;"">+</div>",,html-keyboard-response,432,1427528,0.0-19.0-0.12,2398,List1A,black,woman,,,,null,,,,,,,,,
null,"<img src=""stim_listA/look3.gif""style=""height:400px;""></stim_listA>",,html-keyboard-response,433,1429532,0.0-19.0-1.12,2398,List1A,black,woman,,,,null,,,,,,,,,
null,is looking at,,html-keyboard-response,434,1431556,0.0-19.0-2.12,2398,List1A,black,woman,,,,null,,,,,,,,,
6546.6,,,survey-text,435,1438105,0.0-19.0-3.12,2398,List1A,black,woman,,,,,"{""Q0"":""ruth is looking at luke""}","<img src=""stim_listA/look3.gif""style=""height:400px;""></stim_listA>",is looking at,,,,,,
null,"<div style=""font-size:60px;"">+</div>",,html-keyboard-response,436,1438609,0.0-19.0-0.13,2398,List1A,black,woman,,,,null,,,,,,,,,
null,"<img src=""stim_listA/touch6.gif""style=""height:400px;""></stim_listA>",,html-keyboard-response,437,1440620,0.0-19.0-1.13,2398,List1A,black,woman,,,,null,,,,,,,,,
null,is being touched by,,html-keyboard-response,438,1442628,0.0-19.0-2.13,2398,List1A,black,woman,,,,null,,,,,,,,,
8055.4,,,survey-text,439,1450686,0.0-19.0-3.13,2398,List1A,black,woman,,,,,"{""Q0"":""fred is being touched by luke\\""}","<img src=""stim_listA/touch6.gif""style=""height:400px;""></stim_listA>",is being touched by,,,,,,
null,"<div style=""font-size:60px;"">+</div>",,html-keyboard-response,440,1451192,0.0-19.0-0.14,2398,List1A,black,woman,,,,null,,,,,,,,,
null,"<img src=""stim_listA/shout5.gif""style=""height:400px;""></stim_listA>",,html-keyboard-response,441,1453196,0.0-19.0-1.14,2398,List1A,black,woman,,,,null,,,,,,,,,
null,is shouting at,,html-keyboard-response,442,1455200,0.0-19.0-2.14,2398,List1A,black,woman,,,,null,,,,,,,,,
5985.6,,,survey-text,443,1461188,0.0-19.0-3.14,2398,List1A,black,woman,,,,,"{""Q0"":""fred is shouting at luke""}","<img src=""stim_listA/shout5.gif""style=""height:400px;""></stim_listA>",is shouting at,,,,,,
null,"<div style=""font-size:60px;"">+</div>",,html-keyboard-response,444,1461692,0.0-19.0-0.15,2398,List1A,black,woman,,,,null,,,,,,,,,
null,"<img src=""stim_listA/greet7.gif""style=""height:400px;""></stim_listA>",,html-keyboard-response,445,1463695,0.0-19.0-1.15,2398,List1A,black,woman,,,,null,,,,,,,,,
null,is greeting,,html-keyboard-response,446,1465710,0.0-19.0-2.15,2398,List1A,black,woman,,,,null,,,,,,,,,
5499.6,,,survey-text,447,1471211,0.0-19.0-3.15,2398,List1A,black,woman,,,,,"{""Q0"":""ruth is greeting kate""}","<img src=""stim_listA/greet7.gif""style=""height:400px;""></stim_listA>",is greeting,,,,,,
null,"<div style=""font-size:60px;"">+</div>",,html-keyboard-response,448,1471719,0.0-19.0-0.16,2398,List1A,black,woman,,,,null,,,,,,,,,
null,"<img src=""stim_listA/seduce1.gif""style=""height:400px;""></stim_listA>",,html-keyboard-response,449,1473730,0.0-19.0-1.16,2398,List1A,black,woman,,,,null,,,,,,,,,
null,is seducing,,html-keyboard-response,450,1475745,0.0-19.0-2.16,2398,List1A,black,woman,,,,null,,,,,,,,,
5061,,,survey-text,451,1480808,0.0-19.0-3.16,2398,List1A,black,woman,,,,,"{""Q0"":""fred is seducing kate""}","<img src=""stim_listA/seduce1.gif""style=""height:400px;""></stim_listA>",is seducing,,,,,,
null,"<div style=""font-size:60px;"">+</div>",,html-keyboard-response,452,1481321,0.0-19.0-0.17,2398,List1A,black,woman,,,,null,,,,,,,,,
null,"<img src=""stim_listA/oppose6.gif""style=""height:400px;""></stim_listA>",,html-keyboard-response,453,1483335,0.0-19.0-1.17,2398,List1A,black,woman,,,,null,,,,,,,,,
null,is being opposed by,,html-keyboard-response,454,1485351,0.0-19.0-2.17,2398,List1A,black,woman,,,,null,,,,,,,,,
5618.8,,,survey-text,455,1490972,0.0-19.0-3.17,2398,List1A,black,woman,,,,,"{""Q0"":""luke is being opposed by fred""}","<img src=""stim_listA/oppose6.gif""style=""height:400px;""></stim_listA>",is being opposed by,,,,,,
null,"<div style=""font-size:60px;"">+</div>",,html-keyboard-response,456,1491484,0.0-19.0-0.18,2398,List1A,black,woman,,,,null,,,,,,,,,
null,"<img src=""stim_listA/greet6.gif""style=""height:400px;""></stim_listA>",,html-keyboard-response,457,1493492,0.0-19.0-1.18,2398,List1A,black,woman,,,,null,,,,,,,,,
null,is being greeted by,,html-keyboard-response,458,1495498,0.0-19.0-2.18,2398,List1A,black,woman,,,,null,,,,,,,,,
6230,,,survey-text,459,1501730,0.0-19.0-3.18,2398,List1A,black,woman,,,,,"{""Q0"":""fred is being greeted by dave""}","<img src=""stim_listA/greet6.gif""style=""height:400px;""></stim_listA>",is being greeted by,,,,,,
null,"<div style=""font-size:60px;"">+</div>",,html-keyboard-response,460,1502235,0.0-19.0-0.19,2398,List1A,black,woman,,,,null,,,,,,,,,
null,"<img src=""stim_listA/seduce8.gif""style=""height:400px;""></stim_listA>",,html-keyboard-response,461,1504243,0.0-19.0-1.19,2398,List1A,black,woman,,,,null,,,,,,,,,
null,is being seduced by,,html-keyboard-response,462,1506252,0.0-19.0-2.19,2398,List1A,black,woman,,,,null,,,,,,,,,
6774.1,,,survey-text,463,1513028,0.0-19.0-3.19,2398,List1A,black,woman,,,,,"{""Q0"":""ruth is being seduced by kate""}","<img src=""stim_listA/seduce8.gif""style=""height:400px;""></stim_listA>",is being seduced by,,,,,,
3248.8,<p>Thank you for completing that task.</p><p>The final part of this session is a questionnaire that will take about 4 minutes.</p><p>Press Continue.</p>,0,html-button-response,464,1516278,0.0-20.0,2398,List1A,black,woman,,,,,,,,,,,,,
31650.1,,,survey-text,465,1548942,0.0-21.0,2398,List1A,black,woman,,,,,"{""Q0"":""48"",""Q1"":""english"",""Q2"":""english"",""Q3"":""United States"",""Q4"":""us citizen"",""Q5"":""african american"",""Q6"":""female""}",,,demographics,,,,,
1721.9,<p>Have you lived in the USA for the last 5 years or more?</p>,0,html-button-response,466,1550665,0.0-22.0,2398,List1A,black,woman,,,,,,,,fiveyears,,,,,
4048.5,<p>Move the slider to show the extent to which you agree with the following statements.</p>,0,html-button-response,467,1555727,0.0-23.0,2398,List1A,black,woman,,,,,,,,,,,,,
7558.7,,,html-slider-response,468,1564294,0.0-24.0-0.0-0.0,2398,List1A,black,woman,,,,,,,,survey_race,30,,,I have a lot in common with people of a similar age to me.,filler
4259.5,,,html-slider-response,469,1568555,0.0-24.0-0.0-0.1,2398,List1A,black,woman,,,,,,,,survey_race,76,,,"The older I get, the wiser I feel.",filler
4925.1,,,html-slider-response,470,1573481,0.0-24.0-0.0-0.2,2398,List1A,black,woman,,,,,,,,survey_race,78,,,The fact that I am my race is an important part of my identity.,identity
3630.7,,,html-slider-response,471,1577113,0.0-24.0-0.0-0.3,2398,List1A,black,woman,,,,,,,,survey_race,95,,,I consider myself an introvert.,filler
4108.4,,,html-slider-response,472,1581223,0.0-24.0-0.0-0.4,2398,List1A,black,woman,,,,,,,,survey_race,33,,,People of my race have a lot in common with each other.,common
6568.9,,,html-slider-response,473,1587793,0.0-24.0-0.0-0.5,2398,List1A,black,woman,,,,,,,,survey_race,65,,,I often think about the fact that I am my race.,often
3714.9,,,html-slider-response,474,1591509,0.0-24.0-0.0-0.6,2398,List1A,black,woman,,,,,,,,survey_race,16,,,It is pleasant to be my race.,pleasant
5748.2,,,html-slider-response,475,1597259,0.0-24.0-0.0-0.7,2398,List1A,black,woman,,,,,,,,survey_race,0,,,I enjoy being in large groups.,filler
3491.2,,,html-slider-response,476,1600751,0.0-24.0-0.0-0.8,2398,List1A,black,woman,,,,,,,,survey_race,100,,,I am glad to be my race.,glad
5633.2,,,html-slider-response,477,1606385,0.0-24.0-0.0-0.9,2398,List1A,black,woman,,,,,,,,survey_race,21,,,I am similar to the average person of my race.,similar
4256.8,,,html-slider-response,478,1610643,0.0-24.0-0.0-0.10,2398,List1A,black,woman,,,,,,,,survey_race,67,,,Being my race is an important part of how I see myself.,important
3286.5,,,html-slider-response,479,1613931,0.0-24.0-0.0-0.11,2398,List1A,black,woman,,,,,,,,survey_race,29,,,I am glad to be my age.,filler
4489.2,,,html-slider-response,480,1618421,0.0-24.0-0.0-0.12,2398,List1A,black,woman,,,,,,,,survey_race,33,,,My age is not an important part of who I am.,filler
3668.9,,,html-slider-response,481,1622091,0.0-24.0-0.0-0.13,2398,List1A,black,woman,,,,,,,,survey_race,23,,,I feel a bond with my race.,bond
4102.4,,,html-slider-response,482,1626195,0.0-24.0-0.0-0.14,2398,List1A,black,woman,,,,,,,,survey_race,9,,,Getting older does not worry me.,filler
4957,,,html-slider-response,483,1631153,0.0-24.0-0.0-0.15,2398,List1A,black,woman,,,,,,,,survey_race,27,,,I am glad to be the age I am.,filler
4854.8,,,html-slider-response,484,1636009,0.0-24.0-0.0-0.16,2398,List1A,black,woman,,,,,,,,survey_race,30,,,I have a lot in common with the average person of my race.,average
3936.3,,,html-slider-response,485,1639946,0.0-24.0-0.0-0.17,2398,List1A,black,woman,,,,,,,,survey_race,22,,,Being my age gives me a good feeling.,filler
5937.7,,,html-slider-response,486,1645885,0.0-24.0-0.0-0.18,2398,List1A,black,woman,,,,,,,,survey_race,64,,,I feel solidarity with people the same age as me.,filler
5544.8,,,html-slider-response,487,1651431,0.0-24.0-0.0-0.19,2398,List1A,black,woman,,,,,,,,survey_race,87,,,I often think about the fact that I am my age.,filler
5142.6,,,html-slider-response,488,1656575,0.0-24.0-0.0-0.20,2398,List1A,black,woman,,,,,,,,survey_race,82,,,I think that my race has a lot to be proud of.,proud
4848.8,,,html-slider-response,489,1661425,0.0-24.0-0.0-0.21,2398,List1A,black,woman,,,,,,,,survey_race,100,,,I feel committed to my race.,committed
4040.7,,,html-slider-response,490,1665467,0.0-24.0-0.0-0.22,2398,List1A,black,woman,,,,,,,,survey_race,22,,,I feel solidarity with my race.,solidarity
5880.5,,,html-slider-response,491,1671349,0.0-24.0-0.0-0.23,2398,List1A,black,woman,,,,,,,,survey_race,20,,,People of my race are very similar to each other.,verysimilar
5047.2,,,html-slider-response,492,1676397,0.0-24.0-0.0-0.24,2398,List1A,black,woman,,,,,,,,survey_race,72,,,People my age have a lot in common with each other.,filler
3616.2,,,html-slider-response,493,1680014,0.0-24.0-0.0-0.25,2398,List1A,black,woman,,,,,,,,survey_race,0,,,I consider myself an extrovert.,filler
4823.1,,,html-slider-response,494,1684839,0.0-24.0-0.0-0.26,2398,List1A,black,woman,,,,,,,,survey_race,78,,,I feel a bond with people the same age as me.,filler
9962.8,,,html-slider-response,495,1694803,0.0-24.0-0.0-0.27,2398,List1A,black,woman,,,,,,,,survey_race,48,,,Being my race gives me a good feeling.,feeling
3571,,,html-slider-response,496,1698375,0.0-24.0-1.0-0.0,2398,List1A,black,woman,,,,,,,,survey_gender,71,,,Most of the friends in my life are very similar to me.,filler
4700.6,,,html-slider-response,497,1703076,0.0-24.0-1.0-0.1,2398,List1A,black,woman,,,,,,,,survey_gender,89,,,The fact that I am my gender is an important part of my identity.,identity
3781,,,html-slider-response,498,1706859,0.0-24.0-1.0-0.2,2398,List1A,black,woman,,,,,,,,survey_gender,94,,,My friends understand me.,filler
3782.8,,,html-slider-response,499,1710642,0.0-24.0-1.0-0.3,2398,List1A,black,woman,,,,,,,,survey_gender,91,,,I feel solidarity with my friends.,filler
4201.2,,,html-slider-response,500,1714845,0.0-24.0-1.0-0.4,2398,List1A,black,woman,,,,,,,,survey_gender,94,,,I feel committed to my gender.,committed
3910.7,,,html-slider-response,501,1718757,0.0-24.0-1.0-0.5,2398,List1A,black,woman,,,,,,,,survey_gender,83,,,It is pleasant to be my gender.,pleasant
3837.2,,,html-slider-response,502,1722595,0.0-24.0-1.0-0.6,2398,List1A,black,woman,,,,,,,,survey_gender,93,,,I feel a bond with my gender.,bond
3698.2,,,html-slider-response,503,1726294,0.0-24.0-1.0-0.7,2398,List1A,black,woman,,,,,,,,survey_gender,94,,,I am glad to have the friends that I have.,filler
3816.2,,,html-slider-response,504,1730113,0.0-24.0-1.0-0.8,2398,List1A,black,woman,,,,,,,,survey_gender,94,,,I feel a bond with my friends.,filler
3734.7,,,html-slider-response,505,1733848,0.0-24.0-1.0-0.9,2398,List1A,black,woman,,,,,,,,survey_gender,97,,,I think that my gender has a lot to be proud of.,proud
11342.8,,,html-slider-response,506,1745192,0.0-24.0-1.0-0.10,2398,List1A,black,woman,,,,,,,,survey_gender,88,,,I consider myself a highly empathetic person.,filler
4528.2,,,html-slider-response,507,1749722,0.0-24.0-1.0-0.11,2398,List1A,black,woman,,,,,,,,survey_gender,100,,,Family is not more important to me than friendship.,filler
4567.3,,,html-slider-response,508,1754291,0.0-24.0-1.0-0.12,2398,List1A,black,woman,,,,,,,,survey_gender,88,,,Being my gender gives me a good feeling.,feeling
4108.5,,,html-slider-response,509,1758401,0.0-24.0-1.0-0.13,2398,List1A,black,woman,,,,,,,,survey_gender,90,,,It is not always easy for people to know what I am thinking.,filler
3690.6,,,html-slider-response,510,1762093,0.0-24.0-1.0-0.14,2398,List1A,black,woman,,,,,,,,survey_gender,90,,,Being my gender is an important part of how I see myself.,important
4160.8,,,html-slider-response,511,1766255,0.0-24.0-1.0-0.15,2398,List1A,black,woman,,,,,,,,survey_gender,69,,,I would say I am an animal person.,filler
8129.1,,,html-slider-response,512,1774385,0.0-24.0-1.0-0.16,2398,List1A,black,woman,,,,,,,,survey_gender,51,,,I have a lot in common with the average person of my gender.,average
5208.7,,,html-slider-response,513,1779595,0.0-24.0-1.0-0.17,2398,List1A,black,woman,,,,,,,,survey_gender,45,,,I am similar to the average person of my gender.,similar
4138.5,,,html-slider-response,514,1783735,0.0-24.0-1.0-0.18,2398,List1A,black,woman,,,,,,,,survey_gender,82,,,I often think about my actions.,filler
7068.9,,,html-slider-response,515,1790805,0.0-24.0-1.0-0.19,2398,List1A,black,woman,,,,,,,,survey_gender,91,,,Being around my friends gives me a good feeling.,filler
4129.2,,,html-slider-response,516,1794935,0.0-24.0-1.0-0.20,2398,List1A,black,woman,,,,,,,,survey_gender,94,,,I am glad to be my gender.,glad
6120.4,,,html-slider-response,517,1801057,0.0-24.0-1.0-0.21,2398,List1A,black,woman,,,,,,,,survey_gender,59,,,I often think about the fact that I am my gender.,often
4952.8,,,html-slider-response,518,1806011,0.0-24.0-1.0-0.22,2398,List1A,black,woman,,,,,,,,survey_gender,93,,,I have a lot in common with my friends.,filler
3855,,,html-slider-response,519,1809867,0.0-24.0-1.0-0.23,2398,List1A,black,woman,,,,,,,,survey_gender,7,,,Routine is not important to me.,filler
5588.7,,,html-slider-response,520,1815457,0.0-24.0-1.0-0.24,2398,List1A,black,woman,,,,,,,,survey_gender,18,,,People of my gender are very similar to each other.,verysimilar
8272.6,,,html-slider-response,521,1823731,0.0-24.0-1.0-0.25,2398,List1A,black,woman,,,,,,,,survey_gender,49,,,People of my gender have a lot in common with each other.,common
3964.6,,,html-slider-response,522,1827697,0.0-24.0-1.0-0.26,2398,List1A,black,woman,,,,,,,,survey_gender,83,,,I feel solidarity with my gender.,solidarity
4442.8,,,html-slider-response,523,1832141,0.0-24.0-1.0-0.27,2398,List1A,black,woman,,,,,,,,survey_gender,82,,,My friends have a lot in common with each other.,filler
10206.5,,,survey-text,524,1842349,0.0-25.0,2398,List1A,black,woman,,,,,"{""Q0"":""ccc""}",,,worker_id,,,,,
16829.1,,,external-html,525,1859833,0.0-26.0,2398,List1A,black,woman,debrief.html,,,,,,,,,,,,
