rt,stimulus,button_pressed,trial_type,trial_index,time_elapsed,internal_node_id,subject,list,ppt_race,ppt_gender,url,first_guess,correct,key_press,responses,image_type,phrase_type,test_part,response,stimulus1,stimulus2,question_type,survey_item
3663.5,Welcome to the experiment. Press Continue to begin.,0,html-button-response,0,3669,0.0-0.0,24567,List1A,black,man,,,,,,,,,,,,,
9161.7,,,external-html,1,14198,0.0-1.0,24567,List1A,black,man,consent.html,,,,,,,,,,,,
16936.2,"<p>On the next page, you will see portraits of 8 people and their names.</p><p>Your first task is to take a few minutes to memorise the names of these people.</p><p>You will have to recall their names during the rest of the experiment, so it is</p><p>essential that you try to memorise these people and their names as best as you can.</p><br><p><strong>You will then be tested on your memory of these names and portraits.</strong></p><br><p>The experiment will start after you have completed this memory test.</p><br><p>Ready?</p>",0,html-button-response,2,31136,0.0-2.0,24567,List1A,black,man,,,,,,,,,,,,,
62197.7,"<img src='img/portrait_matrix_list1.jpg' style='width:900px;height:500px;''></img><p>If you have memorised all the portraits and names and are ready to start, press Continue.</p><p><strong>Please note: Your memory of these faces will be tested 4 times during this experiment.</strong></p>",0,html-button-response,3,94337,0.0-3.0-0.0,24567,List1A,black,man,,,,,,,,,,,,,
7319.7,"<img src=""portrait/BW2.jpg""style=""height:400px;""></img>",2,html-button-response,4,102662,0.0-3.0-1.0,24567,List1A,black,man,,TRUE,2,,,,,,,,,,
null,CORRECT,,html-keyboard-response,5,104181,0.0-3.0-2.0-0.0,24567,List1A,black,man,,,,null,,,,,,,,,
5604,"<img src=""portrait/BW1.jpg""style=""height:400px;""></img>",0,html-button-response,6,109789,0.0-3.0-4.0,24567,List1A,black,man,,TRUE,0,,,,,,,,,,
null,CORRECT,,html-keyboard-response,7,111303,0.0-3.0-5.0-0.0,24567,List1A,black,man,,,,null,,,,,,,,,
8502.5,"<img src=""portrait/BM2.jpg""style=""height:400px;""></img>",5,html-button-response,8,119808,0.0-3.0-7.0,24567,List1A,black,man,,TRUE,5,,,,,,,,,,
null,CORRECT,,html-keyboard-response,9,121325,0.0-3.0-8.0-0.0,24567,List1A,black,man,,,,null,,,,,,,,,
4374,"<img src=""portrait/WM1.jpg""style=""height:400px;""></img>",6,html-button-response,10,125701,0.0-3.0-10.0,24567,List1A,black,man,,TRUE,6,,,,,,,,,,
null,CORRECT,,html-keyboard-response,11,127206,0.0-3.0-11.0-0.0,24567,List1A,black,man,,,,null,,,,,,,,,
5817.8,"<img src=""portrait/WM2.jpg""style=""height:400px;""></img>",7,html-button-response,12,133026,0.0-3.0-13.0,24567,List1A,black,man,,TRUE,7,,,,,,,,,,
null,CORRECT,,html-keyboard-response,13,134538,0.0-3.0-14.0-0.0,24567,List1A,black,man,,,,null,,,,,,,,,
4382.8,"<img src=""portrait/WW2.jpg""style=""height:400px;""></img>",3,html-button-response,14,138923,0.0-3.0-16.0,24567,List1A,black,man,,TRUE,3,,,,,,,,,,
null,CORRECT,,html-keyboard-response,15,140426,0.0-3.0-17.0-0.0,24567,List1A,black,man,,,,null,,,,,,,,,
4749.4,"<img src=""portrait/BM1.jpg""style=""height:400px;""></img>",4,html-button-response,16,145179,0.0-3.0-19.0,24567,List1A,black,man,,TRUE,4,,,,,,,,,,
null,CORRECT,,html-keyboard-response,17,146682,0.0-3.0-20.0-0.0,24567,List1A,black,man,,,,null,,,,,,,,,
13853.6,"<img src=""portrait/WW1.jpg""style=""height:400px;""></img>",1,html-button-response,18,160538,0.0-3.0-22.0,24567,List1A,black,man,,TRUE,1,,,,,,,,,,
null,CORRECT,,html-keyboard-response,19,162041,0.0-3.0-23.0-0.0,24567,List1A,black,man,,,,null,,,,,,,,,
3409.9,<p>You got 8 out of 8 right first time. Press Continue.</p>,0,html-button-response,20,165454,0.0-3.0-25.0,24567,List1A,black,man,,,,,,,,,,,,,
65617.3,"<p>In this experiment, you will view photographs of the people from the memory game interacting.</p><p>By using the <strong>exact</strong> phrase given <i>after</i> the photograph appears and recalling the correct names of the people in the photographs, form a sentence describing the interaction. You do not need to capitalise names.</p><p>Type your answer in the space provided. Please complete every sentence before moving onto the next trial.</p><p>You will only have a few seconds to memorise each given photograph and phrase before you can respond, so try your best to focus.</p><p>An example is given below. Press 'Continue' when you are ready.</p><img src='img/speaking_example.jpg' style='width:800px;height:460px;''></img>",0,html-button-response,21,232080,0.0-4.0,24567,List1A,black,man,,,,,,,,,,,,,
10669.6,"<p>Before the experiment starts, you will watch two example trials. Press 'Continue'.</p>",0,html-button-response,22,243753,0.0-5.0,24567,List1A,black,man,,,,,,,,,,,,,
null,<img src='img/play_eg.gif' style='height:400px;''></img>,,html-keyboard-response,23,246758,0.0-6.0,24567,List1A,black,man,,,,null,,,,,,,,,
null,<p>is playing with</p>,,html-keyboard-response,24,248762,0.0-7.0,24567,List1A,black,man,,,,null,,,,,,,,,
7218.3,<p><b>Answer:</b> kate is playing with beth</p>,0,html-button-response,25,255982,0.0-8.0,24567,List1A,black,man,,,,,,,,,,,,,
null,<img src='img/dance_eg.gif' style='height:400px;''></img>,,html-keyboard-response,26,258986,0.0-9.0,24567,List1A,black,man,,,,null,,,,,,,,,
null,<p>is being entertained by</p>,,html-keyboard-response,27,260989,0.0-10.0,24567,List1A,black,man,,,,null,,,,,,,,,
6919.3,<p><b>Answer:</b> luke is being entertained by dave</p>,0,html-button-response,28,267910,0.0-11.0,24567,List1A,black,man,,,,,,,,,,,,,
9477.7,"<p>Ready to start the experiment?</p><br><p><strong>Remember to describe the picture using a full sentence,</strong></p><p><strong>that combines the names of the people with the <i>exact</i> phrase given.</strong></p><p><strong>To receive full payment you must do this correctly.</strong></p><p><strong> You do not need to capitalise names or use punctuation.</strong></p><br><p>Press 'Continue' to begin.</p>",0,html-button-response,29,278392,0.0-12.0,24567,List1A,black,man,,,,,,,,,,,,,
null,"<div style=""font-size:60px;"">+</div>",,html-keyboard-response,30,279895,0.0-13.0-0.0,24567,List1A,black,man,,,,null,,,,,,,,,
null,"<img src=""stim_listA/look5.gif""style=""height:400px;""></stim_listA>",,html-keyboard-response,31,281901,0.0-13.0-1.0,24567,List1A,black,man,,,,null,,,,,,,,,
null,is looking at,,html-keyboard-response,32,283903,0.0-13.0-2.0,24567,List1A,black,man,,,,null,,,,,,,,,
25897.4,,,survey-text,33,309809,0.0-13.0-3.0,24567,List1A,black,man,,,,,"{""Q0"":""Fred is chatting with Mike""}","<img src=""stim_listA/look5.gif""style=""height:400px;""></stim_listA>",is looking at,,,,,,
null,"<div style=""font-size:60px;"">+</div>",,html-keyboard-response,34,310312,0.0-13.0-0.1,24567,List1A,black,man,,,,null,,,,,,,,,
null,"<img src=""stim_listA/kiss5.gif""style=""height:400px;""></stim_listA>",,html-keyboard-response,35,312315,0.0-13.0-1.1,24567,List1A,black,man,,,,null,,,,,,,,,
null,is kissing,,html-keyboard-response,36,314317,0.0-13.0-2.1,24567,List1A,black,man,,,,null,,,,,,,,,
17545.6,,,survey-text,37,331903,0.0-13.0-3.1,24567,List1A,black,man,,,,,"{""Q0"":""Fred is kissing Luke""}","<img src=""stim_listA/kiss5.gif""style=""height:400px;""></stim_listA>",is kissing,,,,,,
null,"<div style=""font-size:60px;"">+</div>",,html-keyboard-response,38,332406,0.0-13.0-0.2,24567,List1A,black,man,,,,null,,,,,,,,,
null,"<img src=""stim_listA/copy7.gif""style=""height:400px;""></stim_listA>",,html-keyboard-response,39,334410,0.0-13.0-1.2,24567,List1A,black,man,,,,null,,,,,,,,,
null,is copying,,html-keyboard-response,40,336413,0.0-13.0-2.2,24567,List1A,black,man,,,,null,,,,,,,,,
28108.3,,,survey-text,41,364527,0.0-13.0-3.2,24567,List1A,black,man,,,,,"{""Q0"":""Kate is chatting with Ruth""}","<img src=""stim_listA/copy7.gif""style=""height:400px;""></stim_listA>",is copying,,,,,,
null,"<div style=""font-size:60px;"">+</div>",,html-keyboard-response,42,365028,0.0-13.0-0.3,24567,List1A,black,man,,,,null,,,,,,,,,
null,"<img src=""stim_listA/challenge4.gif""style=""height:400px;""></stim_listA>",,html-keyboard-response,43,367038,0.0-13.0-1.3,24567,List1A,black,man,,,,null,,,,,,,,,
null,is being challenged by,,html-keyboard-response,44,369041,0.0-13.0-2.3,24567,List1A,black,man,,,,null,,,,,,,,,
12187.1,,,survey-text,45,381233,0.0-13.0-3.3,24567,List1A,black,man,,,,,"{""Q0"":""Luke is playing with Jane""}","<img src=""stim_listA/challenge4.gif""style=""height:400px;""></stim_listA>",is being challenged by,,,,,,
null,"<div style=""font-size:60px;"">+</div>",,html-keyboard-response,46,381739,0.0-13.0-0.4,24567,List1A,black,man,,,,null,,,,,,,,,
null,"<img src=""stim_listA/shout7.gif""style=""height:400px;""></stim_listA>",,html-keyboard-response,47,383745,0.0-13.0-1.4,24567,List1A,black,man,,,,null,,,,,,,,,
null,is shouting at,,html-keyboard-response,48,385747,0.0-13.0-2.4,24567,List1A,black,man,,,,null,,,,,,,,,
19637.4,,,survey-text,49,405389,0.0-13.0-3.4,24567,List1A,black,man,,,,,"{""Q0"":""Beth is quarrelling with Ruth""}","<img src=""stim_listA/shout7.gif""style=""height:400px;""></stim_listA>",is shouting at,,,,,,
null,"<div style=""font-size:60px;"">+</div>",,html-keyboard-response,50,405891,0.0-13.0-0.5,24567,List1A,black,man,,,,null,,,,,,,,,
null,"<img src=""stim_listA/hug5.gif""style=""height:400px;""></stim_listA>",,html-keyboard-response,51,407895,0.0-13.0-1.5,24567,List1A,black,man,,,,null,,,,,,,,,
null,is hugging,,html-keyboard-response,52,409897,0.0-13.0-2.5,24567,List1A,black,man,,,,null,,,,,,,,,
21119.9,,,survey-text,53,431021,0.0-13.0-3.5,24567,List1A,black,man,,,,,"{""Q0"":""Mike is hugging Luke""}","<img src=""stim_listA/hug5.gif""style=""height:400px;""></stim_listA>",is hugging,,,,,,
null,"<div style=""font-size:60px;"">+</div>",,html-keyboard-response,54,431523,0.0-13.0-0.6,24567,List1A,black,man,,,,null,,,,,,,,,
null,"<img src=""stim_listA/copy5.gif""style=""height:400px;""></stim_listA>",,html-keyboard-response,55,433527,0.0-13.0-1.6,24567,List1A,black,man,,,,null,,,,,,,,,
null,is copying,,html-keyboard-response,56,435530,0.0-13.0-2.6,24567,List1A,black,man,,,,null,,,,,,,,,
22090.4,,,survey-text,57,457625,0.0-13.0-3.6,24567,List1A,black,man,,,,,"{""Q0"":""Mike is exchanging plesantries with Luke""}","<img src=""stim_listA/copy5.gif""style=""height:400px;""></stim_listA>",is copying,,,,,,
null,"<div style=""font-size:60px;"">+</div>",,html-keyboard-response,58,458126,0.0-13.0-0.7,24567,List1A,black,man,,,,null,,,,,,,,,
null,"<img src=""stim_listA/greet8.gif""style=""height:400px;""></stim_listA>",,html-keyboard-response,59,460130,0.0-13.0-1.7,24567,List1A,black,man,,,,null,,,,,,,,,
null,is being greeted by,,html-keyboard-response,60,462133,0.0-13.0-2.7,24567,List1A,black,man,,,,null,,,,,,,,,
21515,,,survey-text,61,483653,0.0-13.0-3.7,24567,List1A,black,man,,,,,"{""Q0"":""Beth is playing with ruth""}","<img src=""stim_listA/greet8.gif""style=""height:400px;""></stim_listA>",is being greeted by,,,,,,
null,"<div style=""font-size:60px;"">+</div>",,html-keyboard-response,62,484164,0.0-13.0-0.8,24567,List1A,black,man,,,,null,,,,,,,,,
null,"<img src=""stim_listA/look7.gif""style=""height:400px;""></stim_listA>",,html-keyboard-response,63,486167,0.0-13.0-1.8,24567,List1A,black,man,,,,null,,,,,,,,,
null,is looking at,,html-keyboard-response,64,488170,0.0-13.0-2.8,24567,List1A,black,man,,,,null,,,,,,,,,
12690.1,,,survey-text,65,500865,0.0-13.0-3.8,24567,List1A,black,man,,,,,"{""Q0"":""Jane is staring at Beth""}","<img src=""stim_listA/look7.gif""style=""height:400px;""></stim_listA>",is looking at,,,,,,
null,"<div style=""font-size:60px;"">+</div>",,html-keyboard-response,66,501366,0.0-13.0-0.9,24567,List1A,black,man,,,,null,,,,,,,,,
null,"<img src=""stim_listA/oppose6.gif""style=""height:400px;""></stim_listA>",,html-keyboard-response,67,503370,0.0-13.0-1.9,24567,List1A,black,man,,,,null,,,,,,,,,
null,is being opposed by,,html-keyboard-response,68,505378,0.0-13.0-2.9,24567,List1A,black,man,,,,null,,,,,,,,,
18234.1,,,survey-text,69,523617,0.0-13.0-3.9,24567,List1A,black,man,,,,,"{""Q0"":""Fred is boxing Luke""}","<img src=""stim_listA/oppose6.gif""style=""height:400px;""></stim_listA>",is being opposed by,,,,,,
null,"<div style=""font-size:60px;"">+</div>",,html-keyboard-response,70,524119,0.0-13.0-0.10,24567,List1A,black,man,,,,null,,,,,,,,,
null,"<img src=""stim_listA/greet2.gif""style=""height:400px;""></stim_listA>",,html-keyboard-response,71,526122,0.0-13.0-1.10,24567,List1A,black,man,,,,null,,,,,,,,,
null,is being greeted by,,html-keyboard-response,72,528125,0.0-13.0-2.10,24567,List1A,black,man,,,,null,,,,,,,,,
14987,,,survey-text,73,543117,0.0-13.0-3.10,24567,List1A,black,man,,,,,"{""Q0"":""Kate is greeted by Dave""}","<img src=""stim_listA/greet2.gif""style=""height:400px;""></stim_listA>",is being greeted by,,,,,,
null,"<div style=""font-size:60px;"">+</div>",,html-keyboard-response,74,543619,0.0-13.0-0.11,24567,List1A,black,man,,,,null,,,,,,,,,
null,"<img src=""stim_listA/touch3.gif""style=""height:400px;""></stim_listA>",,html-keyboard-response,75,545623,0.0-13.0-1.11,24567,List1A,black,man,,,,null,,,,,,,,,
null,is touching,,html-keyboard-response,76,547625,0.0-13.0-2.11,24567,List1A,black,man,,,,null,,,,,,,,,
19749.8,,,survey-text,77,567380,0.0-13.0-3.11,24567,List1A,black,man,,,,,"{""Q0"":""Dave is touching Kate""}","<img src=""stim_listA/touch3.gif""style=""height:400px;""></stim_listA>",is touching,,,,,,
null,"<div style=""font-size:60px;"">+</div>",,html-keyboard-response,78,567881,0.0-13.0-0.12,24567,List1A,black,man,,,,null,,,,,,,,,
null,"<img src=""stim_listA/touch8.gif""style=""height:400px;""></stim_listA>",,html-keyboard-response,79,569898,0.0-13.0-1.12,24567,List1A,black,man,,,,null,,,,,,,,,
null,is being touched by,,html-keyboard-response,80,571900,0.0-13.0-2.12,24567,List1A,black,man,,,,null,,,,,,,,,
19734.4,,,survey-text,81,591639,0.0-13.0-3.12,24567,List1A,black,man,,,,,"{""Q0"":""Beth is Touching Kate""}","<img src=""stim_listA/touch8.gif""style=""height:400px;""></stim_listA>",is being touched by,,,,,,
null,"<div style=""font-size:60px;"">+</div>",,html-keyboard-response,82,592140,0.0-13.0-0.13,24567,List1A,black,man,,,,null,,,,,,,,,
null,"<img src=""stim_listA/challenge7.gif""style=""height:400px;""></stim_listA>",,html-keyboard-response,83,594144,0.0-13.0-1.13,24567,List1A,black,man,,,,null,,,,,,,,,
null,is challenging,,html-keyboard-response,84,596146,0.0-13.0-2.13,24567,List1A,black,man,,,,null,,,,,,,,,
21601.6,,,survey-text,85,617753,0.0-13.0-3.13,24567,List1A,black,man,,,,,"{""Q0"":""Kate is challenging Ruth""}","<img src=""stim_listA/challenge7.gif""style=""height:400px;""></stim_listA>",is challenging,,,,,,
null,"<div style=""font-size:60px;"">+</div>",,html-keyboard-response,86,618265,0.0-13.0-0.14,24567,List1A,black,man,,,,null,,,,,,,,,
null,"<img src=""stim_listA/copy6.gif""style=""height:400px;""></stim_listA>",,html-keyboard-response,87,620267,0.0-13.0-1.14,24567,List1A,black,man,,,,null,,,,,,,,,
null,is being copied by,,html-keyboard-response,88,622270,0.0-13.0-2.14,24567,List1A,black,man,,,,null,,,,,,,,,
32903.4,,,survey-text,89,655179,0.0-13.0-3.14,24567,List1A,black,man,,,,,"{""Q0"":""Dave is being copied by Mike""}","<img src=""stim_listA/copy6.gif""style=""height:400px;""></stim_listA>",is being copied by,,,,,,
null,"<div style=""font-size:60px;"">+</div>",,html-keyboard-response,90,655681,0.0-13.0-0.15,24567,List1A,black,man,,,,null,,,,,,,,,
null,"<img src=""stim_listA/seduce4.gif""style=""height:400px;""></stim_listA>",,html-keyboard-response,91,657686,0.0-13.0-1.15,24567,List1A,black,man,,,,null,,,,,,,,,
null,is being seduced by,,html-keyboard-response,92,659688,0.0-13.0-2.15,24567,List1A,black,man,,,,null,,,,,,,,,
23886.6,,,survey-text,93,683580,0.0-13.0-3.15,24567,List1A,black,man,,,,,"{""Q0"":""Jane is being seduced by Dave""}","<img src=""stim_listA/seduce4.gif""style=""height:400px;""></stim_listA>",is being seduced by,,,,,,
null,"<div style=""font-size:60px;"">+</div>",,html-keyboard-response,94,684082,0.0-13.0-0.16,24567,List1A,black,man,,,,null,,,,,,,,,
null,"<img src=""stim_listA/hug8.gif""style=""height:400px;""></stim_listA>",,html-keyboard-response,95,686086,0.0-13.0-1.16,24567,List1A,black,man,,,,null,,,,,,,,,
null,is being hugged by,,html-keyboard-response,96,688089,0.0-13.0-2.16,24567,List1A,black,man,,,,null,,,,,,,,,
14851,,,survey-text,97,702945,0.0-13.0-3.16,24567,List1A,black,man,,,,,"{""Q0"":""Kate is being hugged by Ruth""}","<img src=""stim_listA/hug8.gif""style=""height:400px;""></stim_listA>",is being hugged by,,,,,,
null,"<div style=""font-size:60px;"">+</div>",,html-keyboard-response,98,703446,0.0-13.0-0.17,24567,List1A,black,man,,,,null,,,,,,,,,
null,"<img src=""stim_listA/shout4.gif""style=""height:400px;""></stim_listA>",,html-keyboard-response,99,705451,0.0-13.0-1.17,24567,List1A,black,man,,,,null,,,,,,,,,
null,is being shouted at by,,html-keyboard-response,100,707454,0.0-13.0-2.17,24567,List1A,black,man,,,,null,,,,,,,,,
18058.4,,,survey-text,101,725517,0.0-13.0-3.17,24567,List1A,black,man,,,,,"{""Q0"":""Dave is being shouted at by Jane ""}","<img src=""stim_listA/shout4.gif""style=""height:400px;""></stim_listA>",is being shouted at by,,,,,,
null,"<div style=""font-size:60px;"">+</div>",,html-keyboard-response,102,726019,0.0-13.0-0.18,24567,List1A,black,man,,,,null,,,,,,,,,
null,"<img src=""stim_listA/challenge5.gif""style=""height:400px;""></stim_listA>",,html-keyboard-response,103,728023,0.0-13.0-1.18,24567,List1A,black,man,,,,null,,,,,,,,,
null,is challenging,,html-keyboard-response,104,730026,0.0-13.0-2.18,24567,List1A,black,man,,,,null,,,,,,,,,
20194.9,,,survey-text,105,750226,0.0-13.0-3.18,24567,List1A,black,man,,,,,"{""Q0"":""Mike is being challenged by Luke""}","<img src=""stim_listA/challenge5.gif""style=""height:400px;""></stim_listA>",is challenging,,,,,,
null,"<div style=""font-size:60px;"">+</div>",,html-keyboard-response,106,750727,0.0-13.0-0.19,24567,List1A,black,man,,,,null,,,,,,,,,
null,"<img src=""stim_listA/look6.gif""style=""height:400px;""></stim_listA>",,html-keyboard-response,107,752731,0.0-13.0-1.19,24567,List1A,black,man,,,,null,,,,,,,,,
null,is being looked at by,,html-keyboard-response,108,754734,0.0-13.0-2.19,24567,List1A,black,man,,,,null,,,,,,,,,
24993.1,,,survey-text,109,779733,0.0-13.0-3.19,24567,List1A,black,man,,,,,"{""Q0"":""Dave is looked at by Mike""}","<img src=""stim_listA/look6.gif""style=""height:400px;""></stim_listA>",is being looked at by,,,,,,
24308.9,"<img src='img/portrait_matrix_list1.jpg' style='width:900px;height:500px;''></img><p>If you have memorised all the portraits and names and are ready to start, press Continue.</p><p><strong>Please note: Your memory of these faces will be tested 4 times during this experiment.</strong></p>",0,html-button-response,110,804043,0.0-14.0-0.0,24567,List1A,black,man,,,,,,,,,,,,,
4208.1,"<img src=""portrait/BW2.jpg""style=""height:400px;""></img>",2,html-button-response,111,809255,0.0-14.0-1.0,24567,List1A,black,man,,TRUE,2,,,,,,,,,,
null,CORRECT,,html-keyboard-response,112,810758,0.0-14.0-2.0-0.0,24567,List1A,black,man,,,,null,,,,,,,,,
5107.9,"<img src=""portrait/BW1.jpg""style=""height:400px;""></img>",0,html-button-response,113,815868,0.0-14.0-4.0,24567,List1A,black,man,,TRUE,0,,,,,,,,,,
null,CORRECT,,html-keyboard-response,114,817371,0.0-14.0-5.0-0.0,24567,List1A,black,man,,,,null,,,,,,,,,
6189.2,"<img src=""portrait/WW1.jpg""style=""height:400px;""></img>",1,html-button-response,115,823562,0.0-14.0-7.0,24567,List1A,black,man,,TRUE,1,,,,,,,,,,
null,CORRECT,,html-keyboard-response,116,825066,0.0-14.0-8.0-0.0,24567,List1A,black,man,,,,null,,,,,,,,,
4673.6,"<img src=""portrait/WM1.jpg""style=""height:400px;""></img>",6,html-button-response,117,829742,0.0-14.0-10.0,24567,List1A,black,man,,TRUE,6,,,,,,,,,,
null,CORRECT,,html-keyboard-response,118,831247,0.0-14.0-11.0-0.0,24567,List1A,black,man,,,,null,,,,,,,,,
4266.7,"<img src=""portrait/BM2.jpg""style=""height:400px;""></img>",5,html-button-response,119,835516,0.0-14.0-13.0,24567,List1A,black,man,,TRUE,5,,,,,,,,,,
null,CORRECT,,html-keyboard-response,120,837021,0.0-14.0-14.0-0.0,24567,List1A,black,man,,,,null,,,,,,,,,
2427.7,"<img src=""portrait/BM1.jpg""style=""height:400px;""></img>",4,html-button-response,121,839451,0.0-14.0-16.0,24567,List1A,black,man,,TRUE,4,,,,,,,,,,
null,CORRECT,,html-keyboard-response,122,840955,0.0-14.0-17.0-0.0,24567,List1A,black,man,,,,null,,,,,,,,,
2596.7,"<img src=""portrait/WW2.jpg""style=""height:400px;""></img>",3,html-button-response,123,843555,0.0-14.0-19.0,24567,List1A,black,man,,TRUE,3,,,,,,,,,,
null,CORRECT,,html-keyboard-response,124,845058,0.0-14.0-20.0-0.0,24567,List1A,black,man,,,,null,,,,,,,,,
2607.1,"<img src=""portrait/WM2.jpg""style=""height:400px;""></img>",7,html-button-response,125,847668,0.0-14.0-22.0,24567,List1A,black,man,,TRUE,7,,,,,,,,,,
null,CORRECT,,html-keyboard-response,126,849173,0.0-14.0-23.0-0.0,24567,List1A,black,man,,,,null,,,,,,,,,
3540.3,<p>You got 8 out of 8 right first time. Press Continue.</p>,0,html-button-response,127,852716,0.0-14.0-25.0,24567,List1A,black,man,,,,,,,,,,,,,
null,"<div style=""font-size:60px;"">+</div>",,html-keyboard-response,128,854221,0.0-15.0-0.0,24567,List1A,black,man,,,,null,,,,,,,,,
null,"<img src=""stim_listA/kiss7.gif""style=""height:400px;""></stim_listA>",,html-keyboard-response,129,856226,0.0-15.0-1.0,24567,List1A,black,man,,,,null,,,,,,,,,
null,is kissing,,html-keyboard-response,130,858228,0.0-15.0-2.0,24567,List1A,black,man,,,,null,,,,,,,,,
16770.1,,,survey-text,131,875003,0.0-15.0-3.0,24567,List1A,black,man,,,,,"{""Q0"":""Jane is kissing Kate""}","<img src=""stim_listA/kiss7.gif""style=""height:400px;""></stim_listA>",is kissing,,,,,,
null,"<div style=""font-size:60px;"">+</div>",,html-keyboard-response,132,875507,0.0-15.0-0.1,24567,List1A,black,man,,,,null,,,,,,,,,
null,"<img src=""stim_listA/oppose8.gif""style=""height:400px;""></stim_listA>",,html-keyboard-response,133,877511,0.0-15.0-1.1,24567,List1A,black,man,,,,null,,,,,,,,,
null,is being opposed by,,html-keyboard-response,134,879514,0.0-15.0-2.1,24567,List1A,black,man,,,,null,,,,,,,,,
13266,,,survey-text,135,892785,0.0-15.0-3.1,24567,List1A,black,man,,,,,"{""Q0"":""beth is being opposed by jane""}","<img src=""stim_listA/oppose8.gif""style=""height:400px;""></stim_listA>",is being opposed by,,,,,,
null,"<div style=""font-size:60px;"">+</div>",,html-keyboard-response,136,893287,0.0-15.0-0.2,24567,List1A,black,man,,,,null,,,,,,,,,
null,"<img src=""stim_listA/kiss4.gif""style=""height:400px;""></stim_listA>",,html-keyboard-response,137,895292,0.0-15.0-1.2,24567,List1A,black,man,,,,null,,,,,,,,,
null,is being kissed by,,html-keyboard-response,138,897295,0.0-15.0-2.2,24567,List1A,black,man,,,,null,,,,,,,,,
9612.6,,,survey-text,139,906913,0.0-15.0-3.2,24567,List1A,black,man,,,,,"{""Q0"":""dave is kissed by jane""}","<img src=""stim_listA/kiss4.gif""style=""height:400px;""></stim_listA>",is being kissed by,,,,,,
null,"<div style=""font-size:60px;"">+</div>",,html-keyboard-response,140,907424,0.0-15.0-0.3,24567,List1A,black,man,,,,null,,,,,,,,,
null,"<img src=""stim_listA/greet1.gif""style=""height:400px;""></stim_listA>",,html-keyboard-response,141,909428,0.0-15.0-1.3,24567,List1A,black,man,,,,null,,,,,,,,,
null,is greeting,,html-keyboard-response,142,911431,0.0-15.0-2.3,24567,List1A,black,man,,,,null,,,,,,,,,
13009.4,,,survey-text,143,924445,0.0-15.0-3.3,24567,List1A,black,man,,,,,"{""Q0"":""beth is greeted by mike""}","<img src=""stim_listA/greet1.gif""style=""height:400px;""></stim_listA>",is greeting,,,,,,
null,"<div style=""font-size:60px;"">+</div>",,html-keyboard-response,144,924948,0.0-15.0-0.4,24567,List1A,black,man,,,,null,,,,,,,,,
null,"<img src=""stim_listA/challenge2.gif""style=""height:400px;""></stim_listA>",,html-keyboard-response,145,926952,0.0-15.0-1.4,24567,List1A,black,man,,,,null,,,,,,,,,
null,is being challenged by,,html-keyboard-response,146,928955,0.0-15.0-2.4,24567,List1A,black,man,,,,null,,,,,,,,,
15185.7,,,survey-text,147,944146,0.0-15.0-3.4,24567,List1A,black,man,,,,,"{""Q0"":""kate is challenged by fred""}","<img src=""stim_listA/challenge2.gif""style=""height:400px;""></stim_listA>",is being challenged by,,,,,,
null,"<div style=""font-size:60px;"">+</div>",,html-keyboard-response,148,944648,0.0-15.0-0.5,24567,List1A,black,man,,,,null,,,,,,,,,
null,"<img src=""stim_listA/seduce1.gif""style=""height:400px;""></stim_listA>",,html-keyboard-response,149,946652,0.0-15.0-1.5,24567,List1A,black,man,,,,null,,,,,,,,,
null,is seducing,,html-keyboard-response,150,948655,0.0-15.0-2.5,24567,List1A,black,man,,,,null,,,,,,,,,
11840.1,,,survey-text,151,960500,0.0-15.0-3.5,24567,List1A,black,man,,,,,"{""Q0"":""fred is copied by kate""}","<img src=""stim_listA/seduce1.gif""style=""height:400px;""></stim_listA>",is seducing,,,,,,
null,"<div style=""font-size:60px;"">+</div>",,html-keyboard-response,152,961002,0.0-15.0-0.6,24567,List1A,black,man,,,,null,,,,,,,,,
null,"<img src=""stim_listA/kiss2.gif""style=""height:400px;""></stim_listA>",,html-keyboard-response,153,963006,0.0-15.0-1.6,24567,List1A,black,man,,,,null,,,,,,,,,
null,is being kissed by,,html-keyboard-response,154,965009,0.0-15.0-2.6,24567,List1A,black,man,,,,null,,,,,,,,,
24384.2,,,survey-text,155,989398,0.0-15.0-3.6,24567,List1A,black,man,,,,,"{""Q0"":""mike is kissing kate""}","<img src=""stim_listA/kiss2.gif""style=""height:400px;""></stim_listA>",is being kissed by,,,,,,
null,"<div style=""font-size:60px;"">+</div>",,html-keyboard-response,156,989900,0.0-15.0-0.7,24567,List1A,black,man,,,,null,,,,,,,,,
null,"<img src=""stim_listA/look3.gif""style=""height:400px;""></stim_listA>",,html-keyboard-response,157,991902,0.0-15.0-1.7,24567,List1A,black,man,,,,null,,,,,,,,,
null,is looking at,,html-keyboard-response,158,993904,0.0-15.0-2.7,24567,List1A,black,man,,,,null,,,,,,,,,
12411.9,,,survey-text,159,1006322,0.0-15.0-3.7,24567,List1A,black,man,,,,,"{""Q0"":""ruth is looking at luke""}","<img src=""stim_listA/look3.gif""style=""height:400px;""></stim_listA>",is looking at,,,,,,
null,"<div style=""font-size:60px;"">+</div>",,html-keyboard-response,160,1006824,0.0-15.0-0.8,24567,List1A,black,man,,,,null,,,,,,,,,
null,"<img src=""stim_listA/touch6.gif""style=""height:400px;""></stim_listA>",,html-keyboard-response,161,1008829,0.0-15.0-1.8,24567,List1A,black,man,,,,null,,,,,,,,,
null,is being touched by,,html-keyboard-response,162,1010831,0.0-15.0-2.8,24567,List1A,black,man,,,,null,,,,,,,,,
10800.7,,,survey-text,163,1021637,0.0-15.0-3.8,24567,List1A,black,man,,,,,"{""Q0"":""fred is touched by luke""}","<img src=""stim_listA/touch6.gif""style=""height:400px;""></stim_listA>",is being touched by,,,,,,
null,"<div style=""font-size:60px;"">+</div>",,html-keyboard-response,164,1022139,0.0-15.0-0.9,24567,List1A,black,man,,,,null,,,,,,,,,
null,"<img src=""stim_listA/greet6.gif""style=""height:400px;""></stim_listA>",,html-keyboard-response,165,1024143,0.0-15.0-1.9,24567,List1A,black,man,,,,null,,,,,,,,,
null,is being greeted by,,html-keyboard-response,166,1026146,0.0-15.0-2.9,24567,List1A,black,man,,,,null,,,,,,,,,
9955.3,,,survey-text,167,1036106,0.0-15.0-3.9,24567,List1A,black,man,,,,,"{""Q0"":""dave is touched by fred""}","<img src=""stim_listA/greet6.gif""style=""height:400px;""></stim_listA>",is being greeted by,,,,,,
null,"<div style=""font-size:60px;"">+</div>",,html-keyboard-response,168,1036608,0.0-15.0-0.10,24567,List1A,black,man,,,,null,,,,,,,,,
null,"<img src=""stim_listA/greet7.gif""style=""height:400px;""></stim_listA>",,html-keyboard-response,169,1038620,0.0-15.0-1.10,24567,List1A,black,man,,,,null,,,,,,,,,
null,is greeting,,html-keyboard-response,170,1040633,0.0-15.0-2.10,24567,List1A,black,man,,,,null,,,,,,,,,
17775.3,,,survey-text,171,1058413,0.0-15.0-3.10,24567,List1A,black,man,,,,,"{""Q0"":""kate is greeting jane""}","<img src=""stim_listA/greet7.gif""style=""height:400px;""></stim_listA>",is greeting,,,,,,
null,"<div style=""font-size:60px;"">+</div>",,html-keyboard-response,172,1058915,0.0-15.0-0.11,24567,List1A,black,man,,,,null,,,,,,,,,
null,"<img src=""stim_listA/look4.gif""style=""height:400px;""></stim_listA>",,html-keyboard-response,173,1060920,0.0-15.0-1.11,24567,List1A,black,man,,,,null,,,,,,,,,
null,is being looked at by,,html-keyboard-response,174,1062923,0.0-15.0-2.11,24567,List1A,black,man,,,,null,,,,,,,,,
18073.1,,,survey-text,175,1081002,0.0-15.0-3.11,24567,List1A,black,man,,,,,"{""Q0"":""dave is being looked at by ruth""}","<img src=""stim_listA/look4.gif""style=""height:400px;""></stim_listA>",is being looked at by,,,,,,
null,"<div style=""font-size:60px;"">+</div>",,html-keyboard-response,176,1081504,0.0-15.0-0.12,24567,List1A,black,man,,,,null,,,,,,,,,
null,"<img src=""stim_listA/hug4.gif""style=""height:400px;""></stim_listA>",,html-keyboard-response,177,1083508,0.0-15.0-1.12,24567,List1A,black,man,,,,null,,,,,,,,,
null,is being hugged by,,html-keyboard-response,178,1085510,0.0-15.0-2.12,24567,List1A,black,man,,,,null,,,,,,,,,
19710.9,,,survey-text,179,1105225,0.0-15.0-3.12,24567,List1A,black,man,,,,,"{""Q0"":""ruth is being hugged by dave""}","<img src=""stim_listA/hug4.gif""style=""height:400px;""></stim_listA>",is being hugged by,,,,,,
null,"<div style=""font-size:60px;"">+</div>",,html-keyboard-response,180,1105726,0.0-15.0-0.13,24567,List1A,black,man,,,,null,,,,,,,,,
null,"<img src=""stim_listA/shout8.gif""style=""height:400px;""></stim_listA>",,html-keyboard-response,181,1107730,0.0-15.0-1.13,24567,List1A,black,man,,,,null,,,,,,,,,
null,is being shouted at by,,html-keyboard-response,182,1109732,0.0-15.0-2.13,24567,List1A,black,man,,,,null,,,,,,,,,
18792.9,,,survey-text,183,1128529,0.0-15.0-3.13,24567,List1A,black,man,,,,,"{""Q0"":""jane is being shouted at by kate""}","<img src=""stim_listA/shout8.gif""style=""height:400px;""></stim_listA>",is being shouted at by,,,,,,
null,"<div style=""font-size:60px;"">+</div>",,html-keyboard-response,184,1129031,0.0-15.0-0.14,24567,List1A,black,man,,,,null,,,,,,,,,
null,"<img src=""stim_listA/shout1.gif""style=""height:400px;""></stim_listA>",,html-keyboard-response,185,1131035,0.0-15.0-1.14,24567,List1A,black,man,,,,null,,,,,,,,,
null,is shouting at,,html-keyboard-response,186,1133037,0.0-15.0-2.14,24567,List1A,black,man,,,,null,,,,,,,,,
13627.4,,,survey-text,187,1146670,0.0-15.0-3.14,24567,List1A,black,man,,,,,"{""Q0"":""fred is shouting at beth""}","<img src=""stim_listA/shout1.gif""style=""height:400px;""></stim_listA>",is shouting at,,,,,,
null,"<div style=""font-size:60px;"">+</div>",,html-keyboard-response,188,1147172,0.0-15.0-0.15,24567,List1A,black,man,,,,null,,,,,,,,,
null,"<img src=""stim_listA/seduce8.gif""style=""height:400px;""></stim_listA>",,html-keyboard-response,189,1149176,0.0-15.0-1.15,24567,List1A,black,man,,,,null,,,,,,,,,
null,is being seduced by,,html-keyboard-response,190,1151179,0.0-15.0-2.15,24567,List1A,black,man,,,,null,,,,,,,,,
22642.1,,,survey-text,191,1173827,0.0-15.0-3.15,24567,List1A,black,man,,,,,"{""Q0"":""kate is being seduced by jane""}","<img src=""stim_listA/seduce8.gif""style=""height:400px;""></stim_listA>",is being seduced by,,,,,,
null,"<div style=""font-size:60px;"">+</div>",,html-keyboard-response,192,1174329,0.0-15.0-0.16,24567,List1A,black,man,,,,null,,,,,,,,,
null,"<img src=""stim_listA/shout5.gif""style=""height:400px;""></stim_listA>",,html-keyboard-response,193,1176333,0.0-15.0-1.16,24567,List1A,black,man,,,,null,,,,,,,,,
null,is shouting at,,html-keyboard-response,194,1178336,0.0-15.0-2.16,24567,List1A,black,man,,,,null,,,,,,,,,
17171,,,survey-text,195,1195511,0.0-15.0-3.16,24567,List1A,black,man,,,,,"{""Q0"":""mike is shouting luke""}","<img src=""stim_listA/shout5.gif""style=""height:400px;""></stim_listA>",is shouting at,,,,,,
null,"<div style=""font-size:60px;"">+</div>",,html-keyboard-response,196,1196013,0.0-15.0-0.17,24567,List1A,black,man,,,,null,,,,,,,,,
null,"<img src=""stim_listA/oppose7.gif""style=""height:400px;""></stim_listA>",,html-keyboard-response,197,1198017,0.0-15.0-1.17,24567,List1A,black,man,,,,null,,,,,,,,,
null,is opposing,,html-keyboard-response,198,1200019,0.0-15.0-2.17,24567,List1A,black,man,,,,null,,,,,,,,,
11337,,,survey-text,199,1211361,0.0-15.0-3.17,24567,List1A,black,man,,,,,"{""Q0"":""jane is opposing kate""}","<img src=""stim_listA/oppose7.gif""style=""height:400px;""></stim_listA>",is opposing,,,,,,
null,"<div style=""font-size:60px;"">+</div>",,html-keyboard-response,200,1211863,0.0-15.0-0.18,24567,List1A,black,man,,,,null,,,,,,,,,
null,"<img src=""stim_listA/oppose3.gif""style=""height:400px;""></stim_listA>",,html-keyboard-response,201,1213868,0.0-15.0-1.18,24567,List1A,black,man,,,,null,,,,,,,,,
null,is opposing,,html-keyboard-response,202,1215871,0.0-15.0-2.18,24567,List1A,black,man,,,,null,,,,,,,,,
12875.2,,,survey-text,203,1228751,0.0-15.0-3.18,24567,List1A,black,man,,,,,"{""Q0"":""jane is opposing dave""}","<img src=""stim_listA/oppose3.gif""style=""height:400px;""></stim_listA>",is opposing,,,,,,
null,"<div style=""font-size:60px;"">+</div>",,html-keyboard-response,204,1229253,0.0-15.0-0.19,24567,List1A,black,man,,,,null,,,,,,,,,
null,"<img src=""stim_listA/challenge1.gif""style=""height:400px;""></stim_listA>",,html-keyboard-response,205,1231257,0.0-15.0-1.19,24567,List1A,black,man,,,,null,,,,,,,,,
null,is challenging,,html-keyboard-response,206,1233260,0.0-15.0-2.19,24567,List1A,black,man,,,,null,,,,,,,,,
19611.7,,,survey-text,207,1252876,0.0-15.0-3.19,24567,List1A,black,man,,,,,"{""Q0"":""beth is challenging mike""}","<img src=""stim_listA/challenge1.gif""style=""height:400px;""></stim_listA>",is challenging,,,,,,
5797.5,"<img src='img/portrait_matrix_list1.jpg' style='width:900px;height:500px;''></img><p>If you have memorised all the portraits and names and are ready to start, press Continue.</p><p><strong>Please note: Your memory of these faces will be tested 4 times during this experiment.</strong></p>",0,html-button-response,208,1258676,0.0-16.0-0.0,24567,List1A,black,man,,,,,,,,,,,,,
3251.5,"<img src=""portrait/WW2.jpg""style=""height:400px;""></img>",3,html-button-response,209,1262932,0.0-16.0-1.0,24567,List1A,black,man,,TRUE,3,,,,,,,,,,
null,CORRECT,,html-keyboard-response,210,1264437,0.0-16.0-2.0-0.0,24567,List1A,black,man,,,,null,,,,,,,,,
3369.5,"<img src=""portrait/BM1.jpg""style=""height:400px;""></img>",4,html-button-response,211,1267809,0.0-16.0-4.0,24567,List1A,black,man,,TRUE,4,,,,,,,,,,
null,CORRECT,,html-keyboard-response,212,1269316,0.0-16.0-5.0-0.0,24567,List1A,black,man,,,,null,,,,,,,,,
3745.5,"<img src=""portrait/BM2.jpg""style=""height:400px;""></img>",5,html-button-response,213,1273065,0.0-16.0-7.0,24567,List1A,black,man,,TRUE,5,,,,,,,,,,
null,CORRECT,,html-keyboard-response,214,1274568,0.0-16.0-8.0-0.0,24567,List1A,black,man,,,,null,,,,,,,,,
2529,"<img src=""portrait/WM2.jpg""style=""height:400px;""></img>",7,html-button-response,215,1277100,0.0-16.0-10.0,24567,List1A,black,man,,TRUE,7,,,,,,,,,,
null,CORRECT,,html-keyboard-response,216,1278605,0.0-16.0-11.0-0.0,24567,List1A,black,man,,,,null,,,,,,,,,
6835.5,"<img src=""portrait/WW1.jpg""style=""height:400px;""></img>",1,html-button-response,217,1285443,0.0-16.0-13.0,24567,List1A,black,man,,TRUE,1,,,,,,,,,,
null,CORRECT,,html-keyboard-response,218,1286947,0.0-16.0-14.0-0.0,24567,List1A,black,man,,,,null,,,,,,,,,
6158.8,"<img src=""portrait/BW2.jpg""style=""height:400px;""></img>",2,html-button-response,219,1293109,0.0-16.0-16.0,24567,List1A,black,man,,TRUE,2,,,,,,,,,,
null,CORRECT,,html-keyboard-response,220,1294615,0.0-16.0-17.0-0.0,24567,List1A,black,man,,,,null,,,,,,,,,
7395.5,"<img src=""portrait/BW1.jpg""style=""height:400px;""></img>",0,html-button-response,221,1302013,0.0-16.0-19.0,24567,List1A,black,man,,TRUE,0,,,,,,,,,,
null,CORRECT,,html-keyboard-response,222,1303517,0.0-16.0-20.0-0.0,24567,List1A,black,man,,,,null,,,,,,,,,
4118.1,"<img src=""portrait/WM1.jpg""style=""height:400px;""></img>",6,html-button-response,223,1307637,0.0-16.0-22.0,24567,List1A,black,man,,TRUE,6,,,,,,,,,,
null,CORRECT,,html-keyboard-response,224,1309139,0.0-16.0-23.0-0.0,24567,List1A,black,man,,,,null,,,,,,,,,
2954.1,<p>You got 8 out of 8 right first time. Press Continue.</p>,0,html-button-response,225,1312096,0.0-16.0-25.0,24567,List1A,black,man,,,,,,,,,,,,,
null,"<div style=""font-size:60px;"">+</div>",,html-keyboard-response,226,1313602,0.0-17.0-0.0,24567,List1A,black,man,,,,null,,,,,,,,,
null,"<img src=""stim_listA/challenge6.gif""style=""height:400px;""></stim_listA>",,html-keyboard-response,227,1315618,0.0-17.0-1.0,24567,List1A,black,man,,,,null,,,,,,,,,
null,is being challenged by,,html-keyboard-response,228,1317620,0.0-17.0-2.0,24567,List1A,black,man,,,,null,,,,,,,,,
24158.2,,,survey-text,229,1341784,0.0-17.0-3.0,24567,List1A,black,man,,,,,"{""Q0"":""dave is being challenged by fred""}","<img src=""stim_listA/challenge6.gif""style=""height:400px;""></stim_listA>",is being challenged by,,,,,,
null,"<div style=""font-size:60px;"">+</div>",,html-keyboard-response,230,1342285,0.0-17.0-0.1,24567,List1A,black,man,,,,null,,,,,,,,,
null,"<img src=""stim_listA/touch4.gif""style=""height:400px;""></stim_listA>",,html-keyboard-response,231,1344289,0.0-17.0-1.1,24567,List1A,black,man,,,,null,,,,,,,,,
null,is being touched by,,html-keyboard-response,232,1346291,0.0-17.0-2.1,24567,List1A,black,man,,,,null,,,,,,,,,
12913,,,survey-text,233,1359209,0.0-17.0-3.1,24567,List1A,black,man,,,,,"{""Q0"":""mike is being touched by jane""}","<img src=""stim_listA/touch4.gif""style=""height:400px;""></stim_listA>",is being touched by,,,,,,
null,"<div style=""font-size:60px;"">+</div>",,html-keyboard-response,234,1359723,0.0-17.0-0.2,24567,List1A,black,man,,,,null,,,,,,,,,
null,"<img src=""stim_listA/copy4.gif""style=""height:400px;""></stim_listA>",,html-keyboard-response,235,1361726,0.0-17.0-1.2,24567,List1A,black,man,,,,null,,,,,,,,,
null,is being copied by,,html-keyboard-response,236,1363729,0.0-17.0-2.2,24567,List1A,black,man,,,,null,,,,,,,,,
34458.1,,,survey-text,237,1398192,0.0-17.0-3.2,24567,List1A,black,man,,,,,"{""Q0"":""jane is being copied by luke""}","<img src=""stim_listA/copy4.gif""style=""height:400px;""></stim_listA>",is being copied by,,,,,,
null,"<div style=""font-size:60px;"">+</div>",,html-keyboard-response,238,1398700,0.0-17.0-0.3,24567,List1A,black,man,,,,null,,,,,,,,,
null,"<img src=""stim_listA/seduce2.gif""style=""height:400px;""></stim_listA>",,html-keyboard-response,239,1400717,0.0-17.0-1.3,24567,List1A,black,man,,,,null,,,,,,,,,
null,is being seduced by,,html-keyboard-response,240,1402719,0.0-17.0-2.3,24567,List1A,black,man,,,,null,,,,,,,,,
19400.6,,,survey-text,241,1422125,0.0-17.0-3.3,24567,List1A,black,man,,,,,"{""Q0"":""beth is being seduced by mike""}","<img src=""stim_listA/seduce2.gif""style=""height:400px;""></stim_listA>",is being seduced by,,,,,,
null,"<div style=""font-size:60px;"">+</div>",,html-keyboard-response,242,1422627,0.0-17.0-0.4,24567,List1A,black,man,,,,null,,,,,,,,,
null,"<img src=""stim_listA/hug6.gif""style=""height:400px;""></stim_listA>",,html-keyboard-response,243,1424632,0.0-17.0-1.4,24567,List1A,black,man,,,,null,,,,,,,,,
null,is being hugged by,,html-keyboard-response,244,1426635,0.0-17.0-2.4,24567,List1A,black,man,,,,null,,,,,,,,,
18491.3,,,survey-text,245,1445131,0.0-17.0-3.4,24567,List1A,black,man,,,,,"{""Q0"":""dave is being hugged by mike""}","<img src=""stim_listA/hug6.gif""style=""height:400px;""></stim_listA>",is being hugged by,,,,,,
null,"<div style=""font-size:60px;"">+</div>",,html-keyboard-response,246,1445634,0.0-17.0-0.5,24567,List1A,black,man,,,,null,,,,,,,,,
null,"<img src=""stim_listA/shout6.gif""style=""height:400px;""></stim_listA>",,html-keyboard-response,247,1447638,0.0-17.0-1.5,24567,List1A,black,man,,,,null,,,,,,,,,
null,is being shouted at by,,html-keyboard-response,248,1449641,0.0-17.0-2.5,24567,List1A,black,man,,,,null,,,,,,,,,
26625.3,,,survey-text,249,1476271,0.0-17.0-3.5,24567,List1A,black,man,,,,,"{""Q0"":""mike is being shouted at by dave""}","<img src=""stim_listA/shout6.gif""style=""height:400px;""></stim_listA>",is being shouted at by,,,,,,
null,"<div style=""font-size:60px;"">+</div>",,html-keyboard-response,250,1476774,0.0-17.0-0.6,24567,List1A,black,man,,,,null,,,,,,,,,
null,"<img src=""stim_listA/challenge8.gif""style=""height:400px;""></stim_listA>",,html-keyboard-response,251,1478778,0.0-17.0-1.6,24567,List1A,black,man,,,,null,,,,,,,,,
null,is being challenged by,,html-keyboard-response,252,1480780,0.0-17.0-2.6,24567,List1A,black,man,,,,null,,,,,,,,,
15770.5,,,survey-text,253,1496556,0.0-17.0-3.6,24567,List1A,black,man,,,,,"{""Q0"":""jane is being challenged by beth""}","<img src=""stim_listA/challenge8.gif""style=""height:400px;""></stim_listA>",is being challenged by,,,,,,
null,"<div style=""font-size:60px;"">+</div>",,html-keyboard-response,254,1497058,0.0-17.0-0.7,24567,List1A,black,man,,,,null,,,,,,,,,
null,"<img src=""stim_listA/kiss3.gif""style=""height:400px;""></stim_listA>",,html-keyboard-response,255,1499062,0.0-17.0-1.7,24567,List1A,black,man,,,,null,,,,,,,,,
null,is kissing,,html-keyboard-response,256,1501065,0.0-17.0-2.7,24567,List1A,black,man,,,,null,,,,,,,,,
14808.8,,,survey-text,257,1515878,0.0-17.0-3.7,24567,List1A,black,man,,,,,"{""Q0"":""ruth is kissing luke""}","<img src=""stim_listA/kiss3.gif""style=""height:400px;""></stim_listA>",is kissing,,,,,,
null,"<div style=""font-size:60px;"">+</div>",,html-keyboard-response,258,1516381,0.0-17.0-0.8,24567,List1A,black,man,,,,null,,,,,,,,,
null,"<img src=""stim_listA/touch1.gif""style=""height:400px;""></stim_listA>",,html-keyboard-response,259,1518385,0.0-17.0-1.8,24567,List1A,black,man,,,,null,,,,,,,,,
null,is touching,,html-keyboard-response,260,1520388,0.0-17.0-2.8,24567,List1A,black,man,,,,null,,,,,,,,,
19392.1,,,survey-text,261,1539785,0.0-17.0-3.8,24567,List1A,black,man,,,,,"{""Q0"":""mike is touching kate""}","<img src=""stim_listA/touch1.gif""style=""height:400px;""></stim_listA>",is touching,,,,,,
null,"<div style=""font-size:60px;"">+</div>",,html-keyboard-response,262,1540287,0.0-17.0-0.9,24567,List1A,black,man,,,,null,,,,,,,,,
null,"<img src=""stim_listA/greet5.gif""style=""height:400px;""></stim_listA>",,html-keyboard-response,263,1542291,0.0-17.0-1.9,24567,List1A,black,man,,,,null,,,,,,,,,
null,is greeting,,html-keyboard-response,264,1544294,0.0-17.0-2.9,24567,List1A,black,man,,,,null,,,,,,,,,
19644,,,survey-text,265,1563943,0.0-17.0-3.9,24567,List1A,black,man,,,,,"{""Q0"":""luke is greeting mike""}","<img src=""stim_listA/greet5.gif""style=""height:400px;""></stim_listA>",is greeting,,,,,,
null,"<div style=""font-size:60px;"">+</div>",,html-keyboard-response,266,1564445,0.0-17.0-0.10,24567,List1A,black,man,,,,null,,,,,,,,,
null,"<img src=""stim_listA/challenge3.gif""style=""height:400px;""></stim_listA>",,html-keyboard-response,267,1566450,0.0-17.0-1.10,24567,List1A,black,man,,,,null,,,,,,,,,
null,is challenging,,html-keyboard-response,268,1568452,0.0-17.0-2.10,24567,List1A,black,man,,,,null,,,,,,,,,
17170.2,,,survey-text,269,1585627,0.0-17.0-3.10,24567,List1A,black,man,,,,,"{""Q0"":""dave is challenging ruth""}","<img src=""stim_listA/challenge3.gif""style=""height:400px;""></stim_listA>",is challenging,,,,,,
null,"<div style=""font-size:60px;"">+</div>",,html-keyboard-response,270,1586129,0.0-17.0-0.11,24567,List1A,black,man,,,,null,,,,,,,,,
null,"<img src=""stim_listA/greet3.gif""style=""height:400px;""></stim_listA>",,html-keyboard-response,271,1588133,0.0-17.0-1.11,24567,List1A,black,man,,,,null,,,,,,,,,
null,is greeting,,html-keyboard-response,272,1590135,0.0-17.0-2.11,24567,List1A,black,man,,,,null,,,,,,,,,
11078.9,,,survey-text,273,1601219,0.0-17.0-3.11,24567,List1A,black,man,,,,,"{""Q0"":""dave is greeting ruth""}","<img src=""stim_listA/greet3.gif""style=""height:400px;""></stim_listA>",is greeting,,,,,,
null,"<div style=""font-size:60px;"">+</div>",,html-keyboard-response,274,1601721,0.0-17.0-0.12,24567,List1A,black,man,,,,null,,,,,,,,,
null,"<img src=""stim_listA/kiss8.gif""style=""height:400px;""></stim_listA>",,html-keyboard-response,275,1603725,0.0-17.0-1.12,24567,List1A,black,man,,,,null,,,,,,,,,
null,is being kissed by,,html-keyboard-response,276,1605728,0.0-17.0-2.12,24567,List1A,black,man,,,,null,,,,,,,,,
23251.4,,,survey-text,277,1628984,0.0-17.0-3.12,24567,List1A,black,man,,,,,"{""Q0"":""kate is being kissed by jane""}","<img src=""stim_listA/kiss8.gif""style=""height:400px;""></stim_listA>",is being kissed by,,,,,,
null,"<div style=""font-size:60px;"">+</div>",,html-keyboard-response,278,1629487,0.0-17.0-0.13,24567,List1A,black,man,,,,null,,,,,,,,,
null,"<img src=""stim_listA/hug1.gif""style=""height:400px;""></stim_listA>",,html-keyboard-response,279,1631491,0.0-17.0-1.13,24567,List1A,black,man,,,,null,,,,,,,,,
null,is hugging,,html-keyboard-response,280,1633494,0.0-17.0-2.13,24567,List1A,black,man,,,,null,,,,,,,,,
16448.2,,,survey-text,281,1649947,0.0-17.0-3.13,24567,List1A,black,man,,,,,"{""Q0"":""beth is kissing fred""}","<img src=""stim_listA/hug1.gif""style=""height:400px;""></stim_listA>",is hugging,,,,,,
null,"<div style=""font-size:60px;"">+</div>",,html-keyboard-response,282,1650448,0.0-17.0-0.14,24567,List1A,black,man,,,,null,,,,,,,,,
null,"<img src=""stim_listA/seduce3.gif""style=""height:400px;""></stim_listA>",,html-keyboard-response,283,1652451,0.0-17.0-1.14,24567,List1A,black,man,,,,null,,,,,,,,,
null,is seducing,,html-keyboard-response,284,1654453,0.0-17.0-2.14,24567,List1A,black,man,,,,null,,,,,,,,,
10912.1,,,survey-text,285,1665370,0.0-17.0-3.14,24567,List1A,black,man,,,,,"{""Q0"":""jane is seducing luke""}","<img src=""stim_listA/seduce3.gif""style=""height:400px;""></stim_listA>",is seducing,,,,,,
null,"<div style=""font-size:60px;"">+</div>",,html-keyboard-response,286,1665873,0.0-17.0-0.15,24567,List1A,black,man,,,,null,,,,,,,,,
null,"<img src=""stim_listA/touch2.gif""style=""height:400px;""></stim_listA>",,html-keyboard-response,287,1667877,0.0-17.0-1.15,24567,List1A,black,man,,,,null,,,,,,,,,
null,is being touched by,,html-keyboard-response,288,1669880,0.0-17.0-2.15,24567,List1A,black,man,,,,null,,,,,,,,,
20846.2,,,survey-text,289,1690733,0.0-17.0-3.15,24567,List1A,black,man,,,,,"{""Q0"":""fred is being touched by beth""}","<img src=""stim_listA/touch2.gif""style=""height:400px;""></stim_listA>",is being touched by,,,,,,
null,"<div style=""font-size:60px;"">+</div>",,html-keyboard-response,290,1691235,0.0-17.0-0.16,24567,List1A,black,man,,,,null,,,,,,,,,
null,"<img src=""stim_listA/seduce7.gif""style=""height:400px;""></stim_listA>",,html-keyboard-response,291,1693240,0.0-17.0-1.16,24567,List1A,black,man,,,,null,,,,,,,,,
null,is seducing,,html-keyboard-response,292,1695243,0.0-17.0-2.16,24567,List1A,black,man,,,,null,,,,,,,,,
20550.7,,,survey-text,293,1715798,0.0-17.0-3.16,24567,List1A,black,man,,,,,"{""Q0"":""beth is seducing jane""}","<img src=""stim_listA/seduce7.gif""style=""height:400px;""></stim_listA>",is seducing,,,,,,
null,"<div style=""font-size:60px;"">+</div>",,html-keyboard-response,294,1716300,0.0-17.0-0.17,24567,List1A,black,man,,,,null,,,,,,,,,
null,"<img src=""stim_listA/oppose2.gif""style=""height:400px;""></stim_listA>",,html-keyboard-response,295,1718302,0.0-17.0-1.17,24567,List1A,black,man,,,,null,,,,,,,,,
null,is being opposed by,,html-keyboard-response,296,1720305,0.0-17.0-2.17,24567,List1A,black,man,,,,null,,,,,,,,,
22074,,,survey-text,297,1742383,0.0-17.0-3.17,24567,List1A,black,man,,,,,"{""Q0"":""beth is being opposed by fred""}","<img src=""stim_listA/oppose2.gif""style=""height:400px;""></stim_listA>",is being opposed by,,,,,,
null,"<div style=""font-size:60px;"">+</div>",,html-keyboard-response,298,1742899,0.0-17.0-0.18,24567,List1A,black,man,,,,null,,,,,,,,,
null,"<img src=""stim_listA/hug3.gif""style=""height:400px;""></stim_listA>",,html-keyboard-response,299,1744903,0.0-17.0-1.18,24567,List1A,black,man,,,,null,,,,,,,,,
null,is hugging,,html-keyboard-response,300,1746905,0.0-17.0-2.18,24567,List1A,black,man,,,,null,,,,,,,,,
11761.6,,,survey-text,301,1758671,0.0-17.0-3.18,24567,List1A,black,man,,,,,"{""Q0"":""ruth is hugging luke""}","<img src=""stim_listA/hug3.gif""style=""height:400px;""></stim_listA>",is hugging,,,,,,
null,"<div style=""font-size:60px;"">+</div>",,html-keyboard-response,302,1759174,0.0-17.0-0.19,24567,List1A,black,man,,,,null,,,,,,,,,
null,"<img src=""stim_listA/shout2.gif""style=""height:400px;""></stim_listA>",,html-keyboard-response,303,1761178,0.0-17.0-1.19,24567,List1A,black,man,,,,null,,,,,,,,,
null,is being shouted at by,,html-keyboard-response,304,1763180,0.0-17.0-2.19,24567,List1A,black,man,,,,null,,,,,,,,,
17775.9,,,survey-text,305,1780961,0.0-17.0-3.19,24567,List1A,black,man,,,,,"{""Q0"":""jane is being shouted at by mike""}","<img src=""stim_listA/shout2.gif""style=""height:400px;""></stim_listA>",is being shouted at by,,,,,,
4811.5,"<img src='img/portrait_matrix_list1.jpg' style='width:900px;height:500px;''></img><p>If you have memorised all the portraits and names and are ready to start, press Continue.</p><p><strong>Please note: Your memory of these faces will be tested 4 times during this experiment.</strong></p>",0,html-button-response,306,1785774,0.0-18.0-0.0,24567,List1A,black,man,,,,,,,,,,,,,
4209.3,"<img src=""portrait/WM1.jpg""style=""height:400px;""></img>",6,html-button-response,307,1790986,0.0-18.0-1.0,24567,List1A,black,man,,TRUE,6,,,,,,,,,,
null,CORRECT,,html-keyboard-response,308,1792489,0.0-18.0-2.0-0.0,24567,List1A,black,man,,,,null,,,,,,,,,
3807.5,"<img src=""portrait/BM2.jpg""style=""height:400px;""></img>",5,html-button-response,309,1796300,0.0-18.0-4.0,24567,List1A,black,man,,TRUE,5,,,,,,,,,,
null,CORRECT,,html-keyboard-response,310,1797804,0.0-18.0-5.0-0.0,24567,List1A,black,man,,,,null,,,,,,,,,
5159.6,"<img src=""portrait/WM2.jpg""style=""height:400px;""></img>",7,html-button-response,311,1802966,0.0-18.0-7.0,24567,List1A,black,man,,TRUE,7,,,,,,,,,,
null,CORRECT,,html-keyboard-response,312,1804470,0.0-18.0-8.0-0.0,24567,List1A,black,man,,,,null,,,,,,,,,
3666,"<img src=""portrait/WW2.jpg""style=""height:400px;""></img>",3,html-button-response,313,1808139,0.0-18.0-10.0,24567,List1A,black,man,,TRUE,3,,,,,,,,,,
null,CORRECT,,html-keyboard-response,314,1809641,0.0-18.0-11.0-0.0,24567,List1A,black,man,,,,null,,,,,,,,,
8999.4,"<img src=""portrait/WW1.jpg""style=""height:400px;""></img>",1,html-button-response,315,1818644,0.0-18.0-13.0,24567,List1A,black,man,,TRUE,1,,,,,,,,,,
null,CORRECT,,html-keyboard-response,316,1820147,0.0-18.0-14.0-0.0,24567,List1A,black,man,,,,null,,,,,,,,,
5162.6,"<img src=""portrait/BW1.jpg""style=""height:400px;""></img>",0,html-button-response,317,1825313,0.0-18.0-16.0,24567,List1A,black,man,,TRUE,0,,,,,,,,,,
null,CORRECT,,html-keyboard-response,318,1826817,0.0-18.0-17.0-0.0,24567,List1A,black,man,,,,null,,,,,,,,,
3481.9,"<img src=""portrait/BM1.jpg""style=""height:400px;""></img>",4,html-button-response,319,1830303,0.0-18.0-19.0,24567,List1A,black,man,,TRUE,4,,,,,,,,,,
null,CORRECT,,html-keyboard-response,320,1831807,0.0-18.0-20.0-0.0,24567,List1A,black,man,,,,null,,,,,,,,,
2921.3,"<img src=""portrait/BW2.jpg""style=""height:400px;""></img>",2,html-button-response,321,1834731,0.0-18.0-22.0,24567,List1A,black,man,,TRUE,2,,,,,,,,,,
null,CORRECT,,html-keyboard-response,322,1836234,0.0-18.0-23.0-0.0,24567,List1A,black,man,,,,null,,,,,,,,,
3554.9,<p>You got 8 out of 8 right first time. Press Continue.</p>,0,html-button-response,323,1839793,0.0-18.0-25.0,24567,List1A,black,man,,,,,,,,,,,,,
null,"<div style=""font-size:60px;"">+</div>",,html-keyboard-response,324,1841298,0.0-19.0-0.0,24567,List1A,black,man,,,,null,,,,,,,,,
null,"<img src=""stim_listA/seduce5.gif""style=""height:400px;""></stim_listA>",,html-keyboard-response,325,1843302,0.0-19.0-1.0,24567,List1A,black,man,,,,null,,,,,,,,,
null,is seducing,,html-keyboard-response,326,1845304,0.0-19.0-2.0,24567,List1A,black,man,,,,null,,,,,,,,,
21416.2,,,survey-text,327,1866725,0.0-19.0-3.0,24567,List1A,black,man,,,,,"{""Q0"":""luke is seducing dave""}","<img src=""stim_listA/seduce5.gif""style=""height:400px;""></stim_listA>",is seducing,,,,,,
null,"<div style=""font-size:60px;"">+</div>",,html-keyboard-response,328,1867227,0.0-19.0-0.1,24567,List1A,black,man,,,,null,,,,,,,,,
null,"<img src=""stim_listA/copy2.gif""style=""height:400px;""></stim_listA>",,html-keyboard-response,329,1869232,0.0-19.0-1.1,24567,List1A,black,man,,,,null,,,,,,,,,
null,is being copied by,,html-keyboard-response,330,1871235,0.0-19.0-2.1,24567,List1A,black,man,,,,null,,,,,,,,,
14702.9,,,survey-text,331,1885943,0.0-19.0-3.1,24567,List1A,black,man,,,,,"{""Q0"":""kate is copied by fred""}","<img src=""stim_listA/copy2.gif""style=""height:400px;""></stim_listA>",is being copied by,,,,,,
null,"<div style=""font-size:60px;"">+</div>",,html-keyboard-response,332,1886446,0.0-19.0-0.2,24567,List1A,black,man,,,,null,,,,,,,,,
null,"<img src=""stim_listA/greet4.gif""style=""height:400px;""></stim_listA>",,html-keyboard-response,333,1888450,0.0-19.0-1.2,24567,List1A,black,man,,,,null,,,,,,,,,
null,is being greeted by,,html-keyboard-response,334,1890453,0.0-19.0-2.2,24567,List1A,black,man,,,,null,,,,,,,,,
24753.5,,,survey-text,335,1915211,0.0-19.0-3.2,24567,List1A,black,man,,,,,"{""Q0"":""jane is greeted by luke""}","<img src=""stim_listA/greet4.gif""style=""height:400px;""></stim_listA>",is being greeted by,,,,,,
null,"<div style=""font-size:60px;"">+</div>",,html-keyboard-response,336,1915714,0.0-19.0-0.3,24567,List1A,black,man,,,,null,,,,,,,,,
null,"<img src=""stim_listA/look8.gif""style=""height:400px;""></stim_listA>",,html-keyboard-response,337,1917718,0.0-19.0-1.3,24567,List1A,black,man,,,,null,,,,,,,,,
null,is being looked at by,,html-keyboard-response,338,1919721,0.0-19.0-2.3,24567,List1A,black,man,,,,null,,,,,,,,,
19709.7,,,survey-text,339,1939437,0.0-19.0-3.3,24567,List1A,black,man,,,,,"{""Q0"":""kate is being looked at by jane""}","<img src=""stim_listA/look8.gif""style=""height:400px;""></stim_listA>",is being looked at by,,,,,,
null,"<div style=""font-size:60px;"">+</div>",,html-keyboard-response,340,1939939,0.0-19.0-0.4,24567,List1A,black,man,,,,null,,,,,,,,,
null,"<img src=""stim_listA/hug2.gif""style=""height:400px;""></stim_listA>",,html-keyboard-response,341,1941944,0.0-19.0-1.4,24567,List1A,black,man,,,,null,,,,,,,,,
null,is being hugged by,,html-keyboard-response,342,1943958,0.0-19.0-2.4,24567,List1A,black,man,,,,null,,,,,,,,,
12804.2,,,survey-text,343,1956767,0.0-19.0-3.4,24567,List1A,black,man,,,,,"{""Q0"":""kate is being hugged by mike""}","<img src=""stim_listA/hug2.gif""style=""height:400px;""></stim_listA>",is being hugged by,,,,,,
null,"<div style=""font-size:60px;"">+</div>",,html-keyboard-response,344,1957269,0.0-19.0-0.5,24567,List1A,black,man,,,,null,,,,,,,,,
null,"<img src=""stim_listA/copy1.gif""style=""height:400px;""></stim_listA>",,html-keyboard-response,345,1959274,0.0-19.0-1.5,24567,List1A,black,man,,,,null,,,,,,,,,
null,is copying,,html-keyboard-response,346,1961278,0.0-19.0-2.5,24567,List1A,black,man,,,,null,,,,,,,,,
8945.4,,,survey-text,347,1970230,0.0-19.0-3.5,24567,List1A,black,man,,,,,"{""Q0"":""beth is copied by mike""}","<img src=""stim_listA/copy1.gif""style=""height:400px;""></stim_listA>",is copying,,,,,,
null,"<div style=""font-size:60px;"">+</div>",,html-keyboard-response,348,1970732,0.0-19.0-0.6,24567,List1A,black,man,,,,null,,,,,,,,,
null,"<img src=""stim_listA/oppose5.gif""style=""height:400px;""></stim_listA>",,html-keyboard-response,349,1972736,0.0-19.0-1.6,24567,List1A,black,man,,,,null,,,,,,,,,
null,is opposing,,html-keyboard-response,350,1974739,0.0-19.0-2.6,24567,List1A,black,man,,,,null,,,,,,,,,
25842.6,,,survey-text,351,2000586,0.0-19.0-3.6,24567,List1A,black,man,,,,,"{""Q0"":""dave is opposing mike""}","<img src=""stim_listA/oppose5.gif""style=""height:400px;""></stim_listA>",is opposing,,,,,,
null,"<div style=""font-size:60px;"">+</div>",,html-keyboard-response,352,2001088,0.0-19.0-0.7,24567,List1A,black,man,,,,null,,,,,,,,,
null,"<img src=""stim_listA/copy8.gif""style=""height:400px;""></stim_listA>",,html-keyboard-response,353,2003093,0.0-19.0-1.7,24567,List1A,black,man,,,,null,,,,,,,,,
null,is being copied by,,html-keyboard-response,354,2005095,0.0-19.0-2.7,24567,List1A,black,man,,,,null,,,,,,,,,
15773.4,,,survey-text,355,2020874,0.0-19.0-3.7,24567,List1A,black,man,,,,,"{""Q0"":""jane is copied by beth""}","<img src=""stim_listA/copy8.gif""style=""height:400px;""></stim_listA>",is being copied by,,,,,,
null,"<div style=""font-size:60px;"">+</div>",,html-keyboard-response,356,2021375,0.0-19.0-0.8,24567,List1A,black,man,,,,null,,,,,,,,,
null,"<img src=""stim_listA/touch7.gif""style=""height:400px;""></stim_listA>",,html-keyboard-response,357,2023379,0.0-19.0-1.8,24567,List1A,black,man,,,,null,,,,,,,,,
null,is touching,,html-keyboard-response,358,2025381,0.0-19.0-2.8,24567,List1A,black,man,,,,null,,,,,,,,,
14918.6,,,survey-text,359,2040304,0.0-19.0-3.8,24567,List1A,black,man,,,,,"{""Q0"":""jane is touching kate""}","<img src=""stim_listA/touch7.gif""style=""height:400px;""></stim_listA>",is touching,,,,,,
null,"<div style=""font-size:60px;"">+</div>",,html-keyboard-response,360,2040806,0.0-19.0-0.9,24567,List1A,black,man,,,,null,,,,,,,,,
null,"<img src=""stim_listA/look2.gif""style=""height:400px;""></stim_listA>",,html-keyboard-response,361,2042810,0.0-19.0-1.9,24567,List1A,black,man,,,,null,,,,,,,,,
null,is being looked at by,,html-keyboard-response,362,2044812,0.0-19.0-2.9,24567,List1A,black,man,,,,null,,,,,,,,,
26742.9,,,survey-text,363,2071559,0.0-19.0-3.9,24567,List1A,black,man,,,,,"{""Q0"":""beth is looked at by mike""}","<img src=""stim_listA/look2.gif""style=""height:400px;""></stim_listA>",is being looked at by,,,,,,
null,"<div style=""font-size:60px;"">+</div>",,html-keyboard-response,364,2072061,0.0-19.0-0.10,24567,List1A,black,man,,,,null,,,,,,,,,
null,"<img src=""stim_listA/kiss1.gif""style=""height:400px;""></stim_listA>",,html-keyboard-response,365,2074065,0.0-19.0-1.10,24567,List1A,black,man,,,,null,,,,,,,,,
null,is kissing,,html-keyboard-response,366,2076069,0.0-19.0-2.10,24567,List1A,black,man,,,,null,,,,,,,,,
10564.9,,,survey-text,367,2086639,0.0-19.0-3.10,24567,List1A,black,man,,,,,"{""Q0"":""fred is kissing beth""}","<img src=""stim_listA/kiss1.gif""style=""height:400px;""></stim_listA>",is kissing,,,,,,
null,"<div style=""font-size:60px;"">+</div>",,html-keyboard-response,368,2087141,0.0-19.0-0.11,24567,List1A,black,man,,,,null,,,,,,,,,
null,"<img src=""stim_listA/shout3.gif""style=""height:400px;""></stim_listA>",,html-keyboard-response,369,2089146,0.0-19.0-1.11,24567,List1A,black,man,,,,null,,,,,,,,,
null,is shouting at,,html-keyboard-response,370,2091149,0.0-19.0-2.11,24567,List1A,black,man,,,,null,,,,,,,,,
16302,,,survey-text,371,2107455,0.0-19.0-3.11,24567,List1A,black,man,,,,,"{""Q0"":""luke is shouting at ruth""}","<img src=""stim_listA/shout3.gif""style=""height:400px;""></stim_listA>",is shouting at,,,,,,
null,"<div style=""font-size:60px;"">+</div>",,html-keyboard-response,372,2107957,0.0-19.0-0.12,24567,List1A,black,man,,,,null,,,,,,,,,
null,"<img src=""stim_listA/look1.gif""style=""height:400px;""></stim_listA>",,html-keyboard-response,373,2109962,0.0-19.0-1.12,24567,List1A,black,man,,,,null,,,,,,,,,
null,is looking at,,html-keyboard-response,374,2111964,0.0-19.0-2.12,24567,List1A,black,man,,,,null,,,,,,,,,
13346.5,,,survey-text,375,2125315,0.0-19.0-3.12,24567,List1A,black,man,,,,,"{""Q0"":""fred is looking at beth ""}","<img src=""stim_listA/look1.gif""style=""height:400px;""></stim_listA>",is looking at,,,,,,
null,"<div style=""font-size:60px;"">+</div>",,html-keyboard-response,376,2125817,0.0-19.0-0.13,24567,List1A,black,man,,,,null,,,,,,,,,
null,"<img src=""stim_listA/kiss6.gif""style=""height:400px;""></stim_listA>",,html-keyboard-response,377,2127822,0.0-19.0-1.13,24567,List1A,black,man,,,,null,,,,,,,,,
null,is being kissed by,,html-keyboard-response,378,2129826,0.0-19.0-2.13,24567,List1A,black,man,,,,null,,,,,,,,,
35801.6,,,survey-text,379,2165633,0.0-19.0-3.13,24567,List1A,black,man,,,,,"{""Q0"":""dave is kissed by mike""}","<img src=""stim_listA/kiss6.gif""style=""height:400px;""></stim_listA>",is being kissed by,,,,,,
null,"<div style=""font-size:60px;"">+</div>",,html-keyboard-response,380,2166138,0.0-19.0-0.14,24567,List1A,black,man,,,,null,,,,,,,,,
null,"<img src=""stim_listA/oppose4.gif""style=""height:400px;""></stim_listA>",,html-keyboard-response,381,2168144,0.0-19.0-1.14,24567,List1A,black,man,,,,null,,,,,,,,,
null,is being opposed by,,html-keyboard-response,382,2170146,0.0-19.0-2.14,24567,List1A,black,man,,,,null,,,,,,,,,
15013.2,,,survey-text,383,2185164,0.0-19.0-3.14,24567,List1A,black,man,,,,,"{""Q0"":""is opposed by ruth""}","<img src=""stim_listA/oppose4.gif""style=""height:400px;""></stim_listA>",is being opposed by,,,,,,
null,"<div style=""font-size:60px;"">+</div>",,html-keyboard-response,384,2185666,0.0-19.0-0.15,24567,List1A,black,man,,,,null,,,,,,,,,
null,"<img src=""stim_listA/oppose1.gif""style=""height:400px;""></stim_listA>",,html-keyboard-response,385,2187671,0.0-19.0-1.15,24567,List1A,black,man,,,,null,,,,,,,,,
null,is opposing,,html-keyboard-response,386,2189674,0.0-19.0-2.15,24567,List1A,black,man,,,,null,,,,,,,,,
19615.3,,,survey-text,387,2209294,0.0-19.0-3.15,24567,List1A,black,man,,,,,"{""Q0"":""mike is opposing kate""}","<img src=""stim_listA/oppose1.gif""style=""height:400px;""></stim_listA>",is opposing,,,,,,
null,"<div style=""font-size:60px;"">+</div>",,html-keyboard-response,388,2209796,0.0-19.0-0.16,24567,List1A,black,man,,,,null,,,,,,,,,
null,"<img src=""stim_listA/copy3.gif""style=""height:400px;""></stim_listA>",,html-keyboard-response,389,2211801,0.0-19.0-1.16,24567,List1A,black,man,,,,null,,,,,,,,,
null,is copying,,html-keyboard-response,390,2213805,0.0-19.0-2.16,24567,List1A,black,man,,,,null,,,,,,,,,
15826.8,,,survey-text,391,2229643,0.0-19.0-3.16,24567,List1A,black,man,,,,,"{""Q0"":""ruth is fighting dave""}","<img src=""stim_listA/copy3.gif""style=""height:400px;""></stim_listA>",is copying,,,,,,
null,"<div style=""font-size:60px;"">+</div>",,html-keyboard-response,392,2230144,0.0-19.0-0.17,24567,List1A,black,man,,,,null,,,,,,,,,
null,"<img src=""stim_listA/seduce6.gif""style=""height:400px;""></stim_listA>",,html-keyboard-response,393,2232149,0.0-19.0-1.17,24567,List1A,black,man,,,,null,,,,,,,,,
null,is being seduced by,,html-keyboard-response,394,2234151,0.0-19.0-2.17,24567,List1A,black,man,,,,null,,,,,,,,,
15019.7,,,survey-text,395,2249176,0.0-19.0-3.17,24567,List1A,black,man,,,,,"{""Q0"":""luke is being seduced by mike""}","<img src=""stim_listA/seduce6.gif""style=""height:400px;""></stim_listA>",is being seduced by,,,,,,
null,"<div style=""font-size:60px;"">+</div>",,html-keyboard-response,396,2249678,0.0-19.0-0.18,24567,List1A,black,man,,,,null,,,,,,,,,
null,"<img src=""stim_listA/touch5.gif""style=""height:400px;""></stim_listA>",,html-keyboard-response,397,2251694,0.0-19.0-1.18,24567,List1A,black,man,,,,null,,,,,,,,,
null,is touching,,html-keyboard-response,398,2253697,0.0-19.0-2.18,24567,List1A,black,man,,,,null,,,,,,,,,
18445.6,,,survey-text,399,2272147,0.0-19.0-3.18,24567,List1A,black,man,,,,,"{""Q0"":""dave is touching mike""}","<img src=""stim_listA/touch5.gif""style=""height:400px;""></stim_listA>",is touching,,,,,,
null,"<div style=""font-size:60px;"">+</div>",,html-keyboard-response,400,2272651,0.0-19.0-0.19,24567,List1A,black,man,,,,null,,,,,,,,,
null,"<img src=""stim_listA/hug7.gif""style=""height:400px;""></stim_listA>",,html-keyboard-response,401,2274656,0.0-19.0-1.19,24567,List1A,black,man,,,,null,,,,,,,,,
null,is hugging,,html-keyboard-response,402,2276661,0.0-19.0-2.19,24567,List1A,black,man,,,,null,,,,,,,,,
31221.9,,,survey-text,403,2307889,0.0-19.0-3.19,24567,List1A,black,man,,,,,"{""Q0"":""ruth is hugging beth ""}","<img src=""stim_listA/hug7.gif""style=""height:400px;""></stim_listA>",is hugging,,,,,,
4182.4,<p>Thank you for completing that task.</p><p>The final part of this session is a questionnaire that will take about 4 minutes.</p><p>Press Continue.</p>,0,html-button-response,404,2312073,0.0-20.0,24567,List1A,black,man,,,,,,,,,,,,,
52350.2,,,survey-text,405,2365434,0.0-21.0,24567,List1A,black,man,,,,,"{""Q0"":""33"",""Q1"":""English"",""Q2"":""English"",""Q3"":""United State"",""Q4"":""American"",""Q5"":""African American"",""Q6"":""Male""}",,,demographics,,,,,
10401.9,<p>Have you lived in the USA for the last 5 years or more?</p>,0,html-button-response,406,2375838,0.0-22.0,24567,List1A,black,man,,,,,,,,fiveyears,,,,,
2618.5,<p>Move the slider to show the extent to which you agree with the following statements.</p>,0,html-button-response,407,2379459,0.0-23.0,24567,List1A,black,man,,,,,,,,,,,,,
10770.1,,,html-slider-response,408,2391237,0.0-24.0-0.0-0.0,24567,List1A,black,man,,,,,,,,survey_race,46,,,My age is not an important part of who I am.,filler
5585.6,,,html-slider-response,409,2396825,0.0-24.0-0.0-0.1,24567,List1A,black,man,,,,,,,,survey_race,97,,,Being my race is an important part of how I see myself.,important
53504.9,,,html-slider-response,410,2450332,0.0-24.0-0.0-0.2,24567,List1A,black,man,,,,,,,,survey_race,83,,,People of my race are very similar to each other.,verysimilar
11713.5,,,html-slider-response,411,2462048,0.0-24.0-0.0-0.3,24567,List1A,black,man,,,,,,,,survey_race,49,,,I have a lot in common with people of a similar age to me.,filler
4911.5,,,html-slider-response,412,2466962,0.0-24.0-0.0-0.4,24567,List1A,black,man,,,,,,,,survey_race,48,,,Getting older does not worry me.,filler
9942.8,,,html-slider-response,413,2476907,0.0-24.0-0.0-0.5,24567,List1A,black,man,,,,,,,,survey_race,50,,,People my age have a lot in common with each other.,filler
6434.4,,,html-slider-response,414,2483344,0.0-24.0-0.0-0.6,24567,List1A,black,man,,,,,,,,survey_race,82,,,Being my race gives me a good feeling.,feeling
4567.3,,,html-slider-response,415,2487913,0.0-24.0-0.0-0.7,24567,List1A,black,man,,,,,,,,survey_race,89,,,I am glad to be the age I am.,filler
7805.1,,,html-slider-response,416,2495720,0.0-24.0-0.0-0.8,24567,List1A,black,man,,,,,,,,survey_race,83,,,I am similar to the average person of my race.,similar
7465.9,,,html-slider-response,417,2503188,0.0-24.0-0.0-0.9,24567,List1A,black,man,,,,,,,,survey_race,89,,,I enjoy being in large groups.,filler
6833.8,,,html-slider-response,418,2510024,0.0-24.0-0.0-0.10,24567,List1A,black,man,,,,,,,,survey_race,58,,,I often think about the fact that I am my age.,filler
9761.8,,,html-slider-response,419,2519788,0.0-24.0-0.0-0.11,24567,List1A,black,man,,,,,,,,survey_race,78,,,People of my race have a lot in common with each other.,common
3488.8,,,html-slider-response,420,2523279,0.0-24.0-0.0-0.12,24567,List1A,black,man,,,,,,,,survey_race,73,,,I feel committed to my race.,committed
6959.8,,,html-slider-response,421,2530239,0.0-24.0-0.0-0.13,24567,List1A,black,man,,,,,,,,survey_race,86,,,I am glad to be my age.,filler
3661.6,,,html-slider-response,422,2533903,0.0-24.0-0.0-0.14,24567,List1A,black,man,,,,,,,,survey_race,77,,,I feel solidarity with people the same age as me.,filler
3894.4,,,html-slider-response,423,2537800,0.0-24.0-0.0-0.15,24567,List1A,black,man,,,,,,,,survey_race,66,,,"The older I get, the wiser I feel.",filler
3102.4,,,html-slider-response,424,2540904,0.0-24.0-0.0-0.16,24567,List1A,black,man,,,,,,,,survey_race,76,,,I think that my race has a lot to be proud of.,proud
6119,,,html-slider-response,425,2547025,0.0-24.0-0.0-0.17,24567,List1A,black,man,,,,,,,,survey_race,47,,,I consider myself an introvert.,filler
3926,,,html-slider-response,426,2550953,0.0-24.0-0.0-0.18,24567,List1A,black,man,,,,,,,,survey_race,88,,,I feel solidarity with my race.,solidarity
16888.1,,,html-slider-response,427,2567843,0.0-24.0-0.0-0.19,24567,List1A,black,man,,,,,,,,survey_race,85,,,I often think about the fact that I am my race.,often
5131.4,,,html-slider-response,428,2572976,0.0-24.0-0.0-0.20,24567,List1A,black,man,,,,,,,,survey_race,78,,,The fact that I am my race is an important part of my identity.,identity
8435.3,,,html-slider-response,429,2581413,0.0-24.0-0.0-0.21,24567,List1A,black,man,,,,,,,,survey_race,93,,,It is pleasant to be my race.,pleasant
2931.1,,,html-slider-response,430,2584346,0.0-24.0-0.0-0.22,24567,List1A,black,man,,,,,,,,survey_race,82,,,I feel a bond with my race.,bond
4749.3,,,html-slider-response,431,2589098,0.0-24.0-0.0-0.23,24567,List1A,black,man,,,,,,,,survey_race,83,,,I feel a bond with people the same age as me.,filler
2693.3,,,html-slider-response,432,2591793,0.0-24.0-0.0-0.24,24567,List1A,black,man,,,,,,,,survey_race,81,,,I am glad to be my race.,glad
4609.7,,,html-slider-response,433,2596404,0.0-24.0-0.0-0.25,24567,List1A,black,man,,,,,,,,survey_race,63,,,I consider myself an extrovert.,filler
5737.9,,,html-slider-response,434,2602144,0.0-24.0-0.0-0.26,24567,List1A,black,man,,,,,,,,survey_race,76,,,I have a lot in common with the average person of my race.,average
3627.3,,,html-slider-response,435,2605773,0.0-24.0-0.0-0.27,24567,List1A,black,man,,,,,,,,survey_race,68,,,Being my age gives me a good feeling.,filler
3718.4,,,html-slider-response,436,2609493,0.0-24.0-1.0-0.0,24567,List1A,black,man,,,,,,,,survey_gender,84,,,It is pleasant to be my gender.,pleasant
4772,,,html-slider-response,437,2614267,0.0-24.0-1.0-0.1,24567,List1A,black,man,,,,,,,,survey_gender,84,,,The fact that I am my gender is an important part of my identity.,identity
14872.9,,,html-slider-response,438,2629142,0.0-24.0-1.0-0.2,24567,List1A,black,man,,,,,,,,survey_gender,83,,,I feel solidarity with my friends.,filler
3876.9,,,html-slider-response,439,2633021,0.0-24.0-1.0-0.3,24567,List1A,black,man,,,,,,,,survey_gender,75,,,I often think about the fact that I am my gender.,often
4609.4,,,html-slider-response,440,2637632,0.0-24.0-1.0-0.4,24567,List1A,black,man,,,,,,,,survey_gender,83,,,Being my gender is an important part of how I see myself.,important
2659.1,,,html-slider-response,441,2640293,0.0-24.0-1.0-0.5,24567,List1A,black,man,,,,,,,,survey_gender,84,,,I am glad to be my gender.,glad
2912,,,html-slider-response,442,2643206,0.0-24.0-1.0-0.6,24567,List1A,black,man,,,,,,,,survey_gender,82,,,I often think about my actions.,filler
3152,,,html-slider-response,443,2646361,0.0-24.0-1.0-0.7,24567,List1A,black,man,,,,,,,,survey_gender,82,,,Most of the friends in my life are very similar to me.,filler
3058.2,,,html-slider-response,444,2649421,0.0-24.0-1.0-0.8,24567,List1A,black,man,,,,,,,,survey_gender,80,,,I feel a bond with my friends.,filler
3831,,,html-slider-response,445,2653254,0.0-24.0-1.0-0.9,24567,List1A,black,man,,,,,,,,survey_gender,47,,,Routine is not important to me.,filler
5000.6,,,html-slider-response,446,2658256,0.0-24.0-1.0-0.10,24567,List1A,black,man,,,,,,,,survey_gender,96,,,I feel solidarity with my gender.,solidarity
5044.1,,,html-slider-response,447,2663302,0.0-24.0-1.0-0.11,24567,List1A,black,man,,,,,,,,survey_gender,88,,,I have a lot in common with the average person of my gender.,average
3798.5,,,html-slider-response,448,2667102,0.0-24.0-1.0-0.12,24567,List1A,black,man,,,,,,,,survey_gender,71,,,I think that my gender has a lot to be proud of.,proud
6732.5,,,html-slider-response,449,2673836,0.0-24.0-1.0-0.13,24567,List1A,black,man,,,,,,,,survey_gender,44,,,It is not always easy for people to know what I am thinking.,filler
16582.3,,,html-slider-response,450,2690421,0.0-24.0-1.0-0.14,24567,List1A,black,man,,,,,,,,survey_gender,94,,,I am glad to have the friends that I have.,filler
5928.9,,,html-slider-response,451,2696352,0.0-24.0-1.0-0.15,24567,List1A,black,man,,,,,,,,survey_gender,90,,,I have a lot in common with my friends.,filler
26652.8,,,html-slider-response,452,2723006,0.0-24.0-1.0-0.16,24567,List1A,black,man,,,,,,,,survey_gender,83,,,I feel committed to my gender.,committed
45116.6,,,html-slider-response,453,2768125,0.0-24.0-1.0-0.17,24567,List1A,black,man,,,,,,,,survey_gender,47,,,Family is not more important to me than friendship.,filler
3712.3,,,html-slider-response,454,2771839,0.0-24.0-1.0-0.18,24567,List1A,black,man,,,,,,,,survey_gender,90,,,Being my gender gives me a good feeling.,feeling
2804.2,,,html-slider-response,455,2774645,0.0-24.0-1.0-0.19,24567,List1A,black,man,,,,,,,,survey_gender,85,,,Being around my friends gives me a good feeling.,filler
13325.4,,,html-slider-response,456,2787972,0.0-24.0-1.0-0.20,24567,List1A,black,man,,,,,,,,survey_gender,87,,,My friends have a lot in common with each other.,filler
5718.3,,,html-slider-response,457,2793693,0.0-24.0-1.0-0.21,24567,List1A,black,man,,,,,,,,survey_gender,64,,,I would say I am an animal person.,filler
2790.7,,,html-slider-response,458,2796486,0.0-24.0-1.0-0.22,24567,List1A,black,man,,,,,,,,survey_gender,84,,,My friends understand me.,filler
3207.3,,,html-slider-response,459,2799695,0.0-24.0-1.0-0.23,24567,List1A,black,man,,,,,,,,survey_gender,89,,,I feel a bond with my gender.,bond
2773.4,,,html-slider-response,460,2802470,0.0-24.0-1.0-0.24,24567,List1A,black,man,,,,,,,,survey_gender,81,,,I am similar to the average person of my gender.,similar
6352.9,,,html-slider-response,461,2808825,0.0-24.0-1.0-0.25,24567,List1A,black,man,,,,,,,,survey_gender,100,,,I consider myself a highly empathetic person.,filler
4472.8,,,html-slider-response,462,2813300,0.0-24.0-1.0-0.26,24567,List1A,black,man,,,,,,,,survey_gender,88,,,People of my gender have a lot in common with each other.,common
2570,,,html-slider-response,463,2815872,0.0-24.0-1.0-0.27,24567,List1A,black,man,,,,,,,,survey_gender,78,,,People of my gender are very similar to each other.,verysimilar
34651.8,,,survey-text,464,2850527,0.0-25.0,24567,List1A,black,man,,,,,"{""Q0"":""ccc""}",,,worker_id,,,,,
4226.8,,,external-html,465,2855234,0.0-26.0,24567,List1A,black,man,debrief.html,,,,,,,,,,,,
