rt,stimulus,button_pressed,trial_type,trial_index,time_elapsed,internal_node_id,subject,list,ppt_race,ppt_gender,url,first_guess,correct,key_press,responses,image_type,phrase_type,test_part,response,stimulus1,stimulus2,question_type,survey_item
6071.2,Welcome to the experiment. Press Continue to begin.,0,html-button-response,0,6074,0.0-0.0,24667,List2A,black,woman,,,,,,,,,,,,,
9748.4,,,external-html,1,17014,0.0-1.0,24667,List2A,black,woman,consent.html,,,,,,,,,,,,
9326.7,"<p>On the next page, you will see portraits of 8 people and their names.</p><p>Your first task is to take a few minutes to memorise the names of these people.</p><p>You will have to recall their names during the rest of the experiment, so it is</p><p>essential that you try to memorise these people and their names as best as you can.</p><br><p><strong>You will then be tested on your memory of these names and portraits.</strong></p><br><p>The experiment will start after you have completed this memory test.</p><br><p>Ready?</p>",0,html-button-response,2,26341,0.0-2.0,24667,List2A,black,woman,,,,,,,,,,,,,
53403.8,"<img src='img/portrait_matrix_list2.jpg' style='width:900px;height:500px;''></img><p>If you have memorised all the portraits and names and are ready to start, press Continue.</p><p><strong>Please note: Your memory of these faces will be tested 4 times during this experiment.</strong></p>",0,html-button-response,3,80747,0.0-3.0-0.0,24667,List2A,black,woman,,,,,,,,,,,,,
19044.8,"<img src=""portrait/WW1.jpg""style=""height:400px;""></img>",3,html-button-response,4,100794,0.0-3.0-1.0,24667,List2A,black,woman,,TRUE,1,,,,,,,,,,
2659,"<img src=""portrait/WW1.jpg""style=""height:400px;""></img>",1,html-button-response,5,104456,0.0-3.0-3.0-0.0,24667,List2A,black,woman,,FALSE,1,,,,,,,,,,
null,CORRECT,,html-keyboard-response,6,105960,0.0-3.0-3.0-1.0-0.0,24667,List2A,black,woman,,,,null,,,,,,,,,
1929,"<img src=""portrait/BM2.jpg""style=""height:400px;""></img>",5,html-button-response,7,107890,0.0-3.0-4.0,24667,List2A,black,woman,,TRUE,5,,,,,,,,,,
null,CORRECT,,html-keyboard-response,8,109404,0.0-3.0-5.0-0.0,24667,List2A,black,woman,,,,null,,,,,,,,,
1651.5,"<img src=""portrait/BW2.jpg""style=""height:400px;""></img>",2,html-button-response,9,111057,0.0-3.0-7.0,24667,List2A,black,woman,,TRUE,2,,,,,,,,,,
null,CORRECT,,html-keyboard-response,10,112575,0.0-3.0-8.0-0.0,24667,List2A,black,woman,,,,null,,,,,,,,,
3572.5,"<img src=""portrait/BW1.jpg""style=""height:400px;""></img>",3,html-button-response,11,116149,0.0-3.0-10.0,24667,List2A,black,woman,,TRUE,0,,,,,,,,,,
1947.5,"<img src=""portrait/BW1.jpg""style=""height:400px;""></img>",0,html-button-response,12,119108,0.0-3.0-12.0-0.0,24667,List2A,black,woman,,FALSE,0,,,,,,,,,,
null,CORRECT,,html-keyboard-response,13,120611,0.0-3.0-12.0-1.0-0.0,24667,List2A,black,woman,,,,null,,,,,,,,,
3008.6,"<img src=""portrait/WM1.jpg""style=""height:400px;""></img>",6,html-button-response,14,123620,0.0-3.0-13.0,24667,List2A,black,woman,,TRUE,6,,,,,,,,,,
null,CORRECT,,html-keyboard-response,15,125122,0.0-3.0-14.0-0.0,24667,List2A,black,woman,,,,null,,,,,,,,,
1579.4,"<img src=""portrait/WM2.jpg""style=""height:400px;""></img>",7,html-button-response,16,126702,0.0-3.0-16.0,24667,List2A,black,woman,,TRUE,7,,,,,,,,,,
null,CORRECT,,html-keyboard-response,17,128214,0.0-3.0-17.0-0.0,24667,List2A,black,woman,,,,null,,,,,,,,,
3277.5,"<img src=""portrait/BM1.jpg""style=""height:400px;""></img>",4,html-button-response,18,131492,0.0-3.0-19.0,24667,List2A,black,woman,,TRUE,4,,,,,,,,,,
null,CORRECT,,html-keyboard-response,19,132997,0.0-3.0-20.0-0.0,24667,List2A,black,woman,,,,null,,,,,,,,,
3170.3,"<img src=""portrait/WW2.jpg""style=""height:400px;""></img>",3,html-button-response,20,136168,0.0-3.0-22.0,24667,List2A,black,woman,,TRUE,3,,,,,,,,,,
null,CORRECT,,html-keyboard-response,21,137674,0.0-3.0-23.0-0.0,24667,List2A,black,woman,,,,null,,,,,,,,,
1172.8,<p>You got 6 out of 8 right first time. Press Continue.</p>,0,html-button-response,22,138848,0.0-3.0-25.0,24667,List2A,black,woman,,,,,,,,,,,,,
1943.2,"As you did not score 100%, the memory game will repeat. Press Continue.",0,html-button-response,23,141793,0.0-3.0-26.0-0.0,24667,List2A,black,woman,,,,,,,,,,,,,
7553.7,"<img src='img/portrait_matrix_list2.jpg' style='width:900px;height:500px;''></img><p>If you have memorised all the portraits and names and are ready to start, press Continue.</p><p><strong>Please note: Your memory of these faces will be tested 4 times during this experiment.</strong></p>",0,html-button-response,24,150349,0.0-3.1-0.1,24667,List2A,black,woman,,,,,,,,,,,,,
2489.3,"<img src=""portrait/WW1.jpg""style=""height:400px;""></img>",1,html-button-response,25,153841,0.0-3.1-1.1,24667,List2A,black,woman,,TRUE,1,,,,,,,,,,
null,CORRECT,,html-keyboard-response,26,155357,0.0-3.1-2.1-0.1,24667,List2A,black,woman,,,,null,,,,,,,,,
2235.4,"<img src=""portrait/BM2.jpg""style=""height:400px;""></img>",5,html-button-response,27,157593,0.0-3.1-4.1,24667,List2A,black,woman,,TRUE,5,,,,,,,,,,
null,CORRECT,,html-keyboard-response,28,159095,0.0-3.1-5.1-0.1,24667,List2A,black,woman,,,,null,,,,,,,,,
2838.4,"<img src=""portrait/BW2.jpg""style=""height:400px;""></img>",2,html-button-response,29,161934,0.0-3.1-7.1,24667,List2A,black,woman,,TRUE,2,,,,,,,,,,
null,CORRECT,,html-keyboard-response,30,163436,0.0-3.1-8.1-0.1,24667,List2A,black,woman,,,,null,,,,,,,,,
1339,"<img src=""portrait/BW1.jpg""style=""height:400px;""></img>",0,html-button-response,31,164776,0.0-3.1-10.1,24667,List2A,black,woman,,TRUE,0,,,,,,,,,,
null,CORRECT,,html-keyboard-response,32,166281,0.0-3.1-11.1-0.1,24667,List2A,black,woman,,,,null,,,,,,,,,
2091.6,"<img src=""portrait/WM1.jpg""style=""height:400px;""></img>",6,html-button-response,33,168374,0.0-3.1-13.1,24667,List2A,black,woman,,TRUE,6,,,,,,,,,,
null,CORRECT,,html-keyboard-response,34,169887,0.0-3.1-14.1-0.1,24667,List2A,black,woman,,,,null,,,,,,,,,
1035.8,"<img src=""portrait/WM2.jpg""style=""height:400px;""></img>",7,html-button-response,35,170924,0.0-3.1-16.1,24667,List2A,black,woman,,TRUE,7,,,,,,,,,,
null,CORRECT,,html-keyboard-response,36,172428,0.0-3.1-17.1-0.1,24667,List2A,black,woman,,,,null,,,,,,,,,
1168.3,"<img src=""portrait/BM1.jpg""style=""height:400px;""></img>",4,html-button-response,37,173597,0.0-3.1-19.1,24667,List2A,black,woman,,TRUE,4,,,,,,,,,,
null,CORRECT,,html-keyboard-response,38,175114,0.0-3.1-20.1-0.1,24667,List2A,black,woman,,,,null,,,,,,,,,
5228.6,"<img src=""portrait/WW2.jpg""style=""height:400px;""></img>",3,html-button-response,39,180343,0.0-3.1-22.1,24667,List2A,black,woman,,TRUE,3,,,,,,,,,,
null,CORRECT,,html-keyboard-response,40,181860,0.0-3.1-23.1-0.1,24667,List2A,black,woman,,,,null,,,,,,,,,
3838,<p>You got 8 out of 8 right first time. Press Continue.</p>,0,html-button-response,41,185699,0.0-3.1-25.1,24667,List2A,black,woman,,,,,,,,,,,,,
19914.3,"<p>In this experiment, you will view photographs of the people from the memory game interacting.</p><p>By using the <strong>exact</strong> phrase given <i>after</i> the photograph appears and recalling the correct names of the people in the photographs, form a sentence describing the interaction. You do not need to capitalise names.</p><p>Type your answer in the space provided. Please complete every sentence before moving onto the next trial.</p><p>You will only have a few seconds to memorise each given photograph and phrase before you can respond, so try your best to focus.</p><p>An example is given below. Press 'Continue' when you are ready.</p><img src='img/speaking_example.jpg' style='width:800px;height:460px;''></img>",0,html-button-response,42,206615,0.0-4.0,24667,List2A,black,woman,,,,,,,,,,,,,
1443.4,"<p>Before the experiment starts, you will watch two example trials. Press 'Continue'.</p>",0,html-button-response,43,209071,0.0-5.0,24667,List2A,black,woman,,,,,,,,,,,,,
null,<img src='img/play_eg.gif' style='height:400px;''></img>,,html-keyboard-response,44,212085,0.0-6.0,24667,List2A,black,woman,,,,null,,,,,,,,,
null,<p>is playing with</p>,,html-keyboard-response,45,214086,0.0-7.0,24667,List2A,black,woman,,,,null,,,,,,,,,
5351.7,<p><b>Answer:</b> jane is playing with ruth</p>,0,html-button-response,46,219438,0.0-8.0,24667,List2A,black,woman,,,,,,,,,,,,,
null,<img src='img/dance_eg.gif' style='height:400px;''></img>,,html-keyboard-response,47,222445,0.0-9.0,24667,List2A,black,woman,,,,null,,,,,,,,,
null,<p>is being entertained by</p>,,html-keyboard-response,48,224452,0.0-10.0,24667,List2A,black,woman,,,,null,,,,,,,,,
1932.5,<p><b>Answer:</b> fred is being entertained by mike</p>,0,html-button-response,49,226386,0.0-11.0,24667,List2A,black,woman,,,,,,,,,,,,,
6647.9,"<p>Ready to start the experiment?</p><br><p><strong>Remember to describe the picture using a full sentence,</strong></p><p><strong>that combines the names of the people with the <i>exact</i> phrase given.</strong></p><p><strong>To receive full payment you must do this correctly.</strong></p><p><strong> You do not need to capitalise names or use punctuation.</strong></p><br><p>Press 'Continue' to begin.</p>",0,html-button-response,50,234035,0.0-12.0,24667,List2A,black,woman,,,,,,,,,,,,,
null,"<div style=""font-size:60px;"">+</div>",,html-keyboard-response,51,235538,0.0-13.0-0.0,24667,List2A,black,woman,,,,null,,,,,,,,,
null,"<img src=""stim_listA/challenge2.gif""style=""height:400px;""></stim_listA>",,html-keyboard-response,52,237543,0.0-13.0-1.0,24667,List2A,black,woman,,,,null,,,,,,,,,
null,is being challenged by,,html-keyboard-response,53,239548,0.0-13.0-2.0,24667,List2A,black,woman,,,,null,,,,,,,,,
16876.4,,,survey-text,54,256427,0.0-13.0-3.0,24667,List2A,black,woman,,,,,"{""Q0"":""jane is being challenged by luke""}","<img src=""stim_listA/challenge2.gif""style=""height:400px;""></stim_listA>",is being challenged by,,,,,,
null,"<div style=""font-size:60px;"">+</div>",,html-keyboard-response,55,256931,0.0-13.0-0.1,24667,List2A,black,woman,,,,null,,,,,,,,,
null,"<img src=""stim_listA/look3.gif""style=""height:400px;""></stim_listA>",,html-keyboard-response,56,258932,0.0-13.0-1.1,24667,List2A,black,woman,,,,null,,,,,,,,,
null,is looking at,,html-keyboard-response,57,260934,0.0-13.0-2.1,24667,List2A,black,woman,,,,null,,,,,,,,,
10833.5,,,survey-text,58,271768,0.0-13.0-3.1,24667,List2A,black,woman,,,,,"{""Q0"":""beth is looking at fred""}","<img src=""stim_listA/look3.gif""style=""height:400px;""></stim_listA>",is looking at,,,,,,
null,"<div style=""font-size:60px;"">+</div>",,html-keyboard-response,59,272280,0.0-13.0-0.2,24667,List2A,black,woman,,,,null,,,,,,,,,
null,"<img src=""stim_listA/greet1.gif""style=""height:400px;""></stim_listA>",,html-keyboard-response,60,274299,0.0-13.0-1.2,24667,List2A,black,woman,,,,null,,,,,,,,,
null,is greeting,,html-keyboard-response,61,276306,0.0-13.0-2.2,24667,List2A,black,woman,,,,null,,,,,,,,,
6147.8,,,survey-text,62,282456,0.0-13.0-3.2,24667,List2A,black,woman,,,,,"{""Q0"":""dave is greeting ruth""}","<img src=""stim_listA/greet1.gif""style=""height:400px;""></stim_listA>",is greeting,,,,,,
null,"<div style=""font-size:60px;"">+</div>",,html-keyboard-response,63,282961,0.0-13.0-0.3,24667,List2A,black,woman,,,,null,,,,,,,,,
null,"<img src=""stim_listA/seduce5.gif""style=""height:400px;""></stim_listA>",,html-keyboard-response,64,284975,0.0-13.0-1.3,24667,List2A,black,woman,,,,null,,,,,,,,,
null,is seducing,,html-keyboard-response,65,286977,0.0-13.0-2.3,24667,List2A,black,woman,,,,null,,,,,,,,,
8771.1,,,survey-text,66,295749,0.0-13.0-3.3,24667,List2A,black,woman,,,,,"{""Q0"":""mike is seducing luke""}","<img src=""stim_listA/seduce5.gif""style=""height:400px;""></stim_listA>",is seducing,,,,,,
null,"<div style=""font-size:60px;"">+</div>",,html-keyboard-response,67,296264,0.0-13.0-0.4,24667,List2A,black,woman,,,,null,,,,,,,,,
null,"<img src=""stim_listA/shout8.gif""style=""height:400px;""></stim_listA>",,html-keyboard-response,68,298275,0.0-13.0-1.4,24667,List2A,black,woman,,,,null,,,,,,,,,
null,is being shouted at by,,html-keyboard-response,69,300278,0.0-13.0-2.4,24667,List2A,black,woman,,,,null,,,,,,,,,
12129.4,,,survey-text,70,312409,0.0-13.0-3.4,24667,List2A,black,woman,,,,,"{""Q0"":""kate is being shouted at by jane""}","<img src=""stim_listA/shout8.gif""style=""height:400px;""></stim_listA>",is being shouted at by,,,,,,
null,"<div style=""font-size:60px;"">+</div>",,html-keyboard-response,71,312925,0.0-13.0-0.5,24667,List2A,black,woman,,,,null,,,,,,,,,
null,"<img src=""stim_listA/look2.gif""style=""height:400px;""></stim_listA>",,html-keyboard-response,72,314933,0.0-13.0-1.5,24667,List2A,black,woman,,,,null,,,,,,,,,
null,is being looked at by,,html-keyboard-response,73,316934,0.0-13.0-2.5,24667,List2A,black,woman,,,,null,,,,,,,,,
9685.2,,,survey-text,74,326621,0.0-13.0-3.5,24667,List2A,black,woman,,,,,"{""Q0"":""jane is being looked at by dave""}","<img src=""stim_listA/look2.gif""style=""height:400px;""></stim_listA>",is being looked at by,,,,,,
null,"<div style=""font-size:60px;"">+</div>",,html-keyboard-response,75,327122,0.0-13.0-0.6,24667,List2A,black,woman,,,,null,,,,,,,,,
null,"<img src=""stim_listA/touch3.gif""style=""height:400px;""></stim_listA>",,html-keyboard-response,76,329132,0.0-13.0-1.6,24667,List2A,black,woman,,,,null,,,,,,,,,
null,is touching,,html-keyboard-response,77,331145,0.0-13.0-2.6,24667,List2A,black,woman,,,,null,,,,,,,,,
6513.7,,,survey-text,78,337660,0.0-13.0-3.6,24667,List2A,black,woman,,,,,"{""Q0"":""kate is touching mike""}","<img src=""stim_listA/touch3.gif""style=""height:400px;""></stim_listA>",is touching,,,,,,
null,"<div style=""font-size:60px;"">+</div>",,html-keyboard-response,79,338167,0.0-13.0-0.7,24667,List2A,black,woman,,,,null,,,,,,,,,
null,"<img src=""stim_listA/copy5.gif""style=""height:400px;""></stim_listA>",,html-keyboard-response,80,340182,0.0-13.0-1.7,24667,List2A,black,woman,,,,null,,,,,,,,,
null,is copying,,html-keyboard-response,81,342189,0.0-13.0-2.7,24667,List2A,black,woman,,,,null,,,,,,,,,
24990.7,,,survey-text,82,367181,0.0-13.0-3.7,24667,List2A,black,woman,,,,,"{""Q0"":""fred is copying dave""}","<img src=""stim_listA/copy5.gif""style=""height:400px;""></stim_listA>",is copying,,,,,,
null,"<div style=""font-size:60px;"">+</div>",,html-keyboard-response,83,367688,0.0-13.0-0.8,24667,List2A,black,woman,,,,null,,,,,,,,,
null,"<img src=""stim_listA/look8.gif""style=""height:400px;""></stim_listA>",,html-keyboard-response,84,369689,0.0-13.0-1.8,24667,List2A,black,woman,,,,null,,,,,,,,,
null,is being looked at by,,html-keyboard-response,85,371696,0.0-13.0-2.8,24667,List2A,black,woman,,,,null,,,,,,,,,
11117.5,,,survey-text,86,382815,0.0-13.0-3.8,24667,List2A,black,woman,,,,,"{""Q0"":""kate is being looked at by jane""}","<img src=""stim_listA/look8.gif""style=""height:400px;""></stim_listA>",is being looked at by,,,,,,
null,"<div style=""font-size:60px;"">+</div>",,html-keyboard-response,87,383322,0.0-13.0-0.9,24667,List2A,black,woman,,,,null,,,,,,,,,
null,"<img src=""stim_listA/seduce1.gif""style=""height:400px;""></stim_listA>",,html-keyboard-response,88,385338,0.0-13.0-1.9,24667,List2A,black,woman,,,,null,,,,,,,,,
null,is seducing,,html-keyboard-response,89,387340,0.0-13.0-2.9,24667,List2A,black,woman,,,,null,,,,,,,,,
8137.6,,,survey-text,90,395479,0.0-13.0-3.9,24667,List2A,black,woman,,,,,"{""Q0"":""jane is seducing luke""}","<img src=""stim_listA/seduce1.gif""style=""height:400px;""></stim_listA>",is seducing,,,,,,
null,"<div style=""font-size:60px;"">+</div>",,html-keyboard-response,91,395985,0.0-13.0-0.10,24667,List2A,black,woman,,,,null,,,,,,,,,
null,"<img src=""stim_listA/copy7.gif""style=""height:400px;""></stim_listA>",,html-keyboard-response,92,397994,0.0-13.0-1.10,24667,List2A,black,woman,,,,null,,,,,,,,,
null,is copying,,html-keyboard-response,93,400009,0.0-13.0-2.10,24667,List2A,black,woman,,,,null,,,,,,,,,
5796.7,,,survey-text,94,405808,0.0-13.0-3.10,24667,List2A,black,woman,,,,,"{""Q0"":""jane is copying kate""}","<img src=""stim_listA/copy7.gif""style=""height:400px;""></stim_listA>",is copying,,,,,,
null,"<div style=""font-size:60px;"">+</div>",,html-keyboard-response,95,406312,0.0-13.0-0.11,24667,List2A,black,woman,,,,null,,,,,,,,,
null,"<img src=""stim_listA/oppose2.gif""style=""height:400px;""></stim_listA>",,html-keyboard-response,96,408314,0.0-13.0-1.11,24667,List2A,black,woman,,,,null,,,,,,,,,
null,is being opposed by,,html-keyboard-response,97,410321,0.0-13.0-2.11,24667,List2A,black,woman,,,,null,,,,,,,,,
6581.5,,,survey-text,98,416904,0.0-13.0-3.11,24667,List2A,black,woman,,,,,"{""Q0"":""ruth is being opposed by luke""}","<img src=""stim_listA/oppose2.gif""style=""height:400px;""></stim_listA>",is being opposed by,,,,,,
null,"<div style=""font-size:60px;"">+</div>",,html-keyboard-response,99,417408,0.0-13.0-0.12,24667,List2A,black,woman,,,,null,,,,,,,,,
null,"<img src=""stim_listA/hug4.gif""style=""height:400px;""></stim_listA>",,html-keyboard-response,100,419421,0.0-13.0-1.12,24667,List2A,black,woman,,,,null,,,,,,,,,
null,is being hugged by,,html-keyboard-response,101,421427,0.0-13.0-2.12,24667,List2A,black,woman,,,,null,,,,,,,,,
6083.5,,,survey-text,102,427512,0.0-13.0-3.12,24667,List2A,black,woman,,,,,"{""Q0"":""kate is being hugged by mike""}","<img src=""stim_listA/hug4.gif""style=""height:400px;""></stim_listA>",is being hugged by,,,,,,
null,"<div style=""font-size:60px;"">+</div>",,html-keyboard-response,103,428021,0.0-13.0-0.13,24667,List2A,black,woman,,,,null,,,,,,,,,
null,"<img src=""stim_listA/seduce6.gif""style=""height:400px;""></stim_listA>",,html-keyboard-response,104,430023,0.0-13.0-1.13,24667,List2A,black,woman,,,,null,,,,,,,,,
null,is being seduced by,,html-keyboard-response,105,432039,0.0-13.0-2.13,24667,List2A,black,woman,,,,null,,,,,,,,,
11840.7,,,survey-text,106,443881,0.0-13.0-3.13,24667,List2A,black,woman,,,,,"{""Q0"":""fred is being seduced by dave""}","<img src=""stim_listA/seduce6.gif""style=""height:400px;""></stim_listA>",is being seduced by,,,,,,
null,"<div style=""font-size:60px;"">+</div>",,html-keyboard-response,107,444390,0.0-13.0-0.14,24667,List2A,black,woman,,,,null,,,,,,,,,
null,"<img src=""stim_listA/greet6.gif""style=""height:400px;""></stim_listA>",,html-keyboard-response,108,446406,0.0-13.0-1.14,24667,List2A,black,woman,,,,null,,,,,,,,,
null,is being greeted by,,html-keyboard-response,109,448417,0.0-13.0-2.14,24667,List2A,black,woman,,,,null,,,,,,,,,
7022.3,,,survey-text,110,455441,0.0-13.0-3.14,24667,List2A,black,woman,,,,,"{""Q0"":""mike is being greeted by luke""}","<img src=""stim_listA/greet6.gif""style=""height:400px;""></stim_listA>",is being greeted by,,,,,,
null,"<div style=""font-size:60px;"">+</div>",,html-keyboard-response,111,455951,0.0-13.0-0.15,24667,List2A,black,woman,,,,null,,,,,,,,,
null,"<img src=""stim_listA/shout2.gif""style=""height:400px;""></stim_listA>",,html-keyboard-response,112,457952,0.0-13.0-1.15,24667,List2A,black,woman,,,,null,,,,,,,,,
null,is being shouted at by,,html-keyboard-response,113,459953,0.0-13.0-2.15,24667,List2A,black,woman,,,,null,,,,,,,,,
12375.5,,,survey-text,114,472330,0.0-13.0-3.15,24667,List2A,black,woman,,,,,"{""Q0"":""jane is being shouted at by dave""}","<img src=""stim_listA/shout2.gif""style=""height:400px;""></stim_listA>",is being shouted at by,,,,,,
null,"<div style=""font-size:60px;"">+</div>",,html-keyboard-response,115,472831,0.0-13.0-0.16,24667,List2A,black,woman,,,,null,,,,,,,,,
null,"<img src=""stim_listA/greet3.gif""style=""height:400px;""></stim_listA>",,html-keyboard-response,116,474832,0.0-13.0-1.16,24667,List2A,black,woman,,,,null,,,,,,,,,
null,is greeting,,html-keyboard-response,117,476844,0.0-13.0-2.16,24667,List2A,black,woman,,,,null,,,,,,,,,
8069,,,survey-text,118,484914,0.0-13.0-3.16,24667,List2A,black,woman,,,,,"{""Q0"":""kate is greeting mike""}","<img src=""stim_listA/greet3.gif""style=""height:400px;""></stim_listA>",is greeting,,,,,,
null,"<div style=""font-size:60px;"">+</div>",,html-keyboard-response,119,485425,0.0-13.0-0.17,24667,List2A,black,woman,,,,null,,,,,,,,,
null,"<img src=""stim_listA/challenge4.gif""style=""height:400px;""></stim_listA>",,html-keyboard-response,120,487436,0.0-13.0-1.17,24667,List2A,black,woman,,,,null,,,,,,,,,
null,is being challenged by,,html-keyboard-response,121,489446,0.0-13.0-2.17,24667,List2A,black,woman,,,,null,,,,,,,,,
5603,,,survey-text,122,495051,0.0-13.0-3.17,24667,List2A,black,woman,,,,,"{""Q0"":""kate is being challenged by fred""}","<img src=""stim_listA/challenge4.gif""style=""height:400px;""></stim_listA>",is being challenged by,,,,,,
null,"<div style=""font-size:60px;"">+</div>",,html-keyboard-response,123,495555,0.0-13.0-0.18,24667,List2A,black,woman,,,,null,,,,,,,,,
null,"<img src=""stim_listA/kiss8.gif""style=""height:400px;""></stim_listA>",,html-keyboard-response,124,497565,0.0-13.0-1.18,24667,List2A,black,woman,,,,null,,,,,,,,,
null,is being kissed by,,html-keyboard-response,125,499579,0.0-13.0-2.18,24667,List2A,black,woman,,,,null,,,,,,,,,
9646.9,,,survey-text,126,509227,0.0-13.0-3.18,24667,List2A,black,woman,,,,,"{""Q0"":""kate is being kissed by jane""}","<img src=""stim_listA/kiss8.gif""style=""height:400px;""></stim_listA>",is being kissed by,,,,,,
null,"<div style=""font-size:60px;"">+</div>",,html-keyboard-response,127,509738,0.0-13.0-0.19,24667,List2A,black,woman,,,,null,,,,,,,,,
null,"<img src=""stim_listA/copy4.gif""style=""height:400px;""></stim_listA>",,html-keyboard-response,128,511752,0.0-13.0-1.19,24667,List2A,black,woman,,,,null,,,,,,,,,
null,is being copied by,,html-keyboard-response,129,513754,0.0-13.0-2.19,24667,List2A,black,woman,,,,null,,,,,,,,,
7543.6,,,survey-text,130,521299,0.0-13.0-3.19,24667,List2A,black,woman,,,,,"{""Q0"":""kate is being copied by fred""}","<img src=""stim_listA/copy4.gif""style=""height:400px;""></stim_listA>",is being copied by,,,,,,
3562.6,"<img src='img/portrait_matrix_list2.jpg' style='width:900px;height:500px;''></img><p>If you have memorised all the portraits and names and are ready to start, press Continue.</p><p><strong>Please note: Your memory of these faces will be tested 4 times during this experiment.</strong></p>",0,html-button-response,131,524862,0.0-14.0-0.0,24667,List2A,black,woman,,,,,,,,,,,,,
5418,"<img src=""portrait/BM1.jpg""style=""height:400px;""></img>",4,html-button-response,132,531283,0.0-14.0-1.0,24667,List2A,black,woman,,TRUE,4,,,,,,,,,,
null,CORRECT,,html-keyboard-response,133,532804,0.0-14.0-2.0-0.0,24667,List2A,black,woman,,,,null,,,,,,,,,
5840.9,"<img src=""portrait/BW2.jpg""style=""height:400px;""></img>",2,html-button-response,134,538646,0.0-14.0-4.0,24667,List2A,black,woman,,TRUE,2,,,,,,,,,,
null,CORRECT,,html-keyboard-response,135,540153,0.0-14.0-5.0-0.0,24667,List2A,black,woman,,,,null,,,,,,,,,
3055.6,"<img src=""portrait/WW1.jpg""style=""height:400px;""></img>",1,html-button-response,136,543210,0.0-14.0-7.0,24667,List2A,black,woman,,TRUE,1,,,,,,,,,,
null,CORRECT,,html-keyboard-response,137,544729,0.0-14.0-8.0-0.0,24667,List2A,black,woman,,,,null,,,,,,,,,
2341.6,"<img src=""portrait/WM2.jpg""style=""height:400px;""></img>",6,html-button-response,138,547072,0.0-14.0-10.0,24667,List2A,black,woman,,TRUE,7,,,,,,,,,,
1527.2,"<img src=""portrait/WM2.jpg""style=""height:400px;""></img>",7,html-button-response,139,549601,0.0-14.0-12.0-0.0,24667,List2A,black,woman,,FALSE,7,,,,,,,,,,
null,CORRECT,,html-keyboard-response,140,551115,0.0-14.0-12.0-1.0-0.0,24667,List2A,black,woman,,,,null,,,,,,,,,
4461.3,"<img src=""portrait/WW2.jpg""style=""height:400px;""></img>",3,html-button-response,141,555577,0.0-14.0-13.0,24667,List2A,black,woman,,TRUE,3,,,,,,,,,,
null,CORRECT,,html-keyboard-response,142,557092,0.0-14.0-14.0-0.0,24667,List2A,black,woman,,,,null,,,,,,,,,
4848.3,"<img src=""portrait/WM1.jpg""style=""height:400px;""></img>",6,html-button-response,143,561941,0.0-14.0-16.0,24667,List2A,black,woman,,TRUE,6,,,,,,,,,,
null,CORRECT,,html-keyboard-response,144,563453,0.0-14.0-17.0-0.0,24667,List2A,black,woman,,,,null,,,,,,,,,
2040.1,"<img src=""portrait/BM2.jpg""style=""height:400px;""></img>",5,html-button-response,145,565494,0.0-14.0-19.0,24667,List2A,black,woman,,TRUE,5,,,,,,,,,,
null,CORRECT,,html-keyboard-response,146,567008,0.0-14.0-20.0-0.0,24667,List2A,black,woman,,,,null,,,,,,,,,
2434,"<img src=""portrait/BW1.jpg""style=""height:400px;""></img>",0,html-button-response,147,569443,0.0-14.0-22.0,24667,List2A,black,woman,,TRUE,0,,,,,,,,,,
null,CORRECT,,html-keyboard-response,148,570957,0.0-14.0-23.0-0.0,24667,List2A,black,woman,,,,null,,,,,,,,,
1230,<p>You got 7 out of 8 right first time. Press Continue.</p>,0,html-button-response,149,572188,0.0-14.0-25.0,24667,List2A,black,woman,,,,,,,,,,,,,
1236.1,"As you did not score 100%, the memory game will repeat. Press Continue.",0,html-button-response,150,574425,0.0-14.0-26.0-0.0,24667,List2A,black,woman,,,,,,,,,,,,,
881.8,"<img src='img/portrait_matrix_list2.jpg' style='width:900px;height:500px;''></img><p>If you have memorised all the portraits and names and are ready to start, press Continue.</p><p><strong>Please note: Your memory of these faces will be tested 4 times during this experiment.</strong></p>",0,html-button-response,151,576309,0.0-14.1-0.1,24667,List2A,black,woman,,,,,,,,,,,,,
1544.1,"<img src=""portrait/BM1.jpg""style=""height:400px;""></img>",4,html-button-response,152,578856,0.0-14.1-1.1,24667,List2A,black,woman,,TRUE,4,,,,,,,,,,
null,CORRECT,,html-keyboard-response,153,580372,0.0-14.1-2.1-0.1,24667,List2A,black,woman,,,,null,,,,,,,,,
1506.8,"<img src=""portrait/BW2.jpg""style=""height:400px;""></img>",2,html-button-response,154,581879,0.0-14.1-4.1,24667,List2A,black,woman,,TRUE,2,,,,,,,,,,
null,CORRECT,,html-keyboard-response,155,583401,0.0-14.1-5.1-0.1,24667,List2A,black,woman,,,,null,,,,,,,,,
1211.8,"<img src=""portrait/WW1.jpg""style=""height:400px;""></img>",1,html-button-response,156,584614,0.0-14.1-7.1,24667,List2A,black,woman,,TRUE,1,,,,,,,,,,
null,CORRECT,,html-keyboard-response,157,586131,0.0-14.1-8.1-0.1,24667,List2A,black,woman,,,,null,,,,,,,,,
1450.4,"<img src=""portrait/WM2.jpg""style=""height:400px;""></img>",7,html-button-response,158,587583,0.0-14.1-10.1,24667,List2A,black,woman,,TRUE,7,,,,,,,,,,
null,CORRECT,,html-keyboard-response,159,589090,0.0-14.1-11.1-0.1,24667,List2A,black,woman,,,,null,,,,,,,,,
1228.3,"<img src=""portrait/WW2.jpg""style=""height:400px;""></img>",3,html-button-response,160,590320,0.0-14.1-13.1,24667,List2A,black,woman,,TRUE,3,,,,,,,,,,
null,CORRECT,,html-keyboard-response,161,591834,0.0-14.1-14.1-0.1,24667,List2A,black,woman,,,,null,,,,,,,,,
2072.6,"<img src=""portrait/WM1.jpg""style=""height:400px;""></img>",6,html-button-response,162,593908,0.0-14.1-16.1,24667,List2A,black,woman,,TRUE,6,,,,,,,,,,
null,CORRECT,,html-keyboard-response,163,595409,0.0-14.1-17.1-0.1,24667,List2A,black,woman,,,,null,,,,,,,,,
1427.5,"<img src=""portrait/BM2.jpg""style=""height:400px;""></img>",5,html-button-response,164,596838,0.0-14.1-19.1,24667,List2A,black,woman,,TRUE,5,,,,,,,,,,
null,CORRECT,,html-keyboard-response,165,598354,0.0-14.1-20.1-0.1,24667,List2A,black,woman,,,,null,,,,,,,,,
1736.3,"<img src=""portrait/BW1.jpg""style=""height:400px;""></img>",0,html-button-response,166,600091,0.0-14.1-22.1,24667,List2A,black,woman,,TRUE,0,,,,,,,,,,
null,CORRECT,,html-keyboard-response,167,601601,0.0-14.1-23.1-0.1,24667,List2A,black,woman,,,,null,,,,,,,,,
1263.7,<p>You got 8 out of 8 right first time. Press Continue.</p>,0,html-button-response,168,602866,0.0-14.1-25.1,24667,List2A,black,woman,,,,,,,,,,,,,
null,"<div style=""font-size:60px;"">+</div>",,html-keyboard-response,169,604370,0.0-15.0-0.0,24667,List2A,black,woman,,,,null,,,,,,,,,
null,"<img src=""stim_listA/shout7.gif""style=""height:400px;""></stim_listA>",,html-keyboard-response,170,606385,0.0-15.0-1.0,24667,List2A,black,woman,,,,null,,,,,,,,,
null,is shouting at,,html-keyboard-response,171,608399,0.0-15.0-2.0,24667,List2A,black,woman,,,,null,,,,,,,,,
8301.6,,,survey-text,172,616702,0.0-15.0-3.0,24667,List2A,black,woman,,,,,"{""Q0"":""ruth is shouting at kate""}","<img src=""stim_listA/shout7.gif""style=""height:400px;""></stim_listA>",is shouting at,,,,,,
null,"<div style=""font-size:60px;"">+</div>",,html-keyboard-response,173,617209,0.0-15.0-0.1,24667,List2A,black,woman,,,,null,,,,,,,,,
null,"<img src=""stim_listA/shout4.gif""style=""height:400px;""></stim_listA>",,html-keyboard-response,174,619223,0.0-15.0-1.1,24667,List2A,black,woman,,,,null,,,,,,,,,
null,is being shouted at by,,html-keyboard-response,175,621227,0.0-15.0-2.1,24667,List2A,black,woman,,,,null,,,,,,,,,
6154.3,,,survey-text,176,627382,0.0-15.0-3.1,24667,List2A,black,woman,,,,,"{""Q0"":""kate is being shouted at by mike""}","<img src=""stim_listA/shout4.gif""style=""height:400px;""></stim_listA>",is being shouted at by,,,,,,
null,"<div style=""font-size:60px;"">+</div>",,html-keyboard-response,177,627889,0.0-15.0-0.2,24667,List2A,black,woman,,,,null,,,,,,,,,
null,"<img src=""stim_listA/hug1.gif""style=""height:400px;""></stim_listA>",,html-keyboard-response,178,629901,0.0-15.0-1.2,24667,List2A,black,woman,,,,null,,,,,,,,,
null,is hugging,,html-keyboard-response,179,631909,0.0-15.0-2.2,24667,List2A,black,woman,,,,null,,,,,,,,,
6465.3,,,survey-text,180,638375,0.0-15.0-3.2,24667,List2A,black,woman,,,,,"{""Q0"":""ruth is hugging luke""}","<img src=""stim_listA/hug1.gif""style=""height:400px;""></stim_listA>",is hugging,,,,,,
null,"<div style=""font-size:60px;"">+</div>",,html-keyboard-response,181,638884,0.0-15.0-0.3,24667,List2A,black,woman,,,,null,,,,,,,,,
null,"<img src=""stim_listA/copy2.gif""style=""height:400px;""></stim_listA>",,html-keyboard-response,182,640885,0.0-15.0-1.3,24667,List2A,black,woman,,,,null,,,,,,,,,
null,is being copied by,,html-keyboard-response,183,642888,0.0-15.0-2.3,24667,List2A,black,woman,,,,null,,,,,,,,,
7262.1,,,survey-text,184,650152,0.0-15.0-3.3,24667,List2A,black,woman,,,,,"{""Q0"":""jane is being copied by luke""}","<img src=""stim_listA/copy2.gif""style=""height:400px;""></stim_listA>",is being copied by,,,,,,
null,"<div style=""font-size:60px;"">+</div>",,html-keyboard-response,185,650655,0.0-15.0-0.4,24667,List2A,black,woman,,,,null,,,,,,,,,
null,"<img src=""stim_listA/greet4.gif""style=""height:400px;""></stim_listA>",,html-keyboard-response,186,652658,0.0-15.0-1.4,24667,List2A,black,woman,,,,null,,,,,,,,,
null,is being greeted by,,html-keyboard-response,187,654661,0.0-15.0-2.4,24667,List2A,black,woman,,,,null,,,,,,,,,
7898.2,,,survey-text,188,662560,0.0-15.0-3.4,24667,List2A,black,woman,,,,,"{""Q0"":""fred is being greeted by kate""}","<img src=""stim_listA/greet4.gif""style=""height:400px;""></stim_listA>",is being greeted by,,,,,,
null,"<div style=""font-size:60px;"">+</div>",,html-keyboard-response,189,663072,0.0-15.0-0.5,24667,List2A,black,woman,,,,null,,,,,,,,,
null,"<img src=""stim_listA/touch1.gif""style=""height:400px;""></stim_listA>",,html-keyboard-response,190,665075,0.0-15.0-1.5,24667,List2A,black,woman,,,,null,,,,,,,,,
null,is touching,,html-keyboard-response,191,667084,0.0-15.0-2.5,24667,List2A,black,woman,,,,null,,,,,,,,,
6386.9,,,survey-text,192,673473,0.0-15.0-3.5,24667,List2A,black,woman,,,,,"{""Q0"":""dave is touching jane""}","<img src=""stim_listA/touch1.gif""style=""height:400px;""></stim_listA>",is touching,,,,,,
null,"<div style=""font-size:60px;"">+</div>",,html-keyboard-response,193,673978,0.0-15.0-0.6,24667,List2A,black,woman,,,,null,,,,,,,,,
null,"<img src=""stim_listA/shout6.gif""style=""height:400px;""></stim_listA>",,html-keyboard-response,194,675979,0.0-15.0-1.6,24667,List2A,black,woman,,,,null,,,,,,,,,
null,is being shouted at by,,html-keyboard-response,195,677992,0.0-15.0-2.6,24667,List2A,black,woman,,,,null,,,,,,,,,
8504.1,,,survey-text,196,686497,0.0-15.0-3.6,24667,List2A,black,woman,,,,,"{""Q0"":""dave is shouting at mike""}","<img src=""stim_listA/shout6.gif""style=""height:400px;""></stim_listA>",is being shouted at by,,,,,,
null,"<div style=""font-size:60px;"">+</div>",,html-keyboard-response,197,687001,0.0-15.0-0.7,24667,List2A,black,woman,,,,null,,,,,,,,,
null,"<img src=""stim_listA/hug8.gif""style=""height:400px;""></stim_listA>",,html-keyboard-response,198,689002,0.0-15.0-1.7,24667,List2A,black,woman,,,,null,,,,,,,,,
null,is being hugged by,,html-keyboard-response,199,691007,0.0-15.0-2.7,24667,List2A,black,woman,,,,null,,,,,,,,,
14121,,,survey-text,200,705130,0.0-15.0-3.7,24667,List2A,black,woman,,,,,"{""Q0"":""jane is being hugged by kate""}","<img src=""stim_listA/hug8.gif""style=""height:400px;""></stim_listA>",is being hugged by,,,,,,
null,"<div style=""font-size:60px;"">+</div>",,html-keyboard-response,201,705646,0.0-15.0-0.8,24667,List2A,black,woman,,,,null,,,,,,,,,
null,"<img src=""stim_listA/oppose3.gif""style=""height:400px;""></stim_listA>",,html-keyboard-response,202,707647,0.0-15.0-1.8,24667,List2A,black,woman,,,,null,,,,,,,,,
null,is opposing,,html-keyboard-response,203,709651,0.0-15.0-2.8,24667,List2A,black,woman,,,,null,,,,,,,,,
6061.6,,,survey-text,204,715714,0.0-15.0-3.8,24667,List2A,black,woman,,,,,"{""Q0"":""kate is opposing mike""}","<img src=""stim_listA/oppose3.gif""style=""height:400px;""></stim_listA>",is opposing,,,,,,
null,"<div style=""font-size:60px;"">+</div>",,html-keyboard-response,205,716221,0.0-15.0-0.9,24667,List2A,black,woman,,,,null,,,,,,,,,
null,"<img src=""stim_listA/kiss2.gif""style=""height:400px;""></stim_listA>",,html-keyboard-response,206,718223,0.0-15.0-1.9,24667,List2A,black,woman,,,,null,,,,,,,,,
null,is being kissed by,,html-keyboard-response,207,720232,0.0-15.0-2.9,24667,List2A,black,woman,,,,null,,,,,,,,,
6177.9,,,survey-text,208,726411,0.0-15.0-3.9,24667,List2A,black,woman,,,,,"{""Q0"":""jane is being kissed by dave""}","<img src=""stim_listA/kiss2.gif""style=""height:400px;""></stim_listA>",is being kissed by,,,,,,
null,"<div style=""font-size:60px;"">+</div>",,html-keyboard-response,209,726918,0.0-15.0-0.10,24667,List2A,black,woman,,,,null,,,,,,,,,
null,"<img src=""stim_listA/kiss4.gif""style=""height:400px;""></stim_listA>",,html-keyboard-response,210,728923,0.0-15.0-1.10,24667,List2A,black,woman,,,,null,,,,,,,,,
null,is being kissed by,,html-keyboard-response,211,730933,0.0-15.0-2.10,24667,List2A,black,woman,,,,null,,,,,,,,,
6724.1,,,survey-text,212,737659,0.0-15.0-3.10,24667,List2A,black,woman,,,,,"{""Q0"":""kate is being kissed by mike""}","<img src=""stim_listA/kiss4.gif""style=""height:400px;""></stim_listA>",is being kissed by,,,,,,
null,"<div style=""font-size:60px;"">+</div>",,html-keyboard-response,213,738168,0.0-15.0-0.11,24667,List2A,black,woman,,,,null,,,,,,,,,
null,"<img src=""stim_listA/shout3.gif""style=""height:400px;""></stim_listA>",,html-keyboard-response,214,740180,0.0-15.0-1.11,24667,List2A,black,woman,,,,null,,,,,,,,,
null,is shouting at,,html-keyboard-response,215,742185,0.0-15.0-2.11,24667,List2A,black,woman,,,,null,,,,,,,,,
14873.3,,,survey-text,216,757059,0.0-15.0-3.11,24667,List2A,black,woman,,,,,"{""Q0"":""fred is shouting at beth""}","<img src=""stim_listA/shout3.gif""style=""height:400px;""></stim_listA>",is shouting at,,,,,,
null,"<div style=""font-size:60px;"">+</div>",,html-keyboard-response,217,757566,0.0-15.0-0.12,24667,List2A,black,woman,,,,null,,,,,,,,,
null,"<img src=""stim_listA/greet2.gif""style=""height:400px;""></stim_listA>",,html-keyboard-response,218,759575,0.0-15.0-1.12,24667,List2A,black,woman,,,,null,,,,,,,,,
null,is being greeted by,,html-keyboard-response,219,761584,0.0-15.0-2.12,24667,List2A,black,woman,,,,null,,,,,,,,,
7594.1,,,survey-text,220,769180,0.0-15.0-3.12,24667,List2A,black,woman,,,,,"{""Q0"":""jane is being greeted by luke""}","<img src=""stim_listA/greet2.gif""style=""height:400px;""></stim_listA>",is being greeted by,,,,,,
null,"<div style=""font-size:60px;"">+</div>",,html-keyboard-response,221,769685,0.0-15.0-0.13,24667,List2A,black,woman,,,,null,,,,,,,,,
null,"<img src=""stim_listA/challenge8.gif""style=""height:400px;""></stim_listA>",,html-keyboard-response,222,771701,0.0-15.0-1.13,24667,List2A,black,woman,,,,null,,,,,,,,,
null,is being challenged by,,html-keyboard-response,223,773703,0.0-15.0-2.13,24667,List2A,black,woman,,,,null,,,,,,,,,
13052.6,,,survey-text,224,786757,0.0-15.0-3.13,24667,List2A,black,woman,,,,,"{""Q0"":""kate is being challenged by ruth""}","<img src=""stim_listA/challenge8.gif""style=""height:400px;""></stim_listA>",is being challenged by,,,,,,
null,"<div style=""font-size:60px;"">+</div>",,html-keyboard-response,225,787264,0.0-15.0-0.14,24667,List2A,black,woman,,,,null,,,,,,,,,
null,"<img src=""stim_listA/oppose7.gif""style=""height:400px;""></stim_listA>",,html-keyboard-response,226,789266,0.0-15.0-1.14,24667,List2A,black,woman,,,,null,,,,,,,,,
null,is opposing,,html-keyboard-response,227,791278,0.0-15.0-2.14,24667,List2A,black,woman,,,,null,,,,,,,,,
4053.7,,,survey-text,228,795333,0.0-15.0-3.14,24667,List2A,black,woman,,,,,"{""Q0"":""jane is opposing kate""}","<img src=""stim_listA/oppose7.gif""style=""height:400px;""></stim_listA>",is opposing,,,,,,
null,"<div style=""font-size:60px;"">+</div>",,html-keyboard-response,229,795846,0.0-15.0-0.15,24667,List2A,black,woman,,,,null,,,,,,,,,
null,"<img src=""stim_listA/oppose6.gif""style=""height:400px;""></stim_listA>",,html-keyboard-response,230,797851,0.0-15.0-1.15,24667,List2A,black,woman,,,,null,,,,,,,,,
null,is being opposed by,,html-keyboard-response,231,799852,0.0-15.0-2.15,24667,List2A,black,woman,,,,null,,,,,,,,,
7167.8,,,survey-text,232,807021,0.0-15.0-3.15,24667,List2A,black,woman,,,,,"{""Q0"":""fred is being opposed by luke""}","<img src=""stim_listA/oppose6.gif""style=""height:400px;""></stim_listA>",is being opposed by,,,,,,
null,"<div style=""font-size:60px;"">+</div>",,html-keyboard-response,233,807531,0.0-15.0-0.16,24667,List2A,black,woman,,,,null,,,,,,,,,
null,"<img src=""stim_listA/kiss7.gif""style=""height:400px;""></stim_listA>",,html-keyboard-response,234,809546,0.0-15.0-1.16,24667,List2A,black,woman,,,,null,,,,,,,,,
null,is kissing,,html-keyboard-response,235,811556,0.0-15.0-2.16,24667,List2A,black,woman,,,,null,,,,,,,,,
13792.8,,,survey-text,236,825350,0.0-15.0-3.16,24667,List2A,black,woman,,,,,"{""Q0"":""ruth is kissing beth""}","<img src=""stim_listA/kiss7.gif""style=""height:400px;""></stim_listA>",is kissing,,,,,,
null,"<div style=""font-size:60px;"">+</div>",,html-keyboard-response,237,825853,0.0-15.0-0.17,24667,List2A,black,woman,,,,null,,,,,,,,,
null,"<img src=""stim_listA/seduce4.gif""style=""height:400px;""></stim_listA>",,html-keyboard-response,238,827865,0.0-15.0-1.17,24667,List2A,black,woman,,,,null,,,,,,,,,
null,is being seduced by,,html-keyboard-response,239,829874,0.0-15.0-2.17,24667,List2A,black,woman,,,,null,,,,,,,,,
6595.2,,,survey-text,240,836470,0.0-15.0-3.17,24667,List2A,black,woman,,,,,"{""Q0"":""beth is being seduced by mike""}","<img src=""stim_listA/seduce4.gif""style=""height:400px;""></stim_listA>",is being seduced by,,,,,,
null,"<div style=""font-size:60px;"">+</div>",,html-keyboard-response,241,836977,0.0-15.0-0.18,24667,List2A,black,woman,,,,null,,,,,,,,,
null,"<img src=""stim_listA/look7.gif""style=""height:400px;""></stim_listA>",,html-keyboard-response,242,838993,0.0-15.0-1.18,24667,List2A,black,woman,,,,null,,,,,,,,,
null,is looking at,,html-keyboard-response,243,841008,0.0-15.0-2.18,24667,List2A,black,woman,,,,null,,,,,,,,,
6117,,,survey-text,244,847127,0.0-15.0-3.18,24667,List2A,black,woman,,,,,"{""Q0"":""beth is looking at ruth""}","<img src=""stim_listA/look7.gif""style=""height:400px;""></stim_listA>",is looking at,,,,,,
null,"<div style=""font-size:60px;"">+</div>",,html-keyboard-response,245,847630,0.0-15.0-0.19,24667,List2A,black,woman,,,,null,,,,,,,,,
null,"<img src=""stim_listA/challenge3.gif""style=""height:400px;""></stim_listA>",,html-keyboard-response,246,849632,0.0-15.0-1.19,24667,List2A,black,woman,,,,null,,,,,,,,,
null,is challenging,,html-keyboard-response,247,851640,0.0-15.0-2.19,24667,List2A,black,woman,,,,null,,,,,,,,,
12805.8,,,survey-text,248,864447,0.0-15.0-3.19,24667,List2A,black,woman,,,,,"{""Q0"":""mike is challenging beth""}","<img src=""stim_listA/challenge3.gif""style=""height:400px;""></stim_listA>",is challenging,,,,,,
10759.7,"<img src='img/portrait_matrix_list2.jpg' style='width:900px;height:500px;''></img><p>If you have memorised all the portraits and names and are ready to start, press Continue.</p><p><strong>Please note: Your memory of these faces will be tested 4 times during this experiment.</strong></p>",0,html-button-response,249,875208,0.0-16.0-0.0,24667,List2A,black,woman,,,,,,,,,,,,,
1450.8,"<img src=""portrait/BM2.jpg""style=""height:400px;""></img>",5,html-button-response,250,877660,0.0-16.0-1.0,24667,List2A,black,woman,,TRUE,5,,,,,,,,,,
null,CORRECT,,html-keyboard-response,251,879163,0.0-16.0-2.0-0.0,24667,List2A,black,woman,,,,null,,,,,,,,,
1696.2,"<img src=""portrait/WW2.jpg""style=""height:400px;""></img>",3,html-button-response,252,880860,0.0-16.0-4.0,24667,List2A,black,woman,,TRUE,3,,,,,,,,,,
null,CORRECT,,html-keyboard-response,253,882362,0.0-16.0-5.0-0.0,24667,List2A,black,woman,,,,null,,,,,,,,,
1428.3,"<img src=""portrait/WM1.jpg""style=""height:400px;""></img>",6,html-button-response,254,883791,0.0-16.0-7.0,24667,List2A,black,woman,,TRUE,6,,,,,,,,,,
null,CORRECT,,html-keyboard-response,255,885295,0.0-16.0-8.0-0.0,24667,List2A,black,woman,,,,null,,,,,,,,,
2323.2,"<img src=""portrait/BM1.jpg""style=""height:400px;""></img>",4,html-button-response,256,887619,0.0-16.0-10.0,24667,List2A,black,woman,,TRUE,4,,,,,,,,,,
null,CORRECT,,html-keyboard-response,257,889130,0.0-16.0-11.0-0.0,24667,List2A,black,woman,,,,null,,,,,,,,,
2700.4,"<img src=""portrait/BW1.jpg""style=""height:400px;""></img>",0,html-button-response,258,891832,0.0-16.0-13.0,24667,List2A,black,woman,,TRUE,0,,,,,,,,,,
null,CORRECT,,html-keyboard-response,259,893358,0.0-16.0-14.0-0.0,24667,List2A,black,woman,,,,null,,,,,,,,,
1846.2,"<img src=""portrait/WM2.jpg""style=""height:400px;""></img>",7,html-button-response,260,895205,0.0-16.0-16.0,24667,List2A,black,woman,,TRUE,7,,,,,,,,,,
null,CORRECT,,html-keyboard-response,261,896719,0.0-16.0-17.0-0.0,24667,List2A,black,woman,,,,null,,,,,,,,,
1944.1,"<img src=""portrait/BW2.jpg""style=""height:400px;""></img>",2,html-button-response,262,898664,0.0-16.0-19.0,24667,List2A,black,woman,,TRUE,2,,,,,,,,,,
null,CORRECT,,html-keyboard-response,263,900165,0.0-16.0-20.0-0.0,24667,List2A,black,woman,,,,null,,,,,,,,,
1143.1,"<img src=""portrait/WW1.jpg""style=""height:400px;""></img>",1,html-button-response,264,901309,0.0-16.0-22.0,24667,List2A,black,woman,,TRUE,1,,,,,,,,,,
null,CORRECT,,html-keyboard-response,265,902827,0.0-16.0-23.0-0.0,24667,List2A,black,woman,,,,null,,,,,,,,,
929.8,<p>You got 8 out of 8 right first time. Press Continue.</p>,0,html-button-response,266,903758,0.0-16.0-25.0,24667,List2A,black,woman,,,,,,,,,,,,,
null,"<div style=""font-size:60px;"">+</div>",,html-keyboard-response,267,905261,0.0-17.0-0.0,24667,List2A,black,woman,,,,null,,,,,,,,,
null,"<img src=""stim_listA/hug3.gif""style=""height:400px;""></stim_listA>",,html-keyboard-response,268,907273,0.0-17.0-1.0,24667,List2A,black,woman,,,,null,,,,,,,,,
null,is hugging,,html-keyboard-response,269,909280,0.0-17.0-2.0,24667,List2A,black,woman,,,,null,,,,,,,,,
7159.8,,,survey-text,270,916441,0.0-17.0-3.0,24667,List2A,black,woman,,,,,"{""Q0"":""fred is hugging beth""}","<img src=""stim_listA/hug3.gif""style=""height:400px;""></stim_listA>",is hugging,,,,,,
null,"<div style=""font-size:60px;"">+</div>",,html-keyboard-response,271,916953,0.0-17.0-0.1,24667,List2A,black,woman,,,,null,,,,,,,,,
null,"<img src=""stim_listA/greet7.gif""style=""height:400px;""></stim_listA>",,html-keyboard-response,272,918954,0.0-17.0-1.1,24667,List2A,black,woman,,,,null,,,,,,,,,
null,is greeting,,html-keyboard-response,273,920961,0.0-17.0-2.1,24667,List2A,black,woman,,,,null,,,,,,,,,
4871.6,,,survey-text,274,925834,0.0-17.0-3.1,24667,List2A,black,woman,,,,,"{""Q0"":""jane is greeting beth""}","<img src=""stim_listA/greet7.gif""style=""height:400px;""></stim_listA>",is greeting,,,,,,
null,"<div style=""font-size:60px;"">+</div>",,html-keyboard-response,275,926341,0.0-17.0-0.2,24667,List2A,black,woman,,,,null,,,,,,,,,
null,"<img src=""stim_listA/oppose1.gif""style=""height:400px;""></stim_listA>",,html-keyboard-response,276,928346,0.0-17.0-1.2,24667,List2A,black,woman,,,,null,,,,,,,,,
null,is opposing,,html-keyboard-response,277,930357,0.0-17.0-2.2,24667,List2A,black,woman,,,,null,,,,,,,,,
4803.1,,,survey-text,278,935162,0.0-17.0-3.2,24667,List2A,black,woman,,,,,"{""Q0"":""jane is opposing dave""}","<img src=""stim_listA/oppose1.gif""style=""height:400px;""></stim_listA>",is opposing,,,,,,
null,"<div style=""font-size:60px;"">+</div>",,html-keyboard-response,279,935664,0.0-17.0-0.3,24667,List2A,black,woman,,,,null,,,,,,,,,
null,"<img src=""stim_listA/greet8.gif""style=""height:400px;""></stim_listA>",,html-keyboard-response,280,937670,0.0-17.0-1.3,24667,List2A,black,woman,,,,null,,,,,,,,,
null,is being greeted by,,html-keyboard-response,281,939677,0.0-17.0-2.3,24667,List2A,black,woman,,,,null,,,,,,,,,
9428.4,,,survey-text,282,949106,0.0-17.0-3.3,24667,List2A,black,woman,,,,,"{""Q0"":""kate is being greeted by ruth""}","<img src=""stim_listA/greet8.gif""style=""height:400px;""></stim_listA>",is being greeted by,,,,,,
null,"<div style=""font-size:60px;"">+</div>",,html-keyboard-response,283,949611,0.0-17.0-0.4,24667,List2A,black,woman,,,,null,,,,,,,,,
null,"<img src=""stim_listA/hug7.gif""style=""height:400px;""></stim_listA>",,html-keyboard-response,284,951618,0.0-17.0-1.4,24667,List2A,black,woman,,,,null,,,,,,,,,
null,is hugging,,html-keyboard-response,285,953620,0.0-17.0-2.4,24667,List2A,black,woman,,,,null,,,,,,,,,
3661.1,,,survey-text,286,957283,0.0-17.0-3.4,24667,List2A,black,woman,,,,,"{""Q0"":""beth is hugging ruth""}","<img src=""stim_listA/hug7.gif""style=""height:400px;""></stim_listA>",is hugging,,,,,,
null,"<div style=""font-size:60px;"">+</div>",,html-keyboard-response,287,957785,0.0-17.0-0.5,24667,List2A,black,woman,,,,null,,,,,,,,,
null,"<img src=""stim_listA/kiss3.gif""style=""height:400px;""></stim_listA>",,html-keyboard-response,288,959799,0.0-17.0-1.5,24667,List2A,black,woman,,,,null,,,,,,,,,
null,is kissing,,html-keyboard-response,289,961814,0.0-17.0-2.5,24667,List2A,black,woman,,,,null,,,,,,,,,
3612,,,survey-text,290,965427,0.0-17.0-3.5,24667,List2A,black,woman,,,,,"{""Q0"":""fred is kissing beth""}","<img src=""stim_listA/kiss3.gif""style=""height:400px;""></stim_listA>",is kissing,,,,,,
null,"<div style=""font-size:60px;"">+</div>",,html-keyboard-response,291,965937,0.0-17.0-0.6,24667,List2A,black,woman,,,,null,,,,,,,,,
null,"<img src=""stim_listA/look4.gif""style=""height:400px;""></stim_listA>",,html-keyboard-response,292,967938,0.0-17.0-1.6,24667,List2A,black,woman,,,,null,,,,,,,,,
null,is being looked at by,,html-keyboard-response,293,969951,0.0-17.0-2.6,24667,List2A,black,woman,,,,null,,,,,,,,,
6571.5,,,survey-text,294,976523,0.0-17.0-3.6,24667,List2A,black,woman,,,,,"{""Q0"":""kate is being looked at by mike""}","<img src=""stim_listA/look4.gif""style=""height:400px;""></stim_listA>",is being looked at by,,,,,,
null,"<div style=""font-size:60px;"">+</div>",,html-keyboard-response,295,977033,0.0-17.0-0.7,24667,List2A,black,woman,,,,null,,,,,,,,,
null,"<img src=""stim_listA/shout1.gif""style=""height:400px;""></stim_listA>",,html-keyboard-response,296,979037,0.0-17.0-1.7,24667,List2A,black,woman,,,,null,,,,,,,,,
null,is shouting at,,html-keyboard-response,297,981045,0.0-17.0-2.7,24667,List2A,black,woman,,,,null,,,,,,,,,
6205.2,,,survey-text,298,987252,0.0-17.0-3.7,24667,List2A,black,woman,,,,,"{""Q0"":""ruth is shouting at luke""}","<img src=""stim_listA/shout1.gif""style=""height:400px;""></stim_listA>",is shouting at,,,,,,
null,"<div style=""font-size:60px;"">+</div>",,html-keyboard-response,299,987763,0.0-17.0-0.8,24667,List2A,black,woman,,,,null,,,,,,,,,
null,"<img src=""stim_listA/seduce7.gif""style=""height:400px;""></stim_listA>",,html-keyboard-response,300,989766,0.0-17.0-1.8,24667,List2A,black,woman,,,,null,,,,,,,,,
null,is seducing,,html-keyboard-response,301,991772,0.0-17.0-2.8,24667,List2A,black,woman,,,,null,,,,,,,,,
5566.8,,,survey-text,302,997340,0.0-17.0-3.8,24667,List2A,black,woman,,,,,"{""Q0"":""ruth is seducing kate""}","<img src=""stim_listA/seduce7.gif""style=""height:400px;""></stim_listA>",is seducing,,,,,,
null,"<div style=""font-size:60px;"">+</div>",,html-keyboard-response,303,997853,0.0-17.0-0.9,24667,List2A,black,woman,,,,null,,,,,,,,,
null,"<img src=""stim_listA/challenge7.gif""style=""height:400px;""></stim_listA>",,html-keyboard-response,304,999868,0.0-17.0-1.9,24667,List2A,black,woman,,,,null,,,,,,,,,
null,is challenging,,html-keyboard-response,305,1001873,0.0-17.0-2.9,24667,List2A,black,woman,,,,null,,,,,,,,,
6642.2,,,survey-text,306,1008516,0.0-17.0-3.9,24667,List2A,black,woman,,,,,"{""Q0"":""jane is challenging beth""}","<img src=""stim_listA/challenge7.gif""style=""height:400px;""></stim_listA>",is challenging,,,,,,
null,"<div style=""font-size:60px;"">+</div>",,html-keyboard-response,307,1009025,0.0-17.0-0.10,24667,List2A,black,woman,,,,null,,,,,,,,,
null,"<img src=""stim_listA/challenge1.gif""style=""height:400px;""></stim_listA>",,html-keyboard-response,308,1011028,0.0-17.0-1.10,24667,List2A,black,woman,,,,null,,,,,,,,,
null,is challenging,,html-keyboard-response,309,1013039,0.0-17.0-2.10,24667,List2A,black,woman,,,,null,,,,,,,,,
8420.7,,,survey-text,310,1021461,0.0-17.0-3.10,24667,List2A,black,woman,,,,,"{""Q0"":""dave is challenging ruth""}","<img src=""stim_listA/challenge1.gif""style=""height:400px;""></stim_listA>",is challenging,,,,,,
null,"<div style=""font-size:60px;"">+</div>",,html-keyboard-response,311,1021963,0.0-17.0-0.11,24667,List2A,black,woman,,,,null,,,,,,,,,
null,"<img src=""stim_listA/look1.gif""style=""height:400px;""></stim_listA>",,html-keyboard-response,312,1023979,0.0-17.0-1.11,24667,List2A,black,woman,,,,null,,,,,,,,,
null,is looking at,,html-keyboard-response,313,1025988,0.0-17.0-2.11,24667,List2A,black,woman,,,,null,,,,,,,,,
6008.4,,,survey-text,314,1031997,0.0-17.0-3.11,24667,List2A,black,woman,,,,,"{""Q0"":""luke is looking at ruth""}","<img src=""stim_listA/look1.gif""style=""height:400px;""></stim_listA>",is looking at,,,,,,
null,"<div style=""font-size:60px;"">+</div>",,html-keyboard-response,315,1032500,0.0-17.0-0.12,24667,List2A,black,woman,,,,null,,,,,,,,,
null,"<img src=""stim_listA/kiss6.gif""style=""height:400px;""></stim_listA>",,html-keyboard-response,316,1034513,0.0-17.0-1.12,24667,List2A,black,woman,,,,null,,,,,,,,,
null,is being kissed by,,html-keyboard-response,317,1036517,0.0-17.0-2.12,24667,List2A,black,woman,,,,null,,,,,,,,,
4079.1,,,survey-text,318,1040598,0.0-17.0-3.12,24667,List2A,black,woman,,,,,"{""Q0"":""mike is being kissed by dave""}","<img src=""stim_listA/kiss6.gif""style=""height:400px;""></stim_listA>",is being kissed by,,,,,,
null,"<div style=""font-size:60px;"">+</div>",,html-keyboard-response,319,1041101,0.0-17.0-0.13,24667,List2A,black,woman,,,,null,,,,,,,,,
null,"<img src=""stim_listA/shout5.gif""style=""height:400px;""></stim_listA>",,html-keyboard-response,320,1043102,0.0-17.0-1.13,24667,List2A,black,woman,,,,null,,,,,,,,,
null,is shouting at,,html-keyboard-response,321,1045114,0.0-17.0-2.13,24667,List2A,black,woman,,,,null,,,,,,,,,
4370.1,,,survey-text,322,1049486,0.0-17.0-3.13,24667,List2A,black,woman,,,,,"{""Q0"":""fred is shouting at luke""}","<img src=""stim_listA/shout5.gif""style=""height:400px;""></stim_listA>",is shouting at,,,,,,
null,"<div style=""font-size:60px;"">+</div>",,html-keyboard-response,323,1049988,0.0-17.0-0.14,24667,List2A,black,woman,,,,null,,,,,,,,,
null,"<img src=""stim_listA/challenge6.gif""style=""height:400px;""></stim_listA>",,html-keyboard-response,324,1051989,0.0-17.0-1.14,24667,List2A,black,woman,,,,null,,,,,,,,,
null,is being challenged by,,html-keyboard-response,325,1054003,0.0-17.0-2.14,24667,List2A,black,woman,,,,null,,,,,,,,,
11935.6,,,survey-text,326,1065940,0.0-17.0-3.14,24667,List2A,black,woman,,,,,"{""Q0"":""mike is being challenged by luke""}","<img src=""stim_listA/challenge6.gif""style=""height:400px;""></stim_listA>",is being challenged by,,,,,,
null,"<div style=""font-size:60px;"">+</div>",,html-keyboard-response,327,1066448,0.0-17.0-0.15,24667,List2A,black,woman,,,,null,,,,,,,,,
null,"<img src=""stim_listA/seduce2.gif""style=""height:400px;""></stim_listA>",,html-keyboard-response,328,1068456,0.0-17.0-1.15,24667,List2A,black,woman,,,,null,,,,,,,,,
null,is being seduced by,,html-keyboard-response,329,1070464,0.0-17.0-2.15,24667,List2A,black,woman,,,,null,,,,,,,,,
14505.8,,,survey-text,330,1084971,0.0-17.0-3.15,24667,List2A,black,woman,,,,,"{""Q0"":""ruth is being seduced by dave""}","<img src=""stim_listA/seduce2.gif""style=""height:400px;""></stim_listA>",is being seduced by,,,,,,
null,"<div style=""font-size:60px;"">+</div>",,html-keyboard-response,331,1085472,0.0-17.0-0.16,24667,List2A,black,woman,,,,null,,,,,,,,,
null,"<img src=""stim_listA/copy3.gif""style=""height:400px;""></stim_listA>",,html-keyboard-response,332,1087482,0.0-17.0-1.16,24667,List2A,black,woman,,,,null,,,,,,,,,
null,is copying,,html-keyboard-response,333,1089489,0.0-17.0-2.16,24667,List2A,black,woman,,,,null,,,,,,,,,
6237,,,survey-text,334,1095728,0.0-17.0-3.16,24667,List2A,black,woman,,,,,"{""Q0"":""beth is copying mike""}","<img src=""stim_listA/copy3.gif""style=""height:400px;""></stim_listA>",is copying,,,,,,
null,"<div style=""font-size:60px;"">+</div>",,html-keyboard-response,335,1096238,0.0-17.0-0.17,24667,List2A,black,woman,,,,null,,,,,,,,,
null,"<img src=""stim_listA/seduce8.gif""style=""height:400px;""></stim_listA>",,html-keyboard-response,336,1098241,0.0-17.0-1.17,24667,List2A,black,woman,,,,null,,,,,,,,,
null,is being seduced by,,html-keyboard-response,337,1100248,0.0-17.0-2.17,24667,List2A,black,woman,,,,null,,,,,,,,,
4358.7,,,survey-text,338,1104608,0.0-17.0-3.17,24667,List2A,black,woman,,,,,"{""Q0"":""beth is being seduced by jane""}","<img src=""stim_listA/seduce8.gif""style=""height:400px;""></stim_listA>",is being seduced by,,,,,,
null,"<div style=""font-size:60px;"">+</div>",,html-keyboard-response,339,1105115,0.0-17.0-0.18,24667,List2A,black,woman,,,,null,,,,,,,,,
null,"<img src=""stim_listA/seduce3.gif""style=""height:400px;""></stim_listA>",,html-keyboard-response,340,1107116,0.0-17.0-1.18,24667,List2A,black,woman,,,,null,,,,,,,,,
null,is seducing,,html-keyboard-response,341,1109129,0.0-17.0-2.18,24667,List2A,black,woman,,,,null,,,,,,,,,
6957.8,,,survey-text,342,1116088,0.0-17.0-3.18,24667,List2A,black,woman,,,,,"{""Q0"":""kate is seducing fred""}","<img src=""stim_listA/seduce3.gif""style=""height:400px;""></stim_listA>",is seducing,,,,,,
null,"<div style=""font-size:60px;"">+</div>",,html-keyboard-response,343,1116596,0.0-17.0-0.19,24667,List2A,black,woman,,,,null,,,,,,,,,
null,"<img src=""stim_listA/kiss5.gif""style=""height:400px;""></stim_listA>",,html-keyboard-response,344,1118601,0.0-17.0-1.19,24667,List2A,black,woman,,,,null,,,,,,,,,
null,is kissing,,html-keyboard-response,345,1120613,0.0-17.0-2.19,24667,List2A,black,woman,,,,null,,,,,,,,,
5129.4,,,survey-text,346,1125744,0.0-17.0-3.19,24667,List2A,black,woman,,,,,"{""Q0"":""fred is kissing luke""}","<img src=""stim_listA/kiss5.gif""style=""height:400px;""></stim_listA>",is kissing,,,,,,
19593.2,"<img src='img/portrait_matrix_list2.jpg' style='width:900px;height:500px;''></img><p>If you have memorised all the portraits and names and are ready to start, press Continue.</p><p><strong>Please note: Your memory of these faces will be tested 4 times during this experiment.</strong></p>",0,html-button-response,347,1145338,0.0-18.0-0.0,24667,List2A,black,woman,,,,,,,,,,,,,
3421.2,"<img src=""portrait/WW2.jpg""style=""height:400px;""></img>",3,html-button-response,348,1149761,0.0-18.0-1.0,24667,List2A,black,woman,,TRUE,3,,,,,,,,,,
null,CORRECT,,html-keyboard-response,349,1151272,0.0-18.0-2.0-0.0,24667,List2A,black,woman,,,,null,,,,,,,,,
4286.9,"<img src=""portrait/BW2.jpg""style=""height:400px;""></img>",2,html-button-response,350,1155559,0.0-18.0-4.0,24667,List2A,black,woman,,TRUE,2,,,,,,,,,,
null,CORRECT,,html-keyboard-response,351,1157061,0.0-18.0-5.0-0.0,24667,List2A,black,woman,,,,null,,,,,,,,,
2579.8,"<img src=""portrait/WM2.jpg""style=""height:400px;""></img>",7,html-button-response,352,1159641,0.0-18.0-7.0,24667,List2A,black,woman,,TRUE,7,,,,,,,,,,
null,CORRECT,,html-keyboard-response,353,1161163,0.0-18.0-8.0-0.0,24667,List2A,black,woman,,,,null,,,,,,,,,
1769.6,"<img src=""portrait/BW1.jpg""style=""height:400px;""></img>",0,html-button-response,354,1162934,0.0-18.0-10.0,24667,List2A,black,woman,,TRUE,0,,,,,,,,,,
null,CORRECT,,html-keyboard-response,355,1164435,0.0-18.0-11.0-0.0,24667,List2A,black,woman,,,,null,,,,,,,,,
1300.2,"<img src=""portrait/BM1.jpg""style=""height:400px;""></img>",4,html-button-response,356,1165736,0.0-18.0-13.0,24667,List2A,black,woman,,TRUE,4,,,,,,,,,,
null,CORRECT,,html-keyboard-response,357,1167238,0.0-18.0-14.0-0.0,24667,List2A,black,woman,,,,null,,,,,,,,,
1364.3,"<img src=""portrait/WM1.jpg""style=""height:400px;""></img>",6,html-button-response,358,1168604,0.0-18.0-16.0,24667,List2A,black,woman,,TRUE,6,,,,,,,,,,
null,CORRECT,,html-keyboard-response,359,1170105,0.0-18.0-17.0-0.0,24667,List2A,black,woman,,,,null,,,,,,,,,
956.3999999,"<img src=""portrait/WW1.jpg""style=""height:400px;""></img>",1,html-button-response,360,1171063,0.0-18.0-19.0,24667,List2A,black,woman,,TRUE,1,,,,,,,,,,
null,CORRECT,,html-keyboard-response,361,1172574,0.0-18.0-20.0-0.0,24667,List2A,black,woman,,,,null,,,,,,,,,
1793.3,"<img src=""portrait/BM2.jpg""style=""height:400px;""></img>",5,html-button-response,362,1174368,0.0-18.0-22.0,24667,List2A,black,woman,,TRUE,5,,,,,,,,,,
null,CORRECT,,html-keyboard-response,363,1175870,0.0-18.0-23.0-0.0,24667,List2A,black,woman,,,,null,,,,,,,,,
1444.7,<p>You got 8 out of 8 right first time. Press Continue.</p>,0,html-button-response,364,1177316,0.0-18.0-25.0,24667,List2A,black,woman,,,,,,,,,,,,,
null,"<div style=""font-size:60px;"">+</div>",,html-keyboard-response,365,1178817,0.0-19.0-0.0,24667,List2A,black,woman,,,,null,,,,,,,,,
null,"<img src=""stim_listA/hug2.gif""style=""height:400px;""></stim_listA>",,html-keyboard-response,366,1180832,0.0-19.0-1.0,24667,List2A,black,woman,,,,null,,,,,,,,,
null,is being hugged by,,html-keyboard-response,367,1182833,0.0-19.0-2.0,24667,List2A,black,woman,,,,null,,,,,,,,,
6976,,,survey-text,368,1189811,0.0-19.0-3.0,24667,List2A,black,woman,,,,,"{""Q0"":""jane is being hugged by dave""}","<img src=""stim_listA/hug2.gif""style=""height:400px;""></stim_listA>",is being hugged by,,,,,,
null,"<div style=""font-size:60px;"">+</div>",,html-keyboard-response,369,1190315,0.0-19.0-0.1,24667,List2A,black,woman,,,,null,,,,,,,,,
null,"<img src=""stim_listA/oppose8.gif""style=""height:400px;""></stim_listA>",,html-keyboard-response,370,1192316,0.0-19.0-1.1,24667,List2A,black,woman,,,,null,,,,,,,,,
null,is being opposed by,,html-keyboard-response,371,1194323,0.0-19.0-2.1,24667,List2A,black,woman,,,,null,,,,,,,,,
9319,,,survey-text,372,1203643,0.0-19.0-3.1,24667,List2A,black,woman,,,,,"{""Q0"":""ruth is being opposed by beth""}","<img src=""stim_listA/oppose8.gif""style=""height:400px;""></stim_listA>",is being opposed by,,,,,,
null,"<div style=""font-size:60px;"">+</div>",,html-keyboard-response,373,1204151,0.0-19.0-0.2,24667,List2A,black,woman,,,,null,,,,,,,,,
null,"<img src=""stim_listA/oppose5.gif""style=""height:400px;""></stim_listA>",,html-keyboard-response,374,1206158,0.0-19.0-1.2,24667,List2A,black,woman,,,,null,,,,,,,,,
null,is opposing,,html-keyboard-response,375,1208163,0.0-19.0-2.2,24667,List2A,black,woman,,,,null,,,,,,,,,
5415.5,,,survey-text,376,1213580,0.0-19.0-3.2,24667,List2A,black,woman,,,,,"{""Q0"":""mike is opposing dave""}","<img src=""stim_listA/oppose5.gif""style=""height:400px;""></stim_listA>",is opposing,,,,,,
null,"<div style=""font-size:60px;"">+</div>",,html-keyboard-response,377,1214096,0.0-19.0-0.3,24667,List2A,black,woman,,,,null,,,,,,,,,
null,"<img src=""stim_listA/look6.gif""style=""height:400px;""></stim_listA>",,html-keyboard-response,378,1216097,0.0-19.0-1.3,24667,List2A,black,woman,,,,null,,,,,,,,,
null,is being looked at by,,html-keyboard-response,379,1218113,0.0-19.0-2.3,24667,List2A,black,woman,,,,null,,,,,,,,,
6345.2,,,survey-text,380,1224460,0.0-19.0-3.3,24667,List2A,black,woman,,,,,"{""Q0"":""mike is being looked at by dave""}","<img src=""stim_listA/look6.gif""style=""height:400px;""></stim_listA>",is being looked at by,,,,,,
null,"<div style=""font-size:60px;"">+</div>",,html-keyboard-response,381,1224970,0.0-19.0-0.4,24667,List2A,black,woman,,,,null,,,,,,,,,
null,"<img src=""stim_listA/greet5.gif""style=""height:400px;""></stim_listA>",,html-keyboard-response,382,1226983,0.0-19.0-1.4,24667,List2A,black,woman,,,,null,,,,,,,,,
null,is greeting,,html-keyboard-response,383,1228991,0.0-19.0-2.4,24667,List2A,black,woman,,,,null,,,,,,,,,
4611.3,,,survey-text,384,1233604,0.0-19.0-3.4,24667,List2A,black,woman,,,,,"{""Q0"":""dave is greeting fred""}","<img src=""stim_listA/greet5.gif""style=""height:400px;""></stim_listA>",is greeting,,,,,,
null,"<div style=""font-size:60px;"">+</div>",,html-keyboard-response,385,1234108,0.0-19.0-0.5,24667,List2A,black,woman,,,,null,,,,,,,,,
null,"<img src=""stim_listA/oppose4.gif""style=""height:400px;""></stim_listA>",,html-keyboard-response,386,1236123,0.0-19.0-1.5,24667,List2A,black,woman,,,,null,,,,,,,,,
null,is being opposed by,,html-keyboard-response,387,1238131,0.0-19.0-2.5,24667,List2A,black,woman,,,,null,,,,,,,,,
6296.3,,,survey-text,388,1244428,0.0-19.0-3.5,24667,List2A,black,woman,,,,,"{""Q0"":""fred is being opposed by beth""}","<img src=""stim_listA/oppose4.gif""style=""height:400px;""></stim_listA>",is being opposed by,,,,,,
null,"<div style=""font-size:60px;"">+</div>",,html-keyboard-response,389,1244936,0.0-19.0-0.6,24667,List2A,black,woman,,,,null,,,,,,,,,
null,"<img src=""stim_listA/hug5.gif""style=""height:400px;""></stim_listA>",,html-keyboard-response,390,1246937,0.0-19.0-1.6,24667,List2A,black,woman,,,,null,,,,,,,,,
null,is hugging,,html-keyboard-response,391,1248941,0.0-19.0-2.6,24667,List2A,black,woman,,,,null,,,,,,,,,
8582.2,,,survey-text,392,1257525,0.0-19.0-3.6,24667,List2A,black,woman,,,,,"{""Q0"":""fred is hugging luke""}","<img src=""stim_listA/hug5.gif""style=""height:400px;""></stim_listA>",is hugging,,,,,,
null,"<div style=""font-size:60px;"">+</div>",,html-keyboard-response,393,1258033,0.0-19.0-0.7,24667,List2A,black,woman,,,,null,,,,,,,,,
null,"<img src=""stim_listA/touch5.gif""style=""height:400px;""></stim_listA>",,html-keyboard-response,394,1260038,0.0-19.0-1.7,24667,List2A,black,woman,,,,null,,,,,,,,,
null,is touching,,html-keyboard-response,395,1262044,0.0-19.0-2.7,24667,List2A,black,woman,,,,null,,,,,,,,,
3607.2,,,survey-text,396,1265653,0.0-19.0-3.7,24667,List2A,black,woman,,,,,"{""Q0"":""dave is touching mike""}","<img src=""stim_listA/touch5.gif""style=""height:400px;""></stim_listA>",is touching,,,,,,
null,"<div style=""font-size:60px;"">+</div>",,html-keyboard-response,397,1266168,0.0-19.0-0.8,24667,List2A,black,woman,,,,null,,,,,,,,,
null,"<img src=""stim_listA/copy1.gif""style=""height:400px;""></stim_listA>",,html-keyboard-response,398,1268183,0.0-19.0-1.8,24667,List2A,black,woman,,,,null,,,,,,,,,
null,is copying,,html-keyboard-response,399,1270199,0.0-19.0-2.8,24667,List2A,black,woman,,,,null,,,,,,,,,
4180.9,,,survey-text,400,1274381,0.0-19.0-3.8,24667,List2A,black,woman,,,,,"{""Q0"":""ruth is copying dave""}","<img src=""stim_listA/copy1.gif""style=""height:400px;""></stim_listA>",is copying,,,,,,
null,"<div style=""font-size:60px;"">+</div>",,html-keyboard-response,401,1274886,0.0-19.0-0.9,24667,List2A,black,woman,,,,null,,,,,,,,,
null,"<img src=""stim_listA/touch2.gif""style=""height:400px;""></stim_listA>",,html-keyboard-response,402,1276887,0.0-19.0-1.9,24667,List2A,black,woman,,,,null,,,,,,,,,
null,is being touched by,,html-keyboard-response,403,1278888,0.0-19.0-2.9,24667,List2A,black,woman,,,,null,,,,,,,,,
6619.9,,,survey-text,404,1285510,0.0-19.0-3.9,24667,List2A,black,woman,,,,,"{""Q0"":""ruth is being touched by luke""}","<img src=""stim_listA/touch2.gif""style=""height:400px;""></stim_listA>",is being touched by,,,,,,
null,"<div style=""font-size:60px;"">+</div>",,html-keyboard-response,405,1286024,0.0-19.0-0.10,24667,List2A,black,woman,,,,null,,,,,,,,,
null,"<img src=""stim_listA/touch4.gif""style=""height:400px;""></stim_listA>",,html-keyboard-response,406,1288036,0.0-19.0-1.10,24667,List2A,black,woman,,,,null,,,,,,,,,
null,is being touched by,,html-keyboard-response,407,1290038,0.0-19.0-2.10,24667,List2A,black,woman,,,,null,,,,,,,,,
5062.7,,,survey-text,408,1295102,0.0-19.0-3.10,24667,List2A,black,woman,,,,,"{""Q0"":""beth is being touched by fred""}","<img src=""stim_listA/touch4.gif""style=""height:400px;""></stim_listA>",is being touched by,,,,,,
null,"<div style=""font-size:60px;"">+</div>",,html-keyboard-response,409,1295613,0.0-19.0-0.11,24667,List2A,black,woman,,,,null,,,,,,,,,
null,"<img src=""stim_listA/copy6.gif""style=""height:400px;""></stim_listA>",,html-keyboard-response,410,1297615,0.0-19.0-1.11,24667,List2A,black,woman,,,,null,,,,,,,,,
null,is being copied by,,html-keyboard-response,411,1299618,0.0-19.0-2.11,24667,List2A,black,woman,,,,null,,,,,,,,,
3890.6,,,survey-text,412,1303510,0.0-19.0-3.11,24667,List2A,black,woman,,,,,"{""Q0"":""mike is being copied by luke""}","<img src=""stim_listA/copy6.gif""style=""height:400px;""></stim_listA>",is being copied by,,,,,,
null,"<div style=""font-size:60px;"">+</div>",,html-keyboard-response,413,1304015,0.0-19.0-0.12,24667,List2A,black,woman,,,,null,,,,,,,,,
null,"<img src=""stim_listA/challenge5.gif""style=""height:400px;""></stim_listA>",,html-keyboard-response,414,1306020,0.0-19.0-1.12,24667,List2A,black,woman,,,,null,,,,,,,,,
null,is challenging,,html-keyboard-response,415,1308023,0.0-19.0-2.12,24667,List2A,black,woman,,,,null,,,,,,,,,
8790.8,,,survey-text,416,1316815,0.0-19.0-3.12,24667,List2A,black,woman,,,,,"{""Q0"":""fred is challenging dave""}","<img src=""stim_listA/challenge5.gif""style=""height:400px;""></stim_listA>",is challenging,,,,,,
null,"<div style=""font-size:60px;"">+</div>",,html-keyboard-response,417,1317324,0.0-19.0-0.13,24667,List2A,black,woman,,,,null,,,,,,,,,
null,"<img src=""stim_listA/touch8.gif""style=""height:400px;""></stim_listA>",,html-keyboard-response,418,1319336,0.0-19.0-1.13,24667,List2A,black,woman,,,,null,,,,,,,,,
null,is being touched by,,html-keyboard-response,419,1321342,0.0-19.0-2.13,24667,List2A,black,woman,,,,null,,,,,,,,,
9495.4,,,survey-text,420,1330839,0.0-19.0-3.13,24667,List2A,black,woman,,,,,"{""Q0"":""ruth is being touched by beth""}","<img src=""stim_listA/touch8.gif""style=""height:400px;""></stim_listA>",is being touched by,,,,,,
null,"<div style=""font-size:60px;"">+</div>",,html-keyboard-response,421,1331352,0.0-19.0-0.14,24667,List2A,black,woman,,,,null,,,,,,,,,
null,"<img src=""stim_listA/kiss1.gif""style=""height:400px;""></stim_listA>",,html-keyboard-response,422,1333353,0.0-19.0-1.14,24667,List2A,black,woman,,,,null,,,,,,,,,
null,is kissing,,html-keyboard-response,423,1335355,0.0-19.0-2.14,24667,List2A,black,woman,,,,null,,,,,,,,,
6123.2,,,survey-text,424,1341480,0.0-19.0-3.14,24667,List2A,black,woman,,,,,"{""Q0"":""ruth is kissing luke""}","<img src=""stim_listA/kiss1.gif""style=""height:400px;""></stim_listA>",is kissing,,,,,,
null,"<div style=""font-size:60px;"">+</div>",,html-keyboard-response,425,1341993,0.0-19.0-0.15,24667,List2A,black,woman,,,,null,,,,,,,,,
null,"<img src=""stim_listA/hug6.gif""style=""height:400px;""></stim_listA>",,html-keyboard-response,426,1344008,0.0-19.0-1.15,24667,List2A,black,woman,,,,null,,,,,,,,,
null,is being hugged by,,html-keyboard-response,427,1346017,0.0-19.0-2.15,24667,List2A,black,woman,,,,null,,,,,,,,,
7910.1,,,survey-text,428,1353929,0.0-19.0-3.15,24667,List2A,black,woman,,,,,"{""Q0"":""dave is being hugged by mike""}","<img src=""stim_listA/hug6.gif""style=""height:400px;""></stim_listA>",is being hugged by,,,,,,
null,"<div style=""font-size:60px;"">+</div>",,html-keyboard-response,429,1354437,0.0-19.0-0.16,24667,List2A,black,woman,,,,null,,,,,,,,,
null,"<img src=""stim_listA/look5.gif""style=""height:400px;""></stim_listA>",,html-keyboard-response,430,1356441,0.0-19.0-1.16,24667,List2A,black,woman,,,,null,,,,,,,,,
null,is looking at,,html-keyboard-response,431,1358445,0.0-19.0-2.16,24667,List2A,black,woman,,,,null,,,,,,,,,
7210,,,survey-text,432,1365657,0.0-19.0-3.16,24667,List2A,black,woman,,,,,"{""Q0"":""fred is looking at luke""}","<img src=""stim_listA/look5.gif""style=""height:400px;""></stim_listA>",is looking at,,,,,,
null,"<div style=""font-size:60px;"">+</div>",,html-keyboard-response,433,1366170,0.0-19.0-0.17,24667,List2A,black,woman,,,,null,,,,,,,,,
null,"<img src=""stim_listA/touch7.gif""style=""height:400px;""></stim_listA>",,html-keyboard-response,434,1368171,0.0-19.0-1.17,24667,List2A,black,woman,,,,null,,,,,,,,,
null,is touching,,html-keyboard-response,435,1370179,0.0-19.0-2.17,24667,List2A,black,woman,,,,null,,,,,,,,,
4213,,,survey-text,436,1374393,0.0-19.0-3.17,24667,List2A,black,woman,,,,,"{""Q0"":""jane is touching kate""}","<img src=""stim_listA/touch7.gif""style=""height:400px;""></stim_listA>",is touching,,,,,,
null,"<div style=""font-size:60px;"">+</div>",,html-keyboard-response,437,1374897,0.0-19.0-0.18,24667,List2A,black,woman,,,,null,,,,,,,,,
null,"<img src=""stim_listA/copy8.gif""style=""height:400px;""></stim_listA>",,html-keyboard-response,438,1376901,0.0-19.0-1.18,24667,List2A,black,woman,,,,null,,,,,,,,,
null,is being copied by,,html-keyboard-response,439,1378902,0.0-19.0-2.18,24667,List2A,black,woman,,,,null,,,,,,,,,
7826.1,,,survey-text,440,1386730,0.0-19.0-3.18,24667,List2A,black,woman,,,,,"{""Q0"":""kate is being copied by ruth""}","<img src=""stim_listA/copy8.gif""style=""height:400px;""></stim_listA>",is being copied by,,,,,,
null,"<div style=""font-size:60px;"">+</div>",,html-keyboard-response,441,1387240,0.0-19.0-0.19,24667,List2A,black,woman,,,,null,,,,,,,,,
null,"<img src=""stim_listA/touch6.gif""style=""height:400px;""></stim_listA>",,html-keyboard-response,442,1389250,0.0-19.0-1.19,24667,List2A,black,woman,,,,null,,,,,,,,,
null,is being touched by,,html-keyboard-response,443,1391264,0.0-19.0-2.19,24667,List2A,black,woman,,,,null,,,,,,,,,
6464.9,,,survey-text,444,1397730,0.0-19.0-3.19,24667,List2A,black,woman,,,,,"{""Q0"":""fred is being touched by luke""}","<img src=""stim_listA/touch6.gif""style=""height:400px;""></stim_listA>",is being touched by,,,,,,
2740.7,<p>Thank you for completing that task.</p><p>The final part of this session is a questionnaire that will take about 4 minutes.</p><p>Press Continue.</p>,0,html-button-response,445,1400472,0.0-20.0,24667,List2A,black,woman,,,,,,,,,,,,,
25904.5,,,survey-text,446,1427379,0.0-21.0,24667,List2A,black,woman,,,,,"{""Q0"":""20"",""Q1"":""English"",""Q2"":""English"",""Q3"":""United States"",""Q4"":""American"",""Q5"":""Black"",""Q6"":""Woman""}",,,demographics,,,,,
1913.6,<p>Have you lived in the USA for the last 5 years or more?</p>,0,html-button-response,447,1429294,0.0-22.0,24667,List2A,black,woman,,,,,,,,fiveyears,,,,,
2050.3,<p>Move the slider to show the extent to which you agree with the following statements.</p>,0,html-button-response,448,1432346,0.0-23.0,24667,List2A,black,woman,,,,,,,,,,,,,
5288.9,,,html-slider-response,449,1438637,0.0-24.0-0.0-0.0,24667,List2A,black,woman,,,,,,,,survey_race,37,,,I am glad to be my age.,filler
3770.6,,,html-slider-response,450,1442409,0.0-24.0-0.0-0.1,24667,List2A,black,woman,,,,,,,,survey_race,37,,,Being my age gives me a good feeling.,filler
3102.9,,,html-slider-response,451,1445513,0.0-24.0-0.0-0.2,24667,List2A,black,woman,,,,,,,,survey_race,100,,,Being my race is an important part of how I see myself.,important
3237.1,,,html-slider-response,452,1448751,0.0-24.0-0.0-0.3,24667,List2A,black,woman,,,,,,,,survey_race,99,,,I feel solidarity with my race.,solidarity
3201.4,,,html-slider-response,453,1451954,0.0-24.0-0.0-0.4,24667,List2A,black,woman,,,,,,,,survey_race,98,,,I feel a bond with my race.,bond
3221.6,,,html-slider-response,454,1455177,0.0-24.0-0.0-0.5,24667,List2A,black,woman,,,,,,,,survey_race,31,,,I am glad to be the age I am.,filler
3935.3,,,html-slider-response,455,1459113,0.0-24.0-0.0-0.6,24667,List2A,black,woman,,,,,,,,survey_race,0,,,I have a lot in common with people of a similar age to me.,filler
2741.9,,,html-slider-response,456,1461856,0.0-24.0-0.0-0.7,24667,List2A,black,woman,,,,,,,,survey_race,100,,,I feel committed to my race.,committed
2214.7,,,html-slider-response,457,1464072,0.0-24.0-0.0-0.8,24667,List2A,black,woman,,,,,,,,survey_race,100,,,I consider myself an introvert.,filler
1892.4,,,html-slider-response,458,1465965,0.0-24.0-0.0-0.9,24667,List2A,black,woman,,,,,,,,survey_race,0,,,I consider myself an extrovert.,filler
1972.3,,,html-slider-response,459,1467938,0.0-24.0-0.0-0.10,24667,List2A,black,woman,,,,,,,,survey_race,0,,,I enjoy being in large groups.,filler
2216.4,,,html-slider-response,460,1470155,0.0-24.0-0.0-0.11,24667,List2A,black,woman,,,,,,,,survey_race,100,,,Being my race gives me a good feeling.,feeling
7486.3,,,html-slider-response,461,1477642,0.0-24.0-0.0-0.12,24667,List2A,black,woman,,,,,,,,survey_race,52,,,I am similar to the average person of my race.,similar
4892.9,,,html-slider-response,462,1482536,0.0-24.0-0.0-0.13,24667,List2A,black,woman,,,,,,,,survey_race,100,,,The fact that I am my race is an important part of my identity.,identity
5297.1,,,html-slider-response,463,1487835,0.0-24.0-0.0-0.14,24667,List2A,black,woman,,,,,,,,survey_race,46,,,"The older I get, the wiser I feel.",filler
2989.9,,,html-slider-response,464,1490826,0.0-24.0-0.0-0.15,24667,List2A,black,woman,,,,,,,,survey_race,27,,,My age is not an important part of who I am.,filler
3521.2,,,html-slider-response,465,1494348,0.0-24.0-0.0-0.16,24667,List2A,black,woman,,,,,,,,survey_race,0,,,People of my race have a lot in common with each other.,common
4205,,,html-slider-response,466,1498554,0.0-24.0-0.0-0.17,24667,List2A,black,woman,,,,,,,,survey_race,65,,,I often think about the fact that I am my age.,filler
2607,,,html-slider-response,467,1501162,0.0-24.0-0.0-0.18,24667,List2A,black,woman,,,,,,,,survey_race,0,,,I feel a bond with people the same age as me.,filler
4335.4,,,html-slider-response,468,1505498,0.0-24.0-0.0-0.19,24667,List2A,black,woman,,,,,,,,survey_race,28,,,Getting older does not worry me.,filler
2934.8,,,html-slider-response,469,1508434,0.0-24.0-0.0-0.20,24667,List2A,black,woman,,,,,,,,survey_race,0,,,People of my race are very similar to each other.,verysimilar
2909,,,html-slider-response,470,1511344,0.0-24.0-0.0-0.21,24667,List2A,black,woman,,,,,,,,survey_race,0,,,I often think about the fact that I am my race.,often
1934.3,,,html-slider-response,471,1513279,0.0-24.0-0.0-0.22,24667,List2A,black,woman,,,,,,,,survey_race,100,,,It is pleasant to be my race.,pleasant
3944.2,,,html-slider-response,472,1517224,0.0-24.0-0.0-0.23,24667,List2A,black,woman,,,,,,,,survey_race,0,,,People my age have a lot in common with each other.,filler
1862,,,html-slider-response,473,1519087,0.0-24.0-0.0-0.24,24667,List2A,black,woman,,,,,,,,survey_race,100,,,I am glad to be my race.,glad
4043.3,,,html-slider-response,474,1523132,0.0-24.0-0.0-0.25,24667,List2A,black,woman,,,,,,,,survey_race,0,,,I have a lot in common with the average person of my race.,average
2130.9,,,html-slider-response,475,1525264,0.0-24.0-0.0-0.26,24667,List2A,black,woman,,,,,,,,survey_race,0,,,I feel solidarity with people the same age as me.,filler
2314,,,html-slider-response,476,1527579,0.0-24.0-0.0-0.27,24667,List2A,black,woman,,,,,,,,survey_race,100,,,I think that my race has a lot to be proud of.,proud
3068.1,,,html-slider-response,477,1530647,0.0-24.0-1.0-0.0,24667,List2A,black,woman,,,,,,,,survey_gender,14,,,I feel a bond with my gender.,bond
2386,,,html-slider-response,478,1533035,0.0-24.0-1.0-0.1,24667,List2A,black,woman,,,,,,,,survey_gender,78,,,I often think about my actions.,filler
4534.5,,,html-slider-response,479,1537570,0.0-24.0-1.0-0.2,24667,List2A,black,woman,,,,,,,,survey_gender,63,,,Being my gender is an important part of how I see myself.,important
2892.8,,,html-slider-response,480,1540464,0.0-24.0-1.0-0.3,24667,List2A,black,woman,,,,,,,,survey_gender,0,,,I am similar to the average person of my gender.,similar
3563.2,,,html-slider-response,481,1544028,0.0-24.0-1.0-0.4,24667,List2A,black,woman,,,,,,,,survey_gender,100,,,I think that my gender has a lot to be proud of.,proud
3160.6,,,html-slider-response,482,1547190,0.0-24.0-1.0-0.5,24667,List2A,black,woman,,,,,,,,survey_gender,100,,,The fact that I am my gender is an important part of my identity.,identity
3997.3,,,html-slider-response,483,1551188,0.0-24.0-1.0-0.6,24667,List2A,black,woman,,,,,,,,survey_gender,5,,,I feel a bond with my friends.,filler
2649.9,,,html-slider-response,484,1553839,0.0-24.0-1.0-0.7,24667,List2A,black,woman,,,,,,,,survey_gender,67,,,I often think about the fact that I am my gender.,often
2954.1,,,html-slider-response,485,1556794,0.0-24.0-1.0-0.8,24667,List2A,black,woman,,,,,,,,survey_gender,34,,,Being around my friends gives me a good feeling.,filler
2163.4,,,html-slider-response,486,1558958,0.0-24.0-1.0-0.9,24667,List2A,black,woman,,,,,,,,survey_gender,8,,,My friends understand me.,filler
2802.2,,,html-slider-response,487,1561761,0.0-24.0-1.0-0.10,24667,List2A,black,woman,,,,,,,,survey_gender,0,,,I have a lot in common with the average person of my gender.,average
7516.3,,,html-slider-response,488,1569278,0.0-24.0-1.0-0.11,24667,List2A,black,woman,,,,,,,,survey_gender,51,,,Family is not more important to me than friendship.,filler
3512,,,html-slider-response,489,1572792,0.0-24.0-1.0-0.12,24667,List2A,black,woman,,,,,,,,survey_gender,0,,,Most of the friends in my life are very similar to me.,filler
2034.1,,,html-slider-response,490,1574827,0.0-24.0-1.0-0.13,24667,List2A,black,woman,,,,,,,,survey_gender,0,,,I feel solidarity with my friends.,filler
3031.2,,,html-slider-response,491,1577859,0.0-24.0-1.0-0.14,24667,List2A,black,woman,,,,,,,,survey_gender,7,,,It is pleasant to be my gender.,pleasant
2577.9,,,html-slider-response,492,1580438,0.0-24.0-1.0-0.15,24667,List2A,black,woman,,,,,,,,survey_gender,44,,,I am glad to have the friends that I have.,filler
2250.3,,,html-slider-response,493,1582689,0.0-24.0-1.0-0.16,24667,List2A,black,woman,,,,,,,,survey_gender,19,,,Being my gender gives me a good feeling.,feeling
3671.2,,,html-slider-response,494,1586361,0.0-24.0-1.0-0.17,24667,List2A,black,woman,,,,,,,,survey_gender,0,,,I have a lot in common with my friends.,filler
2730.8,,,html-slider-response,495,1589093,0.0-24.0-1.0-0.18,24667,List2A,black,woman,,,,,,,,survey_gender,0,,,People of my gender have a lot in common with each other.,common
5860,,,html-slider-response,496,1594954,0.0-24.0-1.0-0.19,24667,List2A,black,woman,,,,,,,,survey_gender,52,,,I would say I am an animal person.,filler
3806,,,html-slider-response,497,1598761,0.0-24.0-1.0-0.20,24667,List2A,black,woman,,,,,,,,survey_gender,89,,,It is not always easy for people to know what I am thinking.,filler
3682.7,,,html-slider-response,498,1602445,0.0-24.0-1.0-0.21,24667,List2A,black,woman,,,,,,,,survey_gender,0,,,My friends have a lot in common with each other.,filler
1925,,,html-slider-response,499,1604371,0.0-24.0-1.0-0.22,24667,List2A,black,woman,,,,,,,,survey_gender,0,,,People of my gender are very similar to each other.,verysimilar
3186.3,,,html-slider-response,500,1607558,0.0-24.0-1.0-0.23,24667,List2A,black,woman,,,,,,,,survey_gender,46,,,Routine is not important to me.,filler
2685.3,,,html-slider-response,501,1610244,0.0-24.0-1.0-0.24,24667,List2A,black,woman,,,,,,,,survey_gender,65,,,I consider myself a highly empathetic person.,filler
3260,,,html-slider-response,502,1613505,0.0-24.0-1.0-0.25,24667,List2A,black,woman,,,,,,,,survey_gender,54,,,I feel solidarity with my gender.,solidarity
2561.1,,,html-slider-response,503,1616067,0.0-24.0-1.0-0.26,24667,List2A,black,woman,,,,,,,,survey_gender,64,,,I feel committed to my gender.,committed
4565,,,html-slider-response,504,1620634,0.0-24.0-1.0-0.27,24667,List2A,black,woman,,,,,,,,survey_gender,52,,,I am glad to be my gender.,glad
5590.7,,,survey-text,505,1626226,0.0-25.0,24667,List2A,black,woman,,,,,"{""Q0"":""ccc""}",,,worker_id,,,,,
37224.3,,,external-html,506,1663629,0.0-26.0,24667,List2A,black,woman,debrief.html,,,,,,,,,,,,
