rt,stimulus,button_pressed,trial_type,trial_index,time_elapsed,internal_node_id,subject,list,ppt_race,ppt_gender,url,first_guess,correct,key_press,responses,image_type,phrase_type,test_part,response,stimulus1,stimulus2,question_type,survey_item
2708.6,Welcome to the experiment. Press Continue to begin.,0,html-button-response,0,2716,0.0-0.0,24749,List1B,black,woman,,,,,,,,,,,,,
5638.1,,,external-html,1,9942,0.0-1.0,24749,List1B,black,woman,consent.html,,,,,,,,,,,,
13997.7,"<p>On the next page, you will see portraits of 8 people and their names.</p><p>Your first task is to take a few minutes to memorise the names of these people.</p><p>You will have to recall their names during the rest of the experiment, so it is</p><p>essential that you try to memorise these people and their names as best as you can.</p><br><p><strong>You will then be tested on your memory of these names and portraits.</strong></p><br><p>The experiment will start after you have completed this memory test.</p><br><p>Ready?</p>",0,html-button-response,2,23947,0.0-2.0,24749,List1B,black,woman,,,,,,,,,,,,,
69188.8,"<img src='img/portrait_matrix_list1.jpg' style='width:900px;height:500px;''></img><p>If you have memorised all the portraits and names and are ready to start, press Continue.</p><p><strong>Please note: Your memory of these faces will be tested 4 times during this experiment.</strong></p>",0,html-button-response,3,94145,0.0-3.0-0.0,24749,List1B,black,woman,,,,,,,,,,,,,
4561.6,"<img src=""portrait/WW1.jpg""style=""height:400px;""></img>",1,html-button-response,4,99710,0.0-3.0-1.0,24749,List1B,black,woman,,TRUE,1,,,,,,,,,,
null,CORRECT,,html-keyboard-response,5,101221,0.0-3.0-2.0-0.0,24749,List1B,black,woman,,,,null,,,,,,,,,
4132.9,"<img src=""portrait/BW1.jpg""style=""height:400px;""></img>",0,html-button-response,6,105356,0.0-3.0-4.0,24749,List1B,black,woman,,TRUE,0,,,,,,,,,,
null,CORRECT,,html-keyboard-response,7,106873,0.0-3.0-5.0-0.0,24749,List1B,black,woman,,,,null,,,,,,,,,
2463.1,"<img src=""portrait/BM1.jpg""style=""height:400px;""></img>",4,html-button-response,8,109341,0.0-3.0-7.0,24749,List1B,black,woman,,TRUE,4,,,,,,,,,,
null,CORRECT,,html-keyboard-response,9,110851,0.0-3.0-8.0-0.0,24749,List1B,black,woman,,,,null,,,,,,,,,
4900.7,"<img src=""portrait/BM2.jpg""style=""height:400px;""></img>",5,html-button-response,10,115753,0.0-3.0-10.0,24749,List1B,black,woman,,TRUE,5,,,,,,,,,,
null,CORRECT,,html-keyboard-response,11,117260,0.0-3.0-11.0-0.0,24749,List1B,black,woman,,,,null,,,,,,,,,
3134.3,"<img src=""portrait/WM2.jpg""style=""height:400px;""></img>",7,html-button-response,12,120396,0.0-3.0-13.0,24749,List1B,black,woman,,TRUE,7,,,,,,,,,,
null,CORRECT,,html-keyboard-response,13,121903,0.0-3.0-14.0-0.0,24749,List1B,black,woman,,,,null,,,,,,,,,
3069.1,"<img src=""portrait/WM1.jpg""style=""height:400px;""></img>",6,html-button-response,14,124974,0.0-3.0-16.0,24749,List1B,black,woman,,TRUE,6,,,,,,,,,,
null,CORRECT,,html-keyboard-response,15,126478,0.0-3.0-17.0-0.0,24749,List1B,black,woman,,,,null,,,,,,,,,
2535.9,"<img src=""portrait/WW2.jpg""style=""height:400px;""></img>",3,html-button-response,16,129016,0.0-3.0-19.0,24749,List1B,black,woman,,TRUE,3,,,,,,,,,,
null,CORRECT,,html-keyboard-response,17,130524,0.0-3.0-20.0-0.0,24749,List1B,black,woman,,,,null,,,,,,,,,
3341.3,"<img src=""portrait/BW2.jpg""style=""height:400px;""></img>",2,html-button-response,18,133866,0.0-3.0-22.0,24749,List1B,black,woman,,TRUE,2,,,,,,,,,,
null,CORRECT,,html-keyboard-response,19,135371,0.0-3.0-23.0-0.0,24749,List1B,black,woman,,,,null,,,,,,,,,
1742.7,<p>You got 8 out of 8 right first time. Press Continue.</p>,0,html-button-response,20,137139,0.0-3.0-25.0,24749,List1B,black,woman,,,,,,,,,,,,,
42052.5,"<p>In this experiment, you will view photographs of the people from the memory game interacting.</p><p>By using the <strong>exact</strong> phrase given <i>after</i> the photograph appears and recalling the correct names of the people in the photographs, form a sentence describing the interaction. You do not need to capitalise names.</p><p>Type your answer in the space provided. Please complete every sentence before moving onto the next trial.</p><p>You will only have a few seconds to memorise each given photograph and phrase before you can respond, so try your best to focus.</p><p>An example is given below. Press 'Continue' when you are ready.</p><img src='img/speaking_example.jpg' style='width:800px;height:460px;''></img>",0,html-button-response,21,180204,0.0-4.0,24749,List1B,black,woman,,,,,,,,,,,,,
1874.1,"<p>Before the experiment starts, you will watch two example trials. Press 'Continue'.</p>",0,html-button-response,22,183082,0.0-5.0,24749,List1B,black,woman,,,,,,,,,,,,,
null,<img src='img/play_eg.gif' style='height:400px;''></img>,,html-keyboard-response,23,186088,0.0-6.0,24749,List1B,black,woman,,,,null,,,,,,,,,
null,<p>is playing with</p>,,html-keyboard-response,24,188093,0.0-7.0,24749,List1B,black,woman,,,,null,,,,,,,,,
3377.8,<p><b>Answer:</b> kate is playing with beth</p>,0,html-button-response,25,191472,0.0-8.0,24749,List1B,black,woman,,,,,,,,,,,,,
null,<img src='img/dance_eg.gif' style='height:400px;''></img>,,html-keyboard-response,26,194476,0.0-9.0,24749,List1B,black,woman,,,,null,,,,,,,,,
null,<p>is being entertained by</p>,,html-keyboard-response,27,196480,0.0-10.0,24749,List1B,black,woman,,,,null,,,,,,,,,
3573.9,<p><b>Answer:</b> luke is being entertained by dave</p>,0,html-button-response,28,200054,0.0-11.0,24749,List1B,black,woman,,,,,,,,,,,,,
2191.9,"<p>Ready to start the experiment?</p><br><p><strong>Remember to describe the picture using a full sentence,</strong></p><p><strong>that combines the names of the people with the <i>exact</i> phrase given.</strong></p><p><strong>To receive full payment you must do this correctly.</strong></p><p><strong> You do not need to capitalise names or use punctuation.</strong></p><br><p>Press 'Continue' to begin.</p>",0,html-button-response,29,203250,0.0-12.0,24749,List1B,black,woman,,,,,,,,,,,,,
null,"<div style=""font-size:60px;"">+</div>",,html-keyboard-response,30,204751,0.0-13.0-0.0,24749,List1B,black,woman,,,,null,,,,,,,,,
null,"<img src=""stim_listB/seduce6.gif""style=""height:400px;""></stim_listB>",,html-keyboard-response,31,206757,0.0-13.0-1.0,24749,List1B,black,woman,,,,null,,,,,,,,,
null,is being seduced by,,html-keyboard-response,32,208758,0.0-13.0-2.0,24749,List1B,black,woman,,,,null,,,,,,,,,
5276.7,,,survey-text,33,214062,0.0-13.0-3.0,24749,List1B,black,woman,,,,,"{""Q0"":""luke is being seduced by mike""}","<img src=""stim_listB/seduce6.gif""style=""height:400px;""></stim_listB>",is being seduced by,,,,,,
null,"<div style=""font-size:60px;"">+</div>",,html-keyboard-response,34,214565,0.0-13.0-0.1,24749,List1B,black,woman,,,,null,,,,,,,,,
null,"<img src=""stim_listB/oppose8.gif""style=""height:400px;""></stim_listB>",,html-keyboard-response,35,216570,0.0-13.0-1.1,24749,List1B,black,woman,,,,null,,,,,,,,,
null,is being opposed by,,html-keyboard-response,36,218571,0.0-13.0-2.1,24749,List1B,black,woman,,,,null,,,,,,,,,
6157.8,,,survey-text,37,224731,0.0-13.0-3.1,24749,List1B,black,woman,,,,,"{""Q0"":""beth is being opposed by ruth""}","<img src=""stim_listB/oppose8.gif""style=""height:400px;""></stim_listB>",is being opposed by,,,,,,
null,"<div style=""font-size:60px;"">+</div>",,html-keyboard-response,38,225232,0.0-13.0-0.2,24749,List1B,black,woman,,,,null,,,,,,,,,
null,"<img src=""stim_listB/hug3.gif""style=""height:400px;""></stim_listB>",,html-keyboard-response,39,227239,0.0-13.0-1.2,24749,List1B,black,woman,,,,null,,,,,,,,,
null,is hugging,,html-keyboard-response,40,229243,0.0-13.0-2.2,24749,List1B,black,woman,,,,null,,,,,,,,,
4900.4,,,survey-text,41,234145,0.0-13.0-3.2,24749,List1B,black,woman,,,,,"{""Q0"":""ruth is hugging luke""}","<img src=""stim_listB/hug3.gif""style=""height:400px;""></stim_listB>",is hugging,,,,,,
null,"<div style=""font-size:60px;"">+</div>",,html-keyboard-response,42,234646,0.0-13.0-0.3,24749,List1B,black,woman,,,,null,,,,,,,,,
null,"<img src=""stim_listB/kiss2.gif""style=""height:400px;""></stim_listB>",,html-keyboard-response,43,236654,0.0-13.0-1.3,24749,List1B,black,woman,,,,null,,,,,,,,,
null,is being kissed by,,html-keyboard-response,44,238657,0.0-13.0-2.3,24749,List1B,black,woman,,,,null,,,,,,,,,
4158.8,,,survey-text,45,242818,0.0-13.0-3.3,24749,List1B,black,woman,,,,,"{""Q0"":""kate is being kissed by mike""}","<img src=""stim_listB/kiss2.gif""style=""height:400px;""></stim_listB>",is being kissed by,,,,,,
null,"<div style=""font-size:60px;"">+</div>",,html-keyboard-response,46,243319,0.0-13.0-0.4,24749,List1B,black,woman,,,,null,,,,,,,,,
null,"<img src=""stim_listB/hug5.gif""style=""height:400px;""></stim_listB>",,html-keyboard-response,47,245327,0.0-13.0-1.4,24749,List1B,black,woman,,,,null,,,,,,,,,
null,is hugging,,html-keyboard-response,48,247330,0.0-13.0-2.4,24749,List1B,black,woman,,,,null,,,,,,,,,
3856.8,,,survey-text,49,251190,0.0-13.0-3.4,24749,List1B,black,woman,,,,,"{""Q0"":""dave is hugging luke""}","<img src=""stim_listB/hug5.gif""style=""height:400px;""></stim_listB>",is hugging,,,,,,
null,"<div style=""font-size:60px;"">+</div>",,html-keyboard-response,50,251691,0.0-13.0-0.5,24749,List1B,black,woman,,,,null,,,,,,,,,
null,"<img src=""stim_listB/kiss6.gif""style=""height:400px;""></stim_listB>",,html-keyboard-response,51,253697,0.0-13.0-1.5,24749,List1B,black,woman,,,,null,,,,,,,,,
null,is being kissed by,,html-keyboard-response,52,255700,0.0-13.0-2.5,24749,List1B,black,woman,,,,null,,,,,,,,,
6723.4,,,survey-text,53,262427,0.0-13.0-3.5,24749,List1B,black,woman,,,,,"{""Q0"":""dave is being kissed by mike""}","<img src=""stim_listB/kiss6.gif""style=""height:400px;""></stim_listB>",is being kissed by,,,,,,
null,"<div style=""font-size:60px;"">+</div>",,html-keyboard-response,54,262928,0.0-13.0-0.6,24749,List1B,black,woman,,,,null,,,,,,,,,
null,"<img src=""stim_listB/look4.gif""style=""height:400px;""></stim_listB>",,html-keyboard-response,55,264936,0.0-13.0-1.6,24749,List1B,black,woman,,,,null,,,,,,,,,
null,is being looked at by,,html-keyboard-response,56,266939,0.0-13.0-2.6,24749,List1B,black,woman,,,,null,,,,,,,,,
6115.4,,,survey-text,57,273057,0.0-13.0-3.6,24749,List1B,black,woman,,,,,"{""Q0"":""dave is being looked at by ruth""}","<img src=""stim_listB/look4.gif""style=""height:400px;""></stim_listB>",is being looked at by,,,,,,
null,"<div style=""font-size:60px;"">+</div>",,html-keyboard-response,58,273558,0.0-13.0-0.7,24749,List1B,black,woman,,,,null,,,,,,,,,
null,"<img src=""stim_listB/oppose3.gif""style=""height:400px;""></stim_listB>",,html-keyboard-response,59,275594,0.0-13.0-1.7,24749,List1B,black,woman,,,,null,,,,,,,,,
null,is opposing,,html-keyboard-response,60,277596,0.0-13.0-2.7,24749,List1B,black,woman,,,,null,,,,,,,,,
4337.1,,,survey-text,61,281940,0.0-13.0-3.7,24749,List1B,black,woman,,,,,"{""Q0"":""dave is opposing jane ""}","<img src=""stim_listB/oppose3.gif""style=""height:400px;""></stim_listB>",is opposing,,,,,,
null,"<div style=""font-size:60px;"">+</div>",,html-keyboard-response,62,282442,0.0-13.0-0.8,24749,List1B,black,woman,,,,null,,,,,,,,,
null,"<img src=""stim_listB/oppose4.gif""style=""height:400px;""></stim_listB>",,html-keyboard-response,63,284446,0.0-13.0-1.8,24749,List1B,black,woman,,,,null,,,,,,,,,
null,is being opposed by,,html-keyboard-response,64,286449,0.0-13.0-2.8,24749,List1B,black,woman,,,,null,,,,,,,,,
7248.2,,,survey-text,65,293699,0.0-13.0-3.8,24749,List1B,black,woman,,,,,"{""Q0"":""ruth is being opposed by luke""}","<img src=""stim_listB/oppose4.gif""style=""height:400px;""></stim_listB>",is being opposed by,,,,,,
null,"<div style=""font-size:60px;"">+</div>",,html-keyboard-response,66,294202,0.0-13.0-0.9,24749,List1B,black,woman,,,,null,,,,,,,,,
null,"<img src=""stim_listB/hug7.gif""style=""height:400px;""></stim_listB>",,html-keyboard-response,67,296207,0.0-13.0-1.9,24749,List1B,black,woman,,,,null,,,,,,,,,
null,is hugging,,html-keyboard-response,68,298214,0.0-13.0-2.9,24749,List1B,black,woman,,,,null,,,,,,,,,
2940.7,,,survey-text,69,301158,0.0-13.0-3.9,24749,List1B,black,woman,,,,,"{""Q0"":""ruth is hugging beth""}","<img src=""stim_listB/hug7.gif""style=""height:400px;""></stim_listB>",is hugging,,,,,,
null,"<div style=""font-size:60px;"">+</div>",,html-keyboard-response,70,301660,0.0-13.0-0.10,24749,List1B,black,woman,,,,null,,,,,,,,,
null,"<img src=""stim_listB/seduce7.gif""style=""height:400px;""></stim_listB>",,html-keyboard-response,71,303661,0.0-13.0-1.10,24749,List1B,black,woman,,,,null,,,,,,,,,
null,is seducing,,html-keyboard-response,72,305663,0.0-13.0-2.10,24749,List1B,black,woman,,,,null,,,,,,,,,
5137.1,,,survey-text,73,310805,0.0-13.0-3.10,24749,List1B,black,woman,,,,,"{""Q0"":""jane is seducing kate""}","<img src=""stim_listB/seduce7.gif""style=""height:400px;""></stim_listB>",is seducing,,,,,,
null,"<div style=""font-size:60px;"">+</div>",,html-keyboard-response,74,311306,0.0-13.0-0.11,24749,List1B,black,woman,,,,null,,,,,,,,,
null,"<img src=""stim_listB/touch5.gif""style=""height:400px;""></stim_listB>",,html-keyboard-response,75,313314,0.0-13.0-1.11,24749,List1B,black,woman,,,,null,,,,,,,,,
null,is touching,,html-keyboard-response,76,315316,0.0-13.0-2.11,24749,List1B,black,woman,,,,null,,,,,,,,,
4713.4,,,survey-text,77,320035,0.0-13.0-3.11,24749,List1B,black,woman,,,,,"{""Q0"":""dave is touching mike""}","<img src=""stim_listB/touch5.gif""style=""height:400px;""></stim_listB>",is touching,,,,,,
null,"<div style=""font-size:60px;"">+</div>",,html-keyboard-response,78,320537,0.0-13.0-0.12,24749,List1B,black,woman,,,,null,,,,,,,,,
null,"<img src=""stim_listB/seduce2.gif""style=""height:400px;""></stim_listB>",,html-keyboard-response,79,322541,0.0-13.0-1.12,24749,List1B,black,woman,,,,null,,,,,,,,,
null,is being seduced by,,html-keyboard-response,80,324547,0.0-13.0-2.12,24749,List1B,black,woman,,,,null,,,,,,,,,
6326.4,,,survey-text,81,330877,0.0-13.0-3.12,24749,List1B,black,woman,,,,,"{""Q0"":""kate is being seduced by mike""}","<img src=""stim_listB/seduce2.gif""style=""height:400px;""></stim_listB>",is being seduced by,,,,,,
null,"<div style=""font-size:60px;"">+</div>",,html-keyboard-response,82,331379,0.0-13.0-0.13,24749,List1B,black,woman,,,,null,,,,,,,,,
null,"<img src=""stim_listB/challenge5.gif""style=""height:400px;""></stim_listB>",,html-keyboard-response,83,333382,0.0-13.0-1.13,24749,List1B,black,woman,,,,null,,,,,,,,,
null,is challenging,,html-keyboard-response,84,335388,0.0-13.0-2.13,24749,List1B,black,woman,,,,null,,,,,,,,,
4874.8,,,survey-text,85,340267,0.0-13.0-3.13,24749,List1B,black,woman,,,,,"{""Q0"":""luke is challenging mike""}","<img src=""stim_listB/challenge5.gif""style=""height:400px;""></stim_listB>",is challenging,,,,,,
null,"<div style=""font-size:60px;"">+</div>",,html-keyboard-response,86,340771,0.0-13.0-0.14,24749,List1B,black,woman,,,,null,,,,,,,,,
null,"<img src=""stim_listB/hug8.gif""style=""height:400px;""></stim_listB>",,html-keyboard-response,87,342774,0.0-13.0-1.14,24749,List1B,black,woman,,,,null,,,,,,,,,
null,is being hugged by,,html-keyboard-response,88,344778,0.0-13.0-2.14,24749,List1B,black,woman,,,,null,,,,,,,,,
6823.6,,,survey-text,89,351606,0.0-13.0-3.14,24749,List1B,black,woman,,,,,"{""Q0"":""kate is hugging jane ""}","<img src=""stim_listB/hug8.gif""style=""height:400px;""></stim_listB>",is being hugged by,,,,,,
null,"<div style=""font-size:60px;"">+</div>",,html-keyboard-response,90,352108,0.0-13.0-0.15,24749,List1B,black,woman,,,,null,,,,,,,,,
null,"<img src=""stim_listB/challenge2.gif""style=""height:400px;""></stim_listB>",,html-keyboard-response,91,354111,0.0-13.0-1.15,24749,List1B,black,woman,,,,null,,,,,,,,,
null,is being challenged by,,html-keyboard-response,92,356114,0.0-13.0-2.15,24749,List1B,black,woman,,,,null,,,,,,,,,
5189.3,,,survey-text,93,361308,0.0-13.0-3.15,24749,List1B,black,woman,,,,,"{""Q0"":""kate is being challenged by fred""}","<img src=""stim_listB/challenge2.gif""style=""height:400px;""></stim_listB>",is being challenged by,,,,,,
null,"<div style=""font-size:60px;"">+</div>",,html-keyboard-response,94,361811,0.0-13.0-0.16,24749,List1B,black,woman,,,,null,,,,,,,,,
null,"<img src=""stim_listB/seduce8.gif""style=""height:400px;""></stim_listB>",,html-keyboard-response,95,363818,0.0-13.0-1.16,24749,List1B,black,woman,,,,null,,,,,,,,,
null,is being seduced by,,html-keyboard-response,96,365820,0.0-13.0-2.16,24749,List1B,black,woman,,,,null,,,,,,,,,
5852.8,,,survey-text,97,371677,0.0-13.0-3.16,24749,List1B,black,woman,,,,,"{""Q0"":""kate is being seduced by ruth""}","<img src=""stim_listB/seduce8.gif""style=""height:400px;""></stim_listB>",is being seduced by,,,,,,
null,"<div style=""font-size:60px;"">+</div>",,html-keyboard-response,98,372179,0.0-13.0-0.17,24749,List1B,black,woman,,,,null,,,,,,,,,
null,"<img src=""stim_listB/oppose7.gif""style=""height:400px;""></stim_listB>",,html-keyboard-response,99,374184,0.0-13.0-1.17,24749,List1B,black,woman,,,,null,,,,,,,,,
null,is opposing,,html-keyboard-response,100,376189,0.0-13.0-2.17,24749,List1B,black,woman,,,,null,,,,,,,,,
4245.9,,,survey-text,101,380439,0.0-13.0-3.17,24749,List1B,black,woman,,,,,"{""Q0"":""jane is opposing kate ""}","<img src=""stim_listB/oppose7.gif""style=""height:400px;""></stim_listB>",is opposing,,,,,,
null,"<div style=""font-size:60px;"">+</div>",,html-keyboard-response,102,380941,0.0-13.0-0.18,24749,List1B,black,woman,,,,null,,,,,,,,,
null,"<img src=""stim_listB/greet3.gif""style=""height:400px;""></stim_listB>",,html-keyboard-response,103,382944,0.0-13.0-1.18,24749,List1B,black,woman,,,,null,,,,,,,,,
null,is greeting,,html-keyboard-response,104,384948,0.0-13.0-2.18,24749,List1B,black,woman,,,,null,,,,,,,,,
3602,,,survey-text,105,388558,0.0-13.0-3.18,24749,List1B,black,woman,,,,,"{""Q0"":""ruth is greeting dave""}","<img src=""stim_listB/greet3.gif""style=""height:400px;""></stim_listB>",is greeting,,,,,,
null,"<div style=""font-size:60px;"">+</div>",,html-keyboard-response,106,389062,0.0-13.0-0.19,24749,List1B,black,woman,,,,null,,,,,,,,,
null,"<img src=""stim_listB/touch3.gif""style=""height:400px;""></stim_listB>",,html-keyboard-response,107,391068,0.0-13.0-1.19,24749,List1B,black,woman,,,,null,,,,,,,,,
null,is touching,,html-keyboard-response,108,393073,0.0-13.0-2.19,24749,List1B,black,woman,,,,null,,,,,,,,,
7061.9,,,survey-text,109,400138,0.0-13.0-3.19,24749,List1B,black,woman,,,,,"{""Q0"":""dave is touching jane""}","<img src=""stim_listB/touch3.gif""style=""height:400px;""></stim_listB>",is touching,,,,,,
20375,"<img src='img/portrait_matrix_list1.jpg' style='width:900px;height:500px;''></img><p>If you have memorised all the portraits and names and are ready to start, press Continue.</p><p><strong>Please note: Your memory of these faces will be tested 4 times during this experiment.</strong></p>",0,html-button-response,110,420550,0.0-14.0-0.0,24749,List1B,black,woman,,,,,,,,,,,,,
1946.6,"<img src=""portrait/WW1.jpg""style=""height:400px;""></img>",1,html-button-response,111,423507,0.0-14.0-1.0,24749,List1B,black,woman,,TRUE,1,,,,,,,,,,
null,CORRECT,,html-keyboard-response,112,425013,0.0-14.0-2.0-0.0,24749,List1B,black,woman,,,,null,,,,,,,,,
2178.4,"<img src=""portrait/BM2.jpg""style=""height:400px;""></img>",5,html-button-response,113,427193,0.0-14.0-4.0,24749,List1B,black,woman,,TRUE,5,,,,,,,,,,
null,CORRECT,,html-keyboard-response,114,428703,0.0-14.0-5.0-0.0,24749,List1B,black,woman,,,,null,,,,,,,,,
1803.7,"<img src=""portrait/WM1.jpg""style=""height:400px;""></img>",6,html-button-response,115,430508,0.0-14.0-7.0,24749,List1B,black,woman,,TRUE,6,,,,,,,,,,
null,CORRECT,,html-keyboard-response,116,432018,0.0-14.0-8.0-0.0,24749,List1B,black,woman,,,,null,,,,,,,,,
2198.8,"<img src=""portrait/BW2.jpg""style=""height:400px;""></img>",2,html-button-response,117,434218,0.0-14.0-10.0,24749,List1B,black,woman,,TRUE,2,,,,,,,,,,
null,CORRECT,,html-keyboard-response,118,435723,0.0-14.0-11.0-0.0,24749,List1B,black,woman,,,,null,,,,,,,,,
1447.1,"<img src=""portrait/WW2.jpg""style=""height:400px;""></img>",3,html-button-response,119,437172,0.0-14.0-13.0,24749,List1B,black,woman,,TRUE,3,,,,,,,,,,
null,CORRECT,,html-keyboard-response,120,438681,0.0-14.0-14.0-0.0,24749,List1B,black,woman,,,,null,,,,,,,,,
2689.4,"<img src=""portrait/BM1.jpg""style=""height:400px;""></img>",4,html-button-response,121,441375,0.0-14.0-16.0,24749,List1B,black,woman,,TRUE,4,,,,,,,,,,
null,CORRECT,,html-keyboard-response,122,442880,0.0-14.0-17.0-0.0,24749,List1B,black,woman,,,,null,,,,,,,,,
2603.7,"<img src=""portrait/WM2.jpg""style=""height:400px;""></img>",7,html-button-response,123,445486,0.0-14.0-19.0,24749,List1B,black,woman,,TRUE,7,,,,,,,,,,
null,CORRECT,,html-keyboard-response,124,446997,0.0-14.0-20.0-0.0,24749,List1B,black,woman,,,,null,,,,,,,,,
5550.6,"<img src=""portrait/BW1.jpg""style=""height:400px;""></img>",0,html-button-response,125,452549,0.0-14.0-22.0,24749,List1B,black,woman,,TRUE,0,,,,,,,,,,
null,CORRECT,,html-keyboard-response,126,454059,0.0-14.0-23.0-0.0,24749,List1B,black,woman,,,,null,,,,,,,,,
3174.5,<p>You got 8 out of 8 right first time. Press Continue.</p>,0,html-button-response,127,457236,0.0-14.0-25.0,24749,List1B,black,woman,,,,,,,,,,,,,
null,"<div style=""font-size:60px;"">+</div>",,html-keyboard-response,128,458744,0.0-15.0-0.0,24749,List1B,black,woman,,,,null,,,,,,,,,
null,"<img src=""stim_listB/copy6.gif""style=""height:400px;""></stim_listB>",,html-keyboard-response,129,460747,0.0-15.0-1.0,24749,List1B,black,woman,,,,null,,,,,,,,,
null,is being copied by,,html-keyboard-response,130,462749,0.0-15.0-2.0,24749,List1B,black,woman,,,,null,,,,,,,,,
6064.2,,,survey-text,131,468816,0.0-15.0-3.0,24749,List1B,black,woman,,,,,"{""Q0"":""dave is being copied by fred""}","<img src=""stim_listB/copy6.gif""style=""height:400px;""></stim_listB>",is being copied by,,,,,,
null,"<div style=""font-size:60px;"">+</div>",,html-keyboard-response,132,469320,0.0-15.0-0.1,24749,List1B,black,woman,,,,null,,,,,,,,,
null,"<img src=""stim_listB/touch6.gif""style=""height:400px;""></stim_listB>",,html-keyboard-response,133,471324,0.0-15.0-1.1,24749,List1B,black,woman,,,,null,,,,,,,,,
null,is being touched by,,html-keyboard-response,134,473326,0.0-15.0-2.1,24749,List1B,black,woman,,,,null,,,,,,,,,
4320.5,,,survey-text,135,477652,0.0-15.0-3.1,24749,List1B,black,woman,,,,,"{""Q0"":""fred is being touched by luke""}","<img src=""stim_listB/touch6.gif""style=""height:400px;""></stim_listB>",is being touched by,,,,,,
null,"<div style=""font-size:60px;"">+</div>",,html-keyboard-response,136,478156,0.0-15.0-0.2,24749,List1B,black,woman,,,,null,,,,,,,,,
null,"<img src=""stim_listB/kiss7.gif""style=""height:400px;""></stim_listB>",,html-keyboard-response,137,480159,0.0-15.0-1.2,24749,List1B,black,woman,,,,null,,,,,,,,,
null,is kissing,,html-keyboard-response,138,482161,0.0-15.0-2.2,24749,List1B,black,woman,,,,null,,,,,,,,,
3173.1,,,survey-text,139,485338,0.0-15.0-3.2,24749,List1B,black,woman,,,,,"{""Q0"":""ruth is kissing beth""}","<img src=""stim_listB/kiss7.gif""style=""height:400px;""></stim_listB>",is kissing,,,,,,
null,"<div style=""font-size:60px;"">+</div>",,html-keyboard-response,140,485841,0.0-15.0-0.3,24749,List1B,black,woman,,,,null,,,,,,,,,
null,"<img src=""stim_listB/copy8.gif""style=""height:400px;""></stim_listB>",,html-keyboard-response,141,487849,0.0-15.0-1.3,24749,List1B,black,woman,,,,null,,,,,,,,,
null,is being copied by,,html-keyboard-response,142,489853,0.0-15.0-2.3,24749,List1B,black,woman,,,,null,,,,,,,,,
6227.1,,,survey-text,143,496083,0.0-15.0-3.3,24749,List1B,black,woman,,,,,"{""Q0"":""beth is being copied by jane""}","<img src=""stim_listB/copy8.gif""style=""height:400px;""></stim_listB>",is being copied by,,,,,,
null,"<div style=""font-size:60px;"">+</div>",,html-keyboard-response,144,496586,0.0-15.0-0.4,24749,List1B,black,woman,,,,null,,,,,,,,,
null,"<img src=""stim_listB/seduce4.gif""style=""height:400px;""></stim_listB>",,html-keyboard-response,145,498590,0.0-15.0-1.4,24749,List1B,black,woman,,,,null,,,,,,,,,
null,is being seduced by,,html-keyboard-response,146,500592,0.0-15.0-2.4,24749,List1B,black,woman,,,,null,,,,,,,,,
4982,,,survey-text,147,505578,0.0-15.0-3.4,24749,List1B,black,woman,,,,,"{""Q0"":""dave is being seduced by ruth""}","<img src=""stim_listB/seduce4.gif""style=""height:400px;""></stim_listB>",is being seduced by,,,,,,
null,"<div style=""font-size:60px;"">+</div>",,html-keyboard-response,148,506079,0.0-15.0-0.5,24749,List1B,black,woman,,,,null,,,,,,,,,
null,"<img src=""stim_listB/shout1.gif""style=""height:400px;""></stim_listB>",,html-keyboard-response,149,508085,0.0-15.0-1.5,24749,List1B,black,woman,,,,null,,,,,,,,,
null,is shouting at,,html-keyboard-response,150,510089,0.0-15.0-2.5,24749,List1B,black,woman,,,,null,,,,,,,,,
4116.1,,,survey-text,151,514208,0.0-15.0-3.5,24749,List1B,black,woman,,,,,"{""Q0"":""beth is shouting at dave ""}","<img src=""stim_listB/shout1.gif""style=""height:400px;""></stim_listB>",is shouting at,,,,,,
null,"<div style=""font-size:60px;"">+</div>",,html-keyboard-response,152,514709,0.0-15.0-0.6,24749,List1B,black,woman,,,,null,,,,,,,,,
null,"<img src=""stim_listB/greet5.gif""style=""height:400px;""></stim_listB>",,html-keyboard-response,153,516712,0.0-15.0-1.6,24749,List1B,black,woman,,,,null,,,,,,,,,
null,is greeting,,html-keyboard-response,154,518713,0.0-15.0-2.6,24749,List1B,black,woman,,,,null,,,,,,,,,
3444.8,,,survey-text,155,522161,0.0-15.0-3.6,24749,List1B,black,woman,,,,,"{""Q0"":""luke is greeting mike""}","<img src=""stim_listB/greet5.gif""style=""height:400px;""></stim_listB>",is greeting,,,,,,
null,"<div style=""font-size:60px;"">+</div>",,html-keyboard-response,156,522661,0.0-15.0-0.7,24749,List1B,black,woman,,,,null,,,,,,,,,
null,"<img src=""stim_listB/shout7.gif""style=""height:400px;""></stim_listB>",,html-keyboard-response,157,524664,0.0-15.0-1.7,24749,List1B,black,woman,,,,null,,,,,,,,,
null,is shouting at,,html-keyboard-response,158,526666,0.0-15.0-2.7,24749,List1B,black,woman,,,,null,,,,,,,,,
4913.2,,,survey-text,159,531585,0.0-15.0-3.7,24749,List1B,black,woman,,,,,"{""Q0"":""beth is shouting at ruth""}","<img src=""stim_listB/shout7.gif""style=""height:400px;""></stim_listB>",is shouting at,,,,,,
null,"<div style=""font-size:60px;"">+</div>",,html-keyboard-response,160,532087,0.0-15.0-0.8,24749,List1B,black,woman,,,,null,,,,,,,,,
null,"<img src=""stim_listB/copy1.gif""style=""height:400px;""></stim_listB>",,html-keyboard-response,161,534092,0.0-15.0-1.8,24749,List1B,black,woman,,,,null,,,,,,,,,
null,is copying,,html-keyboard-response,162,536094,0.0-15.0-2.8,24749,List1B,black,woman,,,,null,,,,,,,,,
5058.7,,,survey-text,163,541155,0.0-15.0-3.8,24749,List1B,black,woman,,,,,"{""Q0"":""beth is copying mike""}","<img src=""stim_listB/copy1.gif""style=""height:400px;""></stim_listB>",is copying,,,,,,
null,"<div style=""font-size:60px;"">+</div>",,html-keyboard-response,164,541658,0.0-15.0-0.9,24749,List1B,black,woman,,,,null,,,,,,,,,
null,"<img src=""stim_listB/look2.gif""style=""height:400px;""></stim_listB>",,html-keyboard-response,165,543663,0.0-15.0-1.9,24749,List1B,black,woman,,,,null,,,,,,,,,
null,is being looked at by,,html-keyboard-response,166,545666,0.0-15.0-2.9,24749,List1B,black,woman,,,,null,,,,,,,,,
4277.2,,,survey-text,167,549945,0.0-15.0-3.9,24749,List1B,black,woman,,,,,"{""Q0"":""mike is being looked at by kate""}","<img src=""stim_listB/look2.gif""style=""height:400px;""></stim_listB>",is being looked at by,,,,,,
null,"<div style=""font-size:60px;"">+</div>",,html-keyboard-response,168,550447,0.0-15.0-0.10,24749,List1B,black,woman,,,,null,,,,,,,,,
null,"<img src=""stim_listB/seduce3.gif""style=""height:400px;""></stim_listB>",,html-keyboard-response,169,552452,0.0-15.0-1.10,24749,List1B,black,woman,,,,null,,,,,,,,,
null,is seducing,,html-keyboard-response,170,554454,0.0-15.0-2.10,24749,List1B,black,woman,,,,null,,,,,,,,,
5929.9,,,survey-text,171,560390,0.0-15.0-3.10,24749,List1B,black,woman,,,,,"{""Q0"":""jane is seducing luke""}","<img src=""stim_listB/seduce3.gif""style=""height:400px;""></stim_listB>",is seducing,,,,,,
null,"<div style=""font-size:60px;"">+</div>",,html-keyboard-response,172,560892,0.0-15.0-0.11,24749,List1B,black,woman,,,,null,,,,,,,,,
null,"<img src=""stim_listB/copy4.gif""style=""height:400px;""></stim_listB>",,html-keyboard-response,173,562902,0.0-15.0-1.11,24749,List1B,black,woman,,,,null,,,,,,,,,
null,is being copied by,,html-keyboard-response,174,564903,0.0-15.0-2.11,24749,List1B,black,woman,,,,null,,,,,,,,,
5236.8,,,survey-text,175,570142,0.0-15.0-3.11,24749,List1B,black,woman,,,,,"{""Q0"":""jane is being copied by luke""}","<img src=""stim_listB/copy4.gif""style=""height:400px;""></stim_listB>",is being copied by,,,,,,
null,"<div style=""font-size:60px;"">+</div>",,html-keyboard-response,176,570644,0.0-15.0-0.12,24749,List1B,black,woman,,,,null,,,,,,,,,
null,"<img src=""stim_listB/kiss3.gif""style=""height:400px;""></stim_listB>",,html-keyboard-response,177,572647,0.0-15.0-1.12,24749,List1B,black,woman,,,,null,,,,,,,,,
null,is kissing,,html-keyboard-response,178,574648,0.0-15.0-2.12,24749,List1B,black,woman,,,,null,,,,,,,,,
3113.7,,,survey-text,179,577763,0.0-15.0-3.12,24749,List1B,black,woman,,,,,"{""Q0"":""ruth is kissing luke""}","<img src=""stim_listB/kiss3.gif""style=""height:400px;""></stim_listB>",is kissing,,,,,,
null,"<div style=""font-size:60px;"">+</div>",,html-keyboard-response,180,578265,0.0-15.0-0.13,24749,List1B,black,woman,,,,null,,,,,,,,,
null,"<img src=""stim_listB/seduce5.gif""style=""height:400px;""></stim_listB>",,html-keyboard-response,181,580270,0.0-15.0-1.13,24749,List1B,black,woman,,,,null,,,,,,,,,
null,is seducing,,html-keyboard-response,182,582272,0.0-15.0-2.13,24749,List1B,black,woman,,,,null,,,,,,,,,
2796.4,,,survey-text,183,585072,0.0-15.0-3.13,24749,List1B,black,woman,,,,,"{""Q0"":""dave is seducing fred""}","<img src=""stim_listB/seduce5.gif""style=""height:400px;""></stim_listB>",is seducing,,,,,,
null,"<div style=""font-size:60px;"">+</div>",,html-keyboard-response,184,585574,0.0-15.0-0.14,24749,List1B,black,woman,,,,null,,,,,,,,,
null,"<img src=""stim_listB/shout5.gif""style=""height:400px;""></stim_listB>",,html-keyboard-response,185,587577,0.0-15.0-1.14,24749,List1B,black,woman,,,,null,,,,,,,,,
null,is shouting at,,html-keyboard-response,186,589579,0.0-15.0-2.14,24749,List1B,black,woman,,,,null,,,,,,,,,
5376.7,,,survey-text,187,594958,0.0-15.0-3.14,24749,List1B,black,woman,,,,,"{""Q0"":""fred is shouting at luke""}","<img src=""stim_listB/shout5.gif""style=""height:400px;""></stim_listB>",is shouting at,,,,,,
null,"<div style=""font-size:60px;"">+</div>",,html-keyboard-response,188,595459,0.0-15.0-0.15,24749,List1B,black,woman,,,,null,,,,,,,,,
null,"<img src=""stim_listB/challenge1.gif""style=""height:400px;""></stim_listB>",,html-keyboard-response,189,597462,0.0-15.0-1.15,24749,List1B,black,woman,,,,null,,,,,,,,,
null,is challenging,,html-keyboard-response,190,599464,0.0-15.0-2.15,24749,List1B,black,woman,,,,null,,,,,,,,,
5119.6,,,survey-text,191,604588,0.0-15.0-3.15,24749,List1B,black,woman,,,,,"{""Q0"":""beth is challenging mike""}","<img src=""stim_listB/challenge1.gif""style=""height:400px;""></stim_listB>",is challenging,,,,,,
null,"<div style=""font-size:60px;"">+</div>",,html-keyboard-response,192,605089,0.0-15.0-0.16,24749,List1B,black,woman,,,,null,,,,,,,,,
null,"<img src=""stim_listB/touch2.gif""style=""height:400px;""></stim_listB>",,html-keyboard-response,193,607092,0.0-15.0-1.16,24749,List1B,black,woman,,,,null,,,,,,,,,
null,is being touched by,,html-keyboard-response,194,609094,0.0-15.0-2.16,24749,List1B,black,woman,,,,null,,,,,,,,,
4028.1,,,survey-text,195,613126,0.0-15.0-3.16,24749,List1B,black,woman,,,,,"{""Q0"":""beth is being touched by fred""}","<img src=""stim_listB/touch2.gif""style=""height:400px;""></stim_listB>",is being touched by,,,,,,
null,"<div style=""font-size:60px;"">+</div>",,html-keyboard-response,196,613628,0.0-15.0-0.17,24749,List1B,black,woman,,,,null,,,,,,,,,
null,"<img src=""stim_listB/greet1.gif""style=""height:400px;""></stim_listB>",,html-keyboard-response,197,615636,0.0-15.0-1.17,24749,List1B,black,woman,,,,null,,,,,,,,,
null,is greeting,,html-keyboard-response,198,617639,0.0-15.0-2.17,24749,List1B,black,woman,,,,null,,,,,,,,,
5396.4,,,survey-text,199,623040,0.0-15.0-3.17,24749,List1B,black,woman,,,,,"{""Q0"":""beth is greeting mike""}","<img src=""stim_listB/greet1.gif""style=""height:400px;""></stim_listB>",is greeting,,,,,,
null,"<div style=""font-size:60px;"">+</div>",,html-keyboard-response,200,623542,0.0-15.0-0.18,24749,List1B,black,woman,,,,null,,,,,,,,,
null,"<img src=""stim_listB/greet6.gif""style=""height:400px;""></stim_listB>",,html-keyboard-response,201,625545,0.0-15.0-1.18,24749,List1B,black,woman,,,,null,,,,,,,,,
null,is being greeted by,,html-keyboard-response,202,627548,0.0-15.0-2.18,24749,List1B,black,woman,,,,null,,,,,,,,,
5379.5,,,survey-text,203,632931,0.0-15.0-3.18,24749,List1B,black,woman,,,,,"{""Q0"":""dave is being greeted by fred""}","<img src=""stim_listB/greet6.gif""style=""height:400px;""></stim_listB>",is being greeted by,,,,,,
null,"<div style=""font-size:60px;"">+</div>",,html-keyboard-response,204,633433,0.0-15.0-0.19,24749,List1B,black,woman,,,,null,,,,,,,,,
null,"<img src=""stim_listB/kiss5.gif""style=""height:400px;""></stim_listB>",,html-keyboard-response,205,635436,0.0-15.0-1.19,24749,List1B,black,woman,,,,null,,,,,,,,,
null,is kissing,,html-keyboard-response,206,637439,0.0-15.0-2.19,24749,List1B,black,woman,,,,null,,,,,,,,,
3121.4,,,survey-text,207,640563,0.0-15.0-3.19,24749,List1B,black,woman,,,,,"{""Q0"":""fred is kissing luke""}","<img src=""stim_listB/kiss5.gif""style=""height:400px;""></stim_listB>",is kissing,,,,,,
4677.1,"<img src='img/portrait_matrix_list1.jpg' style='width:900px;height:500px;''></img><p>If you have memorised all the portraits and names and are ready to start, press Continue.</p><p><strong>Please note: Your memory of these faces will be tested 4 times during this experiment.</strong></p>",0,html-button-response,208,645243,0.0-16.0-0.0,24749,List1B,black,woman,,,,,,,,,,,,,
2406.1,"<img src=""portrait/BM2.jpg""style=""height:400px;""></img>",5,html-button-response,209,648656,0.0-16.0-1.0,24749,List1B,black,woman,,TRUE,5,,,,,,,,,,
null,CORRECT,,html-keyboard-response,210,650163,0.0-16.0-2.0-0.0,24749,List1B,black,woman,,,,null,,,,,,,,,
1643.6,"<img src=""portrait/WW1.jpg""style=""height:400px;""></img>",1,html-button-response,211,651808,0.0-16.0-4.0,24749,List1B,black,woman,,TRUE,1,,,,,,,,,,
null,CORRECT,,html-keyboard-response,212,653315,0.0-16.0-5.0-0.0,24749,List1B,black,woman,,,,null,,,,,,,,,
1536.3,"<img src=""portrait/BM1.jpg""style=""height:400px;""></img>",4,html-button-response,213,654853,0.0-16.0-7.0,24749,List1B,black,woman,,TRUE,4,,,,,,,,,,
null,CORRECT,,html-keyboard-response,214,656362,0.0-16.0-8.0-0.0,24749,List1B,black,woman,,,,null,,,,,,,,,
2072.4,"<img src=""portrait/WM2.jpg""style=""height:400px;""></img>",6,html-button-response,215,658436,0.0-16.0-10.0,24749,List1B,black,woman,,TRUE,7,,,,,,,,,,
2362.5,"<img src=""portrait/WM2.jpg""style=""height:400px;""></img>",7,html-button-response,216,661804,0.0-16.0-12.0-0.0,24749,List1B,black,woman,,FALSE,7,,,,,,,,,,
null,CORRECT,,html-keyboard-response,217,663312,0.0-16.0-12.0-1.0-0.0,24749,List1B,black,woman,,,,null,,,,,,,,,
7375.4,"<img src=""portrait/WM1.jpg""style=""height:400px;""></img>",6,html-button-response,218,670689,0.0-16.0-13.0,24749,List1B,black,woman,,TRUE,6,,,,,,,,,,
null,CORRECT,,html-keyboard-response,219,672198,0.0-16.0-14.0-0.0,24749,List1B,black,woman,,,,null,,,,,,,,,
2006.2,"<img src=""portrait/BW1.jpg""style=""height:400px;""></img>",0,html-button-response,220,674205,0.0-16.0-16.0,24749,List1B,black,woman,,TRUE,0,,,,,,,,,,
null,CORRECT,,html-keyboard-response,221,675710,0.0-16.0-17.0-0.0,24749,List1B,black,woman,,,,null,,,,,,,,,
1939.1,"<img src=""portrait/WW2.jpg""style=""height:400px;""></img>",3,html-button-response,222,677651,0.0-16.0-19.0,24749,List1B,black,woman,,TRUE,3,,,,,,,,,,
null,CORRECT,,html-keyboard-response,223,679158,0.0-16.0-20.0-0.0,24749,List1B,black,woman,,,,null,,,,,,,,,
3393.6,"<img src=""portrait/BW2.jpg""style=""height:400px;""></img>",2,html-button-response,224,682553,0.0-16.0-22.0,24749,List1B,black,woman,,TRUE,2,,,,,,,,,,
null,CORRECT,,html-keyboard-response,225,684064,0.0-16.0-23.0-0.0,24749,List1B,black,woman,,,,null,,,,,,,,,
1465.9,<p>You got 7 out of 8 right first time. Press Continue.</p>,0,html-button-response,226,685541,0.0-16.0-25.0,24749,List1B,black,woman,,,,,,,,,,,,,
2179.7,"As you did not score 100%, the memory game will repeat. Press Continue.",0,html-button-response,227,688723,0.0-16.0-26.0-0.0,24749,List1B,black,woman,,,,,,,,,,,,,
1670,"<img src='img/portrait_matrix_list1.jpg' style='width:900px;height:500px;''></img><p>If you have memorised all the portraits and names and are ready to start, press Continue.</p><p><strong>Please note: Your memory of these faces will be tested 4 times during this experiment.</strong></p>",0,html-button-response,228,691401,0.0-16.1-0.1,24749,List1B,black,woman,,,,,,,,,,,,,
2136.4,"<img src=""portrait/BM2.jpg""style=""height:400px;""></img>",5,html-button-response,229,694545,0.0-16.1-1.1,24749,List1B,black,woman,,TRUE,5,,,,,,,,,,
null,CORRECT,,html-keyboard-response,230,696050,0.0-16.1-2.1-0.1,24749,List1B,black,woman,,,,null,,,,,,,,,
1410.3,"<img src=""portrait/WW1.jpg""style=""height:400px;""></img>",1,html-button-response,231,697463,0.0-16.1-4.1,24749,List1B,black,woman,,TRUE,1,,,,,,,,,,
null,CORRECT,,html-keyboard-response,232,698964,0.0-16.1-5.1-0.1,24749,List1B,black,woman,,,,null,,,,,,,,,
1495.4,"<img src=""portrait/BM1.jpg""style=""height:400px;""></img>",4,html-button-response,233,700461,0.0-16.1-7.1,24749,List1B,black,woman,,TRUE,4,,,,,,,,,,
null,CORRECT,,html-keyboard-response,234,701972,0.0-16.1-8.1-0.1,24749,List1B,black,woman,,,,null,,,,,,,,,
1355,"<img src=""portrait/WM2.jpg""style=""height:400px;""></img>",7,html-button-response,235,703329,0.0-16.1-10.1,24749,List1B,black,woman,,TRUE,7,,,,,,,,,,
null,CORRECT,,html-keyboard-response,236,704833,0.0-16.1-11.1-0.1,24749,List1B,black,woman,,,,null,,,,,,,,,
3452.7,"<img src=""portrait/WM1.jpg""style=""height:400px;""></img>",6,html-button-response,237,708288,0.0-16.1-13.1,24749,List1B,black,woman,,TRUE,6,,,,,,,,,,
null,CORRECT,,html-keyboard-response,238,709794,0.0-16.1-14.1-0.1,24749,List1B,black,woman,,,,null,,,,,,,,,
5538.2,"<img src=""portrait/BW1.jpg""style=""height:400px;""></img>",0,html-button-response,239,715334,0.0-16.1-16.1,24749,List1B,black,woman,,TRUE,0,,,,,,,,,,
null,CORRECT,,html-keyboard-response,240,716844,0.0-16.1-17.1-0.1,24749,List1B,black,woman,,,,null,,,,,,,,,
1240.3,"<img src=""portrait/WW2.jpg""style=""height:400px;""></img>",3,html-button-response,241,718087,0.0-16.1-19.1,24749,List1B,black,woman,,TRUE,3,,,,,,,,,,
null,CORRECT,,html-keyboard-response,242,719589,0.0-16.1-20.1-0.1,24749,List1B,black,woman,,,,null,,,,,,,,,
2289.8,"<img src=""portrait/BW2.jpg""style=""height:400px;""></img>",2,html-button-response,243,721881,0.0-16.1-22.1,24749,List1B,black,woman,,TRUE,2,,,,,,,,,,
null,CORRECT,,html-keyboard-response,244,723391,0.0-16.1-23.1-0.1,24749,List1B,black,woman,,,,null,,,,,,,,,
969.7,<p>You got 8 out of 8 right first time. Press Continue.</p>,0,html-button-response,245,724362,0.0-16.1-25.1,24749,List1B,black,woman,,,,,,,,,,,,,
null,"<div style=""font-size:60px;"">+</div>",,html-keyboard-response,246,725870,0.0-17.0-0.0,24749,List1B,black,woman,,,,null,,,,,,,,,
null,"<img src=""stim_listB/kiss4.gif""style=""height:400px;""></stim_listB>",,html-keyboard-response,247,727883,0.0-17.0-1.0,24749,List1B,black,woman,,,,null,,,,,,,,,
null,is being kissed by,,html-keyboard-response,248,729887,0.0-17.0-2.0,24749,List1B,black,woman,,,,null,,,,,,,,,
8805.6,,,survey-text,249,738695,0.0-17.0-3.0,24749,List1B,black,woman,,,,,"{""Q0"":""jane is being kissed by dave ""}","<img src=""stim_listB/kiss4.gif""style=""height:400px;""></stim_listB>",is being kissed by,,,,,,
null,"<div style=""font-size:60px;"">+</div>",,html-keyboard-response,250,739198,0.0-17.0-0.1,24749,List1B,black,woman,,,,null,,,,,,,,,
null,"<img src=""stim_listB/greet8.gif""style=""height:400px;""></stim_listB>",,html-keyboard-response,251,741212,0.0-17.0-1.1,24749,List1B,black,woman,,,,null,,,,,,,,,
null,is being greeted by,,html-keyboard-response,252,743215,0.0-17.0-2.1,24749,List1B,black,woman,,,,null,,,,,,,,,
5837.2,,,survey-text,253,749055,0.0-17.0-3.1,24749,List1B,black,woman,,,,,"{""Q0"":""jane is being greeted by beth""}","<img src=""stim_listB/greet8.gif""style=""height:400px;""></stim_listB>",is being greeted by,,,,,,
null,"<div style=""font-size:60px;"">+</div>",,html-keyboard-response,254,749558,0.0-17.0-0.2,24749,List1B,black,woman,,,,null,,,,,,,,,
null,"<img src=""stim_listB/oppose6.gif""style=""height:400px;""></stim_listB>",,html-keyboard-response,255,751562,0.0-17.0-1.2,24749,List1B,black,woman,,,,null,,,,,,,,,
null,is being opposed by,,html-keyboard-response,256,753566,0.0-17.0-2.2,24749,List1B,black,woman,,,,null,,,,,,,,,
7413.5,,,survey-text,257,760983,0.0-17.0-3.2,24749,List1B,black,woman,,,,,"{""Q0"":""fred is being opposed by luke""}","<img src=""stim_listB/oppose6.gif""style=""height:400px;""></stim_listB>",is being opposed by,,,,,,
null,"<div style=""font-size:60px;"">+</div>",,html-keyboard-response,258,761484,0.0-17.0-0.3,24749,List1B,black,woman,,,,null,,,,,,,,,
null,"<img src=""stim_listB/touch1.gif""style=""height:400px;""></stim_listB>",,html-keyboard-response,259,763520,0.0-17.0-1.3,24749,List1B,black,woman,,,,null,,,,,,,,,
null,is touching,,html-keyboard-response,260,765524,0.0-17.0-2.3,24749,List1B,black,woman,,,,null,,,,,,,,,
4430.8,,,survey-text,261,769958,0.0-17.0-3.3,24749,List1B,black,woman,,,,,"{""Q0"":""kate is touching mike""}","<img src=""stim_listB/touch1.gif""style=""height:400px;""></stim_listB>",is touching,,,,,,
null,"<div style=""font-size:60px;"">+</div>",,html-keyboard-response,262,770461,0.0-17.0-0.4,24749,List1B,black,woman,,,,null,,,,,,,,,
null,"<img src=""stim_listB/look7.gif""style=""height:400px;""></stim_listB>",,html-keyboard-response,263,772466,0.0-17.0-1.4,24749,List1B,black,woman,,,,null,,,,,,,,,
null,is looking at,,html-keyboard-response,264,774468,0.0-17.0-2.4,24749,List1B,black,woman,,,,null,,,,,,,,,
3944.2,,,survey-text,265,778415,0.0-17.0-3.4,24749,List1B,black,woman,,,,,"{""Q0"":""beth is looking at ruth""}","<img src=""stim_listB/look7.gif""style=""height:400px;""></stim_listB>",is looking at,,,,,,
null,"<div style=""font-size:60px;"">+</div>",,html-keyboard-response,266,778918,0.0-17.0-0.5,24749,List1B,black,woman,,,,null,,,,,,,,,
null,"<img src=""stim_listB/oppose5.gif""style=""height:400px;""></stim_listB>",,html-keyboard-response,267,780924,0.0-17.0-1.5,24749,List1B,black,woman,,,,null,,,,,,,,,
null,is opposing,,html-keyboard-response,268,782926,0.0-17.0-2.5,24749,List1B,black,woman,,,,null,,,,,,,,,
4390.5,,,survey-text,269,787319,0.0-17.0-3.5,24749,List1B,black,woman,,,,,"{""Q0"":""dave is opposing mike ""}","<img src=""stim_listB/oppose5.gif""style=""height:400px;""></stim_listB>",is opposing,,,,,,
null,"<div style=""font-size:60px;"">+</div>",,html-keyboard-response,270,787820,0.0-17.0-0.6,24749,List1B,black,woman,,,,null,,,,,,,,,
null,"<img src=""stim_listB/look6.gif""style=""height:400px;""></stim_listB>",,html-keyboard-response,271,789827,0.0-17.0-1.6,24749,List1B,black,woman,,,,null,,,,,,,,,
null,is being looked at by,,html-keyboard-response,272,791831,0.0-17.0-2.6,24749,List1B,black,woman,,,,null,,,,,,,,,
5378,,,survey-text,273,797211,0.0-17.0-3.6,24749,List1B,black,woman,,,,,"{""Q0"":""mike is being looked at by dave""}","<img src=""stim_listB/look6.gif""style=""height:400px;""></stim_listB>",is being looked at by,,,,,,
null,"<div style=""font-size:60px;"">+</div>",,html-keyboard-response,274,797712,0.0-17.0-0.7,24749,List1B,black,woman,,,,null,,,,,,,,,
null,"<img src=""stim_listB/touch4.gif""style=""height:400px;""></stim_listB>",,html-keyboard-response,275,799714,0.0-17.0-1.7,24749,List1B,black,woman,,,,null,,,,,,,,,
null,is being touched by,,html-keyboard-response,276,801717,0.0-17.0-2.7,24749,List1B,black,woman,,,,null,,,,,,,,,
4067,,,survey-text,277,805787,0.0-17.0-3.7,24749,List1B,black,woman,,,,,"{""Q0"":""luke is being touched by ruth""}","<img src=""stim_listB/touch4.gif""style=""height:400px;""></stim_listB>",is being touched by,,,,,,
null,"<div style=""font-size:60px;"">+</div>",,html-keyboard-response,278,806291,0.0-17.0-0.8,24749,List1B,black,woman,,,,null,,,,,,,,,
null,"<img src=""stim_listB/challenge3.gif""style=""height:400px;""></stim_listB>",,html-keyboard-response,279,808294,0.0-17.0-1.8,24749,List1B,black,woman,,,,null,,,,,,,,,
null,is challenging,,html-keyboard-response,280,810296,0.0-17.0-2.8,24749,List1B,black,woman,,,,null,,,,,,,,,
3888.6,,,survey-text,281,814187,0.0-17.0-3.8,24749,List1B,black,woman,,,,,"{""Q0"":""ruth is challenging dave""}","<img src=""stim_listB/challenge3.gif""style=""height:400px;""></stim_listB>",is challenging,,,,,,
null,"<div style=""font-size:60px;"">+</div>",,html-keyboard-response,282,814689,0.0-17.0-0.9,24749,List1B,black,woman,,,,null,,,,,,,,,
null,"<img src=""stim_listB/challenge8.gif""style=""height:400px;""></stim_listB>",,html-keyboard-response,283,816694,0.0-17.0-1.9,24749,List1B,black,woman,,,,null,,,,,,,,,
null,is being challenged by,,html-keyboard-response,284,818696,0.0-17.0-2.9,24749,List1B,black,woman,,,,null,,,,,,,,,
6215.7,,,survey-text,285,824914,0.0-17.0-3.9,24749,List1B,black,woman,,,,,"{""Q0"":""jane is being challenged by beth""}","<img src=""stim_listB/challenge8.gif""style=""height:400px;""></stim_listB>",is being challenged by,,,,,,
null,"<div style=""font-size:60px;"">+</div>",,html-keyboard-response,286,825415,0.0-17.0-0.10,24749,List1B,black,woman,,,,null,,,,,,,,,
null,"<img src=""stim_listB/shout6.gif""style=""height:400px;""></stim_listB>",,html-keyboard-response,287,827421,0.0-17.0-1.10,24749,List1B,black,woman,,,,null,,,,,,,,,
null,is being shouted at by,,html-keyboard-response,288,829423,0.0-17.0-2.10,24749,List1B,black,woman,,,,null,,,,,,,,,
5640.6,,,survey-text,289,835066,0.0-17.0-3.10,24749,List1B,black,woman,,,,,"{""Q0"":""dave is being shouted at by mike""}","<img src=""stim_listB/shout6.gif""style=""height:400px;""></stim_listB>",is being shouted at by,,,,,,
null,"<div style=""font-size:60px;"">+</div>",,html-keyboard-response,290,835568,0.0-17.0-0.11,24749,List1B,black,woman,,,,null,,,,,,,,,
null,"<img src=""stim_listB/challenge7.gif""style=""height:400px;""></stim_listB>",,html-keyboard-response,291,837574,0.0-17.0-1.11,24749,List1B,black,woman,,,,null,,,,,,,,,
null,is challenging,,html-keyboard-response,292,839576,0.0-17.0-2.11,24749,List1B,black,woman,,,,null,,,,,,,,,
5074.8,,,survey-text,293,844657,0.0-17.0-3.11,24749,List1B,black,woman,,,,,"{""Q0"":""ruth is challenging kate""}","<img src=""stim_listB/challenge7.gif""style=""height:400px;""></stim_listB>",is challenging,,,,,,
null,"<div style=""font-size:60px;"">+</div>",,html-keyboard-response,294,845160,0.0-17.0-0.12,24749,List1B,black,woman,,,,null,,,,,,,,,
null,"<img src=""stim_listB/oppose2.gif""style=""height:400px;""></stim_listB>",,html-keyboard-response,295,847166,0.0-17.0-1.12,24749,List1B,black,woman,,,,null,,,,,,,,,
null,is being opposed by,,html-keyboard-response,296,849171,0.0-17.0-2.12,24749,List1B,black,woman,,,,null,,,,,,,,,
6872.2,,,survey-text,297,856054,0.0-17.0-3.12,24749,List1B,black,woman,,,,,"{""Q0"":""fred is being opposed by beth""}","<img src=""stim_listB/oppose2.gif""style=""height:400px;""></stim_listB>",is being opposed by,,,,,,
null,"<div style=""font-size:60px;"">+</div>",,html-keyboard-response,298,856555,0.0-17.0-0.13,24749,List1B,black,woman,,,,null,,,,,,,,,
null,"<img src=""stim_listB/touch7.gif""style=""height:400px;""></stim_listB>",,html-keyboard-response,299,858564,0.0-17.0-1.13,24749,List1B,black,woman,,,,null,,,,,,,,,
null,is touching,,html-keyboard-response,300,860566,0.0-17.0-2.13,24749,List1B,black,woman,,,,null,,,,,,,,,
3340.3,,,survey-text,301,863909,0.0-17.0-3.13,24749,List1B,black,woman,,,,,"{""Q0"":""jane is touching kate""}","<img src=""stim_listB/touch7.gif""style=""height:400px;""></stim_listB>",is touching,,,,,,
null,"<div style=""font-size:60px;"">+</div>",,html-keyboard-response,302,864411,0.0-17.0-0.14,24749,List1B,black,woman,,,,null,,,,,,,,,
null,"<img src=""stim_listB/touch8.gif""style=""height:400px;""></stim_listB>",,html-keyboard-response,303,866418,0.0-17.0-1.14,24749,List1B,black,woman,,,,null,,,,,,,,,
null,is being touched by,,html-keyboard-response,304,868420,0.0-17.0-2.14,24749,List1B,black,woman,,,,null,,,,,,,,,
3940.4,,,survey-text,305,872365,0.0-17.0-3.14,24749,List1B,black,woman,,,,,"{""Q0"":""beth is being touched by ruth""}","<img src=""stim_listB/touch8.gif""style=""height:400px;""></stim_listB>",is being touched by,,,,,,
null,"<div style=""font-size:60px;"">+</div>",,html-keyboard-response,306,872867,0.0-17.0-0.15,24749,List1B,black,woman,,,,null,,,,,,,,,
null,"<img src=""stim_listB/challenge6.gif""style=""height:400px;""></stim_listB>",,html-keyboard-response,307,874869,0.0-17.0-1.15,24749,List1B,black,woman,,,,null,,,,,,,,,
null,is being challenged by,,html-keyboard-response,308,876872,0.0-17.0-2.15,24749,List1B,black,woman,,,,null,,,,,,,,,
5099.8,,,survey-text,309,881975,0.0-17.0-3.15,24749,List1B,black,woman,,,,,"{""Q0"":""dave is being challenged by fred""}","<img src=""stim_listB/challenge6.gif""style=""height:400px;""></stim_listB>",is being challenged by,,,,,,
null,"<div style=""font-size:60px;"">+</div>",,html-keyboard-response,310,882476,0.0-17.0-0.16,24749,List1B,black,woman,,,,null,,,,,,,,,
null,"<img src=""stim_listB/look1.gif""style=""height:400px;""></stim_listB>",,html-keyboard-response,311,884482,0.0-17.0-1.16,24749,List1B,black,woman,,,,null,,,,,,,,,
null,is looking at,,html-keyboard-response,312,886485,0.0-17.0-2.16,24749,List1B,black,woman,,,,null,,,,,,,,,
4422.3,,,survey-text,313,890911,0.0-17.0-3.16,24749,List1B,black,woman,,,,,"{""Q0"":""fred is looking at beth""}","<img src=""stim_listB/look1.gif""style=""height:400px;""></stim_listB>",is looking at,,,,,,
null,"<div style=""font-size:60px;"">+</div>",,html-keyboard-response,314,891414,0.0-17.0-0.17,24749,List1B,black,woman,,,,null,,,,,,,,,
null,"<img src=""stim_listB/look5.gif""style=""height:400px;""></stim_listB>",,html-keyboard-response,315,893420,0.0-17.0-1.17,24749,List1B,black,woman,,,,null,,,,,,,,,
null,is looking at,,html-keyboard-response,316,895426,0.0-17.0-2.17,24749,List1B,black,woman,,,,null,,,,,,,,,
3053.2,,,survey-text,317,898483,0.0-17.0-3.17,24749,List1B,black,woman,,,,,"{""Q0"":""luke is looking at fred ""}","<img src=""stim_listB/look5.gif""style=""height:400px;""></stim_listB>",is looking at,,,,,,
null,"<div style=""font-size:60px;"">+</div>",,html-keyboard-response,318,898986,0.0-17.0-0.18,24749,List1B,black,woman,,,,null,,,,,,,,,
null,"<img src=""stim_listB/look8.gif""style=""height:400px;""></stim_listB>",,html-keyboard-response,319,900992,0.0-17.0-1.18,24749,List1B,black,woman,,,,null,,,,,,,,,
null,is being looked at by,,html-keyboard-response,320,902994,0.0-17.0-2.18,24749,List1B,black,woman,,,,null,,,,,,,,,
5061,,,survey-text,321,908059,0.0-17.0-3.18,24749,List1B,black,woman,,,,,"{""Q0"":""kate is being looked at by jane""}","<img src=""stim_listB/look8.gif""style=""height:400px;""></stim_listB>",is being looked at by,,,,,,
null,"<div style=""font-size:60px;"">+</div>",,html-keyboard-response,322,908561,0.0-17.0-0.19,24749,List1B,black,woman,,,,null,,,,,,,,,
null,"<img src=""stim_listB/shout4.gif""style=""height:400px;""></stim_listB>",,html-keyboard-response,323,910564,0.0-17.0-1.19,24749,List1B,black,woman,,,,null,,,,,,,,,
null,is being shouted at by,,html-keyboard-response,324,912566,0.0-17.0-2.19,24749,List1B,black,woman,,,,null,,,,,,,,,
5349.5,,,survey-text,325,917919,0.0-17.0-3.19,24749,List1B,black,woman,,,,,"{""Q0"":""dave is being shouted at by jane""}","<img src=""stim_listB/shout4.gif""style=""height:400px;""></stim_listB>",is being shouted at by,,,,,,
3260.6,"<img src='img/portrait_matrix_list1.jpg' style='width:900px;height:500px;''></img><p>If you have memorised all the portraits and names and are ready to start, press Continue.</p><p><strong>Please note: Your memory of these faces will be tested 4 times during this experiment.</strong></p>",0,html-button-response,326,921183,0.0-18.0-0.0,24749,List1B,black,woman,,,,,,,,,,,,,
1926.1,"<img src=""portrait/WM1.jpg""style=""height:400px;""></img>",6,html-button-response,327,924113,0.0-18.0-1.0,24749,List1B,black,woman,,TRUE,6,,,,,,,,,,
null,CORRECT,,html-keyboard-response,328,925622,0.0-18.0-2.0-0.0,24749,List1B,black,woman,,,,null,,,,,,,,,
1799.2,"<img src=""portrait/BW1.jpg""style=""height:400px;""></img>",0,html-button-response,329,927423,0.0-18.0-4.0,24749,List1B,black,woman,,TRUE,0,,,,,,,,,,
null,CORRECT,,html-keyboard-response,330,928930,0.0-18.0-5.0-0.0,24749,List1B,black,woman,,,,null,,,,,,,,,
1592.5,"<img src=""portrait/BM2.jpg""style=""height:400px;""></img>",5,html-button-response,331,930525,0.0-18.0-7.0,24749,List1B,black,woman,,TRUE,5,,,,,,,,,,
null,CORRECT,,html-keyboard-response,332,932030,0.0-18.0-8.0-0.0,24749,List1B,black,woman,,,,null,,,,,,,,,
1435.8,"<img src=""portrait/WW1.jpg""style=""height:400px;""></img>",1,html-button-response,333,933467,0.0-18.0-10.0,24749,List1B,black,woman,,TRUE,1,,,,,,,,,,
null,CORRECT,,html-keyboard-response,334,934974,0.0-18.0-11.0-0.0,24749,List1B,black,woman,,,,null,,,,,,,,,
1373.7,"<img src=""portrait/WW2.jpg""style=""height:400px;""></img>",3,html-button-response,335,936349,0.0-18.0-13.0,24749,List1B,black,woman,,TRUE,3,,,,,,,,,,
null,CORRECT,,html-keyboard-response,336,937858,0.0-18.0-14.0-0.0,24749,List1B,black,woman,,,,null,,,,,,,,,
2100,"<img src=""portrait/BW2.jpg""style=""height:400px;""></img>",2,html-button-response,337,939960,0.0-18.0-16.0,24749,List1B,black,woman,,TRUE,2,,,,,,,,,,
null,CORRECT,,html-keyboard-response,338,941469,0.0-18.0-17.0-0.0,24749,List1B,black,woman,,,,null,,,,,,,,,
2331.7,"<img src=""portrait/WM2.jpg""style=""height:400px;""></img>",7,html-button-response,339,943803,0.0-18.0-19.0,24749,List1B,black,woman,,TRUE,7,,,,,,,,,,
null,CORRECT,,html-keyboard-response,340,945306,0.0-18.0-20.0-0.0,24749,List1B,black,woman,,,,null,,,,,,,,,
1532.2,"<img src=""portrait/BM1.jpg""style=""height:400px;""></img>",4,html-button-response,341,946840,0.0-18.0-22.0,24749,List1B,black,woman,,TRUE,4,,,,,,,,,,
null,CORRECT,,html-keyboard-response,342,948347,0.0-18.0-23.0-0.0,24749,List1B,black,woman,,,,null,,,,,,,,,
1015.6,<p>You got 8 out of 8 right first time. Press Continue.</p>,0,html-button-response,343,949379,0.0-18.0-25.0,24749,List1B,black,woman,,,,,,,,,,,,,
null,"<div style=""font-size:60px;"">+</div>",,html-keyboard-response,344,950885,0.0-19.0-0.0,24749,List1B,black,woman,,,,null,,,,,,,,,
null,"<img src=""stim_listB/shout2.gif""style=""height:400px;""></stim_listB>",,html-keyboard-response,345,952922,0.0-19.0-1.0,24749,List1B,black,woman,,,,null,,,,,,,,,
null,is being shouted at by,,html-keyboard-response,346,954925,0.0-19.0-2.0,24749,List1B,black,woman,,,,null,,,,,,,,,
5465.2,,,survey-text,347,960395,0.0-19.0-3.0,24749,List1B,black,woman,,,,,"{""Q0"":""mike is being shouted at by kate""}","<img src=""stim_listB/shout2.gif""style=""height:400px;""></stim_listB>",is being shouted at by,,,,,,
null,"<div style=""font-size:60px;"">+</div>",,html-keyboard-response,348,960898,0.0-19.0-0.1,24749,List1B,black,woman,,,,null,,,,,,,,,
null,"<img src=""stim_listB/copy5.gif""style=""height:400px;""></stim_listB>",,html-keyboard-response,349,962902,0.0-19.0-1.1,24749,List1B,black,woman,,,,null,,,,,,,,,
null,is copying,,html-keyboard-response,350,964903,0.0-19.0-2.1,24749,List1B,black,woman,,,,null,,,,,,,,,
4841.5,,,survey-text,351,969747,0.0-19.0-3.1,24749,List1B,black,woman,,,,,"{""Q0"":""mike is copying luke""}","<img src=""stim_listB/copy5.gif""style=""height:400px;""></stim_listB>",is copying,,,,,,
null,"<div style=""font-size:60px;"">+</div>",,html-keyboard-response,352,970250,0.0-19.0-0.2,24749,List1B,black,woman,,,,null,,,,,,,,,
null,"<img src=""stim_listB/challenge4.gif""style=""height:400px;""></stim_listB>",,html-keyboard-response,353,972257,0.0-19.0-1.2,24749,List1B,black,woman,,,,null,,,,,,,,,
null,is being challenged by,,html-keyboard-response,354,974261,0.0-19.0-2.2,24749,List1B,black,woman,,,,null,,,,,,,,,
5014.5,,,survey-text,355,979278,0.0-19.0-3.2,24749,List1B,black,woman,,,,,"{""Q0"":""luke is being challenged by jane""}","<img src=""stim_listB/challenge4.gif""style=""height:400px;""></stim_listB>",is being challenged by,,,,,,
null,"<div style=""font-size:60px;"">+</div>",,html-keyboard-response,356,979782,0.0-19.0-0.3,24749,List1B,black,woman,,,,null,,,,,,,,,
null,"<img src=""stim_listB/kiss8.gif""style=""height:400px;""></stim_listB>",,html-keyboard-response,357,981785,0.0-19.0-1.3,24749,List1B,black,woman,,,,null,,,,,,,,,
null,is being kissed by,,html-keyboard-response,358,983787,0.0-19.0-2.3,24749,List1B,black,woman,,,,null,,,,,,,,,
3801.4,,,survey-text,359,987591,0.0-19.0-3.3,24749,List1B,black,woman,,,,,"{""Q0"":""jane is being kissed by kate""}","<img src=""stim_listB/kiss8.gif""style=""height:400px;""></stim_listB>",is being kissed by,,,,,,
null,"<div style=""font-size:60px;"">+</div>",,html-keyboard-response,360,988094,0.0-19.0-0.4,24749,List1B,black,woman,,,,null,,,,,,,,,
null,"<img src=""stim_listB/shout3.gif""style=""height:400px;""></stim_listB>",,html-keyboard-response,361,990097,0.0-19.0-1.4,24749,List1B,black,woman,,,,null,,,,,,,,,
null,is shouting at,,html-keyboard-response,362,992099,0.0-19.0-2.4,24749,List1B,black,woman,,,,null,,,,,,,,,
3795.7,,,survey-text,363,995901,0.0-19.0-3.4,24749,List1B,black,woman,,,,,"{""Q0"":""ruth is shouting at luke""}","<img src=""stim_listB/shout3.gif""style=""height:400px;""></stim_listB>",is shouting at,,,,,,
null,"<div style=""font-size:60px;"">+</div>",,html-keyboard-response,364,996404,0.0-19.0-0.5,24749,List1B,black,woman,,,,null,,,,,,,,,
null,"<img src=""stim_listB/copy7.gif""style=""height:400px;""></stim_listB>",,html-keyboard-response,365,998409,0.0-19.0-1.5,24749,List1B,black,woman,,,,null,,,,,,,,,
null,is copying,,html-keyboard-response,366,1000411,0.0-19.0-2.5,24749,List1B,black,woman,,,,null,,,,,,,,,
6519.3,,,survey-text,367,1006934,0.0-19.0-3.5,24749,List1B,black,woman,,,,,"{""Q0"":""kate is copying ruth""}","<img src=""stim_listB/copy7.gif""style=""height:400px;""></stim_listB>",is copying,,,,,,
null,"<div style=""font-size:60px;"">+</div>",,html-keyboard-response,368,1007437,0.0-19.0-0.6,24749,List1B,black,woman,,,,null,,,,,,,,,
null,"<img src=""stim_listB/seduce1.gif""style=""height:400px;""></stim_listB>",,html-keyboard-response,369,1009474,0.0-19.0-1.6,24749,List1B,black,woman,,,,null,,,,,,,,,
null,is seducing,,html-keyboard-response,370,1011476,0.0-19.0-2.6,24749,List1B,black,woman,,,,null,,,,,,,,,
4904.5,,,survey-text,371,1016385,0.0-19.0-3.6,24749,List1B,black,woman,,,,,"{""Q0"":""kate is seducing fred""}","<img src=""stim_listB/seduce1.gif""style=""height:400px;""></stim_listB>",is seducing,,,,,,
null,"<div style=""font-size:60px;"">+</div>",,html-keyboard-response,372,1016887,0.0-19.0-0.7,24749,List1B,black,woman,,,,null,,,,,,,,,
null,"<img src=""stim_listB/oppose1.gif""style=""height:400px;""></stim_listB>",,html-keyboard-response,373,1018890,0.0-19.0-1.7,24749,List1B,black,woman,,,,null,,,,,,,,,
null,is opposing,,html-keyboard-response,374,1020892,0.0-19.0-2.7,24749,List1B,black,woman,,,,null,,,,,,,,,
3610.1,,,survey-text,375,1024504,0.0-19.0-3.7,24749,List1B,black,woman,,,,,"{""Q0"":""kate is opposing mike ""}","<img src=""stim_listB/oppose1.gif""style=""height:400px;""></stim_listB>",is opposing,,,,,,
null,"<div style=""font-size:60px;"">+</div>",,html-keyboard-response,376,1025006,0.0-19.0-0.8,24749,List1B,black,woman,,,,null,,,,,,,,,
null,"<img src=""stim_listB/hug1.gif""style=""height:400px;""></stim_listB>",,html-keyboard-response,377,1027010,0.0-19.0-1.8,24749,List1B,black,woman,,,,null,,,,,,,,,
null,is hugging,,html-keyboard-response,378,1029013,0.0-19.0-2.8,24749,List1B,black,woman,,,,null,,,,,,,,,
2633.6,,,survey-text,379,1031649,0.0-19.0-3.8,24749,List1B,black,woman,,,,,"{""Q0"":""beth is hugging fred""}","<img src=""stim_listB/hug1.gif""style=""height:400px;""></stim_listB>",is hugging,,,,,,
null,"<div style=""font-size:60px;"">+</div>",,html-keyboard-response,380,1032152,0.0-19.0-0.9,24749,List1B,black,woman,,,,null,,,,,,,,,
null,"<img src=""stim_listB/hug4.gif""style=""height:400px;""></stim_listB>",,html-keyboard-response,381,1034155,0.0-19.0-1.9,24749,List1B,black,woman,,,,null,,,,,,,,,
null,is being hugged by,,html-keyboard-response,382,1036159,0.0-19.0-2.9,24749,List1B,black,woman,,,,null,,,,,,,,,
3762.9,,,survey-text,383,1039926,0.0-19.0-3.9,24749,List1B,black,woman,,,,,"{""Q0"":""dave is being hugged by jane""}","<img src=""stim_listB/hug4.gif""style=""height:400px;""></stim_listB>",is being hugged by,,,,,,
null,"<div style=""font-size:60px;"">+</div>",,html-keyboard-response,384,1040428,0.0-19.0-0.10,24749,List1B,black,woman,,,,null,,,,,,,,,
null,"<img src=""stim_listB/hug6.gif""style=""height:400px;""></stim_listB>",,html-keyboard-response,385,1042433,0.0-19.0-1.10,24749,List1B,black,woman,,,,null,,,,,,,,,
null,is being hugged by,,html-keyboard-response,386,1044436,0.0-19.0-2.10,24749,List1B,black,woman,,,,null,,,,,,,,,
3817.8,,,survey-text,387,1048263,0.0-19.0-3.10,24749,List1B,black,woman,,,,,"{""Q0"":""dave is being hugged by fred""}","<img src=""stim_listB/hug6.gif""style=""height:400px;""></stim_listB>",is being hugged by,,,,,,
null,"<div style=""font-size:60px;"">+</div>",,html-keyboard-response,388,1048767,0.0-19.0-0.11,24749,List1B,black,woman,,,,null,,,,,,,,,
null,"<img src=""stim_listB/look3.gif""style=""height:400px;""></stim_listB>",,html-keyboard-response,389,1050775,0.0-19.0-1.11,24749,List1B,black,woman,,,,null,,,,,,,,,
null,is looking at,,html-keyboard-response,390,1052779,0.0-19.0-2.11,24749,List1B,black,woman,,,,null,,,,,,,,,
8683.2,,,survey-text,391,1061465,0.0-19.0-3.11,24749,List1B,black,woman,,,,,"{""Q0"":""ruth is looking at luke""}","<img src=""stim_listB/look3.gif""style=""height:400px;""></stim_listB>",is looking at,,,,,,
null,"<div style=""font-size:60px;"">+</div>",,html-keyboard-response,392,1061967,0.0-19.0-0.12,24749,List1B,black,woman,,,,null,,,,,,,,,
null,"<img src=""stim_listB/hug2.gif""style=""height:400px;""></stim_listB>",,html-keyboard-response,393,1063976,0.0-19.0-1.12,24749,List1B,black,woman,,,,null,,,,,,,,,
null,is being hugged by,,html-keyboard-response,394,1065978,0.0-19.0-2.12,24749,List1B,black,woman,,,,null,,,,,,,,,
4601,,,survey-text,395,1070581,0.0-19.0-3.12,24749,List1B,black,woman,,,,,"{""Q0"":""mike is being hugged by kate""}","<img src=""stim_listB/hug2.gif""style=""height:400px;""></stim_listB>",is being hugged by,,,,,,
null,"<div style=""font-size:60px;"">+</div>",,html-keyboard-response,396,1071083,0.0-19.0-0.13,24749,List1B,black,woman,,,,null,,,,,,,,,
null,"<img src=""stim_listB/copy3.gif""style=""height:400px;""></stim_listB>",,html-keyboard-response,397,1073089,0.0-19.0-1.13,24749,List1B,black,woman,,,,null,,,,,,,,,
null,is copying,,html-keyboard-response,398,1075092,0.0-19.0-2.13,24749,List1B,black,woman,,,,null,,,,,,,,,
6236.9,,,survey-text,399,1081332,0.0-19.0-3.13,24749,List1B,black,woman,,,,,"{""Q0"":""ruth is copying dave ""}","<img src=""stim_listB/copy3.gif""style=""height:400px;""></stim_listB>",is copying,,,,,,
null,"<div style=""font-size:60px;"">+</div>",,html-keyboard-response,400,1081834,0.0-19.0-0.14,24749,List1B,black,woman,,,,null,,,,,,,,,
null,"<img src=""stim_listB/greet4.gif""style=""height:400px;""></stim_listB>",,html-keyboard-response,401,1083839,0.0-19.0-1.14,24749,List1B,black,woman,,,,null,,,,,,,,,
null,is being greeted by,,html-keyboard-response,402,1085843,0.0-19.0-2.14,24749,List1B,black,woman,,,,null,,,,,,,,,
8578.9,,,survey-text,403,1094425,0.0-19.0-3.14,24749,List1B,black,woman,,,,,"{""Q0"":""luke is being greeted by jane""}","<img src=""stim_listB/greet4.gif""style=""height:400px;""></stim_listB>",is being greeted by,,,,,,
null,"<div style=""font-size:60px;"">+</div>",,html-keyboard-response,404,1094928,0.0-19.0-0.15,24749,List1B,black,woman,,,,null,,,,,,,,,
null,"<img src=""stim_listB/greet7.gif""style=""height:400px;""></stim_listB>",,html-keyboard-response,405,1096935,0.0-19.0-1.15,24749,List1B,black,woman,,,,null,,,,,,,,,
null,is greeting,,html-keyboard-response,406,1098938,0.0-19.0-2.15,24749,List1B,black,woman,,,,null,,,,,,,,,
4971.7,,,survey-text,407,1103912,0.0-19.0-3.15,24749,List1B,black,woman,,,,,"{""Q0"":""ruth is greeting kate""}","<img src=""stim_listB/greet7.gif""style=""height:400px;""></stim_listB>",is greeting,,,,,,
null,"<div style=""font-size:60px;"">+</div>",,html-keyboard-response,408,1104413,0.0-19.0-0.16,24749,List1B,black,woman,,,,null,,,,,,,,,
null,"<img src=""stim_listB/kiss1.gif""style=""height:400px;""></stim_listB>",,html-keyboard-response,409,1106416,0.0-19.0-1.16,24749,List1B,black,woman,,,,null,,,,,,,,,
null,is kissing,,html-keyboard-response,410,1108418,0.0-19.0-2.16,24749,List1B,black,woman,,,,null,,,,,,,,,
4056.6,,,survey-text,411,1112478,0.0-19.0-3.16,24749,List1B,black,woman,,,,,"{""Q0"":""fred is kissing beth""}","<img src=""stim_listB/kiss1.gif""style=""height:400px;""></stim_listB>",is kissing,,,,,,
null,"<div style=""font-size:60px;"">+</div>",,html-keyboard-response,412,1112979,0.0-19.0-0.17,24749,List1B,black,woman,,,,null,,,,,,,,,
null,"<img src=""stim_listB/copy2.gif""style=""height:400px;""></stim_listB>",,html-keyboard-response,413,1114982,0.0-19.0-1.17,24749,List1B,black,woman,,,,null,,,,,,,,,
null,is being copied by,,html-keyboard-response,414,1116985,0.0-19.0-2.17,24749,List1B,black,woman,,,,null,,,,,,,,,
7095.3,,,survey-text,415,1124083,0.0-19.0-3.17,24749,List1B,black,woman,,,,,"{""Q0"":""fred is being copied by kate""}","<img src=""stim_listB/copy2.gif""style=""height:400px;""></stim_listB>",is being copied by,,,,,,
null,"<div style=""font-size:60px;"">+</div>",,html-keyboard-response,416,1124585,0.0-19.0-0.18,24749,List1B,black,woman,,,,null,,,,,,,,,
null,"<img src=""stim_listB/shout8.gif""style=""height:400px;""></stim_listB>",,html-keyboard-response,417,1126588,0.0-19.0-1.18,24749,List1B,black,woman,,,,null,,,,,,,,,
null,is being shouted at by,,html-keyboard-response,418,1128589,0.0-19.0-2.18,24749,List1B,black,woman,,,,null,,,,,,,,,
7061.7,,,survey-text,419,1135653,0.0-19.0-3.18,24749,List1B,black,woman,,,,,"{""Q0"":""kate is being shouted at by jane""}","<img src=""stim_listB/shout8.gif""style=""height:400px;""></stim_listB>",is being shouted at by,,,,,,
null,"<div style=""font-size:60px;"">+</div>",,html-keyboard-response,420,1136154,0.0-19.0-0.19,24749,List1B,black,woman,,,,null,,,,,,,,,
null,"<img src=""stim_listB/greet2.gif""style=""height:400px;""></stim_listB>",,html-keyboard-response,421,1138157,0.0-19.0-1.19,24749,List1B,black,woman,,,,null,,,,,,,,,
null,is being greeted by,,html-keyboard-response,422,1140159,0.0-19.0-2.19,24749,List1B,black,woman,,,,null,,,,,,,,,
6252.8,,,survey-text,423,1146415,0.0-19.0-3.19,24749,List1B,black,woman,,,,,"{""Q0"":""fred is being copied by kate""}","<img src=""stim_listB/greet2.gif""style=""height:400px;""></stim_listB>",is being greeted by,,,,,,
3436.9,<p>Thank you for completing that task.</p><p>The final part of this session is a questionnaire that will take about 4 minutes.</p><p>Press Continue.</p>,0,html-button-response,424,1149855,0.0-20.0,24749,List1B,black,woman,,,,,,,,,,,,,
35313.1,,,survey-text,425,1186176,0.0-21.0,24749,List1B,black,woman,,,,,"{""Q0"":""21"",""Q1"":""english"",""Q2"":""english"",""Q3"":""United States"",""Q4"":""American"",""Q5"":""Black"",""Q6"":""woman""}",,,demographics,,,,,
2006.5,<p>Have you lived in the USA for the last 5 years or more?</p>,0,html-button-response,426,1188219,0.0-22.0,24749,List1B,black,woman,,,,,,,,fiveyears,,,,,
4429.3,<p>Move the slider to show the extent to which you agree with the following statements.</p>,0,html-button-response,427,1193652,0.0-23.0,24749,List1B,black,woman,,,,,,,,,,,,,
5250.7,,,html-slider-response,428,1199911,0.0-24.0-0.0-0.0,24749,List1B,black,woman,,,,,,,,survey_gender,78,,,I am similar to the average person of my gender.,similar
3397.6,,,html-slider-response,429,1203311,0.0-24.0-0.0-0.1,24749,List1B,black,woman,,,,,,,,survey_gender,80,,,I feel solidarity with my friends.,filler
4003.5,,,html-slider-response,430,1207316,0.0-24.0-0.0-0.2,24749,List1B,black,woman,,,,,,,,survey_gender,88,,,I feel solidarity with my gender.,solidarity
4331.3,,,html-slider-response,431,1211650,0.0-24.0-0.0-0.3,24749,List1B,black,woman,,,,,,,,survey_gender,89,,,The fact that I am my gender is an important part of my identity.,identity
2721.5,,,html-slider-response,432,1214375,0.0-24.0-0.0-0.4,24749,List1B,black,woman,,,,,,,,survey_gender,70,,,I feel committed to my gender.,committed
2986.1,,,html-slider-response,433,1217362,0.0-24.0-0.0-0.5,24749,List1B,black,woman,,,,,,,,survey_gender,76,,,I would say I am an animal person.,filler
5539.4,,,html-slider-response,434,1222904,0.0-24.0-0.0-0.6,24749,List1B,black,woman,,,,,,,,survey_gender,75,,,It is not always easy for people to know what I am thinking.,filler
5293.4,,,html-slider-response,435,1228205,0.0-24.0-0.0-0.7,24749,List1B,black,woman,,,,,,,,survey_gender,45,,,Routine is not important to me.,filler
3258.3,,,html-slider-response,436,1231465,0.0-24.0-0.0-0.8,24749,List1B,black,woman,,,,,,,,survey_gender,71,,,I have a lot in common with my friends.,filler
4806.9,,,html-slider-response,437,1236275,0.0-24.0-0.0-0.9,24749,List1B,black,woman,,,,,,,,survey_gender,85,,,I am glad to be my gender.,glad
4572.7,,,html-slider-response,438,1240851,0.0-24.0-0.0-0.10,24749,List1B,black,woman,,,,,,,,survey_gender,84,,,I am glad to have the friends that I have.,filler
2516.4,,,html-slider-response,439,1243369,0.0-24.0-0.0-0.11,24749,List1B,black,woman,,,,,,,,survey_gender,84,,,It is pleasant to be my gender.,pleasant
2489.5,,,html-slider-response,440,1245860,0.0-24.0-0.0-0.12,24749,List1B,black,woman,,,,,,,,survey_gender,75,,,My friends have a lot in common with each other.,filler
2974.6,,,html-slider-response,441,1248837,0.0-24.0-0.0-0.13,24749,List1B,black,woman,,,,,,,,survey_gender,80,,,I consider myself a highly empathetic person.,filler
3528.9,,,html-slider-response,442,1252368,0.0-24.0-0.0-0.14,24749,List1B,black,woman,,,,,,,,survey_gender,35,,,People of my gender are very similar to each other.,verysimilar
2013.3,,,html-slider-response,443,1254383,0.0-24.0-0.0-0.15,24749,List1B,black,woman,,,,,,,,survey_gender,65,,,My friends understand me.,filler
3148.1,,,html-slider-response,444,1257532,0.0-24.0-0.0-0.16,24749,List1B,black,woman,,,,,,,,survey_gender,83,,,I often think about the fact that I am my gender.,often
2802.7,,,html-slider-response,445,1260337,0.0-24.0-0.0-0.17,24749,List1B,black,woman,,,,,,,,survey_gender,85,,,Being around my friends gives me a good feeling.,filler
3051,,,html-slider-response,446,1263389,0.0-24.0-0.0-0.18,24749,List1B,black,woman,,,,,,,,survey_gender,73,,,I have a lot in common with the average person of my gender.,average
8179.4,,,html-slider-response,447,1271571,0.0-24.0-0.0-0.19,24749,List1B,black,woman,,,,,,,,survey_gender,21,,,Family is not more important to me than friendship.,filler
3186.8,,,html-slider-response,448,1274762,0.0-24.0-0.0-0.20,24749,List1B,black,woman,,,,,,,,survey_gender,78,,,Being my gender gives me a good feeling.,feeling
2328.4,,,html-slider-response,449,1277093,0.0-24.0-0.0-0.21,24749,List1B,black,woman,,,,,,,,survey_gender,70,,,I often think about my actions.,filler
2332.8,,,html-slider-response,450,1279428,0.0-24.0-0.0-0.22,24749,List1B,black,woman,,,,,,,,survey_gender,77,,,I feel a bond with my friends.,filler
4664.9,,,html-slider-response,451,1284095,0.0-24.0-0.0-0.23,24749,List1B,black,woman,,,,,,,,survey_gender,89,,,I think that my gender has a lot to be proud of.,proud
3511.8,,,html-slider-response,452,1287609,0.0-24.0-0.0-0.24,24749,List1B,black,woman,,,,,,,,survey_gender,70,,,Most of the friends in my life are very similar to me.,filler
5149,,,html-slider-response,453,1292761,0.0-24.0-0.0-0.25,24749,List1B,black,woman,,,,,,,,survey_gender,69,,,People of my gender have a lot in common with each other.,common
3158.3,,,html-slider-response,454,1295922,0.0-24.0-0.0-0.26,24749,List1B,black,woman,,,,,,,,survey_gender,83,,,Being my gender is an important part of how I see myself.,important
3165.1,,,html-slider-response,455,1299089,0.0-24.0-0.0-0.27,24749,List1B,black,woman,,,,,,,,survey_gender,88,,,I feel a bond with my gender.,bond
4690.4,,,html-slider-response,456,1303782,0.0-24.0-1.0-0.0,24749,List1B,black,woman,,,,,,,,survey_race,89,,,I am glad to be my age.,filler
2421.8,,,html-slider-response,457,1306209,0.0-24.0-1.0-0.1,24749,List1B,black,woman,,,,,,,,survey_race,71,,,I often think about the fact that I am my age.,filler
3011.7,,,html-slider-response,458,1309221,0.0-24.0-1.0-0.2,24749,List1B,black,woman,,,,,,,,survey_race,95,,,I feel a bond with my race.,bond
5342.1,,,html-slider-response,459,1314565,0.0-24.0-1.0-0.3,24749,List1B,black,woman,,,,,,,,survey_race,81,,,Being my age gives me a good feeling.,filler
2731.6,,,html-slider-response,460,1317299,0.0-24.0-1.0-0.4,24749,List1B,black,woman,,,,,,,,survey_race,91,,,I have a lot in common with the average person of my race.,average
2749.4,,,html-slider-response,461,1320050,0.0-24.0-1.0-0.5,24749,List1B,black,woman,,,,,,,,survey_race,84,,,People of my race have a lot in common with each other.,common
2826.9,,,html-slider-response,462,1322879,0.0-24.0-1.0-0.6,24749,List1B,black,woman,,,,,,,,survey_race,76,,,I enjoy being in large groups.,filler
2537,,,html-slider-response,463,1325419,0.0-24.0-1.0-0.7,24749,List1B,black,woman,,,,,,,,survey_race,36,,,People of my race are very similar to each other.,verysimilar
3299.3,,,html-slider-response,464,1328720,0.0-24.0-1.0-0.8,24749,List1B,black,woman,,,,,,,,survey_race,92,,,Being my race is an important part of how I see myself.,important
2724.1,,,html-slider-response,465,1331446,0.0-24.0-1.0-0.9,24749,List1B,black,woman,,,,,,,,survey_race,90,,,The fact that I am my race is an important part of my identity.,identity
2578.4,,,html-slider-response,466,1334026,0.0-24.0-1.0-0.10,24749,List1B,black,woman,,,,,,,,survey_race,97,,,I am glad to be my race.,glad
3453.1,,,html-slider-response,467,1337482,0.0-24.0-1.0-0.11,24749,List1B,black,woman,,,,,,,,survey_race,74,,,I feel a bond with people the same age as me.,filler
2749.9,,,html-slider-response,468,1340233,0.0-24.0-1.0-0.12,24749,List1B,black,woman,,,,,,,,survey_race,40,,,I consider myself an introvert.,filler
3140.9,,,html-slider-response,469,1343376,0.0-24.0-1.0-0.13,24749,List1B,black,woman,,,,,,,,survey_race,94,,,I think that my race has a lot to be proud of.,proud
2442.6,,,html-slider-response,470,1345821,0.0-24.0-1.0-0.14,24749,List1B,black,woman,,,,,,,,survey_race,93,,,I feel committed to my race.,committed
2846.5,,,html-slider-response,471,1348671,0.0-24.0-1.0-0.15,24749,List1B,black,woman,,,,,,,,survey_race,33,,,My age is not an important part of who I am.,filler
3902.4,,,html-slider-response,472,1352575,0.0-24.0-1.0-0.16,24749,List1B,black,woman,,,,,,,,survey_race,98,,,Being my race gives me a good feeling.,feeling
2738,,,html-slider-response,473,1355316,0.0-24.0-1.0-0.17,24749,List1B,black,woman,,,,,,,,survey_race,100,,,I feel solidarity with my race.,solidarity
6181.9,,,html-slider-response,474,1361499,0.0-24.0-1.0-0.18,24749,List1B,black,woman,,,,,,,,survey_race,76,,,"The older I get, the wiser I feel.",filler
2862.2,,,html-slider-response,475,1364365,0.0-24.0-1.0-0.19,24749,List1B,black,woman,,,,,,,,survey_race,85,,,It is pleasant to be my race.,pleasant
4102.1,,,html-slider-response,476,1368469,0.0-24.0-1.0-0.20,24749,List1B,black,woman,,,,,,,,survey_race,43,,,People my age have a lot in common with each other.,filler
4631.1,,,html-slider-response,477,1373102,0.0-24.0-1.0-0.21,24749,List1B,black,woman,,,,,,,,survey_race,77,,,I feel solidarity with people the same age as me.,filler
6304.1,,,html-slider-response,478,1379408,0.0-24.0-1.0-0.22,24749,List1B,black,woman,,,,,,,,survey_race,100,,,I often think about the fact that I am my race.,often
6213,,,html-slider-response,479,1385623,0.0-24.0-1.0-0.23,24749,List1B,black,woman,,,,,,,,survey_race,90,,,I am similar to the average person of my race.,similar
2659.4,,,html-slider-response,480,1388284,0.0-24.0-1.0-0.24,24749,List1B,black,woman,,,,,,,,survey_race,69,,,I am glad to be the age I am.,filler
6581.5,,,html-slider-response,481,1394868,0.0-24.0-1.0-0.25,24749,List1B,black,woman,,,,,,,,survey_race,62,,,Getting older does not worry me.,filler
6644,,,html-slider-response,482,1401515,0.0-24.0-1.0-0.26,24749,List1B,black,woman,,,,,,,,survey_race,66,,,I have a lot in common with people of a similar age to me.,filler
4078.5,,,html-slider-response,483,1405595,0.0-24.0-1.0-0.27,24749,List1B,black,woman,,,,,,,,survey_race,38,,,I consider myself an extrovert.,filler
4411.7,,,survey-text,484,1410013,0.0-25.0,24749,List1B,black,woman,,,,,"{""Q0"":""ccc""}",,,worker_id,,,,,
3152.4,,,external-html,485,1413580,0.0-26.0,24749,List1B,black,woman,debrief.html,,,,,,,,,,,,
