"rt","stimulus","button_pressed","trial_type","trial_index","time_elapsed","internal_node_id","subject","list","ppt_race","ppt_gender","url","first_guess","correct","key_press","responses","image_type","phrase_type","test_part","response","stimulus1","stimulus2","question_type","survey_item"
"1861","Welcome to the experiment. Press Continue to begin.","0","html-button-response","0","1863","0.0-0.0","24970","List2A","black","woman","","","","","","","","","","","","",""
"77677.20000004768","","","external-html","1","80737","0.0-1.0","24970","List2A","black","woman","consent.html","","","","","","","","","","","",""
"94428.10000002384","<p>On the next page, you will see portraits of 8 people and their names.</p><p>Your first task is to take a few minutes to memorise the names of these people.</p><p>You will have to recall their names during the rest of the experiment, so it is</p><p>essential that you try to memorise these people and their names as best as you can.</p><br><p><strong>You will then be tested on your memory of these names and portraits.</strong></p><br><p>The experiment will start after you have completed this memory test.</p><br><p>Ready?</p>","0","html-button-response","2","175166","0.0-2.0","24970","List2A","black","woman","","","","","","","","","","","","",""
"26862.899999976158","<img src='img/portrait_matrix_list2.jpg' style='width:900px;height:500px;''></img><p>If you have memorised all the portraits and names and are ready to start, press Continue.</p><p><strong>Please note: Your memory of these faces will be tested 4 times during this experiment.</strong></p>","0","html-button-response","3","203037","0.0-3.0-0.0","24970","List2A","black","woman","","","","","","","","","","","","",""
"5331.700000047684","<img src=""portrait/WW2.jpg""style=""height:400px;""></img>","3","html-button-response","4","209372","0.0-3.0-1.0","24970","List2A","black","woman","","true","3","","","","","","","","","",""
"null","CORRECT","","html-keyboard-response","5","210877","0.0-3.0-2.0-0.0","24970","List2A","black","woman","","","","null","","","","","","","","",""
"4621.399999976158","<img src=""portrait/BM1.jpg""style=""height:400px;""></img>","4","html-button-response","6","215500","0.0-3.0-4.0","24970","List2A","black","woman","","true","4","","","","","","","","","",""
"null","CORRECT","","html-keyboard-response","7","217025","0.0-3.0-5.0-0.0","24970","List2A","black","woman","","","","null","","","","","","","","",""
"9289.699999928474","<img src=""portrait/BW1.jpg""style=""height:400px;""></img>","0","html-button-response","8","226316","0.0-3.0-7.0","24970","List2A","black","woman","","true","0","","","","","","","","","",""
"null","CORRECT","","html-keyboard-response","9","227831","0.0-3.0-8.0-0.0","24970","List2A","black","woman","","","","null","","","","","","","","",""
"4608.700000047684","<img src=""portrait/WM2.jpg""style=""height:400px;""></img>","6","html-button-response","10","232441","0.0-3.0-10.0","24970","List2A","black","woman","","true","7","","","","","","","","","",""
"4725.399999976158","<img src=""portrait/WM2.jpg""style=""height:400px;""></img>","7","html-button-response","11","238171","0.0-3.0-12.0-0.0","24970","List2A","black","woman","","false","7","","","","","","","","","",""
"null","CORRECT","","html-keyboard-response","12","239679","0.0-3.0-12.0-1.0-0.0","24970","List2A","black","woman","","","","null","","","","","","","","",""
"4981.5","<img src=""portrait/BW2.jpg""style=""height:400px;""></img>","2","html-button-response","13","244662","0.0-3.0-13.0","24970","List2A","black","woman","","true","2","","","","","","","","","",""
"null","CORRECT","","html-keyboard-response","14","246179","0.0-3.0-14.0-0.0","24970","List2A","black","woman","","","","null","","","","","","","","",""
"9975","<img src=""portrait/BM2.jpg""style=""height:400px;""></img>","6","html-button-response","15","256156","0.0-3.0-16.0","24970","List2A","black","woman","","true","5","","","","","","","","","",""
"2357.899999976158","<img src=""portrait/BM2.jpg""style=""height:400px;""></img>","5","html-button-response","16","259518","0.0-3.0-18.0-0.0","24970","List2A","black","woman","","false","5","","","","","","","","","",""
"null","CORRECT","","html-keyboard-response","17","261030","0.0-3.0-18.0-1.0-0.0","24970","List2A","black","woman","","","","null","","","","","","","","",""
"10866.900000095367","<img src=""portrait/WW1.jpg""style=""height:400px;""></img>","0","html-button-response","18","271898","0.0-3.0-19.0","24970","List2A","black","woman","","true","1","","","","","","","","","",""
"1299","<img src=""portrait/WW1.jpg""style=""height:400px;""></img>","1","html-button-response","19","274209","0.0-3.0-21.0-0.0","24970","List2A","black","woman","","false","1","","","","","","","","","",""
"null","CORRECT","","html-keyboard-response","20","275715","0.0-3.0-21.0-1.0-0.0","24970","List2A","black","woman","","","","null","","","","","","","","",""
"4049.2000000476837","<img src=""portrait/WM1.jpg""style=""height:400px;""></img>","6","html-button-response","21","279765","0.0-3.0-22.0","24970","List2A","black","woman","","true","6","","","","","","","","","",""
"null","CORRECT","","html-keyboard-response","22","281285","0.0-3.0-23.0-0.0","24970","List2A","black","woman","","","","null","","","","","","","","",""
"1831.3999999761581","<p>You got 5 out of 8 right first time. Press Continue.</p>","0","html-button-response","23","283117","0.0-3.0-25.0","24970","List2A","black","woman","","","","","","","","","","","","",""
"2865.4000000953674","As you did not score 100%, the memory game will repeat. Press Continue.","0","html-button-response","24","286989","0.0-3.0-26.0-0.0","24970","List2A","black","woman","","","","","","","","","","","","",""
"6245.399999976158","<img src='img/portrait_matrix_list2.jpg' style='width:900px;height:500px;''></img><p>If you have memorised all the portraits and names and are ready to start, press Continue.</p><p><strong>Please note: Your memory of these faces will be tested 4 times during this experiment.</strong></p>","0","html-button-response","25","294240","0.0-3.1-0.1","24970","List2A","black","woman","","","","","","","","","","","","",""
"2463.5","<img src=""portrait/WW2.jpg""style=""height:400px;""></img>","3","html-button-response","26","297713","0.0-3.1-1.1","24970","List2A","black","woman","","true","3","","","","","","","","","",""
"null","CORRECT","","html-keyboard-response","27","299236","0.0-3.1-2.1-0.1","24970","List2A","black","woman","","","","null","","","","","","","","",""
"3212.899999976158","<img src=""portrait/BM1.jpg""style=""height:400px;""></img>","4","html-button-response","28","302450","0.0-3.1-4.1","24970","List2A","black","woman","","true","4","","","","","","","","","",""
"null","CORRECT","","html-keyboard-response","29","303968","0.0-3.1-5.1-0.1","24970","List2A","black","woman","","","","null","","","","","","","","",""
"3269.2999999523163","<img src=""portrait/BW1.jpg""style=""height:400px;""></img>","0","html-button-response","30","307239","0.0-3.1-7.1","24970","List2A","black","woman","","true","0","","","","","","","","","",""
"null","CORRECT","","html-keyboard-response","31","308747","0.0-3.1-8.1-0.1","24970","List2A","black","woman","","","","null","","","","","","","","",""
"3945.4000000953674","<img src=""portrait/WM2.jpg""style=""height:400px;""></img>","7","html-button-response","32","312694","0.0-3.1-10.1","24970","List2A","black","woman","","true","7","","","","","","","","","",""
"null","CORRECT","","html-keyboard-response","33","314214","0.0-3.1-11.1-0.1","24970","List2A","black","woman","","","","null","","","","","","","","",""
"2840.899999976158","<img src=""portrait/BW2.jpg""style=""height:400px;""></img>","2","html-button-response","34","317056","0.0-3.1-13.1","24970","List2A","black","woman","","true","2","","","","","","","","","",""
"null","CORRECT","","html-keyboard-response","35","318568","0.0-3.1-14.1-0.1","24970","List2A","black","woman","","","","null","","","","","","","","",""
"5425.100000023842","<img src=""portrait/BM2.jpg""style=""height:400px;""></img>","5","html-button-response","36","323994","0.0-3.1-16.1","24970","List2A","black","woman","","true","5","","","","","","","","","",""
"null","CORRECT","","html-keyboard-response","37","325512","0.0-3.1-17.1-0.1","24970","List2A","black","woman","","","","null","","","","","","","","",""
"3592.100000023842","<img src=""portrait/WW1.jpg""style=""height:400px;""></img>","1","html-button-response","38","329105","0.0-3.1-19.1","24970","List2A","black","woman","","true","1","","","","","","","","","",""
"null","CORRECT","","html-keyboard-response","39","330625","0.0-3.1-20.1-0.1","24970","List2A","black","woman","","","","null","","","","","","","","",""
"2767.2000000476837","<img src=""portrait/WM1.jpg""style=""height:400px;""></img>","6","html-button-response","40","333394","0.0-3.1-22.1","24970","List2A","black","woman","","true","6","","","","","","","","","",""
"null","CORRECT","","html-keyboard-response","41","334898","0.0-3.1-23.1-0.1","24970","List2A","black","woman","","","","null","","","","","","","","",""
"2912.399999976158","<p>You got 8 out of 8 right first time. Press Continue.</p>","0","html-button-response","42","337812","0.0-3.1-25.1","24970","List2A","black","woman","","","","","","","","","","","","",""
"20302.100000023842","<p>In this experiment, you will view photographs of the people from the memory game interacting.</p><p>By using the <strong>exact</strong> phrase given <i>after</i> the photograph appears and recalling the correct names of the people in the photographs, form a sentence describing the interaction. You do not need to capitalise names.</p><p>Type your answer in the space provided. Please complete every sentence before moving onto the next trial.</p><p>You will only have a few seconds to memorise each given photograph and phrase before you can respond, so try your best to focus.</p><p>An example is given below. Press 'Continue' when you are ready.</p><img src='img/speaking_example.jpg' style='width:800px;height:460px;''></img>","0","html-button-response","43","359123","0.0-4.0","24970","List2A","black","woman","","","","","","","","","","","","",""
"2226.600000023842","<p>Before the experiment starts, you will watch two example trials. Press 'Continue'.</p>","0","html-button-response","44","362356","0.0-5.0","24970","List2A","black","woman","","","","","","","","","","","","",""
"null","<img src='img/play_eg.gif' style='height:400px;''></img>","","html-keyboard-response","45","365365","0.0-6.0","24970","List2A","black","woman","","","","null","","","","","","","","",""
"null","<p>is playing with</p>","","html-keyboard-response","46","367381","0.0-7.0","24970","List2A","black","woman","","","","null","","","","","","","","",""
"4058.7999999523163","<p><b>Answer:</b> jane is playing with ruth</p>","0","html-button-response","47","371441","0.0-8.0","24970","List2A","black","woman","","","","","","","","","","","","",""
"null","<img src='img/dance_eg.gif' style='height:400px;''></img>","","html-keyboard-response","48","374461","0.0-9.0","24970","List2A","black","woman","","","","null","","","","","","","","",""
"null","<p>is being entertained by</p>","","html-keyboard-response","49","376465","0.0-10.0","24970","List2A","black","woman","","","","null","","","","","","","","",""
"4349.100000023842","<p><b>Answer:</b> fred is being entertained by mike</p>","0","html-button-response","50","380815","0.0-11.0","24970","List2A","black","woman","","","","","","","","","","","","",""
"7669.799999952316","<p>Ready to start the experiment?</p><br><p><strong>Remember to describe the picture using a full sentence,</strong></p><p><strong>that combines the names of the people with the <i>exact</i> phrase given.</strong></p><p><strong>To receive full payment you must do this correctly.</strong></p><p><strong> You do not need to capitalise names or use punctuation.</strong></p><br><p>Press 'Continue' to begin.</p>","0","html-button-response","51","389491","0.0-12.0","24970","List2A","black","woman","","","","","","","","","","","","",""
"null","<div style=""font-size:60px;"">+</div>","","html-keyboard-response","52","391009","0.0-13.0-0.0","24970","List2A","black","woman","","","","null","","","","","","","","",""
"null","<img src=""stim_listA/greet5.gif""style=""height:400px;""></stim_listA>","","html-keyboard-response","53","393025","0.0-13.0-1.0","24970","List2A","black","woman","","","","null","","","","","","","","",""
"null","is greeting","","html-keyboard-response","54","395037","0.0-13.0-2.0","24970","List2A","black","woman","","","","null","","","","","","","","",""
"11195.699999928474","","","survey-text","55","406236","0.0-13.0-3.0","24970","List2A","black","woman","","","","","{""Q0"":""fred is greeting dave""}","<img src=""stim_listA/greet5.gif""style=""height:400px;""></stim_listA>","is greeting","","","","","",""
"null","<div style=""font-size:60px;"">+</div>","","html-keyboard-response","56","406747","0.0-13.0-0.1","24970","List2A","black","woman","","","","null","","","","","","","","",""
"null","<img src=""stim_listA/greet2.gif""style=""height:400px;""></stim_listA>","","html-keyboard-response","57","408749","0.0-13.0-1.1","24970","List2A","black","woman","","","","null","","","","","","","","",""
"null","is being greeted by","","html-keyboard-response","58","410760","0.0-13.0-2.1","24970","List2A","black","woman","","","","null","","","","","","","","",""
"14058.5","","","survey-text","59","424823","0.0-13.0-3.1","24970","List2A","black","woman","","","","","{""Q0"":""jane is being greeted by luke""}","<img src=""stim_listA/greet2.gif""style=""height:400px;""></stim_listA>","is being greeted by","","","","","",""
"null","<div style=""font-size:60px;"">+</div>","","html-keyboard-response","60","425335","0.0-13.0-0.2","24970","List2A","black","woman","","","","null","","","","","","","","",""
"null","<img src=""stim_listA/touch6.gif""style=""height:400px;""></stim_listA>","","html-keyboard-response","61","427349","0.0-13.0-1.2","24970","List2A","black","woman","","","","null","","","","","","","","",""
"null","is being touched by","","html-keyboard-response","62","429364","0.0-13.0-2.2","24970","List2A","black","woman","","","","null","","","","","","","","",""
"13172.399999976158","","","survey-text","63","442539","0.0-13.0-3.2","24970","List2A","black","woman","","","","","{""Q0"":""fred is being touched by luke""}","<img src=""stim_listA/touch6.gif""style=""height:400px;""></stim_listA>","is being touched by","","","","","",""
"null","<div style=""font-size:60px;"">+</div>","","html-keyboard-response","64","443051","0.0-13.0-0.3","24970","List2A","black","woman","","","","null","","","","","","","","",""
"null","<img src=""stim_listA/seduce3.gif""style=""height:400px;""></stim_listA>","","html-keyboard-response","65","445053","0.0-13.0-1.3","24970","List2A","black","woman","","","","null","","","","","","","","",""
"null","is seducing","","html-keyboard-response","66","447067","0.0-13.0-2.3","24970","List2A","black","woman","","","","null","","","","","","","","",""
"14574.800000071526","","","survey-text","67","461644","0.0-13.0-3.3","24970","List2A","black","woman","","","","","{""Q0"":""fred is seducing kate""}","<img src=""stim_listA/seduce3.gif""style=""height:400px;""></stim_listA>","is seducing","","","","","",""
"null","<div style=""font-size:60px;"">+</div>","","html-keyboard-response","68","462151","0.0-13.0-0.4","24970","List2A","black","woman","","","","null","","","","","","","","",""
"null","<img src=""stim_listA/oppose3.gif""style=""height:400px;""></stim_listA>","","html-keyboard-response","69","464164","0.0-13.0-1.4","24970","List2A","black","woman","","","","null","","","","","","","","",""
"null","is opposing","","html-keyboard-response","70","466170","0.0-13.0-2.4","24970","List2A","black","woman","","","","null","","","","","","","","",""
"7989","","","survey-text","71","474161","0.0-13.0-3.4","24970","List2A","black","woman","","","","","{""Q0"":""kate is opposing mike""}","<img src=""stim_listA/oppose3.gif""style=""height:400px;""></stim_listA>","is opposing","","","","","",""
"null","<div style=""font-size:60px;"">+</div>","","html-keyboard-response","72","474668","0.0-13.0-0.5","24970","List2A","black","woman","","","","null","","","","","","","","",""
"null","<img src=""stim_listA/seduce5.gif""style=""height:400px;""></stim_listA>","","html-keyboard-response","73","476682","0.0-13.0-1.5","24970","List2A","black","woman","","","","null","","","","","","","","",""
"null","is seducing","","html-keyboard-response","74","478697","0.0-13.0-2.5","24970","List2A","black","woman","","","","null","","","","","","","","",""
"8742.100000023842","","","survey-text","75","487442","0.0-13.0-3.5","24970","List2A","black","woman","","","","","{""Q0"":""luke is seducing mike""}","<img src=""stim_listA/seduce5.gif""style=""height:400px;""></stim_listA>","is seducing","","","","","",""
"null","<div style=""font-size:60px;"">+</div>","","html-keyboard-response","76","487950","0.0-13.0-0.6","24970","List2A","black","woman","","","","null","","","","","","","","",""
"null","<img src=""stim_listA/greet4.gif""style=""height:400px;""></stim_listA>","","html-keyboard-response","77","489959","0.0-13.0-1.6","24970","List2A","black","woman","","","","null","","","","","","","","",""
"null","is being greeted by","","html-keyboard-response","78","491976","0.0-13.0-2.6","24970","List2A","black","woman","","","","null","","","","","","","","",""
"10161.5","","","survey-text","79","502139","0.0-13.0-3.6","24970","List2A","black","woman","","","","","{""Q0"":""kate is being greeted by fred""}","<img src=""stim_listA/greet4.gif""style=""height:400px;""></stim_listA>","is being greeted by","","","","","",""
"null","<div style=""font-size:60px;"">+</div>","","html-keyboard-response","80","502644","0.0-13.0-0.7","24970","List2A","black","woman","","","","null","","","","","","","","",""
"null","<img src=""stim_listA/shout8.gif""style=""height:400px;""></stim_listA>","","html-keyboard-response","81","504652","0.0-13.0-1.7","24970","List2A","black","woman","","","","null","","","","","","","","",""
"null","is being shouted at by","","html-keyboard-response","82","506656","0.0-13.0-2.7","24970","List2A","black","woman","","","","null","","","","","","","","",""
"15724.399999976158","","","survey-text","83","522383","0.0-13.0-3.7","24970","List2A","black","woman","","","","","{""Q0"":""kate is being shouted by jane""}","<img src=""stim_listA/shout8.gif""style=""height:400px;""></stim_listA>","is being shouted at by","","","","","",""
"null","<div style=""font-size:60px;"">+</div>","","html-keyboard-response","84","522890","0.0-13.0-0.8","24970","List2A","black","woman","","","","null","","","","","","","","",""
"null","<img src=""stim_listA/greet6.gif""style=""height:400px;""></stim_listA>","","html-keyboard-response","85","524907","0.0-13.0-1.8","24970","List2A","black","woman","","","","null","","","","","","","","",""
"null","is being greeted by","","html-keyboard-response","86","526917","0.0-13.0-2.8","24970","List2A","black","woman","","","","null","","","","","","","","",""
"9778.699999928474","","","survey-text","87","536696","0.0-13.0-3.8","24970","List2A","black","woman","","","","","{""Q0"":""mike is being greeted by luke""}","<img src=""stim_listA/greet6.gif""style=""height:400px;""></stim_listA>","is being greeted by","","","","","",""
"null","<div style=""font-size:60px;"">+</div>","","html-keyboard-response","88","537204","0.0-13.0-0.9","24970","List2A","black","woman","","","","null","","","","","","","","",""
"null","<img src=""stim_listA/shout2.gif""style=""height:400px;""></stim_listA>","","html-keyboard-response","89","539221","0.0-13.0-1.9","24970","List2A","black","woman","","","","null","","","","","","","","",""
"null","is being shouted at by","","html-keyboard-response","90","541233","0.0-13.0-2.9","24970","List2A","black","woman","","","","null","","","","","","","","",""
"9532.100000023842","","","survey-text","91","550767","0.0-13.0-3.9","24970","List2A","black","woman","","","","","{""Q0"":""jane is shouting at dave""}","<img src=""stim_listA/shout2.gif""style=""height:400px;""></stim_listA>","is being shouted at by","","","","","",""
"null","<div style=""font-size:60px;"">+</div>","","html-keyboard-response","92","551276","0.0-13.0-0.10","24970","List2A","black","woman","","","","null","","","","","","","","",""
"null","<img src=""stim_listA/challenge4.gif""style=""height:400px;""></stim_listA>","","html-keyboard-response","93","553282","0.0-13.0-1.10","24970","List2A","black","woman","","","","null","","","","","","","","",""
"null","is being challenged by","","html-keyboard-response","94","555282","0.0-13.0-2.10","24970","List2A","black","woman","","","","null","","","","","","","","",""
"13891.600000023842","","","survey-text","95","569176","0.0-13.0-3.10","24970","List2A","black","woman","","","","","{""Q0"":""kate is being challenged by fred""}","<img src=""stim_listA/challenge4.gif""style=""height:400px;""></stim_listA>","is being challenged by","","","","","",""
"null","<div style=""font-size:60px;"">+</div>","","html-keyboard-response","96","569686","0.0-13.0-0.11","24970","List2A","black","woman","","","","null","","","","","","","","",""
"null","<img src=""stim_listA/look5.gif""style=""height:400px;""></stim_listA>","","html-keyboard-response","97","571694","0.0-13.0-1.11","24970","List2A","black","woman","","","","null","","","","","","","","",""
"null","is looking at","","html-keyboard-response","98","573699","0.0-13.0-2.11","24970","List2A","black","woman","","","","null","","","","","","","","",""
"8910.799999952316","","","survey-text","99","582612","0.0-13.0-3.11","24970","List2A","black","woman","","","","","{""Q0"":""luke is looking at fred""}","<img src=""stim_listA/look5.gif""style=""height:400px;""></stim_listA>","is looking at","","","","","",""
"null","<div style=""font-size:60px;"">+</div>","","html-keyboard-response","100","583121","0.0-13.0-0.12","24970","List2A","black","woman","","","","null","","","","","","","","",""
"null","<img src=""stim_listA/touch8.gif""style=""height:400px;""></stim_listA>","","html-keyboard-response","101","585124","0.0-13.0-1.12","24970","List2A","black","woman","","","","null","","","","","","","","",""
"null","is being touched by","","html-keyboard-response","102","587125","0.0-13.0-2.12","24970","List2A","black","woman","","","","null","","","","","","","","",""
"18348.799999952316","","","survey-text","103","605477","0.0-13.0-3.12","24970","List2A","black","woman","","","","","{""Q0"":""beth is being touched by ruth""}","<img src=""stim_listA/touch8.gif""style=""height:400px;""></stim_listA>","is being touched by","","","","","",""
"null","<div style=""font-size:60px;"">+</div>","","html-keyboard-response","104","605984","0.0-13.0-0.13","24970","List2A","black","woman","","","","null","","","","","","","","",""
"null","<img src=""stim_listA/hug6.gif""style=""height:400px;""></stim_listA>","","html-keyboard-response","105","608000","0.0-13.0-1.13","24970","List2A","black","woman","","","","null","","","","","","","","",""
"null","is being hugged by","","html-keyboard-response","106","610010","0.0-13.0-2.13","24970","List2A","black","woman","","","","null","","","","","","","","",""
"14685.699999928474","","","survey-text","107","624698","0.0-13.0-3.13","24970","List2A","black","woman","","","","","{""Q0"":""mike is being hugged by dave""}","<img src=""stim_listA/hug6.gif""style=""height:400px;""></stim_listA>","is being hugged by","","","","","",""
"null","<div style=""font-size:60px;"">+</div>","","html-keyboard-response","108","625206","0.0-13.0-0.14","24970","List2A","black","woman","","","","null","","","","","","","","",""
"null","<img src=""stim_listA/seduce4.gif""style=""height:400px;""></stim_listA>","","html-keyboard-response","109","627217","0.0-13.0-1.14","24970","List2A","black","woman","","","","null","","","","","","","","",""
"null","is being seduced by","","html-keyboard-response","110","629231","0.0-13.0-2.14","24970","List2A","black","woman","","","","null","","","","","","","","",""
"12771.100000023842","","","survey-text","111","642004","0.0-13.0-3.14","24970","List2A","black","woman","","","","","{""Q0"":""beth is being seduced by mike""}","<img src=""stim_listA/seduce4.gif""style=""height:400px;""></stim_listA>","is being seduced by","","","","","",""
"null","<div style=""font-size:60px;"">+</div>","","html-keyboard-response","112","642510","0.0-13.0-0.15","24970","List2A","black","woman","","","","null","","","","","","","","",""
"null","<img src=""stim_listA/challenge2.gif""style=""height:400px;""></stim_listA>","","html-keyboard-response","113","644527","0.0-13.0-1.15","24970","List2A","black","woman","","","","null","","","","","","","","",""
"null","is being challenged by","","html-keyboard-response","114","646531","0.0-13.0-2.15","24970","List2A","black","woman","","","","null","","","","","","","","",""
"14535.699999928474","","","survey-text","115","661069","0.0-13.0-3.15","24970","List2A","black","woman","","","","","{""Q0"":""jane is being challenged by luke""}","<img src=""stim_listA/challenge2.gif""style=""height:400px;""></stim_listA>","is being challenged by","","","","","",""
"null","<div style=""font-size:60px;"">+</div>","","html-keyboard-response","116","661577","0.0-13.0-0.16","24970","List2A","black","woman","","","","null","","","","","","","","",""
"null","<img src=""stim_listA/hug1.gif""style=""height:400px;""></stim_listA>","","html-keyboard-response","117","663581","0.0-13.0-1.16","24970","List2A","black","woman","","","","null","","","","","","","","",""
"null","is hugging","","html-keyboard-response","118","665583","0.0-13.0-2.16","24970","List2A","black","woman","","","","null","","","","","","","","",""
"9943.5","","","survey-text","119","675528","0.0-13.0-3.16","24970","List2A","black","woman","","","","","{""Q0"":""ruth is hugging luke""}","<img src=""stim_listA/hug1.gif""style=""height:400px;""></stim_listA>","is hugging","","","","","",""
"null","<div style=""font-size:60px;"">+</div>","","html-keyboard-response","120","676038","0.0-13.0-0.17","24970","List2A","black","woman","","","","null","","","","","","","","",""
"null","<img src=""stim_listA/hug2.gif""style=""height:400px;""></stim_listA>","","html-keyboard-response","121","678044","0.0-13.0-1.17","24970","List2A","black","woman","","","","null","","","","","","","","",""
"null","is being hugged by","","html-keyboard-response","122","680047","0.0-13.0-2.17","24970","List2A","black","woman","","","","null","","","","","","","","",""
"17317","","","survey-text","123","697366","0.0-13.0-3.17","24970","List2A","black","woman","","","","","{""Q0"":""jane is being hugged by dave""}","<img src=""stim_listA/hug2.gif""style=""height:400px;""></stim_listA>","is being hugged by","","","","","",""
"null","<div style=""font-size:60px;"">+</div>","","html-keyboard-response","124","697875","0.0-13.0-0.18","24970","List2A","black","woman","","","","null","","","","","","","","",""
"null","<img src=""stim_listA/shout4.gif""style=""height:400px;""></stim_listA>","","html-keyboard-response","125","699877","0.0-13.0-1.18","24970","List2A","black","woman","","","","null","","","","","","","","",""
"null","is being shouted at by","","html-keyboard-response","126","701883","0.0-13.0-2.18","24970","List2A","black","woman","","","","null","","","","","","","","",""
"16646.600000023842","","","survey-text","127","718532","0.0-13.0-3.18","24970","List2A","black","woman","","","","","{""Q0"":""mike is being shouted at by kate""}","<img src=""stim_listA/shout4.gif""style=""height:400px;""></stim_listA>","is being shouted at by","","","","","",""
"null","<div style=""font-size:60px;"">+</div>","","html-keyboard-response","128","719039","0.0-13.0-0.19","24970","List2A","black","woman","","","","null","","","","","","","","",""
"null","<img src=""stim_listA/copy2.gif""style=""height:400px;""></stim_listA>","","html-keyboard-response","129","721053","0.0-13.0-1.19","24970","List2A","black","woman","","","","null","","","","","","","","",""
"null","is being copied by","","html-keyboard-response","130","723069","0.0-13.0-2.19","24970","List2A","black","woman","","","","null","","","","","","","","",""
"10223.800000071526","","","survey-text","131","733295","0.0-13.0-3.19","24970","List2A","black","woman","","","","","{""Q0"":""jane is copied by luke""}","<img src=""stim_listA/copy2.gif""style=""height:400px;""></stim_listA>","is being copied by","","","","","",""
"12317.899999976158","<img src='img/portrait_matrix_list2.jpg' style='width:900px;height:500px;''></img><p>If you have memorised all the portraits and names and are ready to start, press Continue.</p><p><strong>Please note: Your memory of these faces will be tested 4 times during this experiment.</strong></p>","0","html-button-response","132","745614","0.0-14.0-0.0","24970","List2A","black","woman","","","","","","","","","","","","",""
"3023.5","<img src=""portrait/BW1.jpg""style=""height:400px;""></img>","0","html-button-response","133","749645","0.0-14.0-1.0","24970","List2A","black","woman","","true","0","","","","","","","","","",""
"null","CORRECT","","html-keyboard-response","134","751160","0.0-14.0-2.0-0.0","24970","List2A","black","woman","","","","null","","","","","","","","",""
"3720.3000000715256","<img src=""portrait/BM2.jpg""style=""height:400px;""></img>","5","html-button-response","135","754882","0.0-14.0-4.0","24970","List2A","black","woman","","true","5","","","","","","","","","",""
"null","CORRECT","","html-keyboard-response","136","756399","0.0-14.0-5.0-0.0","24970","List2A","black","woman","","","","null","","","","","","","","",""
"10440.899999976158","<img src=""portrait/BM1.jpg""style=""height:400px;""></img>","4","html-button-response","137","766842","0.0-14.0-7.0","24970","List2A","black","woman","","true","4","","","","","","","","","",""
"null","CORRECT","","html-keyboard-response","138","768358","0.0-14.0-8.0-0.0","24970","List2A","black","woman","","","","null","","","","","","","","",""
"2938.600000023842","<img src=""portrait/BW2.jpg""style=""height:400px;""></img>","2","html-button-response","139","771299","0.0-14.0-10.0","24970","List2A","black","woman","","true","2","","","","","","","","","",""
"null","CORRECT","","html-keyboard-response","140","772818","0.0-14.0-11.0-0.0","24970","List2A","black","woman","","","","null","","","","","","","","",""
"3355.5","<img src=""portrait/WM1.jpg""style=""height:400px;""></img>","6","html-button-response","141","776175","0.0-14.0-13.0","24970","List2A","black","woman","","true","6","","","","","","","","","",""
"null","CORRECT","","html-keyboard-response","142","777695","0.0-14.0-14.0-0.0","24970","List2A","black","woman","","","","null","","","","","","","","",""
"3032.7000000476837","<img src=""portrait/WW1.jpg""style=""height:400px;""></img>","1","html-button-response","143","780729","0.0-14.0-16.0","24970","List2A","black","woman","","true","1","","","","","","","","","",""
"null","CORRECT","","html-keyboard-response","144","782246","0.0-14.0-17.0-0.0","24970","List2A","black","woman","","","","null","","","","","","","","",""
"3927.2999999523163","<img src=""portrait/WM2.jpg""style=""height:400px;""></img>","7","html-button-response","145","786175","0.0-14.0-19.0","24970","List2A","black","woman","","true","7","","","","","","","","","",""
"null","CORRECT","","html-keyboard-response","146","787680","0.0-14.0-20.0-0.0","24970","List2A","black","woman","","","","null","","","","","","","","",""
"15587.300000071526","<img src=""portrait/WW2.jpg""style=""height:400px;""></img>","3","html-button-response","147","803268","0.0-14.0-22.0","24970","List2A","black","woman","","true","3","","","","","","","","","",""
"null","CORRECT","","html-keyboard-response","148","804781","0.0-14.0-23.0-0.0","24970","List2A","black","woman","","","","null","","","","","","","","",""
"1699.3999999761581","<p>You got 8 out of 8 right first time. Press Continue.</p>","0","html-button-response","149","806482","0.0-14.0-25.0","24970","List2A","black","woman","","","","","","","","","","","","",""
"null","<div style=""font-size:60px;"">+</div>","","html-keyboard-response","150","807987","0.0-15.0-0.0","24970","List2A","black","woman","","","","null","","","","","","","","",""
"null","<img src=""stim_listA/kiss7.gif""style=""height:400px;""></stim_listA>","","html-keyboard-response","151","810003","0.0-15.0-1.0","24970","List2A","black","woman","","","","null","","","","","","","","",""
"null","is kissing","","html-keyboard-response","152","812012","0.0-15.0-2.0","24970","List2A","black","woman","","","","null","","","","","","","","",""
"19875.400000095367","","","survey-text","153","831889","0.0-15.0-3.0","24970","List2A","black","woman","","","","","{""Q0"":""beth is kissing ruth""}","<img src=""stim_listA/kiss7.gif""style=""height:400px;""></stim_listA>","is kissing","","","","","",""
"null","<div style=""font-size:60px;"">+</div>","","html-keyboard-response","154","832396","0.0-15.0-0.1","24970","List2A","black","woman","","","","null","","","","","","","","",""
"null","<img src=""stim_listA/copy3.gif""style=""height:400px;""></stim_listA>","","html-keyboard-response","155","834402","0.0-15.0-1.1","24970","List2A","black","woman","","","","null","","","","","","","","",""
"null","is copying","","html-keyboard-response","156","836404","0.0-15.0-2.1","24970","List2A","black","woman","","","","null","","","","","","","","",""
"8168.099999904633","","","survey-text","157","844574","0.0-15.0-3.1","24970","List2A","black","woman","","","","","{""Q0"":""beth is coping mike""}","<img src=""stim_listA/copy3.gif""style=""height:400px;""></stim_listA>","is copying","","","","","",""
"null","<div style=""font-size:60px;"">+</div>","","html-keyboard-response","158","845076","0.0-15.0-0.2","24970","List2A","black","woman","","","","null","","","","","","","","",""
"null","<img src=""stim_listA/hug7.gif""style=""height:400px;""></stim_listA>","","html-keyboard-response","159","847078","0.0-15.0-1.2","24970","List2A","black","woman","","","","null","","","","","","","","",""
"null","is hugging","","html-keyboard-response","160","849082","0.0-15.0-2.2","24970","List2A","black","woman","","","","null","","","","","","","","",""
"15168","","","survey-text","161","864252","0.0-15.0-3.2","24970","List2A","black","woman","","","","","{""Q0"":""beth is hugging ruth""}","<img src=""stim_listA/hug7.gif""style=""height:400px;""></stim_listA>","is hugging","","","","","",""
"null","<div style=""font-size:60px;"">+</div>","","html-keyboard-response","162","864764","0.0-15.0-0.3","24970","List2A","black","woman","","","","null","","","","","","","","",""
"null","<img src=""stim_listA/challenge7.gif""style=""height:400px;""></stim_listA>","","html-keyboard-response","163","866768","0.0-15.0-1.3","24970","List2A","black","woman","","","","null","","","","","","","","",""
"null","is challenging","","html-keyboard-response","164","868783","0.0-15.0-2.3","24970","List2A","black","woman","","","","null","","","","","","","","",""
"15669.099999904633","","","survey-text","165","884454","0.0-15.0-3.3","24970","List2A","black","woman","","","","","{""Q0"":""beth is challenging jane""}","<img src=""stim_listA/challenge7.gif""style=""height:400px;""></stim_listA>","is challenging","","","","","",""
"null","<div style=""font-size:60px;"">+</div>","","html-keyboard-response","166","884962","0.0-15.0-0.4","24970","List2A","black","woman","","","","null","","","","","","","","",""
"null","<img src=""stim_listA/kiss6.gif""style=""height:400px;""></stim_listA>","","html-keyboard-response","167","886965","0.0-15.0-1.4","24970","List2A","black","woman","","","","null","","","","","","","","",""
"null","is being kissed by","","html-keyboard-response","168","888971","0.0-15.0-2.4","24970","List2A","black","woman","","","","null","","","","","","","","",""
"15397.699999928474","","","survey-text","169","904370","0.0-15.0-3.4","24970","List2A","black","woman","","","","","{""Q0"":""mike is getting kissed by dave""}","<img src=""stim_listA/kiss6.gif""style=""height:400px;""></stim_listA>","is being kissed by","","","","","",""
"null","<div style=""font-size:60px;"">+</div>","","html-keyboard-response","170","904875","0.0-15.0-0.5","24970","List2A","black","woman","","","","null","","","","","","","","",""
"null","<img src=""stim_listA/copy7.gif""style=""height:400px;""></stim_listA>","","html-keyboard-response","171","906877","0.0-15.0-1.5","24970","List2A","black","woman","","","","null","","","","","","","","",""
"null","is copying","","html-keyboard-response","172","908881","0.0-15.0-2.5","24970","List2A","black","woman","","","","null","","","","","","","","",""
"9246.600000023842","","","survey-text","173","918130","0.0-15.0-3.5","24970","List2A","black","woman","","","","","{""Q0"":""beth is coping jane""}","<img src=""stim_listA/copy7.gif""style=""height:400px;""></stim_listA>","is copying","","","","","",""
"null","<div style=""font-size:60px;"">+</div>","","html-keyboard-response","174","918640","0.0-15.0-0.6","24970","List2A","black","woman","","","","null","","","","","","","","",""
"null","<img src=""stim_listA/touch2.gif""style=""height:400px;""></stim_listA>","","html-keyboard-response","175","920656","0.0-15.0-1.6","24970","List2A","black","woman","","","","null","","","","","","","","",""
"null","is being touched by","","html-keyboard-response","176","922670","0.0-15.0-2.6","24970","List2A","black","woman","","","","null","","","","","","","","",""
"13737.399999976158","","","survey-text","177","936410","0.0-15.0-3.6","24970","List2A","black","woman","","","","","{""Q0"":""ruth is being touched by luke""}","<img src=""stim_listA/touch2.gif""style=""height:400px;""></stim_listA>","is being touched by","","","","","",""
"null","<div style=""font-size:60px;"">+</div>","","html-keyboard-response","178","936925","0.0-15.0-0.7","24970","List2A","black","woman","","","","null","","","","","","","","",""
"null","<img src=""stim_listA/touch7.gif""style=""height:400px;""></stim_listA>","","html-keyboard-response","179","938927","0.0-15.0-1.7","24970","List2A","black","woman","","","","null","","","","","","","","",""
"null","is touching","","html-keyboard-response","180","940928","0.0-15.0-2.7","24970","List2A","black","woman","","","","null","","","","","","","","",""
"8276.399999976158","","","survey-text","181","949207","0.0-15.0-3.7","24970","List2A","black","woman","","","","","{""Q0"":""kate is touching jane""}","<img src=""stim_listA/touch7.gif""style=""height:400px;""></stim_listA>","is touching","","","","","",""
"null","<div style=""font-size:60px;"">+</div>","","html-keyboard-response","182","949714","0.0-15.0-0.8","24970","List2A","black","woman","","","","null","","","","","","","","",""
"null","<img src=""stim_listA/hug3.gif""style=""height:400px;""></stim_listA>","","html-keyboard-response","183","951717","0.0-15.0-1.8","24970","List2A","black","woman","","","","null","","","","","","","","",""
"null","is hugging","","html-keyboard-response","184","953725","0.0-15.0-2.8","24970","List2A","black","woman","","","","null","","","","","","","","",""
"12022.800000071526","","","survey-text","185","965750","0.0-15.0-3.8","24970","List2A","black","woman","","","","","{""Q0"":""beth is hugging fred""}","<img src=""stim_listA/hug3.gif""style=""height:400px;""></stim_listA>","is hugging","","","","","",""
"null","<div style=""font-size:60px;"">+</div>","","html-keyboard-response","186","966262","0.0-15.0-0.9","24970","List2A","black","woman","","","","null","","","","","","","","",""
"null","<img src=""stim_listA/shout5.gif""style=""height:400px;""></stim_listA>","","html-keyboard-response","187","968269","0.0-15.0-1.9","24970","List2A","black","woman","","","","null","","","","","","","","",""
"null","is shouting at","","html-keyboard-response","188","970283","0.0-15.0-2.9","24970","List2A","black","woman","","","","null","","","","","","","","",""
"16535.5","","","survey-text","189","986821","0.0-15.0-3.9","24970","List2A","black","woman","","","","","{""Q0"":""fred is shouting at luke""}","<img src=""stim_listA/shout5.gif""style=""height:400px;""></stim_listA>","is shouting at","","","","","",""
"null","<div style=""font-size:60px;"">+</div>","","html-keyboard-response","190","987328","0.0-15.0-0.10","24970","List2A","black","woman","","","","null","","","","","","","","",""
"null","<img src=""stim_listA/kiss3.gif""style=""height:400px;""></stim_listA>","","html-keyboard-response","191","989332","0.0-15.0-1.10","24970","List2A","black","woman","","","","null","","","","","","","","",""
"null","is kissing","","html-keyboard-response","192","991334","0.0-15.0-2.10","24970","List2A","black","woman","","","","null","","","","","","","","",""
"7558.400000095367","","","survey-text","193","998894","0.0-15.0-3.10","24970","List2A","black","woman","","","","","{""Q0"":""fred is kissing beth""}","<img src=""stim_listA/kiss3.gif""style=""height:400px;""></stim_listA>","is kissing","","","","","",""
"null","<div style=""font-size:60px;"">+</div>","","html-keyboard-response","194","999405","0.0-15.0-0.11","24970","List2A","black","woman","","","","null","","","","","","","","",""
"null","<img src=""stim_listA/kiss1.gif""style=""height:400px;""></stim_listA>","","html-keyboard-response","195","1001407","0.0-15.0-1.11","24970","List2A","black","woman","","","","null","","","","","","","","",""
"null","is kissing","","html-keyboard-response","196","1003409","0.0-15.0-2.11","24970","List2A","black","woman","","","","null","","","","","","","","",""
"10932.300000071526","","","survey-text","197","1014343","0.0-15.0-3.11","24970","List2A","black","woman","","","","","{""Q0"":""ruth is kissing luke""}","<img src=""stim_listA/kiss1.gif""style=""height:400px;""></stim_listA>","is kissing","","","","","",""
"null","<div style=""font-size:60px;"">+</div>","","html-keyboard-response","198","1014853","0.0-15.0-0.12","24970","List2A","black","woman","","","","null","","","","","","","","",""
"null","<img src=""stim_listA/seduce6.gif""style=""height:400px;""></stim_listA>","","html-keyboard-response","199","1016870","0.0-15.0-1.12","24970","List2A","black","woman","","","","null","","","","","","","","",""
"null","is being seduced by","","html-keyboard-response","200","1018876","0.0-15.0-2.12","24970","List2A","black","woman","","","","null","","","","","","","","",""
"10681.5","","","survey-text","201","1029560","0.0-15.0-3.12","24970","List2A","black","woman","","","","","{""Q0"":""fred is being seduced by dave""}","<img src=""stim_listA/seduce6.gif""style=""height:400px;""></stim_listA>","is being seduced by","","","","","",""
"null","<div style=""font-size:60px;"">+</div>","","html-keyboard-response","202","1030074","0.0-15.0-0.13","24970","List2A","black","woman","","","","null","","","","","","","","",""
"null","<img src=""stim_listA/shout7.gif""style=""height:400px;""></stim_listA>","","html-keyboard-response","203","1032079","0.0-15.0-1.13","24970","List2A","black","woman","","","","null","","","","","","","","",""
"null","is shouting at","","html-keyboard-response","204","1034095","0.0-15.0-2.13","24970","List2A","black","woman","","","","null","","","","","","","","",""
"10678","","","survey-text","205","1044775","0.0-15.0-3.13","24970","List2A","black","woman","","","","","{""Q0"":""beth is shouting at ruth""}","<img src=""stim_listA/shout7.gif""style=""height:400px;""></stim_listA>","is shouting at","","","","","",""
"null","<div style=""font-size:60px;"">+</div>","","html-keyboard-response","206","1045284","0.0-15.0-0.14","24970","List2A","black","woman","","","","null","","","","","","","","",""
"null","<img src=""stim_listA/greet7.gif""style=""height:400px;""></stim_listA>","","html-keyboard-response","207","1047296","0.0-15.0-1.14","24970","List2A","black","woman","","","","null","","","","","","","","",""
"null","is greeting","","html-keyboard-response","208","1049310","0.0-15.0-2.14","24970","List2A","black","woman","","","","null","","","","","","","","",""
"14266.100000023842","","","survey-text","209","1063578","0.0-15.0-3.14","24970","List2A","black","woman","","","","","{""Q0"":""beth is greeting jane""}","<img src=""stim_listA/greet7.gif""style=""height:400px;""></stim_listA>","is greeting","","","","","",""
"null","<div style=""font-size:60px;"">+</div>","","html-keyboard-response","210","1064090","0.0-15.0-0.15","24970","List2A","black","woman","","","","null","","","","","","","","",""
"null","<img src=""stim_listA/challenge8.gif""style=""height:400px;""></stim_listA>","","html-keyboard-response","211","1066104","0.0-15.0-1.15","24970","List2A","black","woman","","","","null","","","","","","","","",""
"null","is being challenged by","","html-keyboard-response","212","1068120","0.0-15.0-2.15","24970","List2A","black","woman","","","","null","","","","","","","","",""
"19304.199999928474","","","survey-text","213","1087427","0.0-15.0-3.15","24970","List2A","black","woman","","","","","{""Q0"":""kate is being challenged by ruth""}","<img src=""stim_listA/challenge8.gif""style=""height:400px;""></stim_listA>","is being challenged by","","","","","",""
"null","<div style=""font-size:60px;"">+</div>","","html-keyboard-response","214","1087937","0.0-15.0-0.16","24970","List2A","black","woman","","","","null","","","","","","","","",""
"null","<img src=""stim_listA/look2.gif""style=""height:400px;""></stim_listA>","","html-keyboard-response","215","1089945","0.0-15.0-1.16","24970","List2A","black","woman","","","","null","","","","","","","","",""
"null","is being looked at by","","html-keyboard-response","216","1091946","0.0-15.0-2.16","24970","List2A","black","woman","","","","null","","","","","","","","",""
"10900.399999976158","","","survey-text","217","1102849","0.0-15.0-3.16","24970","List2A","black","woman","","","","","{""Q0"":""dave is being looked at dave""}","<img src=""stim_listA/look2.gif""style=""height:400px;""></stim_listA>","is being looked at by","","","","","",""
"null","<div style=""font-size:60px;"">+</div>","","html-keyboard-response","218","1103359","0.0-15.0-0.17","24970","List2A","black","woman","","","","null","","","","","","","","",""
"null","<img src=""stim_listA/seduce7.gif""style=""height:400px;""></stim_listA>","","html-keyboard-response","219","1105369","0.0-15.0-1.17","24970","List2A","black","woman","","","","null","","","","","","","","",""
"null","is seducing","","html-keyboard-response","220","1107377","0.0-15.0-2.17","24970","List2A","black","woman","","","","null","","","","","","","","",""
"10877.699999928474","","","survey-text","221","1118257","0.0-15.0-3.17","24970","List2A","black","woman","","","","","{""Q0"":""ruth is seducing kate""}","<img src=""stim_listA/seduce7.gif""style=""height:400px;""></stim_listA>","is seducing","","","","","",""
"null","<div style=""font-size:60px;"">+</div>","","html-keyboard-response","222","1118764","0.0-15.0-0.18","24970","List2A","black","woman","","","","null","","","","","","","","",""
"null","<img src=""stim_listA/look4.gif""style=""height:400px;""></stim_listA>","","html-keyboard-response","223","1120777","0.0-15.0-1.18","24970","List2A","black","woman","","","","null","","","","","","","","",""
"null","is being looked at by","","html-keyboard-response","224","1122782","0.0-15.0-2.18","24970","List2A","black","woman","","","","null","","","","","","","","",""
"13417","","","survey-text","225","1136202","0.0-15.0-3.18","24970","List2A","black","woman","","","","","{""Q0"":""kate is being looked at mike""}","<img src=""stim_listA/look4.gif""style=""height:400px;""></stim_listA>","is being looked at by","","","","","",""
"null","<div style=""font-size:60px;"">+</div>","","html-keyboard-response","226","1136711","0.0-15.0-0.19","24970","List2A","black","woman","","","","null","","","","","","","","",""
"null","<img src=""stim_listA/hug4.gif""style=""height:400px;""></stim_listA>","","html-keyboard-response","227","1138718","0.0-15.0-1.19","24970","List2A","black","woman","","","","null","","","","","","","","",""
"null","is being hugged by","","html-keyboard-response","228","1140719","0.0-15.0-2.19","24970","List2A","black","woman","","","","null","","","","","","","","",""
"17098.600000023842","","","survey-text","229","1157820","0.0-15.0-3.19","24970","List2A","black","woman","","","","","{""Q0"":""mike is being hugged by kate""}","<img src=""stim_listA/hug4.gif""style=""height:400px;""></stim_listA>","is being hugged by","","","","","",""
"28474.299999952316","<img src='img/portrait_matrix_list2.jpg' style='width:900px;height:500px;''></img><p>If you have memorised all the portraits and names and are ready to start, press Continue.</p><p><strong>Please note: Your memory of these faces will be tested 4 times during this experiment.</strong></p>","0","html-button-response","230","1186296","0.0-16.0-0.0","24970","List2A","black","woman","","","","","","","","","","","","",""
"3777.399999976158","<img src=""portrait/BM2.jpg""style=""height:400px;""></img>","5","html-button-response","231","1191078","0.0-16.0-1.0","24970","List2A","black","woman","","true","5","","","","","","","","","",""
"null","CORRECT","","html-keyboard-response","232","1192598","0.0-16.0-2.0-0.0","24970","List2A","black","woman","","","","null","","","","","","","","",""
"2305.899999976158","<img src=""portrait/BM1.jpg""style=""height:400px;""></img>","4","html-button-response","233","1194905","0.0-16.0-4.0","24970","List2A","black","woman","","true","4","","","","","","","","","",""
"null","CORRECT","","html-keyboard-response","234","1196431","0.0-16.0-5.0-0.0","24970","List2A","black","woman","","","","null","","","","","","","","",""
"3826.2000000476837","<img src=""portrait/BW1.jpg""style=""height:400px;""></img>","0","html-button-response","235","1200258","0.0-16.0-7.0","24970","List2A","black","woman","","true","0","","","","","","","","","",""
"null","CORRECT","","html-keyboard-response","236","1201764","0.0-16.0-8.0-0.0","24970","List2A","black","woman","","","","null","","","","","","","","",""
"3548.3000000715256","<img src=""portrait/WM2.jpg""style=""height:400px;""></img>","7","html-button-response","237","1205314","0.0-16.0-10.0","24970","List2A","black","woman","","true","7","","","","","","","","","",""
"null","CORRECT","","html-keyboard-response","238","1206831","0.0-16.0-11.0-0.0","24970","List2A","black","woman","","","","null","","","","","","","","",""
"2563.899999976158","<img src=""portrait/WM1.jpg""style=""height:400px;""></img>","6","html-button-response","239","1209396","0.0-16.0-13.0","24970","List2A","black","woman","","true","6","","","","","","","","","",""
"null","CORRECT","","html-keyboard-response","240","1210903","0.0-16.0-14.0-0.0","24970","List2A","black","woman","","","","null","","","","","","","","",""
"3314.7999999523163","<img src=""portrait/BW2.jpg""style=""height:400px;""></img>","2","html-button-response","241","1214219","0.0-16.0-16.0","24970","List2A","black","woman","","true","2","","","","","","","","","",""
"null","CORRECT","","html-keyboard-response","242","1215731","0.0-16.0-17.0-0.0","24970","List2A","black","woman","","","","null","","","","","","","","",""
"1688.5","<img src=""portrait/WW1.jpg""style=""height:400px;""></img>","1","html-button-response","243","1217420","0.0-16.0-19.0","24970","List2A","black","woman","","true","1","","","","","","","","","",""
"null","CORRECT","","html-keyboard-response","244","1218944","0.0-16.0-20.0-0.0","24970","List2A","black","woman","","","","null","","","","","","","","",""
"1474.2999999523163","<img src=""portrait/WW2.jpg""style=""height:400px;""></img>","3","html-button-response","245","1220419","0.0-16.0-22.0","24970","List2A","black","woman","","true","3","","","","","","","","","",""
"null","CORRECT","","html-keyboard-response","246","1221931","0.0-16.0-23.0-0.0","24970","List2A","black","woman","","","","null","","","","","","","","",""
"2138.399999976158","<p>You got 8 out of 8 right first time. Press Continue.</p>","0","html-button-response","247","1224070","0.0-16.0-25.0","24970","List2A","black","woman","","","","","","","","","","","","",""
"null","<div style=""font-size:60px;"">+</div>","","html-keyboard-response","248","1225590","0.0-17.0-0.0","24970","List2A","black","woman","","","","null","","","","","","","","",""
"null","<img src=""stim_listA/oppose8.gif""style=""height:400px;""></stim_listA>","","html-keyboard-response","249","1227603","0.0-17.0-1.0","24970","List2A","black","woman","","","","null","","","","","","","","",""
"null","is being opposed by","","html-keyboard-response","250","1229605","0.0-17.0-2.0","24970","List2A","black","woman","","","","null","","","","","","","","",""
"11049.099999904633","","","survey-text","251","1240656","0.0-17.0-3.0","24970","List2A","black","woman","","","","","{""Q0"":""ruth is being opposed by beth""}","<img src=""stim_listA/oppose8.gif""style=""height:400px;""></stim_listA>","is being opposed by","","","","","",""
"null","<div style=""font-size:60px;"">+</div>","","html-keyboard-response","252","1241166","0.0-17.0-0.1","24970","List2A","black","woman","","","","null","","","","","","","","",""
"null","<img src=""stim_listA/seduce1.gif""style=""height:400px;""></stim_listA>","","html-keyboard-response","253","1243169","0.0-17.0-1.1","24970","List2A","black","woman","","","","null","","","","","","","","",""
"null","is seducing","","html-keyboard-response","254","1245173","0.0-17.0-2.1","24970","List2A","black","woman","","","","null","","","","","","","","",""
"15189.199999928474","","","survey-text","255","1260365","0.0-17.0-3.1","24970","List2A","black","woman","","","","","{""Q0"":""jane is seducing luke""}","<img src=""stim_listA/seduce1.gif""style=""height:400px;""></stim_listA>","is seducing","","","","","",""
"null","<div style=""font-size:60px;"">+</div>","","html-keyboard-response","256","1260868","0.0-17.0-0.2","24970","List2A","black","woman","","","","null","","","","","","","","",""
"null","<img src=""stim_listA/touch4.gif""style=""height:400px;""></stim_listA>","","html-keyboard-response","257","1262885","0.0-17.0-1.2","24970","List2A","black","woman","","","","null","","","","","","","","",""
"null","is being touched by","","html-keyboard-response","258","1264899","0.0-17.0-2.2","24970","List2A","black","woman","","","","null","","","","","","","","",""
"13541.200000047684","","","survey-text","259","1278442","0.0-17.0-3.2","24970","List2A","black","woman","","","","","{""Q0"":""fred is being touched by kate""}","<img src=""stim_listA/touch4.gif""style=""height:400px;""></stim_listA>","is being touched by","","","","","",""
"null","<div style=""font-size:60px;"">+</div>","","html-keyboard-response","260","1278952","0.0-17.0-0.3","24970","List2A","black","woman","","","","null","","","","","","","","",""
"null","<img src=""stim_listA/kiss5.gif""style=""height:400px;""></stim_listA>","","html-keyboard-response","261","1280964","0.0-17.0-1.3","24970","List2A","black","woman","","","","null","","","","","","","","",""
"null","is kissing","","html-keyboard-response","262","1282970","0.0-17.0-2.3","24970","List2A","black","woman","","","","null","","","","","","","","",""
"9421.299999952316","","","survey-text","263","1292394","0.0-17.0-3.3","24970","List2A","black","woman","","","","","{""Q0"":""luke is kissing mike""}","<img src=""stim_listA/kiss5.gif""style=""height:400px;""></stim_listA>","is kissing","","","","","",""
"null","<div style=""font-size:60px;"">+</div>","","html-keyboard-response","264","1292896","0.0-17.0-0.4","24970","List2A","black","woman","","","","null","","","","","","","","",""
"null","<img src=""stim_listA/look8.gif""style=""height:400px;""></stim_listA>","","html-keyboard-response","265","1294898","0.0-17.0-1.4","24970","List2A","black","woman","","","","null","","","","","","","","",""
"null","is being looked at by","","html-keyboard-response","266","1296903","0.0-17.0-2.4","24970","List2A","black","woman","","","","null","","","","","","","","",""
"23676.300000071526","","","survey-text","267","1320581","0.0-17.0-3.4","24970","List2A","black","woman","","","","","{""Q0"":""jane is being looked at by kate""}","<img src=""stim_listA/look8.gif""style=""height:400px;""></stim_listA>","is being looked at by","","","","","",""
"null","<div style=""font-size:60px;"">+</div>","","html-keyboard-response","268","1321091","0.0-17.0-0.5","24970","List2A","black","woman","","","","null","","","","","","","","",""
"null","<img src=""stim_listA/look7.gif""style=""height:400px;""></stim_listA>","","html-keyboard-response","269","1323108","0.0-17.0-1.5","24970","List2A","black","woman","","","","null","","","","","","","","",""
"null","is looking at","","html-keyboard-response","270","1325109","0.0-17.0-2.5","24970","List2A","black","woman","","","","null","","","","","","","","",""
"11381","","","survey-text","271","1336492","0.0-17.0-3.5","24970","List2A","black","woman","","","","","{""Q0"":""beth is looking at ruth""}","<img src=""stim_listA/look7.gif""style=""height:400px;""></stim_listA>","is looking at","","","","","",""
"null","<div style=""font-size:60px;"">+</div>","","html-keyboard-response","272","1337003","0.0-17.0-0.6","24970","List2A","black","woman","","","","null","","","","","","","","",""
"null","<img src=""stim_listA/hug5.gif""style=""height:400px;""></stim_listA>","","html-keyboard-response","273","1339018","0.0-17.0-1.6","24970","List2A","black","woman","","","","null","","","","","","","","",""
"null","is hugging","","html-keyboard-response","274","1341022","0.0-17.0-2.6","24970","List2A","black","woman","","","","null","","","","","","","","",""
"16682.800000071526","","","survey-text","275","1357707","0.0-17.0-3.6","24970","List2A","black","woman","","","","","{""Q0"":""luke is hugging fred""}","<img src=""stim_listA/hug5.gif""style=""height:400px;""></stim_listA>","is hugging","","","","","",""
"null","<div style=""font-size:60px;"">+</div>","","html-keyboard-response","276","1358214","0.0-17.0-0.7","24970","List2A","black","woman","","","","null","","","","","","","","",""
"null","<img src=""stim_listA/touch3.gif""style=""height:400px;""></stim_listA>","","html-keyboard-response","277","1360218","0.0-17.0-1.7","24970","List2A","black","woman","","","","null","","","","","","","","",""
"null","is touching","","html-keyboard-response","278","1362220","0.0-17.0-2.7","24970","List2A","black","woman","","","","null","","","","","","","","",""
"11751.399999976158","","","survey-text","279","1373973","0.0-17.0-3.7","24970","List2A","black","woman","","","","","{""Q0"":""mike is touching kate""}","<img src=""stim_listA/touch3.gif""style=""height:400px;""></stim_listA>","is touching","","","","","",""
"null","<div style=""font-size:60px;"">+</div>","","html-keyboard-response","280","1374479","0.0-17.0-0.8","24970","List2A","black","woman","","","","null","","","","","","","","",""
"null","<img src=""stim_listA/look1.gif""style=""height:400px;""></stim_listA>","","html-keyboard-response","281","1376493","0.0-17.0-1.8","24970","List2A","black","woman","","","","null","","","","","","","","",""
"null","is looking at","","html-keyboard-response","282","1378509","0.0-17.0-2.8","24970","List2A","black","woman","","","","null","","","","","","","","",""
"9878.100000023842","","","survey-text","283","1388389","0.0-17.0-3.8","24970","List2A","black","woman","","","","","{""Q0"":""ruth is looking at luke""}","<img src=""stim_listA/look1.gif""style=""height:400px;""></stim_listA>","is looking at","","","","","",""
"null","<div style=""font-size:60px;"">+</div>","","html-keyboard-response","284","1388893","0.0-17.0-0.9","24970","List2A","black","woman","","","","null","","","","","","","","",""
"null","<img src=""stim_listA/oppose6.gif""style=""height:400px;""></stim_listA>","","html-keyboard-response","285","1390897","0.0-17.0-1.9","24970","List2A","black","woman","","","","null","","","","","","","","",""
"null","is being opposed by","","html-keyboard-response","286","1392912","0.0-17.0-2.9","24970","List2A","black","woman","","","","null","","","","","","","","",""
"12704.200000047684","","","survey-text","287","1405618","0.0-17.0-3.9","24970","List2A","black","woman","","","","","{""Q0"":""fred is being opposed by luke""}","<img src=""stim_listA/oppose6.gif""style=""height:400px;""></stim_listA>","is being opposed by","","","","","",""
"null","<div style=""font-size:60px;"">+</div>","","html-keyboard-response","288","1406129","0.0-17.0-0.10","24970","List2A","black","woman","","","","null","","","","","","","","",""
"null","<img src=""stim_listA/look6.gif""style=""height:400px;""></stim_listA>","","html-keyboard-response","289","1408144","0.0-17.0-1.10","24970","List2A","black","woman","","","","null","","","","","","","","",""
"null","is being looked at by","","html-keyboard-response","290","1410148","0.0-17.0-2.10","24970","List2A","black","woman","","","","null","","","","","","","","",""
"19797.299999952316","","","survey-text","291","1429947","0.0-17.0-3.10","24970","List2A","black","woman","","","","","{""Q0"":""dave is being looked at by mike""}","<img src=""stim_listA/look6.gif""style=""height:400px;""></stim_listA>","is being looked at by","","","","","",""
"null","<div style=""font-size:60px;"">+</div>","","html-keyboard-response","292","1430453","0.0-17.0-0.11","24970","List2A","black","woman","","","","null","","","","","","","","",""
"null","<img src=""stim_listA/oppose1.gif""style=""height:400px;""></stim_listA>","","html-keyboard-response","293","1432455","0.0-17.0-1.11","24970","List2A","black","woman","","","","null","","","","","","","","",""
"null","is opposing","","html-keyboard-response","294","1434457","0.0-17.0-2.11","24970","List2A","black","woman","","","","null","","","","","","","","",""
"11472.5","","","survey-text","295","1445931","0.0-17.0-3.11","24970","List2A","black","woman","","","","","{""Q0"":""jane is opposing dave""}","<img src=""stim_listA/oppose1.gif""style=""height:400px;""></stim_listA>","is opposing","","","","","",""
"null","<div style=""font-size:60px;"">+</div>","","html-keyboard-response","296","1446437","0.0-17.0-0.12","24970","List2A","black","woman","","","","null","","","","","","","","",""
"null","<img src=""stim_listA/challenge6.gif""style=""height:400px;""></stim_listA>","","html-keyboard-response","297","1448445","0.0-17.0-1.12","24970","List2A","black","woman","","","","null","","","","","","","","",""
"null","is being challenged by","","html-keyboard-response","298","1450447","0.0-17.0-2.12","24970","List2A","black","woman","","","","null","","","","","","","","",""
"14421","","","survey-text","299","1464870","0.0-17.0-3.12","24970","List2A","black","woman","","","","","{""Q0"":""luke is being challenged by mike""}","<img src=""stim_listA/challenge6.gif""style=""height:400px;""></stim_listA>","is being challenged by","","","","","",""
"null","<div style=""font-size:60px;"">+</div>","","html-keyboard-response","300","1465376","0.0-17.0-0.13","24970","List2A","black","woman","","","","null","","","","","","","","",""
"null","<img src=""stim_listA/shout1.gif""style=""height:400px;""></stim_listA>","","html-keyboard-response","301","1467392","0.0-17.0-1.13","24970","List2A","black","woman","","","","null","","","","","","","","",""
"null","is shouting at","","html-keyboard-response","302","1469398","0.0-17.0-2.13","24970","List2A","black","woman","","","","null","","","","","","","","",""
"10853.199999928474","","","survey-text","303","1480253","0.0-17.0-3.13","24970","List2A","black","woman","","","","","{""Q0"":""ruth is shouting at luke""}","<img src=""stim_listA/shout1.gif""style=""height:400px;""></stim_listA>","is shouting at","","","","","",""
"null","<div style=""font-size:60px;"">+</div>","","html-keyboard-response","304","1480761","0.0-17.0-0.14","24970","List2A","black","woman","","","","null","","","","","","","","",""
"null","<img src=""stim_listA/touch5.gif""style=""height:400px;""></stim_listA>","","html-keyboard-response","305","1482776","0.0-17.0-1.14","24970","List2A","black","woman","","","","null","","","","","","","","",""
"null","is touching","","html-keyboard-response","306","1484791","0.0-17.0-2.14","24970","List2A","black","woman","","","","null","","","","","","","","",""
"9372.199999928474","","","survey-text","307","1494165","0.0-17.0-3.14","24970","List2A","black","woman","","","","","{""Q0"":""dave is touching mike""}","<img src=""stim_listA/touch5.gif""style=""height:400px;""></stim_listA>","is touching","","","","","",""
"null","<div style=""font-size:60px;"">+</div>","","html-keyboard-response","308","1494674","0.0-17.0-0.15","24970","List2A","black","woman","","","","null","","","","","","","","",""
"null","<img src=""stim_listA/challenge5.gif""style=""height:400px;""></stim_listA>","","html-keyboard-response","309","1496678","0.0-17.0-1.15","24970","List2A","black","woman","","","","null","","","","","","","","",""
"null","is challenging","","html-keyboard-response","310","1498680","0.0-17.0-2.15","24970","List2A","black","woman","","","","null","","","","","","","","",""
"16563.100000023842","","","survey-text","311","1515246","0.0-17.0-3.15","24970","List2A","black","woman","","","","","{""Q0"":""fred is challenging mike""}","<img src=""stim_listA/challenge5.gif""style=""height:400px;""></stim_listA>","is challenging","","","","","",""
"null","<div style=""font-size:60px;"">+</div>","","html-keyboard-response","312","1515756","0.0-17.0-0.16","24970","List2A","black","woman","","","","null","","","","","","","","",""
"null","<img src=""stim_listA/touch1.gif""style=""height:400px;""></stim_listA>","","html-keyboard-response","313","1517763","0.0-17.0-1.16","24970","List2A","black","woman","","","","null","","","","","","","","",""
"null","is touching","","html-keyboard-response","314","1519769","0.0-17.0-2.16","24970","List2A","black","woman","","","","null","","","","","","","","",""
"8289.100000023842","","","survey-text","315","1528060","0.0-17.0-3.16","24970","List2A","black","woman","","","","","{""Q0"":""jane is touching dave""}","<img src=""stim_listA/touch1.gif""style=""height:400px;""></stim_listA>","is touching","","","","","",""
"null","<div style=""font-size:60px;"">+</div>","","html-keyboard-response","316","1528573","0.0-17.0-0.17","24970","List2A","black","woman","","","","null","","","","","","","","",""
"null","<img src=""stim_listA/oppose5.gif""style=""height:400px;""></stim_listA>","","html-keyboard-response","317","1530588","0.0-17.0-1.17","24970","List2A","black","woman","","","","null","","","","","","","","",""
"null","is opposing","","html-keyboard-response","318","1532589","0.0-17.0-2.17","24970","List2A","black","woman","","","","null","","","","","","","","",""
"8984.899999976158","","","survey-text","319","1541576","0.0-17.0-3.17","24970","List2A","black","woman","","","","","{""Q0"":""dave is opposing mike""}","<img src=""stim_listA/oppose5.gif""style=""height:400px;""></stim_listA>","is opposing","","","","","",""
"null","<div style=""font-size:60px;"">+</div>","","html-keyboard-response","320","1542086","0.0-17.0-0.18","24970","List2A","black","woman","","","","null","","","","","","","","",""
"null","<img src=""stim_listA/shout3.gif""style=""height:400px;""></stim_listA>","","html-keyboard-response","321","1544093","0.0-17.0-1.18","24970","List2A","black","woman","","","","null","","","","","","","","",""
"null","is shouting at","","html-keyboard-response","322","1546094","0.0-17.0-2.18","24970","List2A","black","woman","","","","null","","","","","","","","",""
"9876","","","survey-text","323","1555972","0.0-17.0-3.18","24970","List2A","black","woman","","","","","{""Q0"":""beth is shouting at fred""}","<img src=""stim_listA/shout3.gif""style=""height:400px;""></stim_listA>","is shouting at","","","","","",""
"null","<div style=""font-size:60px;"">+</div>","","html-keyboard-response","324","1556480","0.0-17.0-0.19","24970","List2A","black","woman","","","","null","","","","","","","","",""
"null","<img src=""stim_listA/challenge3.gif""style=""height:400px;""></stim_listA>","","html-keyboard-response","325","1558486","0.0-17.0-1.19","24970","List2A","black","woman","","","","null","","","","","","","","",""
"null","is challenging","","html-keyboard-response","326","1560490","0.0-17.0-2.19","24970","List2A","black","woman","","","","null","","","","","","","","",""
"13176.5","","","survey-text","327","1573669","0.0-17.0-3.19","24970","List2A","black","woman","","","","","{""Q0"":""beth is challenging mike""}","<img src=""stim_listA/challenge3.gif""style=""height:400px;""></stim_listA>","is challenging","","","","","",""
"6216","<img src='img/portrait_matrix_list2.jpg' style='width:900px;height:500px;''></img><p>If you have memorised all the portraits and names and are ready to start, press Continue.</p><p><strong>Please note: Your memory of these faces will be tested 4 times during this experiment.</strong></p>","0","html-button-response","328","1579886","0.0-18.0-0.0","24970","List2A","black","woman","","","","","","","","","","","","",""
"2000.6000000238419","<img src=""portrait/WW1.jpg""style=""height:400px;""></img>","1","html-button-response","329","1582893","0.0-18.0-1.0","24970","List2A","black","woman","","true","1","","","","","","","","","",""
"null","CORRECT","","html-keyboard-response","330","1584413","0.0-18.0-2.0-0.0","24970","List2A","black","woman","","","","null","","","","","","","","",""
"2942.5","<img src=""portrait/WM1.jpg""style=""height:400px;""></img>","6","html-button-response","331","1587357","0.0-18.0-4.0","24970","List2A","black","woman","","true","6","","","","","","","","","",""
"null","CORRECT","","html-keyboard-response","332","1588863","0.0-18.0-5.0-0.0","24970","List2A","black","woman","","","","null","","","","","","","","",""
"2144.5","<img src=""portrait/BM2.jpg""style=""height:400px;""></img>","5","html-button-response","333","1591009","0.0-18.0-7.0","24970","List2A","black","woman","","true","5","","","","","","","","","",""
"null","CORRECT","","html-keyboard-response","334","1592524","0.0-18.0-8.0-0.0","24970","List2A","black","woman","","","","null","","","","","","","","",""
"2110.8000000715256","<img src=""portrait/WM2.jpg""style=""height:400px;""></img>","7","html-button-response","335","1594636","0.0-18.0-10.0","24970","List2A","black","woman","","true","7","","","","","","","","","",""
"null","CORRECT","","html-keyboard-response","336","1596154","0.0-18.0-11.0-0.0","24970","List2A","black","woman","","","","null","","","","","","","","",""
"2899.7999999523163","<img src=""portrait/BW2.jpg""style=""height:400px;""></img>","2","html-button-response","337","1599055","0.0-18.0-13.0","24970","List2A","black","woman","","true","2","","","","","","","","","",""
"null","CORRECT","","html-keyboard-response","338","1600574","0.0-18.0-14.0-0.0","24970","List2A","black","woman","","","","null","","","","","","","","",""
"2441.899999976158","<img src=""portrait/BM1.jpg""style=""height:400px;""></img>","4","html-button-response","339","1603017","0.0-18.0-16.0","24970","List2A","black","woman","","true","4","","","","","","","","","",""
"null","CORRECT","","html-keyboard-response","340","1604539","0.0-18.0-17.0-0.0","24970","List2A","black","woman","","","","null","","","","","","","","",""
"1507.5","<img src=""portrait/BW1.jpg""style=""height:400px;""></img>","0","html-button-response","341","1606048","0.0-18.0-19.0","24970","List2A","black","woman","","true","0","","","","","","","","","",""
"null","CORRECT","","html-keyboard-response","342","1607563","0.0-18.0-20.0-0.0","24970","List2A","black","woman","","","","null","","","","","","","","",""
"1969.1999999284744","<img src=""portrait/WW2.jpg""style=""height:400px;""></img>","3","html-button-response","343","1609535","0.0-18.0-22.0","24970","List2A","black","woman","","true","3","","","","","","","","","",""
"null","CORRECT","","html-keyboard-response","344","1611042","0.0-18.0-23.0-0.0","24970","List2A","black","woman","","","","null","","","","","","","","",""
"1629","<p>You got 8 out of 8 right first time. Press Continue.</p>","0","html-button-response","345","1612673","0.0-18.0-25.0","24970","List2A","black","woman","","","","","","","","","","","","",""
"null","<div style=""font-size:60px;"">+</div>","","html-keyboard-response","346","1614186","0.0-19.0-0.0","24970","List2A","black","woman","","","","null","","","","","","","","",""
"null","<img src=""stim_listA/copy4.gif""style=""height:400px;""></stim_listA>","","html-keyboard-response","347","1616189","0.0-19.0-1.0","24970","List2A","black","woman","","","","null","","","","","","","","",""
"null","is being copied by","","html-keyboard-response","348","1618198","0.0-19.0-2.0","24970","List2A","black","woman","","","","null","","","","","","","","",""
"10376.599999904633","","","survey-text","349","1628577","0.0-19.0-3.0","24970","List2A","black","woman","","","","","{""Q0"":""kate is being copied by fred""}","<img src=""stim_listA/copy4.gif""style=""height:400px;""></stim_listA>","is being copied by","","","","","",""
"null","<div style=""font-size:60px;"">+</div>","","html-keyboard-response","350","1629087","0.0-19.0-0.1","24970","List2A","black","woman","","","","null","","","","","","","","",""
"null","<img src=""stim_listA/copy1.gif""style=""height:400px;""></stim_listA>","","html-keyboard-response","351","1631089","0.0-19.0-1.1","24970","List2A","black","woman","","","","null","","","","","","","","",""
"null","is copying","","html-keyboard-response","352","1633102","0.0-19.0-2.1","24970","List2A","black","woman","","","","null","","","","","","","","",""
"7344.5","","","survey-text","353","1640449","0.0-19.0-3.1","24970","List2A","black","woman","","","","","{""Q0"":""ruth is coping dave""}","<img src=""stim_listA/copy1.gif""style=""height:400px;""></stim_listA>","is copying","","","","","",""
"null","<div style=""font-size:60px;"">+</div>","","html-keyboard-response","354","1640950","0.0-19.0-0.2","24970","List2A","black","woman","","","","null","","","","","","","","",""
"null","<img src=""stim_listA/seduce8.gif""style=""height:400px;""></stim_listA>","","html-keyboard-response","355","1642956","0.0-19.0-1.2","24970","List2A","black","woman","","","","null","","","","","","","","",""
"null","is being seduced by","","html-keyboard-response","356","1644957","0.0-19.0-2.2","24970","List2A","black","woman","","","","null","","","","","","","","",""
"12119.299999952316","","","survey-text","357","1657078","0.0-19.0-3.2","24970","List2A","black","woman","","","","","{""Q0"":""jane is being seduced by beth""}","<img src=""stim_listA/seduce8.gif""style=""height:400px;""></stim_listA>","is being seduced by","","","","","",""
"null","<div style=""font-size:60px;"">+</div>","","html-keyboard-response","358","1657593","0.0-19.0-0.3","24970","List2A","black","woman","","","","null","","","","","","","","",""
"null","<img src=""stim_listA/kiss4.gif""style=""height:400px;""></stim_listA>","","html-keyboard-response","359","1659609","0.0-19.0-1.3","24970","List2A","black","woman","","","","null","","","","","","","","",""
"null","is being kissed by","","html-keyboard-response","360","1661625","0.0-19.0-2.3","24970","List2A","black","woman","","","","null","","","","","","","","",""
"14867.399999976158","","","survey-text","361","1676495","0.0-19.0-3.3","24970","List2A","black","woman","","","","","{""Q0"":""kate is being kissed by mike""}","<img src=""stim_listA/kiss4.gif""style=""height:400px;""></stim_listA>","is being kissed by","","","","","",""
"null","<div style=""font-size:60px;"">+</div>","","html-keyboard-response","362","1677005","0.0-19.0-0.4","24970","List2A","black","woman","","","","null","","","","","","","","",""
"null","<img src=""stim_listA/copy8.gif""style=""height:400px;""></stim_listA>","","html-keyboard-response","363","1679012","0.0-19.0-1.4","24970","List2A","black","woman","","","","null","","","","","","","","",""
"null","is being copied by","","html-keyboard-response","364","1681015","0.0-19.0-2.4","24970","List2A","black","woman","","","","null","","","","","","","","",""
"9687.899999976158","","","survey-text","365","1690705","0.0-19.0-3.4","24970","List2A","black","woman","","","","","{""Q0"":""kate is being copied by ruth""}","<img src=""stim_listA/copy8.gif""style=""height:400px;""></stim_listA>","is being copied by","","","","","",""
"null","<div style=""font-size:60px;"">+</div>","","html-keyboard-response","366","1691214","0.0-19.0-0.5","24970","List2A","black","woman","","","","null","","","","","","","","",""
"null","<img src=""stim_listA/shout6.gif""style=""height:400px;""></stim_listA>","","html-keyboard-response","367","1693219","0.0-19.0-1.5","24970","List2A","black","woman","","","","null","","","","","","","","",""
"null","is being shouted at by","","html-keyboard-response","368","1695221","0.0-19.0-2.5","24970","List2A","black","woman","","","","null","","","","","","","","",""
"11613.399999976158","","","survey-text","369","1706836","0.0-19.0-3.5","24970","List2A","black","woman","","","","","{""Q0"":""mike is being shouted at by dave""}","<img src=""stim_listA/shout6.gif""style=""height:400px;""></stim_listA>","is being shouted at by","","","","","",""
"null","<div style=""font-size:60px;"">+</div>","","html-keyboard-response","370","1707342","0.0-19.0-0.6","24970","List2A","black","woman","","","","null","","","","","","","","",""
"null","<img src=""stim_listA/kiss8.gif""style=""height:400px;""></stim_listA>","","html-keyboard-response","371","1709344","0.0-19.0-1.6","24970","List2A","black","woman","","","","null","","","","","","","","",""
"null","is being kissed by","","html-keyboard-response","372","1711354","0.0-19.0-2.6","24970","List2A","black","woman","","","","null","","","","","","","","",""
"18064.899999976158","","","survey-text","373","1729421","0.0-19.0-3.6","24970","List2A","black","woman","","","","","{""Q0"":""kate is being kissed by jane""}","<img src=""stim_listA/kiss8.gif""style=""height:400px;""></stim_listA>","is being kissed by","","","","","",""
"null","<div style=""font-size:60px;"">+</div>","","html-keyboard-response","374","1729931","0.0-19.0-0.7","24970","List2A","black","woman","","","","null","","","","","","","","",""
"null","<img src=""stim_listA/oppose7.gif""style=""height:400px;""></stim_listA>","","html-keyboard-response","375","1731933","0.0-19.0-1.7","24970","List2A","black","woman","","","","null","","","","","","","","",""
"null","is opposing","","html-keyboard-response","376","1733937","0.0-19.0-2.7","24970","List2A","black","woman","","","","null","","","","","","","","",""
"7112.799999952316","","","survey-text","377","1741051","0.0-19.0-3.7","24970","List2A","black","woman","","","","","{""Q0"":""jane is opposing kate""}","<img src=""stim_listA/oppose7.gif""style=""height:400px;""></stim_listA>","is opposing","","","","","",""
"null","<div style=""font-size:60px;"">+</div>","","html-keyboard-response","378","1741562","0.0-19.0-0.8","24970","List2A","black","woman","","","","null","","","","","","","","",""
"null","<img src=""stim_listA/oppose2.gif""style=""height:400px;""></stim_listA>","","html-keyboard-response","379","1743573","0.0-19.0-1.8","24970","List2A","black","woman","","","","null","","","","","","","","",""
"null","is being opposed by","","html-keyboard-response","380","1745580","0.0-19.0-2.8","24970","List2A","black","woman","","","","null","","","","","","","","",""
"10390.100000023842","","","survey-text","381","1755972","0.0-19.0-3.8","24970","List2A","black","woman","","","","","{""Q0"":""ruth is being opposed by luke""}","<img src=""stim_listA/oppose2.gif""style=""height:400px;""></stim_listA>","is being opposed by","","","","","",""
"null","<div style=""font-size:60px;"">+</div>","","html-keyboard-response","382","1756483","0.0-19.0-0.9","24970","List2A","black","woman","","","","null","","","","","","","","",""
"null","<img src=""stim_listA/greet8.gif""style=""height:400px;""></stim_listA>","","html-keyboard-response","383","1758490","0.0-19.0-1.9","24970","List2A","black","woman","","","","null","","","","","","","","",""
"null","is being greeted by","","html-keyboard-response","384","1760494","0.0-19.0-2.9","24970","List2A","black","woman","","","","null","","","","","","","","",""
"10140.100000023842","","","survey-text","385","1770636","0.0-19.0-3.9","24970","List2A","black","woman","","","","","{""Q0"":""ruth is being greeted by kate""}","<img src=""stim_listA/greet8.gif""style=""height:400px;""></stim_listA>","is being greeted by","","","","","",""
"null","<div style=""font-size:60px;"">+</div>","","html-keyboard-response","386","1771147","0.0-19.0-0.10","24970","List2A","black","woman","","","","null","","","","","","","","",""
"null","<img src=""stim_listA/hug8.gif""style=""height:400px;""></stim_listA>","","html-keyboard-response","387","1773149","0.0-19.0-1.10","24970","List2A","black","woman","","","","null","","","","","","","","",""
"null","is being hugged by","","html-keyboard-response","388","1775160","0.0-19.0-2.10","24970","List2A","black","woman","","","","null","","","","","","","","",""
"9319.299999952316","","","survey-text","389","1784481","0.0-19.0-3.10","24970","List2A","black","woman","","","","","{""Q0"":""jane is being hugged by kate""}","<img src=""stim_listA/hug8.gif""style=""height:400px;""></stim_listA>","is being hugged by","","","","","",""
"null","<div style=""font-size:60px;"">+</div>","","html-keyboard-response","390","1784992","0.0-19.0-0.11","24970","List2A","black","woman","","","","null","","","","","","","","",""
"null","<img src=""stim_listA/challenge1.gif""style=""height:400px;""></stim_listA>","","html-keyboard-response","391","1786994","0.0-19.0-1.11","24970","List2A","black","woman","","","","null","","","","","","","","",""
"null","is challenging","","html-keyboard-response","392","1789006","0.0-19.0-2.11","24970","List2A","black","woman","","","","null","","","","","","","","",""
"11068","","","survey-text","393","1800076","0.0-19.0-3.11","24970","List2A","black","woman","","","","","{""Q0"":""ruth is challenging dave""}","<img src=""stim_listA/challenge1.gif""style=""height:400px;""></stim_listA>","is challenging","","","","","",""
"null","<div style=""font-size:60px;"">+</div>","","html-keyboard-response","394","1800583","0.0-19.0-0.12","24970","List2A","black","woman","","","","null","","","","","","","","",""
"null","<img src=""stim_listA/oppose4.gif""style=""height:400px;""></stim_listA>","","html-keyboard-response","395","1802599","0.0-19.0-1.12","24970","List2A","black","woman","","","","null","","","","","","","","",""
"null","is being opposed by","","html-keyboard-response","396","1804601","0.0-19.0-2.12","24970","List2A","black","woman","","","","null","","","","","","","","",""
"15404.200000047684","","","survey-text","397","1820007","0.0-19.0-3.12","24970","List2A","black","woman","","","","","{""Q0"":""beth is being opposed by dave""}","<img src=""stim_listA/oppose4.gif""style=""height:400px;""></stim_listA>","is being opposed by","","","","","",""
"null","<div style=""font-size:60px;"">+</div>","","html-keyboard-response","398","1820511","0.0-19.0-0.13","24970","List2A","black","woman","","","","null","","","","","","","","",""
"null","<img src=""stim_listA/greet3.gif""style=""height:400px;""></stim_listA>","","html-keyboard-response","399","1822517","0.0-19.0-1.13","24970","List2A","black","woman","","","","null","","","","","","","","",""
"null","is greeting","","html-keyboard-response","400","1824529","0.0-19.0-2.13","24970","List2A","black","woman","","","","null","","","","","","","","",""
"9306.299999952316","","","survey-text","401","1833838","0.0-19.0-3.13","24970","List2A","black","woman","","","","","{""Q0"":""beth is greeting mike""}","<img src=""stim_listA/greet3.gif""style=""height:400px;""></stim_listA>","is greeting","","","","","",""
"null","<div style=""font-size:60px;"">+</div>","","html-keyboard-response","402","1834349","0.0-19.0-0.14","24970","List2A","black","woman","","","","null","","","","","","","","",""
"null","<img src=""stim_listA/kiss2.gif""style=""height:400px;""></stim_listA>","","html-keyboard-response","403","1836352","0.0-19.0-1.14","24970","List2A","black","woman","","","","null","","","","","","","","",""
"null","is being kissed by","","html-keyboard-response","404","1838353","0.0-19.0-2.14","24970","List2A","black","woman","","","","null","","","","","","","","",""
"10364.399999976158","","","survey-text","405","1848720","0.0-19.0-3.14","24970","List2A","black","woman","","","","","{""Q0"":""jane is being kissed by dave""}","<img src=""stim_listA/kiss2.gif""style=""height:400px;""></stim_listA>","is being kissed by","","","","","",""
"null","<div style=""font-size:60px;"">+</div>","","html-keyboard-response","406","1849226","0.0-19.0-0.15","24970","List2A","black","woman","","","","null","","","","","","","","",""
"null","<img src=""stim_listA/copy5.gif""style=""height:400px;""></stim_listA>","","html-keyboard-response","407","1851228","0.0-19.0-1.15","24970","List2A","black","woman","","","","null","","","","","","","","",""
"null","is copying","","html-keyboard-response","408","1853229","0.0-19.0-2.15","24970","List2A","black","woman","","","","null","","","","","","","","",""
"6433.600000023842","","","survey-text","409","1859665","0.0-19.0-3.15","24970","List2A","black","woman","","","","","{""Q0"":""dave is copying fred""}","<img src=""stim_listA/copy5.gif""style=""height:400px;""></stim_listA>","is copying","","","","","",""
"null","<div style=""font-size:60px;"">+</div>","","html-keyboard-response","410","1860176","0.0-19.0-0.16","24970","List2A","black","woman","","","","null","","","","","","","","",""
"null","<img src=""stim_listA/copy6.gif""style=""height:400px;""></stim_listA>","","html-keyboard-response","411","1862178","0.0-19.0-1.16","24970","List2A","black","woman","","","","null","","","","","","","","",""
"null","is being copied by","","html-keyboard-response","412","1864185","0.0-19.0-2.16","24970","List2A","black","woman","","","","null","","","","","","","","",""
"21781.5","","","survey-text","413","1885969","0.0-19.0-3.16","24970","List2A","black","woman","","","","","{""Q0"":""mike is being copied by luke""}","<img src=""stim_listA/copy6.gif""style=""height:400px;""></stim_listA>","is being copied by","","","","","",""
"null","<div style=""font-size:60px;"">+</div>","","html-keyboard-response","414","1886477","0.0-19.0-0.17","24970","List2A","black","woman","","","","null","","","","","","","","",""
"null","<img src=""stim_listA/greet1.gif""style=""height:400px;""></stim_listA>","","html-keyboard-response","415","1888494","0.0-19.0-1.17","24970","List2A","black","woman","","","","null","","","","","","","","",""
"null","is greeting","","html-keyboard-response","416","1890508","0.0-19.0-2.17","24970","List2A","black","woman","","","","null","","","","","","","","",""
"6640.600000023842","","","survey-text","417","1897151","0.0-19.0-3.17","24970","List2A","black","woman","","","","","{""Q0"":""ruth is greeting dave""}","<img src=""stim_listA/greet1.gif""style=""height:400px;""></stim_listA>","is greeting","","","","","",""
"null","<div style=""font-size:60px;"">+</div>","","html-keyboard-response","418","1897664","0.0-19.0-0.18","24970","List2A","black","woman","","","","null","","","","","","","","",""
"null","<img src=""stim_listA/seduce2.gif""style=""height:400px;""></stim_listA>","","html-keyboard-response","419","1899672","0.0-19.0-1.18","24970","List2A","black","woman","","","","null","","","","","","","","",""
"null","is being seduced by","","html-keyboard-response","420","1901675","0.0-19.0-2.18","24970","List2A","black","woman","","","","null","","","","","","","","",""
"14283.5","","","survey-text","421","1915960","0.0-19.0-3.18","24970","List2A","black","woman","","","","","{""Q0"":""ruth is being seduced by dave""}","<img src=""stim_listA/seduce2.gif""style=""height:400px;""></stim_listA>","is being seduced by","","","","","",""
"null","<div style=""font-size:60px;"">+</div>","","html-keyboard-response","422","1916470","0.0-19.0-0.19","24970","List2A","black","woman","","","","null","","","","","","","","",""
"null","<img src=""stim_listA/look3.gif""style=""height:400px;""></stim_listA>","","html-keyboard-response","423","1918486","0.0-19.0-1.19","24970","List2A","black","woman","","","","null","","","","","","","","",""
"null","is looking at","","html-keyboard-response","424","1920492","0.0-19.0-2.19","24970","List2A","black","woman","","","","null","","","","","","","","",""
"10443.600000023842","","","survey-text","425","1930937","0.0-19.0-3.19","24970","List2A","black","woman","","","","","{""Q0"":""beth is looking at fred""}","<img src=""stim_listA/look3.gif""style=""height:400px;""></stim_listA>","is looking at","","","","","",""
"2579.7000000476837","<p>Thank you for completing that task.</p><p>The final part of this session is a questionnaire that will take about 4 minutes.</p><p>Press Continue.</p>","0","html-button-response","426","1933518","0.0-20.0","24970","List2A","black","woman","","","","","","","","","","","","",""
"41617.90000009537","","","survey-text","427","1976146","0.0-21.0","24970","List2A","black","woman","","","","","{""Q0"":""20"",""Q1"":""English"",""Q2"":""English"",""Q3"":""United States"",""Q4"":""American "",""Q5"":""Black"",""Q6"":""Female ""}","","","demographics","","","","",""
"1578.7999999523163","<p>Have you lived in the USA for the last 5 years or more?</p>","0","html-button-response","428","1977727","0.0-22.0","24970","List2A","black","woman","","","","","","","","fiveyears","","","","",""
"1936.1000000238419","<p>Move the slider to show the extent to which you agree with the following statements.</p>","0","html-button-response","429","1980674","0.0-23.0","24970","List2A","black","woman","","","","","","","","","","","","",""
"5455.5","","","html-slider-response","430","1987133","0.0-24.0-0.0-0.0","24970","List2A","black","woman","","","","","","","","survey_race","61","","","People of my race have a lot in common with each other.","common"
"3773.399999976158","","","html-slider-response","431","1990909","0.0-24.0-0.0-0.1","24970","List2A","black","woman","","","","","","","","survey_race","67","","","Being my race gives me a good feeling.","feeling"
"6956.899999976158","","","html-slider-response","432","1997868","0.0-24.0-0.0-0.2","24970","List2A","black","woman","","","","","","","","survey_race","50","","","I feel committed to my race.","committed"
"3072.4000000953674","","","html-slider-response","433","2000941","0.0-24.0-0.0-0.3","24970","List2A","black","woman","","","","","","","","survey_race","63","","","I feel a bond with people the same age as me.","filler"
"3232.0999999046326","","","html-slider-response","434","2004174","0.0-24.0-0.0-0.4","24970","List2A","black","woman","","","","","","","","survey_race","66","","","I consider myself an introvert.","filler"
"3223.6999999284744","","","html-slider-response","435","2007399","0.0-24.0-0.0-0.5","24970","List2A","black","woman","","","","","","","","survey_race","46","","","I have a lot in common with people of a similar age to me.","filler"
"4096.5","","","html-slider-response","436","2011498","0.0-24.0-0.0-0.6","24970","List2A","black","woman","","","","","","","","survey_race","51","","","I feel a bond with my race.","bond"
"2969.399999976158","","","html-slider-response","437","2014468","0.0-24.0-0.0-0.7","24970","List2A","black","woman","","","","","","","","survey_race","46","","","People of my race are very similar to each other.","verysimilar"
"3157.600000023842","","","html-slider-response","438","2017627","0.0-24.0-0.0-0.8","24970","List2A","black","woman","","","","","","","","survey_race","72","","","I often think about the fact that I am my age.","filler"
"2930.600000023842","","","html-slider-response","439","2020558","0.0-24.0-0.0-0.9","24970","List2A","black","woman","","","","","","","","survey_race","40","","","The older I get, the wiser I feel.","filler"
"5505.700000047684","","","html-slider-response","440","2026065","0.0-24.0-0.0-0.10","24970","List2A","black","woman","","","","","","","","survey_race","27","","","I enjoy being in large groups.","filler"
"2491.2000000476837","","","html-slider-response","441","2028557","0.0-24.0-0.0-0.11","24970","List2A","black","woman","","","","","","","","survey_race","54","","","I feel solidarity with my race.","solidarity"
"2842.7000000476837","","","html-slider-response","442","2031401","0.0-24.0-0.0-0.12","24970","List2A","black","woman","","","","","","","","survey_race","33","","","Being my race is an important part of how I see myself.","important"
"2980.5","","","html-slider-response","443","2034382","0.0-24.0-0.0-0.13","24970","List2A","black","woman","","","","","","","","survey_race","69","","","My age is not an important part of who I am.","filler"
"2752.6999999284744","","","html-slider-response","444","2037137","0.0-24.0-0.0-0.14","24970","List2A","black","woman","","","","","","","","survey_race","24","","","I consider myself an extrovert.","filler"
"3433.399999976158","","","html-slider-response","445","2040571","0.0-24.0-0.0-0.15","24970","List2A","black","woman","","","","","","","","survey_race","55","","","I am similar to the average person of my race.","similar"
"5664.199999928474","","","html-slider-response","446","2046237","0.0-24.0-0.0-0.16","24970","List2A","black","woman","","","","","","","","survey_race","49","","","It is pleasant to be my race.","pleasant"
"2605.7999999523163","","","html-slider-response","447","2048844","0.0-24.0-0.0-0.17","24970","List2A","black","woman","","","","","","","","survey_race","56","","","People my age have a lot in common with each other.","filler"
"3012","","","html-slider-response","448","2051857","0.0-24.0-0.0-0.18","24970","List2A","black","woman","","","","","","","","survey_race","57","","","I think that my race has a lot to be proud of.","proud"
"3447.7999999523163","","","html-slider-response","449","2055306","0.0-24.0-0.0-0.19","24970","List2A","black","woman","","","","","","","","survey_race","58","","","Being my age gives me a good feeling.","filler"
"2146.7000000476837","","","html-slider-response","450","2057453","0.0-24.0-0.0-0.20","24970","List2A","black","woman","","","","","","","","survey_race","56","","","I am glad to be my age.","filler"
"2099.0999999046326","","","html-slider-response","451","2059553","0.0-24.0-0.0-0.21","24970","List2A","black","woman","","","","","","","","survey_race","60","","","I am glad to be the age I am.","filler"
"2484.6999999284744","","","html-slider-response","452","2062039","0.0-24.0-0.0-0.22","24970","List2A","black","woman","","","","","","","","survey_race","65","","","I often think about the fact that I am my race.","often"
"4105.799999952316","","","html-slider-response","453","2066145","0.0-24.0-0.0-0.23","24970","List2A","black","woman","","","","","","","","survey_race","27","","","Getting older does not worry me.","filler"
"2832.100000023842","","","html-slider-response","454","2068978","0.0-24.0-0.0-0.24","24970","List2A","black","woman","","","","","","","","survey_race","57","","","I feel solidarity with people the same age as me.","filler"
"2411.7000000476837","","","html-slider-response","455","2071391","0.0-24.0-0.0-0.25","24970","List2A","black","woman","","","","","","","","survey_race","55","","","I am glad to be my race.","glad"
"3012","","","html-slider-response","456","2074404","0.0-24.0-0.0-0.26","24970","List2A","black","woman","","","","","","","","survey_race","58","","","I have a lot in common with the average person of my race.","average"
"3598.9000000953674","","","html-slider-response","457","2078004","0.0-24.0-0.0-0.27","24970","List2A","black","woman","","","","","","","","survey_race","54","","","The fact that I am my race is an important part of my identity.","identity"
"2575.899999976158","","","html-slider-response","458","2080581","0.0-24.0-1.0-0.0","24970","List2A","black","woman","","","","","","","","survey_gender","86","","","I feel solidarity with my friends.","filler"
"3427.399999976158","","","html-slider-response","459","2084010","0.0-24.0-1.0-0.1","24970","List2A","black","woman","","","","","","","","survey_gender","28","","","It is not always easy for people to know what I am thinking.","filler"
"4682.800000071526","","","html-slider-response","460","2088693","0.0-24.0-1.0-0.2","24970","List2A","black","woman","","","","","","","","survey_gender","50","","","Being my gender gives me a good feeling.","feeling"
"2246.8000000715256","","","html-slider-response","461","2090941","0.0-24.0-1.0-0.3","24970","List2A","black","woman","","","","","","","","survey_gender","42","","","I feel committed to my gender.","committed"
"2372.3000000715256","","","html-slider-response","462","2093315","0.0-24.0-1.0-0.4","24970","List2A","black","woman","","","","","","","","survey_gender","60","","","I am similar to the average person of my gender.","similar"
"3824.5999999046326","","","html-slider-response","463","2097140","0.0-24.0-1.0-0.5","24970","List2A","black","woman","","","","","","","","survey_gender","49","","","I think that my gender has a lot to be proud of.","proud"
"2349.5","","","html-slider-response","464","2099491","0.0-24.0-1.0-0.6","24970","List2A","black","woman","","","","","","","","survey_gender","76","","","I often think about my actions.","filler"
"2535.6999999284744","","","html-slider-response","465","2102027","0.0-24.0-1.0-0.7","24970","List2A","black","woman","","","","","","","","survey_gender","87","","","My friends have a lot in common with each other.","filler"
"2130.5999999046326","","","html-slider-response","466","2104159","0.0-24.0-1.0-0.8","24970","List2A","black","woman","","","","","","","","survey_gender","77","","","I have a lot in common with my friends.","filler"
"1812.3000000715256","","","html-slider-response","467","2105973","0.0-24.0-1.0-0.9","24970","List2A","black","woman","","","","","","","","survey_gender","78","","","My friends understand me.","filler"
"1762.7999999523163","","","html-slider-response","468","2107737","0.0-24.0-1.0-0.10","24970","List2A","black","woman","","","","","","","","survey_gender","87","","","Being around my friends gives me a good feeling.","filler"
"3078","","","html-slider-response","469","2110816","0.0-24.0-1.0-0.11","24970","List2A","black","woman","","","","","","","","survey_gender","48","","","I am glad to be my gender.","glad"
"5468.900000095367","","","html-slider-response","470","2116286","0.0-24.0-1.0-0.12","24970","List2A","black","woman","","","","","","","","survey_gender","52","","","I feel a bond with my gender.","bond"
"2893.0999999046326","","","html-slider-response","471","2119181","0.0-24.0-1.0-0.13","24970","List2A","black","woman","","","","","","","","survey_gender","54","","","It is pleasant to be my gender.","pleasant"
"2514.2000000476837","","","html-slider-response","472","2121697","0.0-24.0-1.0-0.14","24970","List2A","black","woman","","","","","","","","survey_gender","82","","","Most of the friends in my life are very similar to me.","filler"
"2949.6999999284744","","","html-slider-response","473","2124648","0.0-24.0-1.0-0.15","24970","List2A","black","woman","","","","","","","","survey_gender","35","","","I consider myself a highly empathetic person.","filler"
"2645","","","html-slider-response","474","2127294","0.0-24.0-1.0-0.16","24970","List2A","black","woman","","","","","","","","survey_gender","77","","","I often think about the fact that I am my gender.","often"
"4269.5","","","html-slider-response","475","2131564","0.0-24.0-1.0-0.17","24970","List2A","black","woman","","","","","","","","survey_gender","55","","","People of my gender have a lot in common with each other.","common"
