rt,stimulus,button_pressed,trial_type,trial_index,time_elapsed,internal_node_id,subject,list,ppt_race,ppt_gender,url,first_guess,correct,key_press,responses,image_type,phrase_type,test_part,response,stimulus1,stimulus2,question_type,survey_item
37548.4,Welcome to the experiment. Press Continue to begin.,0,html-button-response,0,37550,0.0-0.0,25524,List2B,white,man,,,,,,,,,,,,,
10745.6,,,external-html,1,49547,0.0-1.0,25524,List2B,white,man,consent.html,,,,,,,,,,,,
16558.6,"<p>On the next page, you will see portraits of 8 people and their names.</p><p>Your first task is to take a few minutes to memorise the names of these people.</p><p>You will have to recall their names during the rest of the experiment, so it is</p><p>essential that you try to memorise these people and their names as best as you can.</p><br><p><strong>You will then be tested on your memory of these names and portraits.</strong></p><br><p>The experiment will start after you have completed this memory test.</p><br><p>Ready?</p>",0,html-button-response,2,66107,0.0-2.0,25524,List2B,white,man,,,,,,,,,,,,,
21578.5,"<img src='img/portrait_matrix_list2.jpg' style='width:900px;height:500px;''></img><p>If you have memorised all the portraits and names and are ready to start, press Continue.</p><p><strong>Please note: Your memory of these faces will be tested 4 times during this experiment.</strong></p>",0,html-button-response,3,88694,0.0-3.0-0.0,25524,List2B,white,man,,,,,,,,,,,,,
3343.5,"<img src=""portrait/BM2.jpg""style=""height:400px;""></img>",5,html-button-response,4,93041,0.0-3.0-1.0,25524,List2B,white,man,,TRUE,5,,,,,,,,,,
null,CORRECT,,html-keyboard-response,5,94558,0.0-3.0-2.0-0.0,25524,List2B,white,man,,,,null,,,,,,,,,
4027.2,"<img src=""portrait/BW1.jpg""style=""height:400px;""></img>",0,html-button-response,6,98587,0.0-3.0-4.0,25524,List2B,white,man,,TRUE,0,,,,,,,,,,
null,CORRECT,,html-keyboard-response,7,100099,0.0-3.0-5.0-0.0,25524,List2B,white,man,,,,null,,,,,,,,,
2543.7,"<img src=""portrait/WW2.jpg""style=""height:400px;""></img>",3,html-button-response,8,102645,0.0-3.0-7.0,25524,List2B,white,man,,TRUE,3,,,,,,,,,,
null,CORRECT,,html-keyboard-response,9,104157,0.0-3.0-8.0-0.0,25524,List2B,white,man,,,,null,,,,,,,,,
5596.6,"<img src=""portrait/WM1.jpg""style=""height:400px;""></img>",6,html-button-response,10,109756,0.0-3.0-10.0,25524,List2B,white,man,,TRUE,6,,,,,,,,,,
null,CORRECT,,html-keyboard-response,11,111278,0.0-3.0-11.0-0.0,25524,List2B,white,man,,,,null,,,,,,,,,
4018.8,"<img src=""portrait/BW2.jpg""style=""height:400px;""></img>",2,html-button-response,12,115299,0.0-3.0-13.0,25524,List2B,white,man,,TRUE,2,,,,,,,,,,
null,CORRECT,,html-keyboard-response,13,116815,0.0-3.0-14.0-0.0,25524,List2B,white,man,,,,null,,,,,,,,,
3594.6,"<img src=""portrait/WM2.jpg""style=""height:400px;""></img>",7,html-button-response,14,120412,0.0-3.0-16.0,25524,List2B,white,man,,TRUE,7,,,,,,,,,,
null,CORRECT,,html-keyboard-response,15,121921,0.0-3.0-17.0-0.0,25524,List2B,white,man,,,,null,,,,,,,,,
10320.6,"<img src=""portrait/BM1.jpg""style=""height:400px;""></img>",4,html-button-response,16,132244,0.0-3.0-19.0,25524,List2B,white,man,,TRUE,4,,,,,,,,,,
null,CORRECT,,html-keyboard-response,17,133755,0.0-3.0-20.0-0.0,25524,List2B,white,man,,,,null,,,,,,,,,
10698.7,"<img src=""portrait/WW1.jpg""style=""height:400px;""></img>",1,html-button-response,18,144456,0.0-3.0-22.0,25524,List2B,white,man,,TRUE,1,,,,,,,,,,
null,CORRECT,,html-keyboard-response,19,145975,0.0-3.0-23.0-0.0,25524,List2B,white,man,,,,null,,,,,,,,,
2031,<p>You got 8 out of 8 right first time. Press Continue.</p>,0,html-button-response,20,148008,0.0-3.0-25.0,25524,List2B,white,man,,,,,,,,,,,,,
30464.5,"<p>In this experiment, you will view photographs of the people from the memory game interacting.</p><p>By using the <strong>exact</strong> phrase given <i>after</i> the photograph appears and recalling the correct names of the people in the photographs, form a sentence describing the interaction. You do not need to capitalise names.</p><p>Type your answer in the space provided. Please complete every sentence before moving onto the next trial.</p><p>You will only have a few seconds to memorise each given photograph and phrase before you can respond, so try your best to focus.</p><p>An example is given below. Press 'Continue' when you are ready.</p><img src='img/speaking_example.jpg' style='width:800px;height:460px;''></img>",0,html-button-response,21,179485,0.0-4.0,25524,List2B,white,man,,,,,,,,,,,,,
2647.9,"<p>Before the experiment starts, you will watch two example trials. Press 'Continue'.</p>",0,html-button-response,22,183135,0.0-5.0,25524,List2B,white,man,,,,,,,,,,,,,
null,<img src='img/play_eg.gif' style='height:400px;''></img>,,html-keyboard-response,23,186137,0.0-6.0,25524,List2B,white,man,,,,null,,,,,,,,,
null,<p>is playing with</p>,,html-keyboard-response,24,188153,0.0-7.0,25524,List2B,white,man,,,,null,,,,,,,,,
3832.5,<p><b>Answer:</b> jane is playing with ruth</p>,0,html-button-response,25,191987,0.0-8.0,25524,List2B,white,man,,,,,,,,,,,,,
null,<img src='img/dance_eg.gif' style='height:400px;''></img>,,html-keyboard-response,26,194989,0.0-9.0,25524,List2B,white,man,,,,null,,,,,,,,,
null,<p>is being entertained by</p>,,html-keyboard-response,27,196999,0.0-10.0,25524,List2B,white,man,,,,null,,,,,,,,,
1089.6,<p><b>Answer:</b> fred is being entertained by mike</p>,0,html-button-response,28,198090,0.0-11.0,25524,List2B,white,man,,,,,,,,,,,,,
13240.4,"<p>Ready to start the experiment?</p><br><p><strong>Remember to describe the picture using a full sentence,</strong></p><p><strong>that combines the names of the people with the <i>exact</i> phrase given.</strong></p><p><strong>To receive full payment you must do this correctly.</strong></p><p><strong> You do not need to capitalise names or use punctuation.</strong></p><br><p>Press 'Continue' to begin.</p>",0,html-button-response,29,212340,0.0-12.0,25524,List2B,white,man,,,,,,,,,,,,,
null,"<div style=""font-size:60px;"">+</div>",,html-keyboard-response,30,213843,0.0-13.0-0.0,25524,List2B,white,man,,,,null,,,,,,,,,
null,"<img src=""stim_listB/look3.gif""style=""height:400px;""></stim_listB>",,html-keyboard-response,31,215851,0.0-13.0-1.0,25524,List2B,white,man,,,,null,,,,,,,,,
null,is looking at,,html-keyboard-response,32,217859,0.0-13.0-2.0,25524,List2B,white,man,,,,null,,,,,,,,,
3148.5,,,survey-text,33,221010,0.0-13.0-3.0,25524,List2B,white,man,,,,,"{""Q0"":""beth""}","<img src=""stim_listB/look3.gif""style=""height:400px;""></stim_listB>",is looking at,,,,,,
null,"<div style=""font-size:60px;"">+</div>",,html-keyboard-response,34,221511,0.0-13.0-0.1,25524,List2B,white,man,,,,null,,,,,,,,,
null,"<img src=""stim_listB/oppose6.gif""style=""height:400px;""></stim_listB>",,html-keyboard-response,35,223513,0.0-13.0-1.1,25524,List2B,white,man,,,,null,,,,,,,,,
null,is being opposed by,,html-keyboard-response,36,225529,0.0-13.0-2.1,25524,List2B,white,man,,,,null,,,,,,,,,
16096.3,,,survey-text,37,241629,0.0-13.0-3.1,25524,List2B,white,man,,,,,"{""Q0"":""luke is being opposed by mike""}","<img src=""stim_listB/oppose6.gif""style=""height:400px;""></stim_listB>",is being opposed by,,,,,,
null,"<div style=""font-size:60px;"">+</div>",,html-keyboard-response,38,242141,0.0-13.0-0.2,25524,List2B,white,man,,,,null,,,,,,,,,
null,"<img src=""stim_listB/seduce1.gif""style=""height:400px;""></stim_listB>",,html-keyboard-response,39,244144,0.0-13.0-1.2,25524,List2B,white,man,,,,null,,,,,,,,,
null,is seducing,,html-keyboard-response,40,246145,0.0-13.0-2.2,25524,List2B,white,man,,,,null,,,,,,,,,
6454.9,,,survey-text,41,252602,0.0-13.0-3.2,25524,List2B,white,man,,,,,"{""Q0"":""jane is seducing luke""}","<img src=""stim_listB/seduce1.gif""style=""height:400px;""></stim_listB>",is seducing,,,,,,
null,"<div style=""font-size:60px;"">+</div>",,html-keyboard-response,42,253117,0.0-13.0-0.3,25524,List2B,white,man,,,,null,,,,,,,,,
null,"<img src=""stim_listB/touch3.gif""style=""height:400px;""></stim_listB>",,html-keyboard-response,43,255119,0.0-13.0-1.3,25524,List2B,white,man,,,,null,,,,,,,,,
null,is touching,,html-keyboard-response,44,257127,0.0-13.0-2.3,25524,List2B,white,man,,,,null,,,,,,,,,
8418.8,,,survey-text,45,265549,0.0-13.0-3.3,25524,List2B,white,man,,,,,"{""Q0"":""kate is touching mike""}","<img src=""stim_listB/touch3.gif""style=""height:400px;""></stim_listB>",is touching,,,,,,
null,"<div style=""font-size:60px;"">+</div>",,html-keyboard-response,46,266053,0.0-13.0-0.4,25524,List2B,white,man,,,,null,,,,,,,,,
null,"<img src=""stim_listB/copy1.gif""style=""height:400px;""></stim_listB>",,html-keyboard-response,47,268070,0.0-13.0-1.4,25524,List2B,white,man,,,,null,,,,,,,,,
null,is copying,,html-keyboard-response,48,270072,0.0-13.0-2.4,25524,List2B,white,man,,,,null,,,,,,,,,
6332.9,,,survey-text,49,276407,0.0-13.0-3.4,25524,List2B,white,man,,,,,"{""Q0"":""ruth is copying dave""}","<img src=""stim_listB/copy1.gif""style=""height:400px;""></stim_listB>",is copying,,,,,,
null,"<div style=""font-size:60px;"">+</div>",,html-keyboard-response,50,276915,0.0-13.0-0.5,25524,List2B,white,man,,,,null,,,,,,,,,
null,"<img src=""stim_listB/copy7.gif""style=""height:400px;""></stim_listB>",,html-keyboard-response,51,278918,0.0-13.0-1.5,25524,List2B,white,man,,,,null,,,,,,,,,
null,is copying,,html-keyboard-response,52,280920,0.0-13.0-2.5,25524,List2B,white,man,,,,null,,,,,,,,,
5888.2,,,survey-text,53,286811,0.0-13.0-3.5,25524,List2B,white,man,,,,,"{""Q0"":""beth is copying jane""}","<img src=""stim_listB/copy7.gif""style=""height:400px;""></stim_listB>",is copying,,,,,,
null,"<div style=""font-size:60px;"">+</div>",,html-keyboard-response,54,287325,0.0-13.0-0.6,25524,List2B,white,man,,,,null,,,,,,,,,
null,"<img src=""stim_listB/greet7.gif""style=""height:400px;""></stim_listB>",,html-keyboard-response,55,289339,0.0-13.0-1.6,25524,List2B,white,man,,,,null,,,,,,,,,
null,is greeting,,html-keyboard-response,56,291351,0.0-13.0-2.6,25524,List2B,white,man,,,,null,,,,,,,,,
6073.4,,,survey-text,57,297427,0.0-13.0-3.6,25524,List2B,white,man,,,,,"{""Q0"":""beth is greeting jane""}","<img src=""stim_listB/greet7.gif""style=""height:400px;""></stim_listB>",is greeting,,,,,,
null,"<div style=""font-size:60px;"">+</div>",,html-keyboard-response,58,297934,0.0-13.0-0.7,25524,List2B,white,man,,,,null,,,,,,,,,
null,"<img src=""stim_listB/look8.gif""style=""height:400px;""></stim_listB>",,html-keyboard-response,59,299937,0.0-13.0-1.7,25524,List2B,white,man,,,,null,,,,,,,,,
null,is being looked at by,,html-keyboard-response,60,301946,0.0-13.0-2.7,25524,List2B,white,man,,,,null,,,,,,,,,
8927.1,,,survey-text,61,310876,0.0-13.0-3.7,25524,List2B,white,man,,,,,"{""Q0"":""kate is being looked at by jane""}","<img src=""stim_listB/look8.gif""style=""height:400px;""></stim_listB>",is being looked at by,,,,,,
null,"<div style=""font-size:60px;"">+</div>",,html-keyboard-response,62,311390,0.0-13.0-0.8,25524,List2B,white,man,,,,null,,,,,,,,,
null,"<img src=""stim_listB/look2.gif""style=""height:400px;""></stim_listB>",,html-keyboard-response,63,313399,0.0-13.0-1.8,25524,List2B,white,man,,,,null,,,,,,,,,
null,is being looked at by,,html-keyboard-response,64,315412,0.0-13.0-2.8,25524,List2B,white,man,,,,null,,,,,,,,,
7903.2,,,survey-text,65,323317,0.0-13.0-3.8,25524,List2B,white,man,,,,,"{""Q0"":""jane is being looked at by dave""}","<img src=""stim_listB/look2.gif""style=""height:400px;""></stim_listB>",is being looked at by,,,,,,
null,"<div style=""font-size:60px;"">+</div>",,html-keyboard-response,66,323818,0.0-13.0-0.9,25524,List2B,white,man,,,,null,,,,,,,,,
null,"<img src=""stim_listB/oppose3.gif""style=""height:400px;""></stim_listB>",,html-keyboard-response,67,325825,0.0-13.0-1.9,25524,List2B,white,man,,,,null,,,,,,,,,
null,is opposing,,html-keyboard-response,68,327831,0.0-13.0-2.9,25524,List2B,white,man,,,,null,,,,,,,,,
4993.5,,,survey-text,69,332826,0.0-13.0-3.9,25524,List2B,white,man,,,,,"{""Q0"":""mike is opposing kate""}","<img src=""stim_listB/oppose3.gif""style=""height:400px;""></stim_listB>",is opposing,,,,,,
null,"<div style=""font-size:60px;"">+</div>",,html-keyboard-response,70,333327,0.0-13.0-0.10,25524,List2B,white,man,,,,null,,,,,,,,,
null,"<img src=""stim_listB/challenge1.gif""style=""height:400px;""></stim_listB>",,html-keyboard-response,71,335342,0.0-13.0-1.10,25524,List2B,white,man,,,,null,,,,,,,,,
null,is challenging,,html-keyboard-response,72,337356,0.0-13.0-2.10,25524,List2B,white,man,,,,null,,,,,,,,,
10217.2,,,survey-text,73,347575,0.0-13.0-3.10,25524,List2B,white,man,,,,,"{""Q0"":""ruth is challenging dave""}","<img src=""stim_listB/challenge1.gif""style=""height:400px;""></stim_listB>",is challenging,,,,,,
null,"<div style=""font-size:60px;"">+</div>",,html-keyboard-response,74,348079,0.0-13.0-0.11,25524,List2B,white,man,,,,null,,,,,,,,,
null,"<img src=""stim_listB/challenge3.gif""style=""height:400px;""></stim_listB>",,html-keyboard-response,75,350081,0.0-13.0-1.11,25524,List2B,white,man,,,,null,,,,,,,,,
null,is challenging,,html-keyboard-response,76,352091,0.0-13.0-2.11,25524,List2B,white,man,,,,null,,,,,,,,,
9007.5,,,survey-text,77,361101,0.0-13.0-3.11,25524,List2B,white,man,,,,,"{""Q0"":""beth is challenging mike""}","<img src=""stim_listB/challenge3.gif""style=""height:400px;""></stim_listB>",is challenging,,,,,,
null,"<div style=""font-size:60px;"">+</div>",,html-keyboard-response,78,361603,0.0-13.0-0.12,25524,List2B,white,man,,,,null,,,,,,,,,
null,"<img src=""stim_listB/copy2.gif""style=""height:400px;""></stim_listB>",,html-keyboard-response,79,363608,0.0-13.0-1.12,25524,List2B,white,man,,,,null,,,,,,,,,
null,is being copied by,,html-keyboard-response,80,365617,0.0-13.0-2.12,25524,List2B,white,man,,,,null,,,,,,,,,
9576.9,,,survey-text,81,375196,0.0-13.0-3.12,25524,List2B,white,man,,,,,"{""Q0"":""luke is being copied by jane""}","<img src=""stim_listB/copy2.gif""style=""height:400px;""></stim_listB>",is being copied by,,,,,,
null,"<div style=""font-size:60px;"">+</div>",,html-keyboard-response,82,375707,0.0-13.0-0.13,25524,List2B,white,man,,,,null,,,,,,,,,
null,"<img src=""stim_listB/seduce6.gif""style=""height:400px;""></stim_listB>",,html-keyboard-response,83,377711,0.0-13.0-1.13,25524,List2B,white,man,,,,null,,,,,,,,,
null,is being seduced by,,html-keyboard-response,84,379717,0.0-13.0-2.13,25524,List2B,white,man,,,,null,,,,,,,,,
31909.8,,,survey-text,85,411630,0.0-13.0-3.13,25524,List2B,white,man,,,,,"{""Q0"":""dave is being seduced by fred""}","<img src=""stim_listB/seduce6.gif""style=""height:400px;""></stim_listB>",is being seduced by,,,,,,
null,"<div style=""font-size:60px;"">+</div>",,html-keyboard-response,86,412142,0.0-13.0-0.14,25524,List2B,white,man,,,,null,,,,,,,,,
null,"<img src=""stim_listB/hug7.gif""style=""height:400px;""></stim_listB>",,html-keyboard-response,87,414158,0.0-13.0-1.14,25524,List2B,white,man,,,,null,,,,,,,,,
null,is hugging,,html-keyboard-response,88,416170,0.0-13.0-2.14,25524,List2B,white,man,,,,null,,,,,,,,,
4504.7,,,survey-text,89,420678,0.0-13.0-3.14,25524,List2B,white,man,,,,,"{""Q0"":""ruth is hugging beth""}","<img src=""stim_listB/hug7.gif""style=""height:400px;""></stim_listB>",is hugging,,,,,,
null,"<div style=""font-size:60px;"">+</div>",,html-keyboard-response,90,421193,0.0-13.0-0.15,25524,List2B,white,man,,,,null,,,,,,,,,
null,"<img src=""stim_listB/hug4.gif""style=""height:400px;""></stim_listB>",,html-keyboard-response,91,423196,0.0-13.0-1.15,25524,List2B,white,man,,,,null,,,,,,,,,
null,is being hugged by,,html-keyboard-response,92,425200,0.0-13.0-2.15,25524,List2B,white,man,,,,null,,,,,,,,,
7439.8,,,survey-text,93,432643,0.0-13.0-3.15,25524,List2B,white,man,,,,,"{""Q0"":""mike is being hugged by kate""}","<img src=""stim_listB/hug4.gif""style=""height:400px;""></stim_listB>",is being hugged by,,,,,,
null,"<div style=""font-size:60px;"">+</div>",,html-keyboard-response,94,433154,0.0-13.0-0.16,25524,List2B,white,man,,,,null,,,,,,,,,
null,"<img src=""stim_listB/touch6.gif""style=""height:400px;""></stim_listB>",,html-keyboard-response,95,435156,0.0-13.0-1.16,25524,List2B,white,man,,,,null,,,,,,,,,
null,is being touched by,,html-keyboard-response,96,437162,0.0-13.0-2.16,25524,List2B,white,man,,,,null,,,,,,,,,
13015,,,survey-text,97,450181,0.0-13.0-3.16,25524,List2B,white,man,,,,,"{""Q0"":""mike is being touched by luke""}","<img src=""stim_listB/touch6.gif""style=""height:400px;""></stim_listB>",is being touched by,,,,,,
null,"<div style=""font-size:60px;"">+</div>",,html-keyboard-response,98,450690,0.0-13.0-0.17,25524,List2B,white,man,,,,null,,,,,,,,,
null,"<img src=""stim_listB/hug8.gif""style=""height:400px;""></stim_listB>",,html-keyboard-response,99,452701,0.0-13.0-1.17,25524,List2B,white,man,,,,null,,,,,,,,,
null,is being hugged by,,html-keyboard-response,100,454710,0.0-13.0-2.17,25524,List2B,white,man,,,,null,,,,,,,,,
5806.3,,,survey-text,101,460520,0.0-13.0-3.17,25524,List2B,white,man,,,,,"{""Q0"":""kate is being hugged by jane""}","<img src=""stim_listB/hug8.gif""style=""height:400px;""></stim_listB>",is being hugged by,,,,,,
null,"<div style=""font-size:60px;"">+</div>",,html-keyboard-response,102,461034,0.0-13.0-0.18,25524,List2B,white,man,,,,null,,,,,,,,,
null,"<img src=""stim_listB/kiss7.gif""style=""height:400px;""></stim_listB>",,html-keyboard-response,103,463042,0.0-13.0-1.18,25524,List2B,white,man,,,,null,,,,,,,,,
null,is kissing,,html-keyboard-response,104,465052,0.0-13.0-2.18,25524,List2B,white,man,,,,null,,,,,,,,,
5471.3,,,survey-text,105,470525,0.0-13.0-3.18,25524,List2B,white,man,,,,,"{""Q0"":""beth is kissing ruth""}","<img src=""stim_listB/kiss7.gif""style=""height:400px;""></stim_listB>",is kissing,,,,,,
null,"<div style=""font-size:60px;"">+</div>",,html-keyboard-response,106,471032,0.0-13.0-0.19,25524,List2B,white,man,,,,null,,,,,,,,,
null,"<img src=""stim_listB/shout5.gif""style=""height:400px;""></stim_listB>",,html-keyboard-response,107,473048,0.0-13.0-1.19,25524,List2B,white,man,,,,null,,,,,,,,,
null,is shouting at,,html-keyboard-response,108,475050,0.0-13.0-2.19,25524,List2B,white,man,,,,null,,,,,,,,,
5838.8,,,survey-text,109,480892,0.0-13.0-3.19,25524,List2B,white,man,,,,,"{""Q0"":""fred is shouting at luke""}","<img src=""stim_listB/shout5.gif""style=""height:400px;""></stim_listB>",is shouting at,,,,,,
21014.6,"<img src='img/portrait_matrix_list2.jpg' style='width:900px;height:500px;''></img><p>If you have memorised all the portraits and names and are ready to start, press Continue.</p><p><strong>Please note: Your memory of these faces will be tested 4 times during this experiment.</strong></p>",0,html-button-response,110,501908,0.0-14.0-0.0,25524,List2B,white,man,,,,,,,,,,,,,
3808.6,"<img src=""portrait/WM1.jpg""style=""height:400px;""></img>",6,html-button-response,111,506719,0.0-14.0-1.0,25524,List2B,white,man,,TRUE,6,,,,,,,,,,
null,CORRECT,,html-keyboard-response,112,508223,0.0-14.0-2.0-0.0,25524,List2B,white,man,,,,null,,,,,,,,,
2178,"<img src=""portrait/BW2.jpg""style=""height:400px;""></img>",2,html-button-response,113,510403,0.0-14.0-4.0,25524,List2B,white,man,,TRUE,2,,,,,,,,,,
null,CORRECT,,html-keyboard-response,114,511918,0.0-14.0-5.0-0.0,25524,List2B,white,man,,,,null,,,,,,,,,
1946.9,"<img src=""portrait/WW2.jpg""style=""height:400px;""></img>",3,html-button-response,115,513867,0.0-14.0-7.0,25524,List2B,white,man,,TRUE,3,,,,,,,,,,
null,CORRECT,,html-keyboard-response,116,515374,0.0-14.0-8.0-0.0,25524,List2B,white,man,,,,null,,,,,,,,,
3668.1,"<img src=""portrait/BW1.jpg""style=""height:400px;""></img>",0,html-button-response,117,519043,0.0-14.0-10.0,25524,List2B,white,man,,TRUE,0,,,,,,,,,,
null,CORRECT,,html-keyboard-response,118,520553,0.0-14.0-11.0-0.0,25524,List2B,white,man,,,,null,,,,,,,,,
1905.3,"<img src=""portrait/WM2.jpg""style=""height:400px;""></img>",7,html-button-response,119,522460,0.0-14.0-13.0,25524,List2B,white,man,,TRUE,7,,,,,,,,,,
null,CORRECT,,html-keyboard-response,120,523975,0.0-14.0-14.0-0.0,25524,List2B,white,man,,,,null,,,,,,,,,
2073.7,"<img src=""portrait/BM1.jpg""style=""height:400px;""></img>",4,html-button-response,121,526050,0.0-14.0-16.0,25524,List2B,white,man,,TRUE,4,,,,,,,,,,
null,CORRECT,,html-keyboard-response,122,527566,0.0-14.0-17.0-0.0,25524,List2B,white,man,,,,null,,,,,,,,,
4635.8,"<img src=""portrait/WW1.jpg""style=""height:400px;""></img>",1,html-button-response,123,532203,0.0-14.0-19.0,25524,List2B,white,man,,TRUE,1,,,,,,,,,,
null,CORRECT,,html-keyboard-response,124,533705,0.0-14.0-20.0-0.0,25524,List2B,white,man,,,,null,,,,,,,,,
2354.9,"<img src=""portrait/BM2.jpg""style=""height:400px;""></img>",5,html-button-response,125,536061,0.0-14.0-22.0,25524,List2B,white,man,,TRUE,5,,,,,,,,,,
null,CORRECT,,html-keyboard-response,126,537571,0.0-14.0-23.0-0.0,25524,List2B,white,man,,,,null,,,,,,,,,
822.2,<p>You got 8 out of 8 right first time. Press Continue.</p>,0,html-button-response,127,538395,0.0-14.0-25.0,25524,List2B,white,man,,,,,,,,,,,,,
null,"<div style=""font-size:60px;"">+</div>",,html-keyboard-response,128,539916,0.0-15.0-0.0,25524,List2B,white,man,,,,null,,,,,,,,,
null,"<img src=""stim_listB/touch2.gif""style=""height:400px;""></stim_listB>",,html-keyboard-response,129,541932,0.0-15.0-1.0,25524,List2B,white,man,,,,null,,,,,,,,,
null,is being touched by,,html-keyboard-response,130,543942,0.0-15.0-2.0,25524,List2B,white,man,,,,null,,,,,,,,,
8966.2,,,survey-text,131,552910,0.0-15.0-3.0,25524,List2B,white,man,,,,,"{""Q0"":""ruth is being touched by luke""}","<img src=""stim_listB/touch2.gif""style=""height:400px;""></stim_listB>",is being touched by,,,,,,
null,"<div style=""font-size:60px;"">+</div>",,html-keyboard-response,132,553426,0.0-15.0-0.1,25524,List2B,white,man,,,,null,,,,,,,,,
null,"<img src=""stim_listB/kiss2.gif""style=""height:400px;""></stim_listB>",,html-keyboard-response,133,555438,0.0-15.0-1.1,25524,List2B,white,man,,,,null,,,,,,,,,
null,is being kissed by,,html-keyboard-response,134,557450,0.0-15.0-2.1,25524,List2B,white,man,,,,null,,,,,,,,,
4511.5,,,survey-text,135,561964,0.0-15.0-3.1,25524,List2B,white,man,,,,,"{""Q0"":""jane is kissing dave""}","<img src=""stim_listB/kiss2.gif""style=""height:400px;""></stim_listB>",is being kissed by,,,,,,
null,"<div style=""font-size:60px;"">+</div>",,html-keyboard-response,136,562475,0.0-15.0-0.2,25524,List2B,white,man,,,,null,,,,,,,,,
null,"<img src=""stim_listB/copy5.gif""style=""height:400px;""></stim_listB>",,html-keyboard-response,137,564487,0.0-15.0-1.2,25524,List2B,white,man,,,,null,,,,,,,,,
null,is copying,,html-keyboard-response,138,566498,0.0-15.0-2.2,25524,List2B,white,man,,,,null,,,,,,,,,
6002.9,,,survey-text,139,572503,0.0-15.0-3.2,25524,List2B,white,man,,,,,"{""Q0"":""dave is copying fred""}","<img src=""stim_listB/copy5.gif""style=""height:400px;""></stim_listB>",is copying,,,,,,
null,"<div style=""font-size:60px;"">+</div>",,html-keyboard-response,140,573011,0.0-15.0-0.3,25524,List2B,white,man,,,,null,,,,,,,,,
null,"<img src=""stim_listB/copy3.gif""style=""height:400px;""></stim_listB>",,html-keyboard-response,141,575025,0.0-15.0-1.3,25524,List2B,white,man,,,,null,,,,,,,,,
null,is copying,,html-keyboard-response,142,577027,0.0-15.0-2.3,25524,List2B,white,man,,,,null,,,,,,,,,
5996.9,,,survey-text,143,583027,0.0-15.0-3.3,25524,List2B,white,man,,,,,"{""Q0"":""mike is copying beth""}","<img src=""stim_listB/copy3.gif""style=""height:400px;""></stim_listB>",is copying,,,,,,
null,"<div style=""font-size:60px;"">+</div>",,html-keyboard-response,144,583542,0.0-15.0-0.4,25524,List2B,white,man,,,,null,,,,,,,,,
null,"<img src=""stim_listB/seduce7.gif""style=""height:400px;""></stim_listB>",,html-keyboard-response,145,585544,0.0-15.0-1.4,25524,List2B,white,man,,,,null,,,,,,,,,
null,is seducing,,html-keyboard-response,146,587560,0.0-15.0-2.4,25524,List2B,white,man,,,,null,,,,,,,,,
12377.9,,,survey-text,147,599941,0.0-15.0-3.4,25524,List2B,white,man,,,,,"{""Q0"":""ruth is copying kate""}","<img src=""stim_listB/seduce7.gif""style=""height:400px;""></stim_listB>",is seducing,,,,,,
null,"<div style=""font-size:60px;"">+</div>",,html-keyboard-response,148,600452,0.0-15.0-0.5,25524,List2B,white,man,,,,null,,,,,,,,,
null,"<img src=""stim_listB/look7.gif""style=""height:400px;""></stim_listB>",,html-keyboard-response,149,602469,0.0-15.0-1.5,25524,List2B,white,man,,,,null,,,,,,,,,
null,is looking at,,html-keyboard-response,150,604482,0.0-15.0-2.5,25524,List2B,white,man,,,,null,,,,,,,,,
5364.9,,,survey-text,151,609850,0.0-15.0-3.5,25524,List2B,white,man,,,,,"{""Q0"":""beth is looking at ruth""}","<img src=""stim_listB/look7.gif""style=""height:400px;""></stim_listB>",is looking at,,,,,,
null,"<div style=""font-size:60px;"">+</div>",,html-keyboard-response,152,610361,0.0-15.0-0.6,25524,List2B,white,man,,,,null,,,,,,,,,
null,"<img src=""stim_listB/greet6.gif""style=""height:400px;""></stim_listB>",,html-keyboard-response,153,612363,0.0-15.0-1.6,25524,List2B,white,man,,,,null,,,,,,,,,
null,is being greeted by,,html-keyboard-response,154,614369,0.0-15.0-2.6,25524,List2B,white,man,,,,null,,,,,,,,,
11011.1,,,survey-text,155,625382,0.0-15.0-3.6,25524,List2B,white,man,,,,,"{""Q0"":""mike is being greeted by luke""}","<img src=""stim_listB/greet6.gif""style=""height:400px;""></stim_listB>",is being greeted by,,,,,,
null,"<div style=""font-size:60px;"">+</div>",,html-keyboard-response,156,625892,0.0-15.0-0.7,25524,List2B,white,man,,,,null,,,,,,,,,
null,"<img src=""stim_listB/greet4.gif""style=""height:400px;""></stim_listB>",,html-keyboard-response,157,627898,0.0-15.0-1.7,25524,List2B,white,man,,,,null,,,,,,,,,
null,is being greeted by,,html-keyboard-response,158,629904,0.0-15.0-2.7,25524,List2B,white,man,,,,null,,,,,,,,,
318900.4,,,survey-text,159,948807,0.0-15.0-3.7,25524,List2B,white,man,,,,,"{""Q0"":""fred is being greeted by kate""}","<img src=""stim_listB/greet4.gif""style=""height:400px;""></stim_listB>",is being greeted by,,,,,,
null,"<div style=""font-size:60px;"">+</div>",,html-keyboard-response,160,949308,0.0-15.0-0.8,25524,List2B,white,man,,,,null,,,,,,,,,
null,"<img src=""stim_listB/kiss4.gif""style=""height:400px;""></stim_listB>",,html-keyboard-response,161,951311,0.0-15.0-1.8,25524,List2B,white,man,,,,null,,,,,,,,,
null,is being kissed by,,html-keyboard-response,162,953312,0.0-15.0-2.8,25524,List2B,white,man,,,,null,,,,,,,,,
5244.3,,,survey-text,163,958559,0.0-15.0-3.8,25524,List2B,white,man,,,,,"{""Q0"":""mike is being kissed by""}","<img src=""stim_listB/kiss4.gif""style=""height:400px;""></stim_listB>",is being kissed by,,,,,,
null,"<div style=""font-size:60px;"">+</div>",,html-keyboard-response,164,959069,0.0-15.0-0.9,25524,List2B,white,man,,,,null,,,,,,,,,
null,"<img src=""stim_listB/seduce4.gif""style=""height:400px;""></stim_listB>",,html-keyboard-response,165,961071,0.0-15.0-1.9,25524,List2B,white,man,,,,null,,,,,,,,,
null,is being seduced by,,html-keyboard-response,166,963080,0.0-15.0-2.9,25524,List2B,white,man,,,,null,,,,,,,,,
16710.8,,,survey-text,167,979793,0.0-15.0-3.9,25524,List2B,white,man,,,,,"{""Q0"":""mike is being seduced by beth""}","<img src=""stim_listB/seduce4.gif""style=""height:400px;""></stim_listB>",is being seduced by,,,,,,
null,"<div style=""font-size:60px;"">+</div>",,html-keyboard-response,168,980299,0.0-15.0-0.10,25524,List2B,white,man,,,,null,,,,,,,,,
null,"<img src=""stim_listB/seduce2.gif""style=""height:400px;""></stim_listB>",,html-keyboard-response,169,982313,0.0-15.0-1.10,25524,List2B,white,man,,,,null,,,,,,,,,
null,is being seduced by,,html-keyboard-response,170,984317,0.0-15.0-2.10,25524,List2B,white,man,,,,null,,,,,,,,,
9117.2,,,survey-text,171,993436,0.0-15.0-3.10,25524,List2B,white,man,,,,,"{""Q0"":""ruth is being seduced by dave""}","<img src=""stim_listB/seduce2.gif""style=""height:400px;""></stim_listB>",is being seduced by,,,,,,
null,"<div style=""font-size:60px;"">+</div>",,html-keyboard-response,172,993940,0.0-15.0-0.11,25524,List2B,white,man,,,,null,,,,,,,,,
null,"<img src=""stim_listB/seduce3.gif""style=""height:400px;""></stim_listB>",,html-keyboard-response,173,995944,0.0-15.0-1.11,25524,List2B,white,man,,,,null,,,,,,,,,
null,is seducing,,html-keyboard-response,174,997954,0.0-15.0-2.11,25524,List2B,white,man,,,,null,,,,,,,,,
12730.5,,,survey-text,175,1010686,0.0-15.0-3.11,25524,List2B,white,man,,,,,"{""Q0"":""fred is seducing kate""}","<img src=""stim_listB/seduce3.gif""style=""height:400px;""></stim_listB>",is seducing,,,,,,
null,"<div style=""font-size:60px;"">+</div>",,html-keyboard-response,176,1011189,0.0-15.0-0.12,25524,List2B,white,man,,,,null,,,,,,,,,
null,"<img src=""stim_listB/shout3.gif""style=""height:400px;""></stim_listB>",,html-keyboard-response,177,1013194,0.0-15.0-1.12,25524,List2B,white,man,,,,null,,,,,,,,,
null,is shouting at,,html-keyboard-response,178,1015208,0.0-15.0-2.12,25524,List2B,white,man,,,,null,,,,,,,,,
30744.6,,,survey-text,179,1045955,0.0-15.0-3.12,25524,List2B,white,man,,,,,"{""Q0"":""fred is shouting at beth""}","<img src=""stim_listB/shout3.gif""style=""height:400px;""></stim_listB>",is shouting at,,,,,,
null,"<div style=""font-size:60px;"">+</div>",,html-keyboard-response,180,1046467,0.0-15.0-0.13,25524,List2B,white,man,,,,null,,,,,,,,,
null,"<img src=""stim_listB/oppose7.gif""style=""height:400px;""></stim_listB>",,html-keyboard-response,181,1048472,0.0-15.0-1.13,25524,List2B,white,man,,,,null,,,,,,,,,
null,is opposing,,html-keyboard-response,182,1050474,0.0-15.0-2.13,25524,List2B,white,man,,,,null,,,,,,,,,
7733.2,,,survey-text,183,1058210,0.0-15.0-3.13,25524,List2B,white,man,,,,,"{""Q0"":""kate is opposing jane""}","<img src=""stim_listB/oppose7.gif""style=""height:400px;""></stim_listB>",is opposing,,,,,,
null,"<div style=""font-size:60px;"">+</div>",,html-keyboard-response,184,1058716,0.0-15.0-0.14,25524,List2B,white,man,,,,null,,,,,,,,,
null,"<img src=""stim_listB/shout2.gif""style=""height:400px;""></stim_listB>",,html-keyboard-response,185,1060727,0.0-15.0-1.14,25524,List2B,white,man,,,,null,,,,,,,,,
null,is being shouted at by,,html-keyboard-response,186,1062740,0.0-15.0-2.14,25524,List2B,white,man,,,,null,,,,,,,,,
8225.3,,,survey-text,187,1070968,0.0-15.0-3.14,25524,List2B,white,man,,,,,"{""Q0"":""jane is shouting at dave""}","<img src=""stim_listB/shout2.gif""style=""height:400px;""></stim_listB>",is being shouted at by,,,,,,
null,"<div style=""font-size:60px;"">+</div>",,html-keyboard-response,188,1071482,0.0-15.0-0.15,25524,List2B,white,man,,,,null,,,,,,,,,
null,"<img src=""stim_listB/copy8.gif""style=""height:400px;""></stim_listB>",,html-keyboard-response,189,1073490,0.0-15.0-1.15,25524,List2B,white,man,,,,null,,,,,,,,,
null,is being copied by,,html-keyboard-response,190,1075500,0.0-15.0-2.15,25524,List2B,white,man,,,,null,,,,,,,,,
22401,,,survey-text,191,1097903,0.0-15.0-3.15,25524,List2B,white,man,,,,,"{""Q0"":""kate is being copied by jane""}","<img src=""stim_listB/copy8.gif""style=""height:400px;""></stim_listB>",is being copied by,,,,,,
null,"<div style=""font-size:60px;"">+</div>",,html-keyboard-response,192,1098404,0.0-15.0-0.16,25524,List2B,white,man,,,,null,,,,,,,,,
null,"<img src=""stim_listB/hug5.gif""style=""height:400px;""></stim_listB>",,html-keyboard-response,193,1100413,0.0-15.0-1.16,25524,List2B,white,man,,,,null,,,,,,,,,
null,is hugging,,html-keyboard-response,194,1102414,0.0-15.0-2.16,25524,List2B,white,man,,,,null,,,,,,,,,
5844.2,,,survey-text,195,1108260,0.0-15.0-3.16,25524,List2B,white,man,,,,,"{""Q0"":""luke is hugging fred""}","<img src=""stim_listB/hug5.gif""style=""height:400px;""></stim_listB>",is hugging,,,,,,
null,"<div style=""font-size:60px;"">+</div>",,html-keyboard-response,196,1108774,0.0-15.0-0.17,25524,List2B,white,man,,,,null,,,,,,,,,
null,"<img src=""stim_listB/touch1.gif""style=""height:400px;""></stim_listB>",,html-keyboard-response,197,1110778,0.0-15.0-1.17,25524,List2B,white,man,,,,null,,,,,,,,,
null,is touching,,html-keyboard-response,198,1112788,0.0-15.0-2.17,25524,List2B,white,man,,,,null,,,,,,,,,
8510.8,,,survey-text,199,1121301,0.0-15.0-3.17,25524,List2B,white,man,,,,,"{""Q0"":""jane is touching dave""}","<img src=""stim_listB/touch1.gif""style=""height:400px;""></stim_listB>",is touching,,,,,,
null,"<div style=""font-size:60px;"">+</div>",,html-keyboard-response,200,1121816,0.0-15.0-0.18,25524,List2B,white,man,,,,null,,,,,,,,,
null,"<img src=""stim_listB/kiss3.gif""style=""height:400px;""></stim_listB>",,html-keyboard-response,201,1123818,0.0-15.0-1.18,25524,List2B,white,man,,,,null,,,,,,,,,
null,is kissing,,html-keyboard-response,202,1125830,0.0-15.0-2.18,25524,List2B,white,man,,,,null,,,,,,,,,
3355.1,,,survey-text,203,1129188,0.0-15.0-3.18,25524,List2B,white,man,,,,,"{""Q0"":""beth is kissing fred""}","<img src=""stim_listB/kiss3.gif""style=""height:400px;""></stim_listB>",is kissing,,,,,,
null,"<div style=""font-size:60px;"">+</div>",,html-keyboard-response,204,1129697,0.0-15.0-0.19,25524,List2B,white,man,,,,null,,,,,,,,,
null,"<img src=""stim_listB/kiss6.gif""style=""height:400px;""></stim_listB>",,html-keyboard-response,205,1131699,0.0-15.0-1.19,25524,List2B,white,man,,,,null,,,,,,,,,
null,is being kissed by,,html-keyboard-response,206,1133708,0.0-15.0-2.19,25524,List2B,white,man,,,,null,,,,,,,,,
8999.5,,,survey-text,207,1142711,0.0-15.0-3.19,25524,List2B,white,man,,,,,"{""Q0"":""mike is being kissed by dave""}","<img src=""stim_listB/kiss6.gif""style=""height:400px;""></stim_listB>",is being kissed by,,,,,,
15212.8,"<img src='img/portrait_matrix_list2.jpg' style='width:900px;height:500px;''></img><p>If you have memorised all the portraits and names and are ready to start, press Continue.</p><p><strong>Please note: Your memory of these faces will be tested 4 times during this experiment.</strong></p>",0,html-button-response,208,1157924,0.0-16.0-0.0,25524,List2B,white,man,,,,,,,,,,,,,
3481.1,"<img src=""portrait/WM1.jpg""style=""height:400px;""></img>",6,html-button-response,209,1162423,0.0-16.0-1.0,25524,List2B,white,man,,TRUE,6,,,,,,,,,,
null,CORRECT,,html-keyboard-response,210,1163940,0.0-16.0-2.0-0.0,25524,List2B,white,man,,,,null,,,,,,,,,
2027.4,"<img src=""portrait/WW2.jpg""style=""height:400px;""></img>",3,html-button-response,211,1165969,0.0-16.0-4.0,25524,List2B,white,man,,TRUE,3,,,,,,,,,,
null,CORRECT,,html-keyboard-response,212,1167474,0.0-16.0-5.0-0.0,25524,List2B,white,man,,,,null,,,,,,,,,
3164.1,"<img src=""portrait/BM1.jpg""style=""height:400px;""></img>",4,html-button-response,213,1170640,0.0-16.0-7.0,25524,List2B,white,man,,TRUE,4,,,,,,,,,,
null,CORRECT,,html-keyboard-response,214,1172155,0.0-16.0-8.0-0.0,25524,List2B,white,man,,,,null,,,,,,,,,
3158.7,"<img src=""portrait/BW1.jpg""style=""height:400px;""></img>",0,html-button-response,215,1175315,0.0-16.0-10.0,25524,List2B,white,man,,TRUE,0,,,,,,,,,,
null,CORRECT,,html-keyboard-response,216,1176829,0.0-16.0-11.0-0.0,25524,List2B,white,man,,,,null,,,,,,,,,
1129.5,"<img src=""portrait/WW1.jpg""style=""height:400px;""></img>",1,html-button-response,217,1177960,0.0-16.0-13.0,25524,List2B,white,man,,TRUE,1,,,,,,,,,,
null,CORRECT,,html-keyboard-response,218,1179476,0.0-16.0-14.0-0.0,25524,List2B,white,man,,,,null,,,,,,,,,
1789,"<img src=""portrait/BM2.jpg""style=""height:400px;""></img>",5,html-button-response,219,1181267,0.0-16.0-16.0,25524,List2B,white,man,,TRUE,5,,,,,,,,,,
null,CORRECT,,html-keyboard-response,220,1182794,0.0-16.0-17.0-0.0,25524,List2B,white,man,,,,null,,,,,,,,,
1971,"<img src=""portrait/WM2.jpg""style=""height:400px;""></img>",7,html-button-response,221,1184767,0.0-16.0-19.0,25524,List2B,white,man,,TRUE,7,,,,,,,,,,
null,CORRECT,,html-keyboard-response,222,1186270,0.0-16.0-20.0-0.0,25524,List2B,white,man,,,,null,,,,,,,,,
2335.9,"<img src=""portrait/BW2.jpg""style=""height:400px;""></img>",2,html-button-response,223,1188607,0.0-16.0-22.0,25524,List2B,white,man,,TRUE,2,,,,,,,,,,
null,CORRECT,,html-keyboard-response,224,1190111,0.0-16.0-23.0-0.0,25524,List2B,white,man,,,,null,,,,,,,,,
2076.3,<p>You got 8 out of 8 right first time. Press Continue.</p>,0,html-button-response,225,1192189,0.0-16.0-25.0,25524,List2B,white,man,,,,,,,,,,,,,
null,"<div style=""font-size:60px;"">+</div>",,html-keyboard-response,226,1193696,0.0-17.0-0.0,25524,List2B,white,man,,,,null,,,,,,,,,
null,"<img src=""stim_listB/touch4.gif""style=""height:400px;""></stim_listB>",,html-keyboard-response,227,1195708,0.0-17.0-1.0,25524,List2B,white,man,,,,null,,,,,,,,,
null,is being touched by,,html-keyboard-response,228,1197724,0.0-17.0-2.0,25524,List2B,white,man,,,,null,,,,,,,,,
12759.9,,,survey-text,229,1210486,0.0-17.0-3.0,25524,List2B,white,man,,,,,"{""Q0"":""fred is being touched by beth""}","<img src=""stim_listB/touch4.gif""style=""height:400px;""></stim_listB>",is being touched by,,,,,,
null,"<div style=""font-size:60px;"">+</div>",,html-keyboard-response,230,1210996,0.0-17.0-0.1,25524,List2B,white,man,,,,null,,,,,,,,,
null,"<img src=""stim_listB/oppose4.gif""style=""height:400px;""></stim_listB>",,html-keyboard-response,231,1213007,0.0-17.0-1.1,25524,List2B,white,man,,,,null,,,,,,,,,
null,is being opposed by,,html-keyboard-response,232,1215015,0.0-17.0-2.1,25524,List2B,white,man,,,,null,,,,,,,,,
110358.1,,,survey-text,233,1325376,0.0-17.0-3.1,25524,List2B,white,man,,,,,"{""Q0"":""fred is being opposed by beth""}","<img src=""stim_listB/oppose4.gif""style=""height:400px;""></stim_listB>",is being opposed by,,,,,,
null,"<div style=""font-size:60px;"">+</div>",,html-keyboard-response,234,1325878,0.0-17.0-0.2,25524,List2B,white,man,,,,null,,,,,,,,,
null,"<img src=""stim_listB/oppose1.gif""style=""height:400px;""></stim_listB>",,html-keyboard-response,235,1327879,0.0-17.0-1.2,25524,List2B,white,man,,,,null,,,,,,,,,
null,is opposing,,html-keyboard-response,236,1329889,0.0-17.0-2.2,25524,List2B,white,man,,,,null,,,,,,,,,
6785.7,,,survey-text,237,1336676,0.0-17.0-3.2,25524,List2B,white,man,,,,,"{""Q0"":""jane is opposing dave""}","<img src=""stim_listB/oppose1.gif""style=""height:400px;""></stim_listB>",is opposing,,,,,,
null,"<div style=""font-size:60px;"">+</div>",,html-keyboard-response,238,1337182,0.0-17.0-0.3,25524,List2B,white,man,,,,null,,,,,,,,,
null,"<img src=""stim_listB/oppose8.gif""style=""height:400px;""></stim_listB>",,html-keyboard-response,239,1339187,0.0-17.0-1.3,25524,List2B,white,man,,,,null,,,,,,,,,
null,is being opposed by,,html-keyboard-response,240,1341200,0.0-17.0-2.3,25524,List2B,white,man,,,,null,,,,,,,,,
8597,,,survey-text,241,1349799,0.0-17.0-3.3,25524,List2B,white,man,,,,,"{""Q0"":""beth is being opposed by ruth""}","<img src=""stim_listB/oppose8.gif""style=""height:400px;""></stim_listB>",is being opposed by,,,,,,
null,"<div style=""font-size:60px;"">+</div>",,html-keyboard-response,242,1350303,0.0-17.0-0.4,25524,List2B,white,man,,,,null,,,,,,,,,
null,"<img src=""stim_listB/challenge2.gif""style=""height:400px;""></stim_listB>",,html-keyboard-response,243,1352319,0.0-17.0-1.4,25524,List2B,white,man,,,,null,,,,,,,,,
null,is being challenged by,,html-keyboard-response,244,1354328,0.0-17.0-2.4,25524,List2B,white,man,,,,null,,,,,,,,,
20157.7,,,survey-text,245,1374489,0.0-17.0-3.4,25524,List2B,white,man,,,,,"{""Q0"":""luke is being apposed beth""}","<img src=""stim_listB/challenge2.gif""style=""height:400px;""></stim_listB>",is being challenged by,,,,,,
null,"<div style=""font-size:60px;"">+</div>",,html-keyboard-response,246,1375001,0.0-17.0-0.5,25524,List2B,white,man,,,,null,,,,,,,,,
null,"<img src=""stim_listB/look4.gif""style=""height:400px;""></stim_listB>",,html-keyboard-response,247,1377004,0.0-17.0-1.5,25524,List2B,white,man,,,,null,,,,,,,,,
null,is being looked at by,,html-keyboard-response,248,1379016,0.0-17.0-2.5,25524,List2B,white,man,,,,null,,,,,,,,,
11383.8,,,survey-text,249,1390403,0.0-17.0-3.5,25524,List2B,white,man,,,,,"{""Q0"":""mike is being looked at by kate""}","<img src=""stim_listB/look4.gif""style=""height:400px;""></stim_listB>",is being looked at by,,,,,,
null,"<div style=""font-size:60px;"">+</div>",,html-keyboard-response,250,1390914,0.0-17.0-0.6,25524,List2B,white,man,,,,null,,,,,,,,,
null,"<img src=""stim_listB/touch5.gif""style=""height:400px;""></stim_listB>",,html-keyboard-response,251,1392916,0.0-17.0-1.6,25524,List2B,white,man,,,,null,,,,,,,,,
null,is touching,,html-keyboard-response,252,1394928,0.0-17.0-2.6,25524,List2B,white,man,,,,null,,,,,,,,,
5791,,,survey-text,253,1400722,0.0-17.0-3.6,25524,List2B,white,man,,,,,"{""Q0"":""mike is touching dave""}","<img src=""stim_listB/touch5.gif""style=""height:400px;""></stim_listB>",is touching,,,,,,
null,"<div style=""font-size:60px;"">+</div>",,html-keyboard-response,254,1401223,0.0-17.0-0.7,25524,List2B,white,man,,,,null,,,,,,,,,
null,"<img src=""stim_listB/oppose2.gif""style=""height:400px;""></stim_listB>",,html-keyboard-response,255,1403239,0.0-17.0-1.7,25524,List2B,white,man,,,,null,,,,,,,,,
null,is being opposed by,,html-keyboard-response,256,1405249,0.0-17.0-2.7,25524,List2B,white,man,,,,null,,,,,,,,,
6656.9,,,survey-text,257,1411909,0.0-17.0-3.7,25524,List2B,white,man,,,,,"{""Q0"":""ruth is opposing luke""}","<img src=""stim_listB/oppose2.gif""style=""height:400px;""></stim_listB>",is being opposed by,,,,,,
null,"<div style=""font-size:60px;"">+</div>",,html-keyboard-response,258,1412411,0.0-17.0-0.8,25524,List2B,white,man,,,,null,,,,,,,,,
null,"<img src=""stim_listB/shout7.gif""style=""height:400px;""></stim_listB>",,html-keyboard-response,259,1414415,0.0-17.0-1.8,25524,List2B,white,man,,,,null,,,,,,,,,
null,is shouting at,,html-keyboard-response,260,1416416,0.0-17.0-2.8,25524,List2B,white,man,,,,null,,,,,,,,,
4469.3,,,survey-text,261,1420888,0.0-17.0-3.8,25524,List2B,white,man,,,,,"{""Q0"":""ruth is shouting at beth""}","<img src=""stim_listB/shout7.gif""style=""height:400px;""></stim_listB>",is shouting at,,,,,,
null,"<div style=""font-size:60px;"">+</div>",,html-keyboard-response,262,1421402,0.0-17.0-0.9,25524,List2B,white,man,,,,null,,,,,,,,,
null,"<img src=""stim_listB/shout6.gif""style=""height:400px;""></stim_listB>",,html-keyboard-response,263,1423411,0.0-17.0-1.9,25524,List2B,white,man,,,,null,,,,,,,,,
null,is being shouted at by,,html-keyboard-response,264,1425419,0.0-17.0-2.9,25524,List2B,white,man,,,,null,,,,,,,,,
17007.6,,,survey-text,265,1442430,0.0-17.0-3.9,25524,List2B,white,man,,,,,"{""Q0"":""dave is being shouted at by mike""}","<img src=""stim_listB/shout6.gif""style=""height:400px;""></stim_listB>",is being shouted at by,,,,,,
null,"<div style=""font-size:60px;"">+</div>",,html-keyboard-response,266,1442936,0.0-17.0-0.10,25524,List2B,white,man,,,,null,,,,,,,,,
null,"<img src=""stim_listB/oppose5.gif""style=""height:400px;""></stim_listB>",,html-keyboard-response,267,1444952,0.0-17.0-1.10,25524,List2B,white,man,,,,null,,,,,,,,,
null,is opposing,,html-keyboard-response,268,1446953,0.0-17.0-2.10,25524,List2B,white,man,,,,null,,,,,,,,,
5368.8,,,survey-text,269,1452325,0.0-17.0-3.10,25524,List2B,white,man,,,,,"{""Q0"":""mike is opposing dave""}","<img src=""stim_listB/oppose5.gif""style=""height:400px;""></stim_listB>",is opposing,,,,,,
null,"<div style=""font-size:60px;"">+</div>",,html-keyboard-response,270,1452839,0.0-17.0-0.11,25524,List2B,white,man,,,,null,,,,,,,,,
null,"<img src=""stim_listB/hug2.gif""style=""height:400px;""></stim_listB>",,html-keyboard-response,271,1454841,0.0-17.0-1.11,25524,List2B,white,man,,,,null,,,,,,,,,
null,is being hugged by,,html-keyboard-response,272,1456847,0.0-17.0-2.11,25524,List2B,white,man,,,,null,,,,,,,,,
9616.7,,,survey-text,273,1466465,0.0-17.0-3.11,25524,List2B,white,man,,,,,"{""Q0"":""dave is being hugged by jane""}","<img src=""stim_listB/hug2.gif""style=""height:400px;""></stim_listB>",is being hugged by,,,,,,
null,"<div style=""font-size:60px;"">+</div>",,html-keyboard-response,274,1466975,0.0-17.0-0.12,25524,List2B,white,man,,,,null,,,,,,,,,
null,"<img src=""stim_listB/greet3.gif""style=""height:400px;""></stim_listB>",,html-keyboard-response,275,1468984,0.0-17.0-1.12,25524,List2B,white,man,,,,null,,,,,,,,,
null,is greeting,,html-keyboard-response,276,1470998,0.0-17.0-2.12,25524,List2B,white,man,,,,null,,,,,,,,,
46929.7,,,survey-text,277,1517930,0.0-17.0-3.12,25524,List2B,white,man,,,,,"{""Q0"":""mike is being greeted by beth""}","<img src=""stim_listB/greet3.gif""style=""height:400px;""></stim_listB>",is greeting,,,,,,
null,"<div style=""font-size:60px;"">+</div>",,html-keyboard-response,278,1518443,0.0-17.0-0.13,25524,List2B,white,man,,,,null,,,,,,,,,
null,"<img src=""stim_listB/hug3.gif""style=""height:400px;""></stim_listB>",,html-keyboard-response,279,1520452,0.0-17.0-1.13,25524,List2B,white,man,,,,null,,,,,,,,,
null,is hugging,,html-keyboard-response,280,1522458,0.0-17.0-2.13,25524,List2B,white,man,,,,null,,,,,,,,,
14904.9,,,survey-text,281,1537365,0.0-17.0-3.13,25524,List2B,white,man,,,,,"{""Q0"":""beth is hugging fred""}","<img src=""stim_listB/hug3.gif""style=""height:400px;""></stim_listB>",is hugging,,,,,,
null,"<div style=""font-size:60px;"">+</div>",,html-keyboard-response,282,1537869,0.0-17.0-0.14,25524,List2B,white,man,,,,null,,,,,,,,,
null,"<img src=""stim_listB/greet1.gif""style=""height:400px;""></stim_listB>",,html-keyboard-response,283,1539879,0.0-17.0-1.14,25524,List2B,white,man,,,,null,,,,,,,,,
null,is greeting,,html-keyboard-response,284,1541882,0.0-17.0-2.14,25524,List2B,white,man,,,,null,,,,,,,,,
25489.3,,,survey-text,285,1567375,0.0-17.0-3.14,25524,List2B,white,man,,,,,"{""Q0"":""dave is greeting jane""}","<img src=""stim_listB/greet1.gif""style=""height:400px;""></stim_listB>",is greeting,,,,,,
null,"<div style=""font-size:60px;"">+</div>",,html-keyboard-response,286,1567886,0.0-17.0-0.15,25524,List2B,white,man,,,,null,,,,,,,,,
null,"<img src=""stim_listB/touch7.gif""style=""height:400px;""></stim_listB>",,html-keyboard-response,287,1569896,0.0-17.0-1.15,25524,List2B,white,man,,,,null,,,,,,,,,
null,is touching,,html-keyboard-response,288,1571912,0.0-17.0-2.15,25524,List2B,white,man,,,,null,,,,,,,,,
4184.3,,,survey-text,289,1576100,0.0-17.0-3.15,25524,List2B,white,man,,,,,"{""Q0"":""jane is touching kate""}","<img src=""stim_listB/touch7.gif""style=""height:400px;""></stim_listB>",is touching,,,,,,
null,"<div style=""font-size:60px;"">+</div>",,html-keyboard-response,290,1576608,0.0-17.0-0.16,25524,List2B,white,man,,,,null,,,,,,,,,
null,"<img src=""stim_listB/look5.gif""style=""height:400px;""></stim_listB>",,html-keyboard-response,291,1578612,0.0-17.0-1.16,25524,List2B,white,man,,,,null,,,,,,,,,
null,is looking at,,html-keyboard-response,292,1580626,0.0-17.0-2.16,25524,List2B,white,man,,,,null,,,,,,,,,
34236.8,,,survey-text,293,1614866,0.0-17.0-3.16,25524,List2B,white,man,,,,,"{""Q0"":""fred is being touched by mike""}","<img src=""stim_listB/look5.gif""style=""height:400px;""></stim_listB>",is looking at,,,,,,
null,"<div style=""font-size:60px;"">+</div>",,html-keyboard-response,294,1615377,0.0-17.0-0.17,25524,List2B,white,man,,,,null,,,,,,,,,
null,"<img src=""stim_listB/kiss1.gif""style=""height:400px;""></stim_listB>",,html-keyboard-response,295,1617380,0.0-17.0-1.17,25524,List2B,white,man,,,,null,,,,,,,,,
null,is kissing,,html-keyboard-response,296,1619391,0.0-17.0-2.17,25524,List2B,white,man,,,,null,,,,,,,,,
4487.1,,,survey-text,297,1623880,0.0-17.0-3.17,25524,List2B,white,man,,,,,"{""Q0"":""luke is kissing ruth""}","<img src=""stim_listB/kiss1.gif""style=""height:400px;""></stim_listB>",is kissing,,,,,,
null,"<div style=""font-size:60px;"">+</div>",,html-keyboard-response,298,1624396,0.0-17.0-0.18,25524,List2B,white,man,,,,null,,,,,,,,,
null,"<img src=""stim_listB/greet5.gif""style=""height:400px;""></stim_listB>",,html-keyboard-response,299,1626398,0.0-17.0-1.18,25524,List2B,white,man,,,,null,,,,,,,,,
null,is greeting,,html-keyboard-response,300,1628414,0.0-17.0-2.18,25524,List2B,white,man,,,,null,,,,,,,,,
4921.2,,,survey-text,301,1633338,0.0-17.0-3.18,25524,List2B,white,man,,,,,"{""Q0"":""fred is greeting dave""}","<img src=""stim_listB/greet5.gif""style=""height:400px;""></stim_listB>",is greeting,,,,,,
null,"<div style=""font-size:60px;"">+</div>",,html-keyboard-response,302,1633845,0.0-17.0-0.19,25524,List2B,white,man,,,,null,,,,,,,,,
null,"<img src=""stim_listB/look6.gif""style=""height:400px;""></stim_listB>",,html-keyboard-response,303,1635846,0.0-17.0-1.19,25524,List2B,white,man,,,,null,,,,,,,,,
null,is being looked at by,,html-keyboard-response,304,1637847,0.0-17.0-2.19,25524,List2B,white,man,,,,null,,,,,,,,,
9742.8,,,survey-text,305,1647593,0.0-17.0-3.19,25524,List2B,white,man,,,,,"{""Q0"":""dave is being looked at by mike""}","<img src=""stim_listB/look6.gif""style=""height:400px;""></stim_listB>",is being looked at by,,,,,,
2248.4,"<img src='img/portrait_matrix_list2.jpg' style='width:900px;height:500px;''></img><p>If you have memorised all the portraits and names and are ready to start, press Continue.</p><p><strong>Please note: Your memory of these faces will be tested 4 times during this experiment.</strong></p>",0,html-button-response,306,1649842,0.0-18.0-0.0,25524,List2B,white,man,,,,,,,,,,,,,
1600.6,"<img src=""portrait/WM2.jpg""style=""height:400px;""></img>",7,html-button-response,307,1652445,0.0-18.0-1.0,25524,List2B,white,man,,TRUE,7,,,,,,,,,,
null,CORRECT,,html-keyboard-response,308,1653963,0.0-18.0-2.0-0.0,25524,List2B,white,man,,,,null,,,,,,,,,
2323.5,"<img src=""portrait/WM1.jpg""style=""height:400px;""></img>",6,html-button-response,309,1656289,0.0-18.0-4.0,25524,List2B,white,man,,TRUE,6,,,,,,,,,,
null,CORRECT,,html-keyboard-response,310,1657801,0.0-18.0-5.0-0.0,25524,List2B,white,man,,,,null,,,,,,,,,
1614.7,"<img src=""portrait/BM1.jpg""style=""height:400px;""></img>",4,html-button-response,311,1659418,0.0-18.0-7.0,25524,List2B,white,man,,TRUE,4,,,,,,,,,,
null,CORRECT,,html-keyboard-response,312,1660922,0.0-18.0-8.0-0.0,25524,List2B,white,man,,,,null,,,,,,,,,
1768.9,"<img src=""portrait/BW1.jpg""style=""height:400px;""></img>",0,html-button-response,313,1662691,0.0-18.0-10.0,25524,List2B,white,man,,TRUE,0,,,,,,,,,,
null,CORRECT,,html-keyboard-response,314,1664215,0.0-18.0-11.0-0.0,25524,List2B,white,man,,,,null,,,,,,,,,
1524.1,"<img src=""portrait/WW2.jpg""style=""height:400px;""></img>",3,html-button-response,315,1665740,0.0-18.0-13.0,25524,List2B,white,man,,TRUE,3,,,,,,,,,,
null,CORRECT,,html-keyboard-response,316,1667258,0.0-18.0-14.0-0.0,25524,List2B,white,man,,,,null,,,,,,,,,
2509.9,"<img src=""portrait/WW1.jpg""style=""height:400px;""></img>",1,html-button-response,317,1669769,0.0-18.0-16.0,25524,List2B,white,man,,TRUE,1,,,,,,,,,,
null,CORRECT,,html-keyboard-response,318,1671281,0.0-18.0-17.0-0.0,25524,List2B,white,man,,,,null,,,,,,,,,
1146.4,"<img src=""portrait/BW2.jpg""style=""height:400px;""></img>",2,html-button-response,319,1672429,0.0-18.0-19.0,25524,List2B,white,man,,TRUE,2,,,,,,,,,,
null,CORRECT,,html-keyboard-response,320,1673952,0.0-18.0-20.0-0.0,25524,List2B,white,man,,,,null,,,,,,,,,
1808.9,"<img src=""portrait/BM2.jpg""style=""height:400px;""></img>",5,html-button-response,321,1675763,0.0-18.0-22.0,25524,List2B,white,man,,TRUE,5,,,,,,,,,,
null,CORRECT,,html-keyboard-response,322,1677277,0.0-18.0-23.0-0.0,25524,List2B,white,man,,,,null,,,,,,,,,
1514.1,<p>You got 8 out of 8 right first time. Press Continue.</p>,0,html-button-response,323,1678792,0.0-18.0-25.0,25524,List2B,white,man,,,,,,,,,,,,,
null,"<div style=""font-size:60px;"">+</div>",,html-keyboard-response,324,1680297,0.0-19.0-0.0,25524,List2B,white,man,,,,null,,,,,,,,,
null,"<img src=""stim_listB/shout4.gif""style=""height:400px;""></stim_listB>",,html-keyboard-response,325,1682298,0.0-19.0-1.0,25524,List2B,white,man,,,,null,,,,,,,,,
null,is being shouted at by,,html-keyboard-response,326,1684299,0.0-19.0-2.0,25524,List2B,white,man,,,,null,,,,,,,,,
7450.9,,,survey-text,327,1691753,0.0-19.0-3.0,25524,List2B,white,man,,,,,"{""Q0"":""kate is being shouted at by mike""}","<img src=""stim_listB/shout4.gif""style=""height:400px;""></stim_listB>",is being shouted at by,,,,,,
null,"<div style=""font-size:60px;"">+</div>",,html-keyboard-response,328,1692257,0.0-19.0-0.1,25524,List2B,white,man,,,,null,,,,,,,,,
null,"<img src=""stim_listB/copy4.gif""style=""height:400px;""></stim_listB>",,html-keyboard-response,329,1694270,0.0-19.0-1.1,25524,List2B,white,man,,,,null,,,,,,,,,
null,is being copied by,,html-keyboard-response,330,1696278,0.0-19.0-2.1,25524,List2B,white,man,,,,null,,,,,,,,,
5536.6,,,survey-text,331,1701815,0.0-19.0-3.1,25524,List2B,white,man,,,,,"{""Q0"":""fred is being copied by kate""}","<img src=""stim_listB/copy4.gif""style=""height:400px;""></stim_listB>",is being copied by,,,,,,
null,"<div style=""font-size:60px;"">+</div>",,html-keyboard-response,332,1702319,0.0-19.0-0.2,25524,List2B,white,man,,,,null,,,,,,,,,
null,"<img src=""stim_listB/touch8.gif""style=""height:400px;""></stim_listB>",,html-keyboard-response,333,1704321,0.0-19.0-1.2,25524,List2B,white,man,,,,null,,,,,,,,,
null,is being touched by,,html-keyboard-response,334,1706329,0.0-19.0-2.2,25524,List2B,white,man,,,,null,,,,,,,,,
8292.8,,,survey-text,335,1714625,0.0-19.0-3.2,25524,List2B,white,man,,,,,"{""Q0"":""beth is being touched by ruth""}","<img src=""stim_listB/touch8.gif""style=""height:400px;""></stim_listB>",is being touched by,,,,,,
null,"<div style=""font-size:60px;"">+</div>",,html-keyboard-response,336,1715133,0.0-19.0-0.3,25524,List2B,white,man,,,,null,,,,,,,,,
null,"<img src=""stim_listB/challenge8.gif""style=""height:400px;""></stim_listB>",,html-keyboard-response,337,1717136,0.0-19.0-1.3,25524,List2B,white,man,,,,null,,,,,,,,,
null,is being challenged by,,html-keyboard-response,338,1719150,0.0-19.0-2.3,25524,List2B,white,man,,,,null,,,,,,,,,
21910.5,,,survey-text,339,1741064,0.0-19.0-3.3,25524,List2B,white,man,,,,,"{""Q0"":""ruth is copying kate""}","<img src=""stim_listB/challenge8.gif""style=""height:400px;""></stim_listB>",is being challenged by,,,,,,
null,"<div style=""font-size:60px;"">+</div>",,html-keyboard-response,340,1741566,0.0-19.0-0.4,25524,List2B,white,man,,,,null,,,,,,,,,
null,"<img src=""stim_listB/challenge5.gif""style=""height:400px;""></stim_listB>",,html-keyboard-response,341,1743567,0.0-19.0-1.4,25524,List2B,white,man,,,,null,,,,,,,,,
null,is challenging,,html-keyboard-response,342,1745569,0.0-19.0-2.4,25524,List2B,white,man,,,,null,,,,,,,,,
9193.9,,,survey-text,343,1754766,0.0-19.0-3.4,25524,List2B,white,man,,,,,"{""Q0"":""fred is challenging dave""}","<img src=""stim_listB/challenge5.gif""style=""height:400px;""></stim_listB>",is challenging,,,,,,
null,"<div style=""font-size:60px;"">+</div>",,html-keyboard-response,344,1755275,0.0-19.0-0.5,25524,List2B,white,man,,,,null,,,,,,,,,
null,"<img src=""stim_listB/challenge6.gif""style=""height:400px;""></stim_listB>",,html-keyboard-response,345,1757278,0.0-19.0-1.5,25524,List2B,white,man,,,,null,,,,,,,,,
null,is being challenged by,,html-keyboard-response,346,1759288,0.0-19.0-2.5,25524,List2B,white,man,,,,null,,,,,,,,,
14286.7,,,survey-text,347,1773577,0.0-19.0-3.5,25524,List2B,white,man,,,,,"{""Q0"":""luke is being challenged by mike""}","<img src=""stim_listB/challenge6.gif""style=""height:400px;""></stim_listB>",is being challenged by,,,,,,
null,"<div style=""font-size:60px;"">+</div>",,html-keyboard-response,348,1774081,0.0-19.0-0.6,25524,List2B,white,man,,,,null,,,,,,,,,
null,"<img src=""stim_listB/look1.gif""style=""height:400px;""></stim_listB>",,html-keyboard-response,349,1776083,0.0-19.0-1.6,25524,List2B,white,man,,,,null,,,,,,,,,
null,is looking at,,html-keyboard-response,350,1778093,0.0-19.0-2.6,25524,List2B,white,man,,,,null,,,,,,,,,
5417.6,,,survey-text,351,1783514,0.0-19.0-3.6,25524,List2B,white,man,,,,,"{""Q0"":""luke is looking at ruth""}","<img src=""stim_listB/look1.gif""style=""height:400px;""></stim_listB>",is looking at,,,,,,
null,"<div style=""font-size:60px;"">+</div>",,html-keyboard-response,352,1784016,0.0-19.0-0.7,25524,List2B,white,man,,,,null,,,,,,,,,
null,"<img src=""stim_listB/seduce8.gif""style=""height:400px;""></stim_listB>",,html-keyboard-response,353,1786024,0.0-19.0-1.7,25524,List2B,white,man,,,,null,,,,,,,,,
null,is being seduced by,,html-keyboard-response,354,1788040,0.0-19.0-2.7,25524,List2B,white,man,,,,null,,,,,,,,,
7841.8,,,survey-text,355,1795885,0.0-19.0-3.7,25524,List2B,white,man,,,,,"{""Q0"":""jane is being seduced by beth""}","<img src=""stim_listB/seduce8.gif""style=""height:400px;""></stim_listB>",is being seduced by,,,,,,
null,"<div style=""font-size:60px;"">+</div>",,html-keyboard-response,356,1796394,0.0-19.0-0.8,25524,List2B,white,man,,,,null,,,,,,,,,
null,"<img src=""stim_listB/hug1.gif""style=""height:400px;""></stim_listB>",,html-keyboard-response,357,1798398,0.0-19.0-1.8,25524,List2B,white,man,,,,null,,,,,,,,,
null,is hugging,,html-keyboard-response,358,1800409,0.0-19.0-2.8,25524,List2B,white,man,,,,null,,,,,,,,,
12030.3,,,survey-text,359,1812441,0.0-19.0-3.8,25524,List2B,white,man,,,,,"{""Q0"":""ruth is being hugged luke ""}","<img src=""stim_listB/hug1.gif""style=""height:400px;""></stim_listB>",is hugging,,,,,,
null,"<div style=""font-size:60px;"">+</div>",,html-keyboard-response,360,1812955,0.0-19.0-0.9,25524,List2B,white,man,,,,null,,,,,,,,,
null,"<img src=""stim_listB/greet8.gif""style=""height:400px;""></stim_listB>",,html-keyboard-response,361,1814968,0.0-19.0-1.9,25524,List2B,white,man,,,,null,,,,,,,,,
null,is being greeted by,,html-keyboard-response,362,1816981,0.0-19.0-2.9,25524,List2B,white,man,,,,null,,,,,,,,,
7876.2,,,survey-text,363,1824859,0.0-19.0-3.9,25524,List2B,white,man,,,,,"{""Q0"":""kate is being greeted by ruth""}","<img src=""stim_listB/greet8.gif""style=""height:400px;""></stim_listB>",is being greeted by,,,,,,
null,"<div style=""font-size:60px;"">+</div>",,html-keyboard-response,364,1825360,0.0-19.0-0.10,25524,List2B,white,man,,,,null,,,,,,,,,
null,"<img src=""stim_listB/greet2.gif""style=""height:400px;""></stim_listB>",,html-keyboard-response,365,1827370,0.0-19.0-1.10,25524,List2B,white,man,,,,null,,,,,,,,,
null,is being greeted by,,html-keyboard-response,366,1829385,0.0-19.0-2.10,25524,List2B,white,man,,,,null,,,,,,,,,
11396.3,,,survey-text,367,1840784,0.0-19.0-3.10,25524,List2B,white,man,,,,,"{""Q0"":""luke is being greeted by jane""}","<img src=""stim_listB/greet2.gif""style=""height:400px;""></stim_listB>",is being greeted by,,,,,,
null,"<div style=""font-size:60px;"">+</div>",,html-keyboard-response,368,1841293,0.0-19.0-0.11,25524,List2B,white,man,,,,null,,,,,,,,,
null,"<img src=""stim_listB/seduce5.gif""style=""height:400px;""></stim_listB>",,html-keyboard-response,369,1843307,0.0-19.0-1.11,25524,List2B,white,man,,,,null,,,,,,,,,
null,is seducing,,html-keyboard-response,370,1845310,0.0-19.0-2.11,25524,List2B,white,man,,,,null,,,,,,,,,
4963.3,,,survey-text,371,1850277,0.0-19.0-3.11,25524,List2B,white,man,,,,,"{""Q0"":""luke is seducing mike""}","<img src=""stim_listB/seduce5.gif""style=""height:400px;""></stim_listB>",is seducing,,,,,,
null,"<div style=""font-size:60px;"">+</div>",,html-keyboard-response,372,1850788,0.0-19.0-0.12,25524,List2B,white,man,,,,null,,,,,,,,,
null,"<img src=""stim_listB/kiss8.gif""style=""height:400px;""></stim_listB>",,html-keyboard-response,373,1852797,0.0-19.0-1.12,25524,List2B,white,man,,,,null,,,,,,,,,
null,is being kissed by,,html-keyboard-response,374,1854801,0.0-19.0-2.12,25524,List2B,white,man,,,,null,,,,,,,,,
5757.5,,,survey-text,375,1860561,0.0-19.0-3.12,25524,List2B,white,man,,,,,"{""Q0"":""jane is kissing kae""}","<img src=""stim_listB/kiss8.gif""style=""height:400px;""></stim_listB>",is being kissed by,,,,,,
null,"<div style=""font-size:60px;"">+</div>",,html-keyboard-response,376,1861074,0.0-19.0-0.13,25524,List2B,white,man,,,,null,,,,,,,,,
null,"<img src=""stim_listB/shout1.gif""style=""height:400px;""></stim_listB>",,html-keyboard-response,377,1863089,0.0-19.0-1.13,25524,List2B,white,man,,,,null,,,,,,,,,
null,is shouting at,,html-keyboard-response,378,1865092,0.0-19.0-2.13,25524,List2B,white,man,,,,null,,,,,,,,,
3994.2,,,survey-text,379,1869088,0.0-19.0-3.13,25524,List2B,white,man,,,,,"{""Q0"":""luke is shouting at ruth""}","<img src=""stim_listB/shout1.gif""style=""height:400px;""></stim_listB>",is shouting at,,,,,,
null,"<div style=""font-size:60px;"">+</div>",,html-keyboard-response,380,1869589,0.0-19.0-0.14,25524,List2B,white,man,,,,null,,,,,,,,,
null,"<img src=""stim_listB/kiss5.gif""style=""height:400px;""></stim_listB>",,html-keyboard-response,381,1871598,0.0-19.0-1.14,25524,List2B,white,man,,,,null,,,,,,,,,
null,is kissing,,html-keyboard-response,382,1873607,0.0-19.0-2.14,25524,List2B,white,man,,,,null,,,,,,,,,
5235.1,,,survey-text,383,1878845,0.0-19.0-3.14,25524,List2B,white,man,,,,,"{""Q0"":""fred is kissing luke""}","<img src=""stim_listB/kiss5.gif""style=""height:400px;""></stim_listB>",is kissing,,,,,,
null,"<div style=""font-size:60px;"">+</div>",,html-keyboard-response,384,1879361,0.0-19.0-0.15,25524,List2B,white,man,,,,null,,,,,,,,,
null,"<img src=""stim_listB/challenge7.gif""style=""height:400px;""></stim_listB>",,html-keyboard-response,385,1881363,0.0-19.0-1.15,25524,List2B,white,man,,,,null,,,,,,,,,
null,is challenging,,html-keyboard-response,386,1883377,0.0-19.0-2.15,25524,List2B,white,man,,,,null,,,,,,,,,
6256.9,,,survey-text,387,1889637,0.0-19.0-3.15,25524,List2B,white,man,,,,,"{""Q0"":""beth is challenging jane""}","<img src=""stim_listB/challenge7.gif""style=""height:400px;""></stim_listB>",is challenging,,,,,,
null,"<div style=""font-size:60px;"">+</div>",,html-keyboard-response,388,1890143,0.0-19.0-0.16,25524,List2B,white,man,,,,null,,,,,,,,,
null,"<img src=""stim_listB/challenge4.gif""style=""height:400px;""></stim_listB>",,html-keyboard-response,389,1892146,0.0-19.0-1.16,25524,List2B,white,man,,,,null,,,,,,,,,
null,is being challenged by,,html-keyboard-response,390,1894157,0.0-19.0-2.16,25524,List2B,white,man,,,,null,,,,,,,,,
16520.7,,,survey-text,391,1910685,0.0-19.0-3.16,25524,List2B,white,man,,,,,"{""Q0"":""kate is being challenged by fred""}","<img src=""stim_listB/challenge4.gif""style=""height:400px;""></stim_listB>",is being challenged by,,,,,,
null,"<div style=""font-size:60px;"">+</div>",,html-keyboard-response,392,1911186,0.0-19.0-0.17,25524,List2B,white,man,,,,null,,,,,,,,,
null,"<img src=""stim_listB/copy6.gif""style=""height:400px;""></stim_listB>",,html-keyboard-response,393,1913188,0.0-19.0-1.17,25524,List2B,white,man,,,,null,,,,,,,,,
null,is being copied by,,html-keyboard-response,394,1915197,0.0-19.0-2.17,25524,List2B,white,man,,,,null,,,,,,,,,
212885.4,,,survey-text,395,2128086,0.0-19.0-3.17,25524,List2B,white,man,,,,,"{""Q0"":""luke is being copied by mike""}","<img src=""stim_listB/copy6.gif""style=""height:400px;""></stim_listB>",is being copied by,,,,,,
null,"<div style=""font-size:60px;"">+</div>",,html-keyboard-response,396,2128587,0.0-19.0-0.18,25524,List2B,white,man,,,,null,,,,,,,,,
null,"<img src=""stim_listB/hug6.gif""style=""height:400px;""></stim_listB>",,html-keyboard-response,397,2130589,0.0-19.0-1.18,25524,List2B,white,man,,,,null,,,,,,,,,
null,is being hugged by,,html-keyboard-response,398,2132597,0.0-19.0-2.18,25524,List2B,white,man,,,,null,,,,,,,,,
6127.3,,,survey-text,399,2138728,0.0-19.0-3.18,25524,List2B,white,man,,,,,"{""Q0"":""dave is being hugged by mike""}","<img src=""stim_listB/hug6.gif""style=""height:400px;""></stim_listB>",is being hugged by,,,,,,
null,"<div style=""font-size:60px;"">+</div>",,html-keyboard-response,400,2139241,0.0-19.0-0.19,25524,List2B,white,man,,,,null,,,,,,,,,
null,"<img src=""stim_listB/shout8.gif""style=""height:400px;""></stim_listB>",,html-keyboard-response,401,2141242,0.0-19.0-1.19,25524,List2B,white,man,,,,null,,,,,,,,,
null,is being shouted at by,,html-keyboard-response,402,2143250,0.0-19.0-2.19,25524,List2B,white,man,,,,null,,,,,,,,,
8027.5,,,survey-text,403,2151280,0.0-19.0-3.19,25524,List2B,white,man,,,,,"{""Q0"":""kate is being shouted at by jane""}","<img src=""stim_listB/shout8.gif""style=""height:400px;""></stim_listB>",is being shouted at by,,,,,,
2268.2,<p>Thank you for completing that task.</p><p>The final part of this session is a questionnaire that will take about 4 minutes.</p><p>Press Continue.</p>,0,html-button-response,404,2153549,0.0-20.0,25524,List2B,white,man,,,,,,,,,,,,,
83854.1,,,survey-text,405,2238408,0.0-21.0,25524,List2B,white,man,,,,,"{""Q0"":""20"",""Q1"":""english"",""Q2"":""english"",""Q3"":""Usa"",""Q4"":""Caucasian "",""Q5"":""white"",""Q6"":""male""}",,,demographics,,,,,
1996.4,<p>Have you lived in the USA for the last 5 years or more?</p>,0,html-button-response,406,2240406,0.0-22.0,25524,List2B,white,man,,,,,,,,fiveyears,,,,,
1545,<p>Move the slider to show the extent to which you agree with the following statements.</p>,0,html-button-response,407,2242953,0.0-23.0,25524,List2B,white,man,,,,,,,,,,,,,
8491.5,,,html-slider-response,408,2252454,0.0-24.0-0.0-0.0,25524,List2B,white,man,,,,,,,,survey_gender,21,,,It is not always easy for people to know what I am thinking.,filler
1909.3,,,html-slider-response,409,2254365,0.0-24.0-0.0-0.1,25524,List2B,white,man,,,,,,,,survey_gender,100,,,I feel committed to my gender.,committed
1884.3,,,html-slider-response,410,2256250,0.0-24.0-0.0-0.2,25524,List2B,white,man,,,,,,,,survey_gender,100,,,I feel a bond with my friends.,filler
3305.7,,,html-slider-response,411,2259557,0.0-24.0-0.0-0.3,25524,List2B,white,man,,,,,,,,survey_gender,100,,,Most of the friends in my life are very similar to me.,filler
2628.5,,,html-slider-response,412,2262187,0.0-24.0-0.0-0.4,25524,List2B,white,man,,,,,,,,survey_gender,100,,,Being my gender gives me a good feeling.,feeling
2784.7,,,html-slider-response,413,2264973,0.0-24.0-0.0-0.5,25524,List2B,white,man,,,,,,,,survey_gender,100,,,My friends have a lot in common with each other.,filler
4991.6,,,html-slider-response,414,2269966,0.0-24.0-0.0-0.6,25524,List2B,white,man,,,,,,,,survey_gender,89,,,I am similar to the average person of my gender.,similar
3438.5,,,html-slider-response,415,2273406,0.0-24.0-0.0-0.7,25524,List2B,white,man,,,,,,,,survey_gender,100,,,I think that my gender has a lot to be proud of.,proud
1763.9,,,html-slider-response,416,2275171,0.0-24.0-0.0-0.8,25524,List2B,white,man,,,,,,,,survey_gender,100,,,My friends understand me.,filler
2684.6,,,html-slider-response,417,2277857,0.0-24.0-0.0-0.9,25524,List2B,white,man,,,,,,,,survey_gender,100,,,Being my gender is an important part of how I see myself.,important
4144,,,html-slider-response,418,2282002,0.0-24.0-0.0-0.10,25524,List2B,white,man,,,,,,,,survey_gender,100,,,I have a lot in common with my friends.,filler
3336.2,,,html-slider-response,419,2285340,0.0-24.0-0.0-0.11,25524,List2B,white,man,,,,,,,,survey_gender,100,,,People of my gender have a lot in common with each other.,common
5250.7,,,html-slider-response,420,2290592,0.0-24.0-0.0-0.12,25524,List2B,white,man,,,,,,,,survey_gender,34,,,I would say I am an animal person.,filler
2532.5,,,html-slider-response,421,2293126,0.0-24.0-0.0-0.13,25524,List2B,white,man,,,,,,,,survey_gender,100,,,The fact that I am my gender is an important part of my identity.,identity
2209.8,,,html-slider-response,422,2295337,0.0-24.0-0.0-0.14,25524,List2B,white,man,,,,,,,,survey_gender,100,,,I am glad to be my gender.,glad
1941.5,,,html-slider-response,423,2297280,0.0-24.0-0.0-0.15,25524,List2B,white,man,,,,,,,,survey_gender,100,,,I consider myself a highly empathetic person.,filler
2657.9,,,html-slider-response,424,2299939,0.0-24.0-0.0-0.16,25524,List2B,white,man,,,,,,,,survey_gender,100,,,I often think about the fact that I am my gender.,often
2318,,,html-slider-response,425,2302258,0.0-24.0-0.0-0.17,25524,List2B,white,man,,,,,,,,survey_gender,100,,,Being around my friends gives me a good feeling.,filler
1926.9,,,html-slider-response,426,2304186,0.0-24.0-0.0-0.18,25524,List2B,white,man,,,,,,,,survey_gender,100,,,People of my gender are very similar to each other.,verysimilar
2845.6,,,html-slider-response,427,2307033,0.0-24.0-0.0-0.19,25524,List2B,white,man,,,,,,,,survey_gender,100,,,I often think about my actions.,filler
1834.3,,,html-slider-response,428,2308869,0.0-24.0-0.0-0.20,25524,List2B,white,man,,,,,,,,survey_gender,100,,,I am glad to have the friends that I have.,filler
2046.8,,,html-slider-response,429,2310917,0.0-24.0-0.0-0.21,25524,List2B,white,man,,,,,,,,survey_gender,100,,,I feel solidarity with my gender.,solidarity
1962.9,,,html-slider-response,430,2312881,0.0-24.0-0.0-0.22,25524,List2B,white,man,,,,,,,,survey_gender,100,,,I feel a bond with my gender.,bond
1770.7,,,html-slider-response,431,2314653,0.0-24.0-0.0-0.23,25524,List2B,white,man,,,,,,,,survey_gender,100,,,Family is not more important to me than friendship.,filler
1284.9,,,html-slider-response,432,2315939,0.0-24.0-0.0-0.24,25524,List2B,white,man,,,,,,,,survey_gender,100,,,It is pleasant to be my gender.,pleasant
1043.7,,,html-slider-response,433,2316984,0.0-24.0-0.0-0.25,25524,List2B,white,man,,,,,,,,survey_gender,100,,,Routine is not important to me.,filler
1052,,,html-slider-response,434,2318037,0.0-24.0-0.0-0.26,25524,List2B,white,man,,,,,,,,survey_gender,100,,,I have a lot in common with the average person of my gender.,average
1696.6,,,html-slider-response,435,2319735,0.0-24.0-0.0-0.27,25524,List2B,white,man,,,,,,,,survey_gender,100,,,I feel solidarity with my friends.,filler
1365.8,,,html-slider-response,436,2321102,0.0-24.0-1.0-0.0,25524,List2B,white,man,,,,,,,,survey_race,100,,,"The older I get, the wiser I feel.",filler
1756.4,,,html-slider-response,437,2322860,0.0-24.0-1.0-0.1,25524,List2B,white,man,,,,,,,,survey_race,100,,,Being my age gives me a good feeling.,filler
1341.4,,,html-slider-response,438,2324202,0.0-24.0-1.0-0.2,25524,List2B,white,man,,,,,,,,survey_race,100,,,I am glad to be my age.,filler
1322.5,,,html-slider-response,439,2325526,0.0-24.0-1.0-0.3,25524,List2B,white,man,,,,,,,,survey_race,100,,,People of my race are very similar to each other.,verysimilar
2248.6,,,html-slider-response,440,2327776,0.0-24.0-1.0-0.4,25524,List2B,white,man,,,,,,,,survey_race,100,,,I have a lot in common with the average person of my race.,average
1623.9,,,html-slider-response,441,2329401,0.0-24.0-1.0-0.5,25524,List2B,white,man,,,,,,,,survey_race,100,,,I am similar to the average person of my race.,similar
2950.2,,,html-slider-response,442,2332352,0.0-24.0-1.0-0.6,25524,List2B,white,man,,,,,,,,survey_race,50,,,I consider myself an introvert.,filler
2665.9,,,html-slider-response,443,2335019,0.0-24.0-1.0-0.7,25524,List2B,white,man,,,,,,,,survey_race,100,,,I often think about the fact that I am my race.,often
1258.4,,,html-slider-response,444,2336279,0.0-24.0-1.0-0.8,25524,List2B,white,man,,,,,,,,survey_race,100,,,It is pleasant to be my race.,pleasant
7240.7,,,html-slider-response,445,2343521,0.0-24.0-1.0-0.9,25524,List2B,white,man,,,,,,,,survey_race,100,,,Being my race is an important part of how I see myself.,important
1484.6,,,html-slider-response,446,2345007,0.0-24.0-1.0-0.10,25524,List2B,white,man,,,,,,,,survey_race,100,,,People my age have a lot in common with each other.,filler
1305.2,,,html-slider-response,447,2346313,0.0-24.0-1.0-0.11,25524,List2B,white,man,,,,,,,,survey_race,100,,,I enjoy being in large groups.,filler
3491.9,,,html-slider-response,448,2349806,0.0-24.0-1.0-0.12,25524,List2B,white,man,,,,,,,,survey_race,87,,,I feel solidarity with my race.,solidarity
1807.4,,,html-slider-response,449,2351615,0.0-24.0-1.0-0.13,25524,List2B,white,man,,,,,,,,survey_race,100,,,I think that my race has a lot to be proud of.,proud
3979.1,,,html-slider-response,450,2355595,0.0-24.0-1.0-0.14,25524,List2B,white,man,,,,,,,,survey_race,54,,,The fact that I am my race is an important part of my identity.,identity
2013.8,,,html-slider-response,451,2357610,0.0-24.0-1.0-0.15,25524,List2B,white,man,,,,,,,,survey_race,100,,,I feel solidarity with people the same age as me.,filler
2017.8,,,html-slider-response,452,2359629,0.0-24.0-1.0-0.16,25524,List2B,white,man,,,,,,,,survey_race,64,,,I consider myself an extrovert.,filler
1866.9,,,html-slider-response,453,2361497,0.0-24.0-1.0-0.17,25524,List2B,white,man,,,,,,,,survey_race,100,,,I am glad to be my race.,glad
1808.8,,,html-slider-response,454,2363307,0.0-24.0-1.0-0.18,25524,List2B,white,man,,,,,,,,survey_race,100,,,People of my race have a lot in common with each other.,common
3978.8,,,html-slider-response,455,2367287,0.0-24.0-1.0-0.19,25524,List2B,white,man,,,,,,,,survey_race,64,,,I feel a bond with my race.,bond
3525.5,,,html-slider-response,456,2370814,0.0-24.0-1.0-0.20,25524,List2B,white,man,,,,,,,,survey_race,100,,,I have a lot in common with people of a similar age to me.,filler
2713.8,,,html-slider-response,457,2373529,0.0-24.0-1.0-0.21,25524,List2B,white,man,,,,,,,,survey_race,51,,,Being my race gives me a good feeling.,feeling
1916,,,html-slider-response,458,2375446,0.0-24.0-1.0-0.22,25524,List2B,white,man,,,,,,,,survey_race,52,,,I feel a bond with people the same age as me.,filler
1073.1,,,html-slider-response,459,2376520,0.0-24.0-1.0-0.23,25524,List2B,white,man,,,,,,,,survey_race,52,,,I often think about the fact that I am my age.,filler
1337.7,,,html-slider-response,460,2377859,0.0-24.0-1.0-0.24,25524,List2B,white,man,,,,,,,,survey_race,54,,,I am glad to be the age I am.,filler
673.1,,,html-slider-response,461,2378533,0.0-24.0-1.0-0.25,25524,List2B,white,man,,,,,,,,survey_race,53,,,My age is not an important part of who I am.,filler
1486.8,,,html-slider-response,462,2380021,0.0-24.0-1.0-0.26,25524,List2B,white,man,,,,,,,,survey_race,55,,,I feel committed to my race.,committed
1300.7,,,html-slider-response,463,2381323,0.0-24.0-1.0-0.27,25524,List2B,white,man,,,,,,,,survey_race,53,,,Getting older does not worry me.,filler
8791.7,,,survey-text,464,2390117,0.0-25.0,25524,List2B,white,man,,,,,"{""Q0"":""ccc""}",,,worker_id,,,,,
2650.1,,,external-html,465,2393009,0.0-26.0,25524,List2B,white,man,debrief.html,,,,,,,,,,,,
