rt,stimulus,button_pressed,trial_type,trial_index,time_elapsed,internal_node_id,subject,list,ppt_race,ppt_gender,url,first_guess,correct,key_press,responses,image_type,phrase_type,test_part,response,stimulus1,stimulus2,question_type,survey_item
3356,Welcome to the experiment. Press Continue to begin.,0,html-button-response,0,3360,0.0-0.0,26424,List1B,black,woman,,,,,,,,,,,,,
23725.5,,,external-html,1,28208,0.0-1.0,26424,List1B,black,woman,consent.html,,,,,,,,,,,,
7104.9,"<p>On the next page, you will see portraits of 8 people and their names.</p><p>Your first task is to take a few minutes to memorise the names of these people.</p><p>You will have to recall their names during the rest of the experiment, so it is</p><p>essential that you try to memorise these people and their names as best as you can.</p><br><p><strong>You will then be tested on your memory of these names and portraits.</strong></p><br><p>The experiment will start after you have completed this memory test.</p><br><p>Ready?</p>",0,html-button-response,2,35316,0.0-2.0,26424,List1B,black,woman,,,,,,,,,,,,,
44972.9,"<img src='img/portrait_matrix_list1.jpg' style='width:900px;height:500px;''></img><p>If you have memorised all the portraits and names and are ready to start, press Continue.</p><p><strong>Please note: Your memory of these faces will be tested 4 times during this experiment.</strong></p>",0,html-button-response,3,81292,0.0-3.0-0.0,26424,List1B,black,woman,,,,,,,,,,,,,
5457,"<img src=""portrait/WM1.jpg""style=""height:400px;""></img>",6,html-button-response,4,87757,0.0-3.0-1.0,26424,List1B,black,woman,,TRUE,6,,,,,,,,,,
null,CORRECT,,html-keyboard-response,5,89271,0.0-3.0-2.0-0.0,26424,List1B,black,woman,,,,null,,,,,,,,,
4691.3,"<img src=""portrait/WM2.jpg""style=""height:400px;""></img>",7,html-button-response,6,93965,0.0-3.0-4.0,26424,List1B,black,woman,,TRUE,7,,,,,,,,,,
null,CORRECT,,html-keyboard-response,7,95471,0.0-3.0-5.0-0.0,26424,List1B,black,woman,,,,null,,,,,,,,,
1730.1,"<img src=""portrait/BM2.jpg""style=""height:400px;""></img>",5,html-button-response,8,97204,0.0-3.0-7.0,26424,List1B,black,woman,,TRUE,5,,,,,,,,,,
null,CORRECT,,html-keyboard-response,9,98711,0.0-3.0-8.0-0.0,26424,List1B,black,woman,,,,null,,,,,,,,,
1767.1,"<img src=""portrait/BM1.jpg""style=""height:400px;""></img>",4,html-button-response,10,100480,0.0-3.0-10.0,26424,List1B,black,woman,,TRUE,4,,,,,,,,,,
null,CORRECT,,html-keyboard-response,11,101983,0.0-3.0-11.0-0.0,26424,List1B,black,woman,,,,null,,,,,,,,,
3225,"<img src=""portrait/BW2.jpg""style=""height:400px;""></img>",2,html-button-response,12,105210,0.0-3.0-13.0,26424,List1B,black,woman,,TRUE,2,,,,,,,,,,
null,CORRECT,,html-keyboard-response,13,106714,0.0-3.0-14.0-0.0,26424,List1B,black,woman,,,,null,,,,,,,,,
3714.5,"<img src=""portrait/WW1.jpg""style=""height:400px;""></img>",1,html-button-response,14,110430,0.0-3.0-16.0,26424,List1B,black,woman,,TRUE,1,,,,,,,,,,
null,CORRECT,,html-keyboard-response,15,111937,0.0-3.0-17.0-0.0,26424,List1B,black,woman,,,,null,,,,,,,,,
2829.4,"<img src=""portrait/BW1.jpg""style=""height:400px;""></img>",0,html-button-response,16,114768,0.0-3.0-19.0,26424,List1B,black,woman,,TRUE,0,,,,,,,,,,
null,CORRECT,,html-keyboard-response,17,116277,0.0-3.0-20.0-0.0,26424,List1B,black,woman,,,,null,,,,,,,,,
6024.6,"<img src=""portrait/WW2.jpg""style=""height:400px;""></img>",3,html-button-response,18,122302,0.0-3.0-22.0,26424,List1B,black,woman,,TRUE,3,,,,,,,,,,
null,CORRECT,,html-keyboard-response,19,123809,0.0-3.0-23.0-0.0,26424,List1B,black,woman,,,,null,,,,,,,,,
1572.8,<p>You got 8 out of 8 right first time. Press Continue.</p>,0,html-button-response,20,125384,0.0-3.0-25.0,26424,List1B,black,woman,,,,,,,,,,,,,
47001.1,"<p>In this experiment, you will view photographs of the people from the memory game interacting.</p><p>By using the <strong>exact</strong> phrase given <i>after</i> the photograph appears and recalling the correct names of the people in the photographs, form a sentence describing the interaction. You do not need to capitalise names.</p><p>Type your answer in the space provided. Please complete every sentence before moving onto the next trial.</p><p>You will only have a few seconds to memorise each given photograph and phrase before you can respond, so try your best to focus.</p><p>An example is given below. Press 'Continue' when you are ready.</p><img src='img/speaking_example.jpg' style='width:800px;height:460px;''></img>",0,html-button-response,21,173392,0.0-4.0,26424,List1B,black,woman,,,,,,,,,,,,,
1981.6,"<p>Before the experiment starts, you will watch two example trials. Press 'Continue'.</p>",0,html-button-response,22,176374,0.0-5.0,26424,List1B,black,woman,,,,,,,,,,,,,
null,<img src='img/play_eg.gif' style='height:400px;''></img>,,html-keyboard-response,23,179379,0.0-6.0,26424,List1B,black,woman,,,,null,,,,,,,,,
null,<p>is playing with</p>,,html-keyboard-response,24,181383,0.0-7.0,26424,List1B,black,woman,,,,null,,,,,,,,,
12194.6,<p><b>Answer:</b> kate is playing with beth</p>,0,html-button-response,25,193579,0.0-8.0,26424,List1B,black,woman,,,,,,,,,,,,,
null,<img src='img/dance_eg.gif' style='height:400px;''></img>,,html-keyboard-response,26,196585,0.0-9.0,26424,List1B,black,woman,,,,null,,,,,,,,,
null,<p>is being entertained by</p>,,html-keyboard-response,27,198591,0.0-10.0,26424,List1B,black,woman,,,,null,,,,,,,,,
7471.6,<p><b>Answer:</b> luke is being entertained by dave</p>,0,html-button-response,28,206064,0.0-11.0,26424,List1B,black,woman,,,,,,,,,,,,,
9272,"<p>Ready to start the experiment?</p><br><p><strong>Remember to describe the picture using a full sentence,</strong></p><p><strong>that combines the names of the people with the <i>exact</i> phrase given.</strong></p><p><strong>To receive full payment you must do this correctly.</strong></p><p><strong> You do not need to capitalise names or use punctuation.</strong></p><br><p>Press 'Continue' to begin.</p>",0,html-button-response,29,216338,0.0-12.0,26424,List1B,black,woman,,,,,,,,,,,,,
null,"<div style=""font-size:60px;"">+</div>",,html-keyboard-response,30,217843,0.0-13.0-0.0,26424,List1B,black,woman,,,,null,,,,,,,,,
null,"<img src=""stim_listB/greet5.gif""style=""height:400px;""></stim_listB>",,html-keyboard-response,31,219848,0.0-13.0-1.0,26424,List1B,black,woman,,,,null,,,,,,,,,
null,is greeting,,html-keyboard-response,32,221853,0.0-13.0-2.0,26424,List1B,black,woman,,,,null,,,,,,,,,
8493.3,,,survey-text,33,230352,0.0-13.0-3.0,26424,List1B,black,woman,,,,,"{""Q0"":""luke is greeting mike""}","<img src=""stim_listB/greet5.gif""style=""height:400px;""></stim_listB>",is greeting,,,,,,
null,"<div style=""font-size:60px;"">+</div>",,html-keyboard-response,34,230854,0.0-13.0-0.1,26424,List1B,black,woman,,,,null,,,,,,,,,
null,"<img src=""stim_listB/hug2.gif""style=""height:400px;""></stim_listB>",,html-keyboard-response,35,232861,0.0-13.0-1.1,26424,List1B,black,woman,,,,null,,,,,,,,,
null,is being hugged by,,html-keyboard-response,36,234864,0.0-13.0-2.1,26424,List1B,black,woman,,,,null,,,,,,,,,
6652.8,,,survey-text,37,241518,0.0-13.0-3.1,26424,List1B,black,woman,,,,,"{""Q0"":""kate is being hugged by mike""}","<img src=""stim_listB/hug2.gif""style=""height:400px;""></stim_listB>",is being hugged by,,,,,,
null,"<div style=""font-size:60px;"">+</div>",,html-keyboard-response,38,242020,0.0-13.0-0.2,26424,List1B,black,woman,,,,null,,,,,,,,,
null,"<img src=""stim_listB/copy1.gif""style=""height:400px;""></stim_listB>",,html-keyboard-response,39,244028,0.0-13.0-1.2,26424,List1B,black,woman,,,,null,,,,,,,,,
null,is copying,,html-keyboard-response,40,246030,0.0-13.0-2.2,26424,List1B,black,woman,,,,null,,,,,,,,,
6076.8,,,survey-text,41,252110,0.0-13.0-3.2,26424,List1B,black,woman,,,,,"{""Q0"":""beth is copying mike""}","<img src=""stim_listB/copy1.gif""style=""height:400px;""></stim_listB>",is copying,,,,,,
null,"<div style=""font-size:60px;"">+</div>",,html-keyboard-response,42,252613,0.0-13.0-0.3,26424,List1B,black,woman,,,,null,,,,,,,,,
null,"<img src=""stim_listB/copy3.gif""style=""height:400px;""></stim_listB>",,html-keyboard-response,43,254620,0.0-13.0-1.3,26424,List1B,black,woman,,,,null,,,,,,,,,
null,is copying,,html-keyboard-response,44,256626,0.0-13.0-2.3,26424,List1B,black,woman,,,,null,,,,,,,,,
6873,,,survey-text,45,263514,0.0-13.0-3.3,26424,List1B,black,woman,,,,,"{""Q0"":""ruth is copying dave""}","<img src=""stim_listB/copy3.gif""style=""height:400px;""></stim_listB>",is copying,,,,,,
null,"<div style=""font-size:60px;"">+</div>",,html-keyboard-response,46,264016,0.0-13.0-0.4,26424,List1B,black,woman,,,,null,,,,,,,,,
null,"<img src=""stim_listB/copy4.gif""style=""height:400px;""></stim_listB>",,html-keyboard-response,47,266028,0.0-13.0-1.4,26424,List1B,black,woman,,,,null,,,,,,,,,
null,is being copied by,,html-keyboard-response,48,268032,0.0-13.0-2.4,26424,List1B,black,woman,,,,null,,,,,,,,,
16759.6,,,survey-text,49,284810,0.0-13.0-3.4,26424,List1B,black,woman,,,,,"{""Q0"":""luke is being copied by jane""}","<img src=""stim_listB/copy4.gif""style=""height:400px;""></stim_listB>",is being copied by,,,,,,
null,"<div style=""font-size:60px;"">+</div>",,html-keyboard-response,50,285312,0.0-13.0-0.5,26424,List1B,black,woman,,,,null,,,,,,,,,
null,"<img src=""stim_listB/look2.gif""style=""height:400px;""></stim_listB>",,html-keyboard-response,51,287316,0.0-13.0-1.5,26424,List1B,black,woman,,,,null,,,,,,,,,
null,is being looked at by,,html-keyboard-response,52,289321,0.0-13.0-2.5,26424,List1B,black,woman,,,,null,,,,,,,,,
10689.3,,,survey-text,53,300016,0.0-13.0-3.5,26424,List1B,black,woman,,,,,"{""Q0"":""mike is being looked at by kate""}","<img src=""stim_listB/look2.gif""style=""height:400px;""></stim_listB>",is being looked at by,,,,,,
null,"<div style=""font-size:60px;"">+</div>",,html-keyboard-response,54,300523,0.0-13.0-0.6,26424,List1B,black,woman,,,,null,,,,,,,,,
null,"<img src=""stim_listB/touch7.gif""style=""height:400px;""></stim_listB>",,html-keyboard-response,55,302526,0.0-13.0-1.6,26424,List1B,black,woman,,,,null,,,,,,,,,
null,is touching,,html-keyboard-response,56,304529,0.0-13.0-2.6,26424,List1B,black,woman,,,,null,,,,,,,,,
6170.8,,,survey-text,57,310703,0.0-13.0-3.6,26424,List1B,black,woman,,,,,"{""Q0"":""jane is touching kate""}","<img src=""stim_listB/touch7.gif""style=""height:400px;""></stim_listB>",is touching,,,,,,
null,"<div style=""font-size:60px;"">+</div>",,html-keyboard-response,58,311210,0.0-13.0-0.7,26424,List1B,black,woman,,,,null,,,,,,,,,
null,"<img src=""stim_listB/hug3.gif""style=""height:400px;""></stim_listB>",,html-keyboard-response,59,313218,0.0-13.0-1.7,26424,List1B,black,woman,,,,null,,,,,,,,,
null,is hugging,,html-keyboard-response,60,315224,0.0-13.0-2.7,26424,List1B,black,woman,,,,null,,,,,,,,,
7581.6,,,survey-text,61,322810,0.0-13.0-3.7,26424,List1B,black,woman,,,,,"{""Q0"":""ruth is hugging luke""}","<img src=""stim_listB/hug3.gif""style=""height:400px;""></stim_listB>",is hugging,,,,,,
null,"<div style=""font-size:60px;"">+</div>",,html-keyboard-response,62,323317,0.0-13.0-0.8,26424,List1B,black,woman,,,,null,,,,,,,,,
null,"<img src=""stim_listB/kiss8.gif""style=""height:400px;""></stim_listB>",,html-keyboard-response,63,325325,0.0-13.0-1.8,26424,List1B,black,woman,,,,null,,,,,,,,,
null,is being kissed by,,html-keyboard-response,64,327331,0.0-13.0-2.8,26424,List1B,black,woman,,,,null,,,,,,,,,
7552.7,,,survey-text,65,334888,0.0-13.0-3.8,26424,List1B,black,woman,,,,,"{""Q0"":""jane is being kissed by kate""}","<img src=""stim_listB/kiss8.gif""style=""height:400px;""></stim_listB>",is being kissed by,,,,,,
null,"<div style=""font-size:60px;"">+</div>",,html-keyboard-response,66,335394,0.0-13.0-0.9,26424,List1B,black,woman,,,,null,,,,,,,,,
null,"<img src=""stim_listB/look5.gif""style=""height:400px;""></stim_listB>",,html-keyboard-response,67,337403,0.0-13.0-1.9,26424,List1B,black,woman,,,,null,,,,,,,,,
null,is looking at,,html-keyboard-response,68,339412,0.0-13.0-2.9,26424,List1B,black,woman,,,,null,,,,,,,,,
17927.2,,,survey-text,69,357343,0.0-13.0-3.9,26424,List1B,black,woman,,,,,"{""Q0"":""luke is looking at ""}","<img src=""stim_listB/look5.gif""style=""height:400px;""></stim_listB>",is looking at,,,,,,
null,"<div style=""font-size:60px;"">+</div>",,html-keyboard-response,70,357849,0.0-13.0-0.10,26424,List1B,black,woman,,,,null,,,,,,,,,
null,"<img src=""stim_listB/greet2.gif""style=""height:400px;""></stim_listB>",,html-keyboard-response,71,359853,0.0-13.0-1.10,26424,List1B,black,woman,,,,null,,,,,,,,,
null,is being greeted by,,html-keyboard-response,72,361855,0.0-13.0-2.10,26424,List1B,black,woman,,,,null,,,,,,,,,
26267.6,,,survey-text,73,388125,0.0-13.0-3.10,26424,List1B,black,woman,,,,,"{""Q0"":"" kate is being greeted by fred""}","<img src=""stim_listB/greet2.gif""style=""height:400px;""></stim_listB>",is being greeted by,,,,,,
null,"<div style=""font-size:60px;"">+</div>",,html-keyboard-response,74,388628,0.0-13.0-0.11,26424,List1B,black,woman,,,,null,,,,,,,,,
null,"<img src=""stim_listB/copy6.gif""style=""height:400px;""></stim_listB>",,html-keyboard-response,75,390635,0.0-13.0-1.11,26424,List1B,black,woman,,,,null,,,,,,,,,
null,is being copied by,,html-keyboard-response,76,392637,0.0-13.0-2.11,26424,List1B,black,woman,,,,null,,,,,,,,,
8982.1,,,survey-text,77,401622,0.0-13.0-3.11,26424,List1B,black,woman,,,,,"{""Q0"":""fred is being copied by dave""}","<img src=""stim_listB/copy6.gif""style=""height:400px;""></stim_listB>",is being copied by,,,,,,
null,"<div style=""font-size:60px;"">+</div>",,html-keyboard-response,78,402128,0.0-13.0-0.12,26424,List1B,black,woman,,,,null,,,,,,,,,
null,"<img src=""stim_listB/oppose7.gif""style=""height:400px;""></stim_listB>",,html-keyboard-response,79,404136,0.0-13.0-1.12,26424,List1B,black,woman,,,,null,,,,,,,,,
null,is opposing,,html-keyboard-response,80,406138,0.0-13.0-2.12,26424,List1B,black,woman,,,,null,,,,,,,,,
10558.8,,,survey-text,81,416700,0.0-13.0-3.12,26424,List1B,black,woman,,,,,"{""Q0"":""kate is opposing jane""}","<img src=""stim_listB/oppose7.gif""style=""height:400px;""></stim_listB>",is opposing,,,,,,
null,"<div style=""font-size:60px;"">+</div>",,html-keyboard-response,82,417202,0.0-13.0-0.13,26424,List1B,black,woman,,,,null,,,,,,,,,
null,"<img src=""stim_listB/touch2.gif""style=""height:400px;""></stim_listB>",,html-keyboard-response,83,419206,0.0-13.0-1.13,26424,List1B,black,woman,,,,null,,,,,,,,,
null,is being touched by,,html-keyboard-response,84,421211,0.0-13.0-2.13,26424,List1B,black,woman,,,,null,,,,,,,,,
7617.4,,,survey-text,85,428831,0.0-13.0-3.13,26424,List1B,black,woman,,,,,"{""Q0"":""fred is being touched by beth""}","<img src=""stim_listB/touch2.gif""style=""height:400px;""></stim_listB>",is being touched by,,,,,,
null,"<div style=""font-size:60px;"">+</div>",,html-keyboard-response,86,429338,0.0-13.0-0.14,26424,List1B,black,woman,,,,null,,,,,,,,,
null,"<img src=""stim_listB/challenge7.gif""style=""height:400px;""></stim_listB>",,html-keyboard-response,87,431344,0.0-13.0-1.14,26424,List1B,black,woman,,,,null,,,,,,,,,
null,is challenging,,html-keyboard-response,88,433349,0.0-13.0-2.14,26424,List1B,black,woman,,,,null,,,,,,,,,
8208.4,,,survey-text,89,441561,0.0-13.0-3.14,26424,List1B,black,woman,,,,,"{""Q0"":""kate is challenging jane""}","<img src=""stim_listB/challenge7.gif""style=""height:400px;""></stim_listB>",is challenging,,,,,,
null,"<div style=""font-size:60px;"">+</div>",,html-keyboard-response,90,442067,0.0-13.0-0.15,26424,List1B,black,woman,,,,null,,,,,,,,,
null,"<img src=""stim_listB/shout5.gif""style=""height:400px;""></stim_listB>",,html-keyboard-response,91,444074,0.0-13.0-1.15,26424,List1B,black,woman,,,,null,,,,,,,,,
null,is shouting at,,html-keyboard-response,92,446081,0.0-13.0-2.15,26424,List1B,black,woman,,,,null,,,,,,,,,
15813.8,,,survey-text,93,461897,0.0-13.0-3.15,26424,List1B,black,woman,,,,,"{""Q0"":""fred is shouting at luke""}","<img src=""stim_listB/shout5.gif""style=""height:400px;""></stim_listB>",is shouting at,,,,,,
null,"<div style=""font-size:60px;"">+</div>",,html-keyboard-response,94,462402,0.0-13.0-0.16,26424,List1B,black,woman,,,,null,,,,,,,,,
null,"<img src=""stim_listB/challenge6.gif""style=""height:400px;""></stim_listB>",,html-keyboard-response,95,464409,0.0-13.0-1.16,26424,List1B,black,woman,,,,null,,,,,,,,,
null,is being challenged by,,html-keyboard-response,96,466413,0.0-13.0-2.16,26424,List1B,black,woman,,,,null,,,,,,,,,
11166.5,,,survey-text,97,477582,0.0-13.0-3.16,26424,List1B,black,woman,,,,,"{""Q0"":""fred is being challenged by dave""}","<img src=""stim_listB/challenge6.gif""style=""height:400px;""></stim_listB>",is being challenged by,,,,,,
null,"<div style=""font-size:60px;"">+</div>",,html-keyboard-response,98,478088,0.0-13.0-0.17,26424,List1B,black,woman,,,,null,,,,,,,,,
null,"<img src=""stim_listB/oppose3.gif""style=""height:400px;""></stim_listB>",,html-keyboard-response,99,480095,0.0-13.0-1.17,26424,List1B,black,woman,,,,null,,,,,,,,,
null,is opposing,,html-keyboard-response,100,482097,0.0-13.0-2.17,26424,List1B,black,woman,,,,null,,,,,,,,,
5983.1,,,survey-text,101,488084,0.0-13.0-3.17,26424,List1B,black,woman,,,,,"{""Q0"":""dave is opposing jane""}","<img src=""stim_listB/oppose3.gif""style=""height:400px;""></stim_listB>",is opposing,,,,,,
null,"<div style=""font-size:60px;"">+</div>",,html-keyboard-response,102,488587,0.0-13.0-0.18,26424,List1B,black,woman,,,,null,,,,,,,,,
null,"<img src=""stim_listB/challenge2.gif""style=""height:400px;""></stim_listB>",,html-keyboard-response,103,490593,0.0-13.0-1.18,26424,List1B,black,woman,,,,null,,,,,,,,,
null,is being challenged by,,html-keyboard-response,104,492600,0.0-13.0-2.18,26424,List1B,black,woman,,,,null,,,,,,,,,
10224.1,,,survey-text,105,502827,0.0-13.0-3.18,26424,List1B,black,woman,,,,,"{""Q0"":""fred is being challenged by kate""}","<img src=""stim_listB/challenge2.gif""style=""height:400px;""></stim_listB>",is being challenged by,,,,,,
null,"<div style=""font-size:60px;"">+</div>",,html-keyboard-response,106,503335,0.0-13.0-0.19,26424,List1B,black,woman,,,,null,,,,,,,,,
null,"<img src=""stim_listB/greet6.gif""style=""height:400px;""></stim_listB>",,html-keyboard-response,107,505338,0.0-13.0-1.19,26424,List1B,black,woman,,,,null,,,,,,,,,
null,is being greeted by,,html-keyboard-response,108,507342,0.0-13.0-2.19,26424,List1B,black,woman,,,,null,,,,,,,,,
8039.2,,,survey-text,109,515385,0.0-13.0-3.19,26424,List1B,black,woman,,,,,"{""Q0"":""dave is being greeted by fred""}","<img src=""stim_listB/greet6.gif""style=""height:400px;""></stim_listB>",is being greeted by,,,,,,
16378.4,"<img src='img/portrait_matrix_list1.jpg' style='width:900px;height:500px;''></img><p>If you have memorised all the portraits and names and are ready to start, press Continue.</p><p><strong>Please note: Your memory of these faces will be tested 4 times during this experiment.</strong></p>",0,html-button-response,110,531765,0.0-14.0-0.0,26424,List1B,black,woman,,,,,,,,,,,,,
2649,"<img src=""portrait/BM2.jpg""style=""height:400px;""></img>",5,html-button-response,111,535419,0.0-14.0-1.0,26424,List1B,black,woman,,TRUE,5,,,,,,,,,,
null,CORRECT,,html-keyboard-response,112,536926,0.0-14.0-2.0-0.0,26424,List1B,black,woman,,,,null,,,,,,,,,
1605.4,"<img src=""portrait/WM2.jpg""style=""height:400px;""></img>",7,html-button-response,113,538534,0.0-14.0-4.0,26424,List1B,black,woman,,TRUE,7,,,,,,,,,,
null,CORRECT,,html-keyboard-response,114,540044,0.0-14.0-5.0-0.0,26424,List1B,black,woman,,,,null,,,,,,,,,
2149.6,"<img src=""portrait/WW1.jpg""style=""height:400px;""></img>",1,html-button-response,115,542197,0.0-14.0-7.0,26424,List1B,black,woman,,TRUE,1,,,,,,,,,,
null,CORRECT,,html-keyboard-response,116,543704,0.0-14.0-8.0-0.0,26424,List1B,black,woman,,,,null,,,,,,,,,
1579.1,"<img src=""portrait/BW1.jpg""style=""height:400px;""></img>",0,html-button-response,117,545286,0.0-14.0-10.0,26424,List1B,black,woman,,TRUE,0,,,,,,,,,,
null,CORRECT,,html-keyboard-response,118,546794,0.0-14.0-11.0-0.0,26424,List1B,black,woman,,,,null,,,,,,,,,
1546,"<img src=""portrait/BM1.jpg""style=""height:400px;""></img>",4,html-button-response,119,548343,0.0-14.0-13.0,26424,List1B,black,woman,,TRUE,4,,,,,,,,,,
null,CORRECT,,html-keyboard-response,120,549851,0.0-14.0-14.0-0.0,26424,List1B,black,woman,,,,null,,,,,,,,,
1408.6,"<img src=""portrait/BW2.jpg""style=""height:400px;""></img>",2,html-button-response,121,551261,0.0-14.0-16.0,26424,List1B,black,woman,,TRUE,2,,,,,,,,,,
null,CORRECT,,html-keyboard-response,122,552770,0.0-14.0-17.0-0.0,26424,List1B,black,woman,,,,null,,,,,,,,,
1366,"<img src=""portrait/WW2.jpg""style=""height:400px;""></img>",3,html-button-response,123,554139,0.0-14.0-19.0,26424,List1B,black,woman,,TRUE,3,,,,,,,,,,
null,CORRECT,,html-keyboard-response,124,555650,0.0-14.0-20.0-0.0,26424,List1B,black,woman,,,,null,,,,,,,,,
6423.1,"<img src=""portrait/WM1.jpg""style=""height:400px;""></img>",6,html-button-response,125,562075,0.0-14.0-22.0,26424,List1B,black,woman,,TRUE,6,,,,,,,,,,
null,CORRECT,,html-keyboard-response,126,563586,0.0-14.0-23.0-0.0,26424,List1B,black,woman,,,,null,,,,,,,,,
1324.5,<p>You got 8 out of 8 right first time. Press Continue.</p>,0,html-button-response,127,564913,0.0-14.0-25.0,26424,List1B,black,woman,,,,,,,,,,,,,
null,"<div style=""font-size:60px;"">+</div>",,html-keyboard-response,128,566420,0.0-15.0-0.0,26424,List1B,black,woman,,,,null,,,,,,,,,
null,"<img src=""stim_listB/greet4.gif""style=""height:400px;""></stim_listB>",,html-keyboard-response,129,568428,0.0-15.0-1.0,26424,List1B,black,woman,,,,null,,,,,,,,,
null,is being greeted by,,html-keyboard-response,130,570433,0.0-15.0-2.0,26424,List1B,black,woman,,,,null,,,,,,,,,
8877.3,,,survey-text,131,579314,0.0-15.0-3.0,26424,List1B,black,woman,,,,,"{""Q0"":""luke is being greeted by jane""}","<img src=""stim_listB/greet4.gif""style=""height:400px;""></stim_listB>",is being greeted by,,,,,,
null,"<div style=""font-size:60px;"">+</div>",,html-keyboard-response,132,579818,0.0-15.0-0.1,26424,List1B,black,woman,,,,null,,,,,,,,,
null,"<img src=""stim_listB/shout6.gif""style=""height:400px;""></stim_listB>",,html-keyboard-response,133,581823,0.0-15.0-1.1,26424,List1B,black,woman,,,,null,,,,,,,,,
null,is being shouted at by,,html-keyboard-response,134,583826,0.0-15.0-2.1,26424,List1B,black,woman,,,,null,,,,,,,,,
11156.7,,,survey-text,135,594986,0.0-15.0-3.1,26424,List1B,black,woman,,,,,"{""Q0"":""mike is being shouted at by dave""}","<img src=""stim_listB/shout6.gif""style=""height:400px;""></stim_listB>",is being shouted at by,,,,,,
null,"<div style=""font-size:60px;"">+</div>",,html-keyboard-response,136,595492,0.0-15.0-0.2,26424,List1B,black,woman,,,,null,,,,,,,,,
null,"<img src=""stim_listB/seduce3.gif""style=""height:400px;""></stim_listB>",,html-keyboard-response,137,597495,0.0-15.0-1.2,26424,List1B,black,woman,,,,null,,,,,,,,,
null,is seducing,,html-keyboard-response,138,599497,0.0-15.0-2.2,26424,List1B,black,woman,,,,null,,,,,,,,,
6189.6,,,survey-text,139,605691,0.0-15.0-3.2,26424,List1B,black,woman,,,,,"{""Q0"":""luke is seducing jane""}","<img src=""stim_listB/seduce3.gif""style=""height:400px;""></stim_listB>",is seducing,,,,,,
null,"<div style=""font-size:60px;"">+</div>",,html-keyboard-response,140,606193,0.0-15.0-0.3,26424,List1B,black,woman,,,,null,,,,,,,,,
null,"<img src=""stim_listB/look4.gif""style=""height:400px;""></stim_listB>",,html-keyboard-response,141,608200,0.0-15.0-1.3,26424,List1B,black,woman,,,,null,,,,,,,,,
null,is being looked at by,,html-keyboard-response,142,610203,0.0-15.0-2.3,26424,List1B,black,woman,,,,null,,,,,,,,,
10123.9,,,survey-text,143,620331,0.0-15.0-3.3,26424,List1B,black,woman,,,,,"{""Q0"":""dave is being looked at by jane""}","<img src=""stim_listB/look4.gif""style=""height:400px;""></stim_listB>",is being looked at by,,,,,,
null,"<div style=""font-size:60px;"">+</div>",,html-keyboard-response,144,620835,0.0-15.0-0.4,26424,List1B,black,woman,,,,null,,,,,,,,,
null,"<img src=""stim_listB/shout2.gif""style=""height:400px;""></stim_listB>",,html-keyboard-response,145,622842,0.0-15.0-1.4,26424,List1B,black,woman,,,,null,,,,,,,,,
null,is being shouted at by,,html-keyboard-response,146,624845,0.0-15.0-2.4,26424,List1B,black,woman,,,,null,,,,,,,,,
7724.1,,,survey-text,147,632573,0.0-15.0-3.4,26424,List1B,black,woman,,,,,"{""Q0"":""kate is being shouted at by mike""}","<img src=""stim_listB/shout2.gif""style=""height:400px;""></stim_listB>",is being shouted at by,,,,,,
null,"<div style=""font-size:60px;"">+</div>",,html-keyboard-response,148,633076,0.0-15.0-0.5,26424,List1B,black,woman,,,,null,,,,,,,,,
null,"<img src=""stim_listB/copy2.gif""style=""height:400px;""></stim_listB>",,html-keyboard-response,149,635083,0.0-15.0-1.5,26424,List1B,black,woman,,,,null,,,,,,,,,
null,is being copied by,,html-keyboard-response,150,637090,0.0-15.0-2.5,26424,List1B,black,woman,,,,null,,,,,,,,,
10996.2,,,survey-text,151,648090,0.0-15.0-3.5,26424,List1B,black,woman,,,,,"{""Q0"":""fred is being copied by kate""}","<img src=""stim_listB/copy2.gif""style=""height:400px;""></stim_listB>",is being copied by,,,,,,
null,"<div style=""font-size:60px;"">+</div>",,html-keyboard-response,152,648592,0.0-15.0-0.6,26424,List1B,black,woman,,,,null,,,,,,,,,
null,"<img src=""stim_listB/oppose5.gif""style=""height:400px;""></stim_listB>",,html-keyboard-response,153,650596,0.0-15.0-1.6,26424,List1B,black,woman,,,,null,,,,,,,,,
null,is opposing,,html-keyboard-response,154,652598,0.0-15.0-2.6,26424,List1B,black,woman,,,,null,,,,,,,,,
6022,,,survey-text,155,658623,0.0-15.0-3.6,26424,List1B,black,woman,,,,,"{""Q0"":""mike is opposing dave""}","<img src=""stim_listB/oppose5.gif""style=""height:400px;""></stim_listB>",is opposing,,,,,,
null,"<div style=""font-size:60px;"">+</div>",,html-keyboard-response,156,659130,0.0-15.0-0.7,26424,List1B,black,woman,,,,null,,,,,,,,,
null,"<img src=""stim_listB/kiss7.gif""style=""height:400px;""></stim_listB>",,html-keyboard-response,157,661134,0.0-15.0-1.7,26424,List1B,black,woman,,,,null,,,,,,,,,
null,is kissing,,html-keyboard-response,158,663138,0.0-15.0-2.7,26424,List1B,black,woman,,,,null,,,,,,,,,
8608.4,,,survey-text,159,671750,0.0-15.0-3.7,26424,List1B,black,woman,,,,,"{""Q0"":"" ruth is kissing beth""}","<img src=""stim_listB/kiss7.gif""style=""height:400px;""></stim_listB>",is kissing,,,,,,
null,"<div style=""font-size:60px;"">+</div>",,html-keyboard-response,160,672254,0.0-15.0-0.8,26424,List1B,black,woman,,,,null,,,,,,,,,
null,"<img src=""stim_listB/greet8.gif""style=""height:400px;""></stim_listB>",,html-keyboard-response,161,674262,0.0-15.0-1.8,26424,List1B,black,woman,,,,null,,,,,,,,,
null,is being greeted by,,html-keyboard-response,162,676267,0.0-15.0-2.8,26424,List1B,black,woman,,,,null,,,,,,,,,
8224.3,,,survey-text,163,684495,0.0-15.0-3.8,26424,List1B,black,woman,,,,,"{""Q0"":""beth is being greeted by jane""}","<img src=""stim_listB/greet8.gif""style=""height:400px;""></stim_listB>",is being greeted by,,,,,,
null,"<div style=""font-size:60px;"">+</div>",,html-keyboard-response,164,684999,0.0-15.0-0.9,26424,List1B,black,woman,,,,null,,,,,,,,,
null,"<img src=""stim_listB/greet1.gif""style=""height:400px;""></stim_listB>",,html-keyboard-response,165,687003,0.0-15.0-1.9,26424,List1B,black,woman,,,,null,,,,,,,,,
null,is greeting,,html-keyboard-response,166,689005,0.0-15.0-2.9,26424,List1B,black,woman,,,,null,,,,,,,,,
5085,,,survey-text,167,694094,0.0-15.0-3.9,26424,List1B,black,woman,,,,,"{""Q0"":""mike is greeting beth""}","<img src=""stim_listB/greet1.gif""style=""height:400px;""></stim_listB>",is greeting,,,,,,
null,"<div style=""font-size:60px;"">+</div>",,html-keyboard-response,168,694601,0.0-15.0-0.10,26424,List1B,black,woman,,,,null,,,,,,,,,
null,"<img src=""stim_listB/oppose8.gif""style=""height:400px;""></stim_listB>",,html-keyboard-response,169,696605,0.0-15.0-1.10,26424,List1B,black,woman,,,,null,,,,,,,,,
null,is being opposed by,,html-keyboard-response,170,698607,0.0-15.0-2.10,26424,List1B,black,woman,,,,null,,,,,,,,,
8361.5,,,survey-text,171,706972,0.0-15.0-3.10,26424,List1B,black,woman,,,,,"{""Q0"":""ruth is being opposed by beth""}","<img src=""stim_listB/oppose8.gif""style=""height:400px;""></stim_listB>",is being opposed by,,,,,,
null,"<div style=""font-size:60px;"">+</div>",,html-keyboard-response,172,707479,0.0-15.0-0.11,26424,List1B,black,woman,,,,null,,,,,,,,,
null,"<img src=""stim_listB/seduce4.gif""style=""height:400px;""></stim_listB>",,html-keyboard-response,173,709482,0.0-15.0-1.11,26424,List1B,black,woman,,,,null,,,,,,,,,
null,is being seduced by,,html-keyboard-response,174,711485,0.0-15.0-2.11,26424,List1B,black,woman,,,,null,,,,,,,,,
8053.2,,,survey-text,175,719543,0.0-15.0-3.11,26424,List1B,black,woman,,,,,"{""Q0"":""dave is being seduced by ruth""}","<img src=""stim_listB/seduce4.gif""style=""height:400px;""></stim_listB>",is being seduced by,,,,,,
null,"<div style=""font-size:60px;"">+</div>",,html-keyboard-response,176,720049,0.0-15.0-0.12,26424,List1B,black,woman,,,,null,,,,,,,,,
null,"<img src=""stim_listB/oppose2.gif""style=""height:400px;""></stim_listB>",,html-keyboard-response,177,722053,0.0-15.0-1.12,26424,List1B,black,woman,,,,null,,,,,,,,,
null,is being opposed by,,html-keyboard-response,178,724059,0.0-15.0-2.12,26424,List1B,black,woman,,,,null,,,,,,,,,
8098.3,,,survey-text,179,732161,0.0-15.0-3.12,26424,List1B,black,woman,,,,,"{""Q0"":""fred is being opposed by beth""}","<img src=""stim_listB/oppose2.gif""style=""height:400px;""></stim_listB>",is being opposed by,,,,,,
null,"<div style=""font-size:60px;"">+</div>",,html-keyboard-response,180,732668,0.0-15.0-0.13,26424,List1B,black,woman,,,,null,,,,,,,,,
null,"<img src=""stim_listB/shout8.gif""style=""height:400px;""></stim_listB>",,html-keyboard-response,181,734672,0.0-15.0-1.13,26424,List1B,black,woman,,,,null,,,,,,,,,
null,is being shouted at by,,html-keyboard-response,182,736677,0.0-15.0-2.13,26424,List1B,black,woman,,,,null,,,,,,,,,
7698.5,,,survey-text,183,744379,0.0-15.0-3.13,26424,List1B,black,woman,,,,,"{""Q0"":""kate is being shouted at by jane""}","<img src=""stim_listB/shout8.gif""style=""height:400px;""></stim_listB>",is being shouted at by,,,,,,
null,"<div style=""font-size:60px;"">+</div>",,html-keyboard-response,184,744881,0.0-15.0-0.14,26424,List1B,black,woman,,,,null,,,,,,,,,
null,"<img src=""stim_listB/hug1.gif""style=""height:400px;""></stim_listB>",,html-keyboard-response,185,746887,0.0-15.0-1.14,26424,List1B,black,woman,,,,null,,,,,,,,,
null,is hugging,,html-keyboard-response,186,748894,0.0-15.0-2.14,26424,List1B,black,woman,,,,null,,,,,,,,,
6804.8,,,survey-text,187,755702,0.0-15.0-3.14,26424,List1B,black,woman,,,,,"{""Q0"":""beth is hugging fred""}","<img src=""stim_listB/hug1.gif""style=""height:400px;""></stim_listB>",is hugging,,,,,,
null,"<div style=""font-size:60px;"">+</div>",,html-keyboard-response,188,756205,0.0-15.0-0.15,26424,List1B,black,woman,,,,null,,,,,,,,,
null,"<img src=""stim_listB/hug7.gif""style=""height:400px;""></stim_listB>",,html-keyboard-response,189,758213,0.0-15.0-1.15,26424,List1B,black,woman,,,,null,,,,,,,,,
null,is hugging,,html-keyboard-response,190,760216,0.0-15.0-2.15,26424,List1B,black,woman,,,,null,,,,,,,,,
4157.2,,,survey-text,191,764378,0.0-15.0-3.15,26424,List1B,black,woman,,,,,"{""Q0"":""beth is hugging ruth""}","<img src=""stim_listB/hug7.gif""style=""height:400px;""></stim_listB>",is hugging,,,,,,
null,"<div style=""font-size:60px;"">+</div>",,html-keyboard-response,192,764884,0.0-15.0-0.16,26424,List1B,black,woman,,,,null,,,,,,,,,
null,"<img src=""stim_listB/touch6.gif""style=""height:400px;""></stim_listB>",,html-keyboard-response,193,766889,0.0-15.0-1.16,26424,List1B,black,woman,,,,null,,,,,,,,,
null,is being touched by,,html-keyboard-response,194,768893,0.0-15.0-2.16,26424,List1B,black,woman,,,,null,,,,,,,,,
12128.8,,,survey-text,195,781026,0.0-15.0-3.16,26424,List1B,black,woman,,,,,"{""Q0"":""fred is being touched by luke""}","<img src=""stim_listB/touch6.gif""style=""height:400px;""></stim_listB>",is being touched by,,,,,,
null,"<div style=""font-size:60px;"">+</div>",,html-keyboard-response,196,781533,0.0-15.0-0.17,26424,List1B,black,woman,,,,null,,,,,,,,,
null,"<img src=""stim_listB/kiss2.gif""style=""height:400px;""></stim_listB>",,html-keyboard-response,197,783536,0.0-15.0-1.17,26424,List1B,black,woman,,,,null,,,,,,,,,
null,is being kissed by,,html-keyboard-response,198,785542,0.0-15.0-2.17,26424,List1B,black,woman,,,,null,,,,,,,,,
14576.6,,,survey-text,199,800122,0.0-15.0-3.17,26424,List1B,black,woman,,,,,"{""Q0"":""mike is being kissed by kate""}","<img src=""stim_listB/kiss2.gif""style=""height:400px;""></stim_listB>",is being kissed by,,,,,,
null,"<div style=""font-size:60px;"">+</div>",,html-keyboard-response,200,800625,0.0-15.0-0.18,26424,List1B,black,woman,,,,null,,,,,,,,,
null,"<img src=""stim_listB/look1.gif""style=""height:400px;""></stim_listB>",,html-keyboard-response,201,802631,0.0-15.0-1.18,26424,List1B,black,woman,,,,null,,,,,,,,,
null,is looking at,,html-keyboard-response,202,804633,0.0-15.0-2.18,26424,List1B,black,woman,,,,null,,,,,,,,,
8316.4,,,survey-text,203,812954,0.0-15.0-3.18,26424,List1B,black,woman,,,,,"{""Q0"":""fred is looking at beth""}","<img src=""stim_listB/look1.gif""style=""height:400px;""></stim_listB>",is looking at,,,,,,
null,"<div style=""font-size:60px;"">+</div>",,html-keyboard-response,204,813461,0.0-15.0-0.19,26424,List1B,black,woman,,,,null,,,,,,,,,
null,"<img src=""stim_listB/oppose4.gif""style=""height:400px;""></stim_listB>",,html-keyboard-response,205,815469,0.0-15.0-1.19,26424,List1B,black,woman,,,,null,,,,,,,,,
null,is being opposed by,,html-keyboard-response,206,817476,0.0-15.0-2.19,26424,List1B,black,woman,,,,null,,,,,,,,,
10761.1,,,survey-text,207,828241,0.0-15.0-3.19,26424,List1B,black,woman,,,,,"{""Q0"":""luke is being opposed by ruth""}","<img src=""stim_listB/oppose4.gif""style=""height:400px;""></stim_listB>",is being opposed by,,,,,,
18513.7,"<img src='img/portrait_matrix_list1.jpg' style='width:900px;height:500px;''></img><p>If you have memorised all the portraits and names and are ready to start, press Continue.</p><p><strong>Please note: Your memory of these faces will be tested 4 times during this experiment.</strong></p>",0,html-button-response,208,846756,0.0-16.0-0.0,26424,List1B,black,woman,,,,,,,,,,,,,
1349,"<img src=""portrait/BM1.jpg""style=""height:400px;""></img>",4,html-button-response,209,849109,0.0-16.0-1.0,26424,List1B,black,woman,,TRUE,4,,,,,,,,,,
null,CORRECT,,html-keyboard-response,210,850616,0.0-16.0-2.0-0.0,26424,List1B,black,woman,,,,null,,,,,,,,,
2326.2,"<img src=""portrait/BW1.jpg""style=""height:400px;""></img>",0,html-button-response,211,852944,0.0-16.0-4.0,26424,List1B,black,woman,,TRUE,0,,,,,,,,,,
null,CORRECT,,html-keyboard-response,212,854453,0.0-16.0-5.0-0.0,26424,List1B,black,woman,,,,null,,,,,,,,,
1896.7,"<img src=""portrait/WW2.jpg""style=""height:400px;""></img>",3,html-button-response,213,856353,0.0-16.0-7.0,26424,List1B,black,woman,,TRUE,3,,,,,,,,,,
null,CORRECT,,html-keyboard-response,214,857857,0.0-16.0-8.0-0.0,26424,List1B,black,woman,,,,null,,,,,,,,,
1910.4,"<img src=""portrait/WW1.jpg""style=""height:400px;""></img>",1,html-button-response,215,859770,0.0-16.0-10.0,26424,List1B,black,woman,,TRUE,1,,,,,,,,,,
null,CORRECT,,html-keyboard-response,216,861282,0.0-16.0-11.0-0.0,26424,List1B,black,woman,,,,null,,,,,,,,,
1313.2,"<img src=""portrait/BW2.jpg""style=""height:400px;""></img>",2,html-button-response,217,862598,0.0-16.0-13.0,26424,List1B,black,woman,,TRUE,2,,,,,,,,,,
null,CORRECT,,html-keyboard-response,218,864105,0.0-16.0-14.0-0.0,26424,List1B,black,woman,,,,null,,,,,,,,,
2120.1,"<img src=""portrait/WM2.jpg""style=""height:400px;""></img>",7,html-button-response,219,866228,0.0-16.0-16.0,26424,List1B,black,woman,,TRUE,7,,,,,,,,,,
null,CORRECT,,html-keyboard-response,220,867734,0.0-16.0-17.0-0.0,26424,List1B,black,woman,,,,null,,,,,,,,,
2032.6,"<img src=""portrait/BM2.jpg""style=""height:400px;""></img>",5,html-button-response,221,869769,0.0-16.0-19.0,26424,List1B,black,woman,,TRUE,5,,,,,,,,,,
null,CORRECT,,html-keyboard-response,222,871275,0.0-16.0-20.0-0.0,26424,List1B,black,woman,,,,null,,,,,,,,,
1506.6,"<img src=""portrait/WM1.jpg""style=""height:400px;""></img>",6,html-button-response,223,872785,0.0-16.0-22.0,26424,List1B,black,woman,,TRUE,6,,,,,,,,,,
null,CORRECT,,html-keyboard-response,224,874296,0.0-16.0-23.0-0.0,26424,List1B,black,woman,,,,null,,,,,,,,,
1518.3,<p>You got 8 out of 8 right first time. Press Continue.</p>,0,html-button-response,225,875817,0.0-16.0-25.0,26424,List1B,black,woman,,,,,,,,,,,,,
null,"<div style=""font-size:60px;"">+</div>",,html-keyboard-response,226,877327,0.0-17.0-0.0,26424,List1B,black,woman,,,,null,,,,,,,,,
null,"<img src=""stim_listB/greet3.gif""style=""height:400px;""></stim_listB>",,html-keyboard-response,227,879331,0.0-17.0-1.0,26424,List1B,black,woman,,,,null,,,,,,,,,
null,is greeting,,html-keyboard-response,228,881334,0.0-17.0-2.0,26424,List1B,black,woman,,,,null,,,,,,,,,
6456.6,,,survey-text,229,887793,0.0-17.0-3.0,26424,List1B,black,woman,,,,,"{""Q0"":""ruth is greeting dave""}","<img src=""stim_listB/greet3.gif""style=""height:400px;""></stim_listB>",is greeting,,,,,,
null,"<div style=""font-size:60px;"">+</div>",,html-keyboard-response,230,888300,0.0-17.0-0.1,26424,List1B,black,woman,,,,null,,,,,,,,,
null,"<img src=""stim_listB/shout7.gif""style=""height:400px;""></stim_listB>",,html-keyboard-response,231,890306,0.0-17.0-1.1,26424,List1B,black,woman,,,,null,,,,,,,,,
null,is shouting at,,html-keyboard-response,232,892310,0.0-17.0-2.1,26424,List1B,black,woman,,,,null,,,,,,,,,
6672.9,,,survey-text,233,898987,0.0-17.0-3.1,26424,List1B,black,woman,,,,,"{""Q0"":""beth is shouting at ruth""}","<img src=""stim_listB/shout7.gif""style=""height:400px;""></stim_listB>",is shouting at,,,,,,
null,"<div style=""font-size:60px;"">+</div>",,html-keyboard-response,234,899489,0.0-17.0-0.2,26424,List1B,black,woman,,,,null,,,,,,,,,
null,"<img src=""stim_listB/oppose6.gif""style=""height:400px;""></stim_listB>",,html-keyboard-response,235,901491,0.0-17.0-1.2,26424,List1B,black,woman,,,,null,,,,,,,,,
null,is being opposed by,,html-keyboard-response,236,903495,0.0-17.0-2.2,26424,List1B,black,woman,,,,null,,,,,,,,,
8187.7,,,survey-text,237,911687,0.0-17.0-3.2,26424,List1B,black,woman,,,,,"{""Q0"":""luke is being opposed by dave""}","<img src=""stim_listB/oppose6.gif""style=""height:400px;""></stim_listB>",is being opposed by,,,,,,
null,"<div style=""font-size:60px;"">+</div>",,html-keyboard-response,238,912193,0.0-17.0-0.3,26424,List1B,black,woman,,,,null,,,,,,,,,
null,"<img src=""stim_listB/look6.gif""style=""height:400px;""></stim_listB>",,html-keyboard-response,239,914197,0.0-17.0-1.3,26424,List1B,black,woman,,,,null,,,,,,,,,
null,is being looked at by,,html-keyboard-response,240,916199,0.0-17.0-2.3,26424,List1B,black,woman,,,,null,,,,,,,,,
11702,,,survey-text,241,927905,0.0-17.0-3.3,26424,List1B,black,woman,,,,,"{""Q0"":""dave is looking at mike""}","<img src=""stim_listB/look6.gif""style=""height:400px;""></stim_listB>",is being looked at by,,,,,,
null,"<div style=""font-size:60px;"">+</div>",,html-keyboard-response,242,928407,0.0-17.0-0.4,26424,List1B,black,woman,,,,null,,,,,,,,,
null,"<img src=""stim_listB/touch8.gif""style=""height:400px;""></stim_listB>",,html-keyboard-response,243,930411,0.0-17.0-1.4,26424,List1B,black,woman,,,,null,,,,,,,,,
null,is being touched by,,html-keyboard-response,244,932414,0.0-17.0-2.4,26424,List1B,black,woman,,,,null,,,,,,,,,
8006.7,,,survey-text,245,940425,0.0-17.0-3.4,26424,List1B,black,woman,,,,,"{""Q0"":""beth is being touched by ruth""}","<img src=""stim_listB/touch8.gif""style=""height:400px;""></stim_listB>",is being touched by,,,,,,
null,"<div style=""font-size:60px;"">+</div>",,html-keyboard-response,246,940932,0.0-17.0-0.5,26424,List1B,black,woman,,,,null,,,,,,,,,
null,"<img src=""stim_listB/look7.gif""style=""height:400px;""></stim_listB>",,html-keyboard-response,247,942940,0.0-17.0-1.5,26424,List1B,black,woman,,,,null,,,,,,,,,
null,is looking at,,html-keyboard-response,248,944946,0.0-17.0-2.5,26424,List1B,black,woman,,,,null,,,,,,,,,
4780.2,,,survey-text,249,949729,0.0-17.0-3.5,26424,List1B,black,woman,,,,,"{""Q0"":""ruth is looking at beth""}","<img src=""stim_listB/look7.gif""style=""height:400px;""></stim_listB>",is looking at,,,,,,
null,"<div style=""font-size:60px;"">+</div>",,html-keyboard-response,250,950233,0.0-17.0-0.6,26424,List1B,black,woman,,,,null,,,,,,,,,
null,"<img src=""stim_listB/shout4.gif""style=""height:400px;""></stim_listB>",,html-keyboard-response,251,952236,0.0-17.0-1.6,26424,List1B,black,woman,,,,null,,,,,,,,,
null,is being shouted at by,,html-keyboard-response,252,954240,0.0-17.0-2.6,26424,List1B,black,woman,,,,null,,,,,,,,,
10997.8,,,survey-text,253,965241,0.0-17.0-3.6,26424,List1B,black,woman,,,,,"{""Q0"":""dave is being shouted at by jane""}","<img src=""stim_listB/shout4.gif""style=""height:400px;""></stim_listB>",is being shouted at by,,,,,,
null,"<div style=""font-size:60px;"">+</div>",,html-keyboard-response,254,965744,0.0-17.0-0.7,26424,List1B,black,woman,,,,null,,,,,,,,,
null,"<img src=""stim_listB/seduce6.gif""style=""height:400px;""></stim_listB>",,html-keyboard-response,255,967746,0.0-17.0-1.7,26424,List1B,black,woman,,,,null,,,,,,,,,
null,is being seduced by,,html-keyboard-response,256,969748,0.0-17.0-2.7,26424,List1B,black,woman,,,,null,,,,,,,,,
9268.4,,,survey-text,257,979019,0.0-17.0-3.7,26424,List1B,black,woman,,,,,"{""Q0"":""mike is being seduced by luke""}","<img src=""stim_listB/seduce6.gif""style=""height:400px;""></stim_listB>",is being seduced by,,,,,,
null,"<div style=""font-size:60px;"">+</div>",,html-keyboard-response,258,979523,0.0-17.0-0.8,26424,List1B,black,woman,,,,null,,,,,,,,,
null,"<img src=""stim_listB/hug5.gif""style=""height:400px;""></stim_listB>",,html-keyboard-response,259,981528,0.0-17.0-1.8,26424,List1B,black,woman,,,,null,,,,,,,,,
null,is hugging,,html-keyboard-response,260,983533,0.0-17.0-2.8,26424,List1B,black,woman,,,,null,,,,,,,,,
6415.8,,,survey-text,261,989953,0.0-17.0-3.8,26424,List1B,black,woman,,,,,"{""Q0"":""luke is hugging fred""}","<img src=""stim_listB/hug5.gif""style=""height:400px;""></stim_listB>",is hugging,,,,,,
null,"<div style=""font-size:60px;"">+</div>",,html-keyboard-response,262,990459,0.0-17.0-0.9,26424,List1B,black,woman,,,,null,,,,,,,,,
null,"<img src=""stim_listB/touch4.gif""style=""height:400px;""></stim_listB>",,html-keyboard-response,263,992462,0.0-17.0-1.9,26424,List1B,black,woman,,,,null,,,,,,,,,
null,is being touched by,,html-keyboard-response,264,994469,0.0-17.0-2.9,26424,List1B,black,woman,,,,null,,,,,,,,,
6449.1,,,survey-text,265,1000922,0.0-17.0-3.9,26424,List1B,black,woman,,,,,"{""Q0"":""luke is being touched by ruth""}","<img src=""stim_listB/touch4.gif""style=""height:400px;""></stim_listB>",is being touched by,,,,,,
null,"<div style=""font-size:60px;"">+</div>",,html-keyboard-response,266,1001428,0.0-17.0-0.10,26424,List1B,black,woman,,,,null,,,,,,,,,
null,"<img src=""stim_listB/challenge5.gif""style=""height:400px;""></stim_listB>",,html-keyboard-response,267,1003434,0.0-17.0-1.10,26424,List1B,black,woman,,,,null,,,,,,,,,
null,is challenging,,html-keyboard-response,268,1005440,0.0-17.0-2.10,26424,List1B,black,woman,,,,null,,,,,,,,,
7026.2,,,survey-text,269,1012469,0.0-17.0-3.10,26424,List1B,black,woman,,,,,"{""Q0"":""luke is challenging mike""}","<img src=""stim_listB/challenge5.gif""style=""height:400px;""></stim_listB>",is challenging,,,,,,
null,"<div style=""font-size:60px;"">+</div>",,html-keyboard-response,270,1012974,0.0-17.0-0.11,26424,List1B,black,woman,,,,null,,,,,,,,,
null,"<img src=""stim_listB/kiss1.gif""style=""height:400px;""></stim_listB>",,html-keyboard-response,271,1014976,0.0-17.0-1.11,26424,List1B,black,woman,,,,null,,,,,,,,,
null,is kissing,,html-keyboard-response,272,1016979,0.0-17.0-2.11,26424,List1B,black,woman,,,,null,,,,,,,,,
6227.3,,,survey-text,273,1023210,0.0-17.0-3.11,26424,List1B,black,woman,,,,,"{""Q0"":""fred is kissing beth""}","<img src=""stim_listB/kiss1.gif""style=""height:400px;""></stim_listB>",is kissing,,,,,,
null,"<div style=""font-size:60px;"">+</div>",,html-keyboard-response,274,1023715,0.0-17.0-0.12,26424,List1B,black,woman,,,,null,,,,,,,,,
null,"<img src=""stim_listB/kiss3.gif""style=""height:400px;""></stim_listB>",,html-keyboard-response,275,1025723,0.0-17.0-1.12,26424,List1B,black,woman,,,,null,,,,,,,,,
null,is kissing,,html-keyboard-response,276,1027730,0.0-17.0-2.12,26424,List1B,black,woman,,,,null,,,,,,,,,
7312.8,,,survey-text,277,1035047,0.0-17.0-3.12,26424,List1B,black,woman,,,,,"{""Q0"":""ruth is kissing luke""}","<img src=""stim_listB/kiss3.gif""style=""height:400px;""></stim_listB>",is kissing,,,,,,
null,"<div style=""font-size:60px;"">+</div>",,html-keyboard-response,278,1035549,0.0-17.0-0.13,26424,List1B,black,woman,,,,null,,,,,,,,,
null,"<img src=""stim_listB/shout1.gif""style=""height:400px;""></stim_listB>",,html-keyboard-response,279,1037554,0.0-17.0-1.13,26424,List1B,black,woman,,,,null,,,,,,,,,
null,is shouting at,,html-keyboard-response,280,1039559,0.0-17.0-2.13,26424,List1B,black,woman,,,,null,,,,,,,,,
5445.8,,,survey-text,281,1045009,0.0-17.0-3.13,26424,List1B,black,woman,,,,,"{""Q0"":""fred is shouting at beth""}","<img src=""stim_listB/shout1.gif""style=""height:400px;""></stim_listB>",is shouting at,,,,,,
null,"<div style=""font-size:60px;"">+</div>",,html-keyboard-response,282,1045516,0.0-17.0-0.14,26424,List1B,black,woman,,,,null,,,,,,,,,
null,"<img src=""stim_listB/seduce2.gif""style=""height:400px;""></stim_listB>",,html-keyboard-response,283,1047520,0.0-17.0-1.14,26424,List1B,black,woman,,,,null,,,,,,,,,
null,is being seduced by,,html-keyboard-response,284,1049526,0.0-17.0-2.14,26424,List1B,black,woman,,,,null,,,,,,,,,
10284.8,,,survey-text,285,1059815,0.0-17.0-3.14,26424,List1B,black,woman,,,,,"{""Q0"":""beth is being seduced by mike""}","<img src=""stim_listB/seduce2.gif""style=""height:400px;""></stim_listB>",is being seduced by,,,,,,
null,"<div style=""font-size:60px;"">+</div>",,html-keyboard-response,286,1060320,0.0-17.0-0.15,26424,List1B,black,woman,,,,null,,,,,,,,,
null,"<img src=""stim_listB/seduce7.gif""style=""height:400px;""></stim_listB>",,html-keyboard-response,287,1062326,0.0-17.0-1.15,26424,List1B,black,woman,,,,null,,,,,,,,,
null,is seducing,,html-keyboard-response,288,1064332,0.0-17.0-2.15,26424,List1B,black,woman,,,,null,,,,,,,,,
5026.1,,,survey-text,289,1069362,0.0-17.0-3.15,26424,List1B,black,woman,,,,,"{""Q0"":""beth is seducing jane""}","<img src=""stim_listB/seduce7.gif""style=""height:400px;""></stim_listB>",is seducing,,,,,,
null,"<div style=""font-size:60px;"">+</div>",,html-keyboard-response,290,1069868,0.0-17.0-0.16,26424,List1B,black,woman,,,,null,,,,,,,,,
null,"<img src=""stim_listB/challenge4.gif""style=""height:400px;""></stim_listB>",,html-keyboard-response,291,1071874,0.0-17.0-1.16,26424,List1B,black,woman,,,,null,,,,,,,,,
null,is being challenged by,,html-keyboard-response,292,1073876,0.0-17.0-2.16,26424,List1B,black,woman,,,,null,,,,,,,,,
8077.5,,,survey-text,293,1081957,0.0-17.0-3.16,26424,List1B,black,woman,,,,,"{""Q0"":""luke is being challenged by jane""}","<img src=""stim_listB/challenge4.gif""style=""height:400px;""></stim_listB>",is being challenged by,,,,,,
null,"<div style=""font-size:60px;"">+</div>",,html-keyboard-response,294,1082461,0.0-17.0-0.17,26424,List1B,black,woman,,,,null,,,,,,,,,
null,"<img src=""stim_listB/touch1.gif""style=""height:400px;""></stim_listB>",,html-keyboard-response,295,1084467,0.0-17.0-1.17,26424,List1B,black,woman,,,,null,,,,,,,,,
null,is touching,,html-keyboard-response,296,1086469,0.0-17.0-2.17,26424,List1B,black,woman,,,,null,,,,,,,,,
6618.2,,,survey-text,297,1093091,0.0-17.0-3.17,26424,List1B,black,woman,,,,,"{""Q0"":""kate is touching mike""}","<img src=""stim_listB/touch1.gif""style=""height:400px;""></stim_listB>",is touching,,,,,,
null,"<div style=""font-size:60px;"">+</div>",,html-keyboard-response,298,1093593,0.0-17.0-0.18,26424,List1B,black,woman,,,,null,,,,,,,,,
null,"<img src=""stim_listB/look3.gif""style=""height:400px;""></stim_listB>",,html-keyboard-response,299,1095601,0.0-17.0-1.18,26424,List1B,black,woman,,,,null,,,,,,,,,
null,is looking at,,html-keyboard-response,300,1097605,0.0-17.0-2.18,26424,List1B,black,woman,,,,null,,,,,,,,,
8916.3,,,survey-text,301,1106524,0.0-17.0-3.18,26424,List1B,black,woman,,,,,"{""Q0"":""luke is looking at ruth""}","<img src=""stim_listB/look3.gif""style=""height:400px;""></stim_listB>",is looking at,,,,,,
null,"<div style=""font-size:60px;"">+</div>",,html-keyboard-response,302,1107028,0.0-17.0-0.19,26424,List1B,black,woman,,,,null,,,,,,,,,
null,"<img src=""stim_listB/greet7.gif""style=""height:400px;""></stim_listB>",,html-keyboard-response,303,1109035,0.0-17.0-1.19,26424,List1B,black,woman,,,,null,,,,,,,,,
null,is greeting,,html-keyboard-response,304,1111037,0.0-17.0-2.19,26424,List1B,black,woman,,,,null,,,,,,,,,
6420.8,,,survey-text,305,1117461,0.0-17.0-3.19,26424,List1B,black,woman,,,,,"{""Q0"":""ruth is greeting kate""}","<img src=""stim_listB/greet7.gif""style=""height:400px;""></stim_listB>",is greeting,,,,,,
5991.7,"<img src='img/portrait_matrix_list1.jpg' style='width:900px;height:500px;''></img><p>If you have memorised all the portraits and names and are ready to start, press Continue.</p><p><strong>Please note: Your memory of these faces will be tested 4 times during this experiment.</strong></p>",0,html-button-response,306,1123455,0.0-18.0-0.0,26424,List1B,black,woman,,,,,,,,,,,,,
2050.6,"<img src=""portrait/WM1.jpg""style=""height:400px;""></img>",6,html-button-response,307,1126512,0.0-18.0-1.0,26424,List1B,black,woman,,TRUE,6,,,,,,,,,,
null,CORRECT,,html-keyboard-response,308,1128016,0.0-18.0-2.0-0.0,26424,List1B,black,woman,,,,null,,,,,,,,,
1354.4,"<img src=""portrait/BM1.jpg""style=""height:400px;""></img>",4,html-button-response,309,1129373,0.0-18.0-4.0,26424,List1B,black,woman,,TRUE,4,,,,,,,,,,
null,CORRECT,,html-keyboard-response,310,1130884,0.0-18.0-5.0-0.0,26424,List1B,black,woman,,,,null,,,,,,,,,
1740.8,"<img src=""portrait/BW2.jpg""style=""height:400px;""></img>",2,html-button-response,311,1132627,0.0-18.0-7.0,26424,List1B,black,woman,,TRUE,2,,,,,,,,,,
null,CORRECT,,html-keyboard-response,312,1134137,0.0-18.0-8.0-0.0,26424,List1B,black,woman,,,,null,,,,,,,,,
2420.1,"<img src=""portrait/WW1.jpg""style=""height:400px;""></img>",1,html-button-response,313,1136558,0.0-18.0-10.0,26424,List1B,black,woman,,TRUE,1,,,,,,,,,,
null,CORRECT,,html-keyboard-response,314,1138066,0.0-18.0-11.0-0.0,26424,List1B,black,woman,,,,null,,,,,,,,,
3552.6,"<img src=""portrait/BW1.jpg""style=""height:400px;""></img>",0,html-button-response,315,1141621,0.0-18.0-13.0,26424,List1B,black,woman,,TRUE,0,,,,,,,,,,
null,CORRECT,,html-keyboard-response,316,1143129,0.0-18.0-14.0-0.0,26424,List1B,black,woman,,,,null,,,,,,,,,
1661.4,"<img src=""portrait/WW2.jpg""style=""height:400px;""></img>",3,html-button-response,317,1144793,0.0-18.0-16.0,26424,List1B,black,woman,,TRUE,3,,,,,,,,,,
null,CORRECT,,html-keyboard-response,318,1146304,0.0-18.0-17.0-0.0,26424,List1B,black,woman,,,,null,,,,,,,,,
1576.7,"<img src=""portrait/WM2.jpg""style=""height:400px;""></img>",7,html-button-response,319,1147883,0.0-18.0-19.0,26424,List1B,black,woman,,TRUE,7,,,,,,,,,,
null,CORRECT,,html-keyboard-response,320,1149392,0.0-18.0-20.0-0.0,26424,List1B,black,woman,,,,null,,,,,,,,,
2644.1,"<img src=""portrait/BM2.jpg""style=""height:400px;""></img>",5,html-button-response,321,1152039,0.0-18.0-22.0,26424,List1B,black,woman,,TRUE,5,,,,,,,,,,
null,CORRECT,,html-keyboard-response,322,1153544,0.0-18.0-23.0-0.0,26424,List1B,black,woman,,,,null,,,,,,,,,
9552.6,<p>You got 8 out of 8 right first time. Press Continue.</p>,0,html-button-response,323,1163099,0.0-18.0-25.0,26424,List1B,black,woman,,,,,,,,,,,,,
null,"<div style=""font-size:60px;"">+</div>",,html-keyboard-response,324,1164607,0.0-19.0-0.0,26424,List1B,black,woman,,,,null,,,,,,,,,
null,"<img src=""stim_listB/hug4.gif""style=""height:400px;""></stim_listB>",,html-keyboard-response,325,1166610,0.0-19.0-1.0,26424,List1B,black,woman,,,,null,,,,,,,,,
null,is being hugged by,,html-keyboard-response,326,1168617,0.0-19.0-2.0,26424,List1B,black,woman,,,,null,,,,,,,,,
7146.7,,,survey-text,327,1175768,0.0-19.0-3.0,26424,List1B,black,woman,,,,,"{""Q0"":""dave is being hugged by jane""}","<img src=""stim_listB/hug4.gif""style=""height:400px;""></stim_listB>",is being hugged by,,,,,,
null,"<div style=""font-size:60px;"">+</div>",,html-keyboard-response,328,1176275,0.0-19.0-0.1,26424,List1B,black,woman,,,,null,,,,,,,,,
null,"<img src=""stim_listB/copy8.gif""style=""height:400px;""></stim_listB>",,html-keyboard-response,329,1178283,0.0-19.0-1.1,26424,List1B,black,woman,,,,null,,,,,,,,,
null,is being copied by,,html-keyboard-response,330,1180289,0.0-19.0-2.1,26424,List1B,black,woman,,,,null,,,,,,,,,
6521.1,,,survey-text,331,1186814,0.0-19.0-3.1,26424,List1B,black,woman,,,,,"{""Q0"":""beth is being copied by jane""}","<img src=""stim_listB/copy8.gif""style=""height:400px;""></stim_listB>",is being copied by,,,,,,
null,"<div style=""font-size:60px;"">+</div>",,html-keyboard-response,332,1187317,0.0-19.0-0.2,26424,List1B,black,woman,,,,null,,,,,,,,,
null,"<img src=""stim_listB/challenge3.gif""style=""height:400px;""></stim_listB>",,html-keyboard-response,333,1189321,0.0-19.0-1.2,26424,List1B,black,woman,,,,null,,,,,,,,,
null,is challenging,,html-keyboard-response,334,1191324,0.0-19.0-2.2,26424,List1B,black,woman,,,,null,,,,,,,,,
5989.7,,,survey-text,335,1197318,0.0-19.0-3.2,26424,List1B,black,woman,,,,,"{""Q0"":""ruth is challenging dave""}","<img src=""stim_listB/challenge3.gif""style=""height:400px;""></stim_listB>",is challenging,,,,,,
null,"<div style=""font-size:60px;"">+</div>",,html-keyboard-response,336,1197825,0.0-19.0-0.3,26424,List1B,black,woman,,,,null,,,,,,,,,
null,"<img src=""stim_listB/oppose1.gif""style=""height:400px;""></stim_listB>",,html-keyboard-response,337,1199834,0.0-19.0-1.3,26424,List1B,black,woman,,,,null,,,,,,,,,
null,is opposing,,html-keyboard-response,338,1201841,0.0-19.0-2.3,26424,List1B,black,woman,,,,null,,,,,,,,,
7709.1,,,survey-text,339,1209554,0.0-19.0-3.3,26424,List1B,black,woman,,,,,"{""Q0"":""kate is opposing mike""}","<img src=""stim_listB/oppose1.gif""style=""height:400px;""></stim_listB>",is opposing,,,,,,
null,"<div style=""font-size:60px;"">+</div>",,html-keyboard-response,340,1210057,0.0-19.0-0.4,26424,List1B,black,woman,,,,null,,,,,,,,,
null,"<img src=""stim_listB/kiss5.gif""style=""height:400px;""></stim_listB>",,html-keyboard-response,341,1212065,0.0-19.0-1.4,26424,List1B,black,woman,,,,null,,,,,,,,,
null,is kissing,,html-keyboard-response,342,1214073,0.0-19.0-2.4,26424,List1B,black,woman,,,,null,,,,,,,,,
9237.2,,,survey-text,343,1223314,0.0-19.0-3.4,26424,List1B,black,woman,,,,,"{""Q0"":""fred is kissing luke""}","<img src=""stim_listB/kiss5.gif""style=""height:400px;""></stim_listB>",is kissing,,,,,,
null,"<div style=""font-size:60px;"">+</div>",,html-keyboard-response,344,1223816,0.0-19.0-0.5,26424,List1B,black,woman,,,,null,,,,,,,,,
null,"<img src=""stim_listB/touch3.gif""style=""height:400px;""></stim_listB>",,html-keyboard-response,345,1225819,0.0-19.0-1.5,26424,List1B,black,woman,,,,null,,,,,,,,,
null,is touching,,html-keyboard-response,346,1227824,0.0-19.0-2.5,26424,List1B,black,woman,,,,null,,,,,,,,,
6497.1,,,survey-text,347,1234325,0.0-19.0-3.5,26424,List1B,black,woman,,,,,"{""Q0"":""dave is touching jane""}","<img src=""stim_listB/touch3.gif""style=""height:400px;""></stim_listB>",is touching,,,,,,
null,"<div style=""font-size:60px;"">+</div>",,html-keyboard-response,348,1234831,0.0-19.0-0.6,26424,List1B,black,woman,,,,null,,,,,,,,,
null,"<img src=""stim_listB/hug6.gif""style=""height:400px;""></stim_listB>",,html-keyboard-response,349,1236839,0.0-19.0-1.6,26424,List1B,black,woman,,,,null,,,,,,,,,
null,is being hugged by,,html-keyboard-response,350,1238845,0.0-19.0-2.6,26424,List1B,black,woman,,,,null,,,,,,,,,
9352.7,,,survey-text,351,1248201,0.0-19.0-3.6,26424,List1B,black,woman,,,,,"{""Q0"":""mike is being hugged by dave""}","<img src=""stim_listB/hug6.gif""style=""height:400px;""></stim_listB>",is being hugged by,,,,,,
null,"<div style=""font-size:60px;"">+</div>",,html-keyboard-response,352,1248704,0.0-19.0-0.7,26424,List1B,black,woman,,,,null,,,,,,,,,
null,"<img src=""stim_listB/seduce5.gif""style=""height:400px;""></stim_listB>",,html-keyboard-response,353,1250707,0.0-19.0-1.7,26424,List1B,black,woman,,,,null,,,,,,,,,
null,is seducing,,html-keyboard-response,354,1252712,0.0-19.0-2.7,26424,List1B,black,woman,,,,null,,,,,,,,,
9202.2,,,survey-text,355,1261918,0.0-19.0-3.7,26424,List1B,black,woman,,,,,"{""Q0"":""fred is seducing dave""}","<img src=""stim_listB/seduce5.gif""style=""height:400px;""></stim_listB>",is seducing,,,,,,
null,"<div style=""font-size:60px;"">+</div>",,html-keyboard-response,356,1262425,0.0-19.0-0.8,26424,List1B,black,woman,,,,null,,,,,,,,,
null,"<img src=""stim_listB/seduce8.gif""style=""height:400px;""></stim_listB>",,html-keyboard-response,357,1264431,0.0-19.0-1.8,26424,List1B,black,woman,,,,null,,,,,,,,,
null,is being seduced by,,html-keyboard-response,358,1266437,0.0-19.0-2.8,26424,List1B,black,woman,,,,null,,,,,,,,,
6735.4,,,survey-text,359,1273177,0.0-19.0-3.8,26424,List1B,black,woman,,,,,"{""Q0"":""kate is being seduced by ruth""}","<img src=""stim_listB/seduce8.gif""style=""height:400px;""></stim_listB>",is being seduced by,,,,,,
null,"<div style=""font-size:60px;"">+</div>",,html-keyboard-response,360,1273680,0.0-19.0-0.9,26424,List1B,black,woman,,,,null,,,,,,,,,
null,"<img src=""stim_listB/copy5.gif""style=""height:400px;""></stim_listB>",,html-keyboard-response,361,1275684,0.0-19.0-1.9,26424,List1B,black,woman,,,,null,,,,,,,,,
null,is copying,,html-keyboard-response,362,1277686,0.0-19.0-2.9,26424,List1B,black,woman,,,,null,,,,,,,,,
7332.3,,,survey-text,363,1285021,0.0-19.0-3.9,26424,List1B,black,woman,,,,,"{""Q0"":""luke is copying mike""}","<img src=""stim_listB/copy5.gif""style=""height:400px;""></stim_listB>",is copying,,,,,,
null,"<div style=""font-size:60px;"">+</div>",,html-keyboard-response,364,1285524,0.0-19.0-0.10,26424,List1B,black,woman,,,,null,,,,,,,,,
null,"<img src=""stim_listB/challenge8.gif""style=""height:400px;""></stim_listB>",,html-keyboard-response,365,1287529,0.0-19.0-1.10,26424,List1B,black,woman,,,,null,,,,,,,,,
null,is being challenged by,,html-keyboard-response,366,1289536,0.0-19.0-2.10,26424,List1B,black,woman,,,,null,,,,,,,,,
9296.8,,,survey-text,367,1298836,0.0-19.0-3.10,26424,List1B,black,woman,,,,,"{""Q0"":""beth is being challenged by jane""}","<img src=""stim_listB/challenge8.gif""style=""height:400px;""></stim_listB>",is being challenged by,,,,,,
null,"<div style=""font-size:60px;"">+</div>",,html-keyboard-response,368,1299338,0.0-19.0-0.11,26424,List1B,black,woman,,,,null,,,,,,,,,
null,"<img src=""stim_listB/seduce1.gif""style=""height:400px;""></stim_listB>",,html-keyboard-response,369,1301340,0.0-19.0-1.11,26424,List1B,black,woman,,,,null,,,,,,,,,
null,is seducing,,html-keyboard-response,370,1303343,0.0-19.0-2.11,26424,List1B,black,woman,,,,null,,,,,,,,,
6030.1,,,survey-text,371,1309377,0.0-19.0-3.11,26424,List1B,black,woman,,,,,"{""Q0"":""kate is seducing fred""}","<img src=""stim_listB/seduce1.gif""style=""height:400px;""></stim_listB>",is seducing,,,,,,
null,"<div style=""font-size:60px;"">+</div>",,html-keyboard-response,372,1309883,0.0-19.0-0.12,26424,List1B,black,woman,,,,null,,,,,,,,,
null,"<img src=""stim_listB/shout3.gif""style=""height:400px;""></stim_listB>",,html-keyboard-response,373,1311888,0.0-19.0-1.12,26424,List1B,black,woman,,,,null,,,,,,,,,
null,is shouting at,,html-keyboard-response,374,1313893,0.0-19.0-2.12,26424,List1B,black,woman,,,,null,,,,,,,,,
13192.7,,,survey-text,375,1327089,0.0-19.0-3.12,26424,List1B,black,woman,,,,,"{""Q0"":""luke is shouting at ruth""}","<img src=""stim_listB/shout3.gif""style=""height:400px;""></stim_listB>",is shouting at,,,,,,
null,"<div style=""font-size:60px;"">+</div>",,html-keyboard-response,376,1327592,0.0-19.0-0.13,26424,List1B,black,woman,,,,null,,,,,,,,,
null,"<img src=""stim_listB/touch5.gif""style=""height:400px;""></stim_listB>",,html-keyboard-response,377,1329597,0.0-19.0-1.13,26424,List1B,black,woman,,,,null,,,,,,,,,
null,is touching,,html-keyboard-response,378,1331599,0.0-19.0-2.13,26424,List1B,black,woman,,,,null,,,,,,,,,
10342.6,,,survey-text,379,1341945,0.0-19.0-3.13,26424,List1B,black,woman,,,,,"{""Q0"":""mike is touching dave""}","<img src=""stim_listB/touch5.gif""style=""height:400px;""></stim_listB>",is touching,,,,,,
null,"<div style=""font-size:60px;"">+</div>",,html-keyboard-response,380,1342448,0.0-19.0-0.14,26424,List1B,black,woman,,,,null,,,,,,,,,
null,"<img src=""stim_listB/challenge1.gif""style=""height:400px;""></stim_listB>",,html-keyboard-response,381,1344451,0.0-19.0-1.14,26424,List1B,black,woman,,,,null,,,,,,,,,
null,is challenging,,html-keyboard-response,382,1346457,0.0-19.0-2.14,26424,List1B,black,woman,,,,null,,,,,,,,,
6317,,,survey-text,383,1352778,0.0-19.0-3.14,26424,List1B,black,woman,,,,,"{""Q0"":""beth is challenging mike""}","<img src=""stim_listB/challenge1.gif""style=""height:400px;""></stim_listB>",is challenging,,,,,,
null,"<div style=""font-size:60px;"">+</div>",,html-keyboard-response,384,1353280,0.0-19.0-0.15,26424,List1B,black,woman,,,,null,,,,,,,,,
null,"<img src=""stim_listB/kiss4.gif""style=""height:400px;""></stim_listB>",,html-keyboard-response,385,1355285,0.0-19.0-1.15,26424,List1B,black,woman,,,,null,,,,,,,,,
null,is being kissed by,,html-keyboard-response,386,1357287,0.0-19.0-2.15,26424,List1B,black,woman,,,,null,,,,,,,,,
8102.5,,,survey-text,387,1365394,0.0-19.0-3.15,26424,List1B,black,woman,,,,,"{""Q0"":""jane is being kissed by dave""}","<img src=""stim_listB/kiss4.gif""style=""height:400px;""></stim_listB>",is being kissed by,,,,,,
null,"<div style=""font-size:60px;"">+</div>",,html-keyboard-response,388,1365900,0.0-19.0-0.16,26424,List1B,black,woman,,,,null,,,,,,,,,
null,"<img src=""stim_listB/kiss6.gif""style=""height:400px;""></stim_listB>",,html-keyboard-response,389,1367908,0.0-19.0-1.16,26424,List1B,black,woman,,,,null,,,,,,,,,
null,is being kissed by,,html-keyboard-response,390,1369911,0.0-19.0-2.16,26424,List1B,black,woman,,,,null,,,,,,,,,
8813.2,,,survey-text,391,1378729,0.0-19.0-3.16,26424,List1B,black,woman,,,,,"{""Q0"":""mike is being kissed by dave""}","<img src=""stim_listB/kiss6.gif""style=""height:400px;""></stim_listB>",is being kissed by,,,,,,
null,"<div style=""font-size:60px;"">+</div>",,html-keyboard-response,392,1379232,0.0-19.0-0.17,26424,List1B,black,woman,,,,null,,,,,,,,,
null,"<img src=""stim_listB/hug8.gif""style=""height:400px;""></stim_listB>",,html-keyboard-response,393,1381240,0.0-19.0-1.17,26424,List1B,black,woman,,,,null,,,,,,,,,
null,is being hugged by,,html-keyboard-response,394,1383243,0.0-19.0-2.17,26424,List1B,black,woman,,,,null,,,,,,,,,
6315.9,,,survey-text,395,1389563,0.0-19.0-3.17,26424,List1B,black,woman,,,,,"{""Q0"":""jane is being hugged by kate""}","<img src=""stim_listB/hug8.gif""style=""height:400px;""></stim_listB>",is being hugged by,,,,,,
null,"<div style=""font-size:60px;"">+</div>",,html-keyboard-response,396,1390069,0.0-19.0-0.18,26424,List1B,black,woman,,,,null,,,,,,,,,
null,"<img src=""stim_listB/look8.gif""style=""height:400px;""></stim_listB>",,html-keyboard-response,397,1392077,0.0-19.0-1.18,26424,List1B,black,woman,,,,null,,,,,,,,,
null,is being looked at by,,html-keyboard-response,398,1394083,0.0-19.0-2.18,26424,List1B,black,woman,,,,null,,,,,,,,,
7672.5,,,survey-text,399,1401760,0.0-19.0-3.18,26424,List1B,black,woman,,,,,"{""Q0"":""jane is being looked at by kate""}","<img src=""stim_listB/look8.gif""style=""height:400px;""></stim_listB>",is being looked at by,,,,,,
null,"<div style=""font-size:60px;"">+</div>",,html-keyboard-response,400,1402266,0.0-19.0-0.19,26424,List1B,black,woman,,,,null,,,,,,,,,
null,"<img src=""stim_listB/copy7.gif""style=""height:400px;""></stim_listB>",,html-keyboard-response,401,1404273,0.0-19.0-1.19,26424,List1B,black,woman,,,,null,,,,,,,,,
null,is copying,,html-keyboard-response,402,1406280,0.0-19.0-2.19,26424,List1B,black,woman,,,,null,,,,,,,,,
8006.4,,,survey-text,403,1414290,0.0-19.0-3.19,26424,List1B,black,woman,,,,,"{""Q0"":""ruth is copying kate""}","<img src=""stim_listB/copy7.gif""style=""height:400px;""></stim_listB>",is copying,,,,,,
2914.5,<p>Thank you for completing that task.</p><p>The final part of this session is a questionnaire that will take about 4 minutes.</p><p>Press Continue.</p>,0,html-button-response,404,1417206,0.0-20.0,26424,List1B,black,woman,,,,,,,,,,,,,
36466.8,,,survey-text,405,1454684,0.0-21.0,26424,List1B,black,woman,,,,,"{""Q0"":""44"",""Q1"":""English"",""Q2"":""English"",""Q3"":""United States"",""Q4"":""American"",""Q5"":""African american"",""Q6"":""female""}",,,demographics,,,,,
1573.5,<p>Have you lived in the USA for the last 5 years or more?</p>,0,html-button-response,406,1456262,0.0-22.0,26424,List1B,black,woman,,,,,,,,fiveyears,,,,,
1740.6,<p>Move the slider to show the extent to which you agree with the following statements.</p>,0,html-button-response,407,1459008,0.0-23.0,26424,List1B,black,woman,,,,,,,,,,,,,
7563.5,,,html-slider-response,408,1467576,0.0-24.0-0.0-0.0,26424,List1B,black,woman,,,,,,,,survey_race,91,,,I feel solidarity with my race.,solidarity
3936.5,,,html-slider-response,409,1471517,0.0-24.0-0.0-0.1,26424,List1B,black,woman,,,,,,,,survey_race,94,,,I often think about the fact that I am my race.,often
5359.5,,,html-slider-response,410,1476879,0.0-24.0-0.0-0.2,26424,List1B,black,woman,,,,,,,,survey_race,94,,,People my age have a lot in common with each other.,filler
3462.9,,,html-slider-response,411,1480345,0.0-24.0-0.0-0.3,26424,List1B,black,woman,,,,,,,,survey_race,100,,,I think that my race has a lot to be proud of.,proud
4894.6,,,html-slider-response,412,1485243,0.0-24.0-0.0-0.4,26424,List1B,black,woman,,,,,,,,survey_race,100,,,Being my race gives me a good feeling.,feeling
6382,,,html-slider-response,413,1491628,0.0-24.0-0.0-0.5,26424,List1B,black,woman,,,,,,,,survey_race,89,,,Getting older does not worry me.,filler
6210.2,,,html-slider-response,414,1497841,0.0-24.0-0.0-0.6,26424,List1B,black,woman,,,,,,,,survey_race,73,,,I am glad to be my age.,filler
4229.8,,,html-slider-response,415,1502075,0.0-24.0-0.0-0.7,26424,List1B,black,woman,,,,,,,,survey_race,97,,,I am glad to be my race.,glad
3502.8,,,html-slider-response,416,1505581,0.0-24.0-0.0-0.8,26424,List1B,black,woman,,,,,,,,survey_race,100,,,I feel committed to my race.,committed
6895.5,,,html-slider-response,417,1512479,0.0-24.0-0.0-0.9,26424,List1B,black,woman,,,,,,,,survey_race,55,,,Being my age gives me a good feeling.,filler
4312.3,,,html-slider-response,418,1516794,0.0-24.0-0.0-0.10,26424,List1B,black,woman,,,,,,,,survey_race,87,,,I feel a bond with people the same age as me.,filler
6994.3,,,html-slider-response,419,1523792,0.0-24.0-0.0-0.11,26424,List1B,black,woman,,,,,,,,survey_race,80,,,I consider myself an introvert.,filler
3951.8,,,html-slider-response,420,1527747,0.0-24.0-0.0-0.12,26424,List1B,black,woman,,,,,,,,survey_race,85,,,People of my race have a lot in common with each other.,common
7056.5,,,html-slider-response,421,1534806,0.0-24.0-0.0-0.13,26424,List1B,black,woman,,,,,,,,survey_race,76,,,People of my race are very similar to each other.,verysimilar
5882.7,,,html-slider-response,422,1540692,0.0-24.0-0.0-0.14,26424,List1B,black,woman,,,,,,,,survey_race,79,,,I have a lot in common with people of a similar age to me.,filler
4466.2,,,html-slider-response,423,1545162,0.0-24.0-0.0-0.15,26424,List1B,black,woman,,,,,,,,survey_race,14,,,I consider myself an extrovert.,filler
4467.7,,,html-slider-response,424,1549633,0.0-24.0-0.0-0.16,26424,List1B,black,woman,,,,,,,,survey_race,80,,,The fact that I am my race is an important part of my identity.,identity
3242.8,,,html-slider-response,425,1552878,0.0-24.0-0.0-0.17,26424,List1B,black,woman,,,,,,,,survey_race,83,,,It is pleasant to be my race.,pleasant
2619.7,,,html-slider-response,426,1555501,0.0-24.0-0.0-0.18,26424,List1B,black,woman,,,,,,,,survey_race,95,,,I feel a bond with my race.,bond
4094.2,,,html-slider-response,427,1559597,0.0-24.0-0.0-0.19,26424,List1B,black,woman,,,,,,,,survey_race,78,,,I am glad to be the age I am.,filler
3920.7,,,html-slider-response,428,1563520,0.0-24.0-0.0-0.20,26424,List1B,black,woman,,,,,,,,survey_race,82,,,I have a lot in common with the average person of my race.,average
5089.6,,,html-slider-response,429,1568613,0.0-24.0-0.0-0.21,26424,List1B,black,woman,,,,,,,,survey_race,39,,,I often think about the fact that I am my age.,filler
3167.9,,,html-slider-response,430,1571784,0.0-24.0-0.0-0.22,26424,List1B,black,woman,,,,,,,,survey_race,73,,,I am similar to the average person of my race.,similar
3822,,,html-slider-response,431,1575608,0.0-24.0-0.0-0.23,26424,List1B,black,woman,,,,,,,,survey_race,80,,,Being my race is an important part of how I see myself.,important
2786.3,,,html-slider-response,432,1578397,0.0-24.0-0.0-0.24,26424,List1B,black,woman,,,,,,,,survey_race,77,,,I feel solidarity with people the same age as me.,filler
5604.3,,,html-slider-response,433,1584005,0.0-24.0-0.0-0.25,26424,List1B,black,woman,,,,,,,,survey_race,45,,,My age is not an important part of who I am.,filler
4622.8,,,html-slider-response,434,1588631,0.0-24.0-0.0-0.26,26424,List1B,black,woman,,,,,,,,survey_race,55,,,"The older I get, the wiser I feel.",filler
4812,,,html-slider-response,435,1593446,0.0-24.0-0.0-0.27,26424,List1B,black,woman,,,,,,,,survey_race,30,,,I enjoy being in large groups.,filler
4557.9,,,html-slider-response,436,1598007,0.0-24.0-1.0-0.0,26424,List1B,black,woman,,,,,,,,survey_gender,76,,,Being around my friends gives me a good feeling.,filler
4215.4,,,html-slider-response,437,1602226,0.0-24.0-1.0-0.1,26424,List1B,black,woman,,,,,,,,survey_gender,89,,,I feel a bond with my gender.,bond
3585,,,html-slider-response,438,1605814,0.0-24.0-1.0-0.2,26424,List1B,black,woman,,,,,,,,survey_gender,86,,,Being my gender is an important part of how I see myself.,important
3511.4,,,html-slider-response,439,1609328,0.0-24.0-1.0-0.3,26424,List1B,black,woman,,,,,,,,survey_gender,86,,,I feel committed to my gender.,committed
6605.6,,,html-slider-response,440,1615937,0.0-24.0-1.0-0.4,26424,List1B,black,woman,,,,,,,,survey_gender,81,,,I often think about my actions.,filler
3649.4,,,html-slider-response,441,1619590,0.0-24.0-1.0-0.5,26424,List1B,black,woman,,,,,,,,survey_gender,83,,,I am similar to the average person of my gender.,similar
3500.6,,,html-slider-response,442,1623094,0.0-24.0-1.0-0.6,26424,List1B,black,woman,,,,,,,,survey_gender,81,,,People of my gender are very similar to each other.,verysimilar
5068.3,,,html-slider-response,443,1628166,0.0-24.0-1.0-0.7,26424,List1B,black,woman,,,,,,,,survey_gender,80,,,I would say I am an animal person.,filler
4075.9,,,html-slider-response,444,1632245,0.0-24.0-1.0-0.8,26424,List1B,black,woman,,,,,,,,survey_gender,93,,,Being my gender gives me a good feeling.,feeling
4312.4,,,html-slider-response,445,1636560,0.0-24.0-1.0-0.9,26424,List1B,black,woman,,,,,,,,survey_gender,100,,,I think that my gender has a lot to be proud of.,proud
3938.3,,,html-slider-response,446,1640501,0.0-24.0-1.0-0.10,26424,List1B,black,woman,,,,,,,,survey_gender,45,,,I often think about the fact that I am my gender.,often
3324,,,html-slider-response,447,1643829,0.0-24.0-1.0-0.11,26424,List1B,black,woman,,,,,,,,survey_gender,42,,,The fact that I am my gender is an important part of my identity.,identity
3193.8,,,html-slider-response,448,1647026,0.0-24.0-1.0-0.12,26424,List1B,black,woman,,,,,,,,survey_gender,76,,,I have a lot in common with the average person of my gender.,average
3634.2,,,html-slider-response,449,1650663,0.0-24.0-1.0-0.13,26424,List1B,black,woman,,,,,,,,survey_gender,73,,,My friends understand me.,filler
4297.4,,,html-slider-response,450,1654963,0.0-24.0-1.0-0.14,26424,List1B,black,woman,,,,,,,,survey_gender,81,,,People of my gender have a lot in common with each other.,common
3111,,,html-slider-response,451,1658078,0.0-24.0-1.0-0.15,26424,List1B,black,woman,,,,,,,,survey_gender,21,,,Routine is not important to me.,filler
3929.9,,,html-slider-response,452,1662010,0.0-24.0-1.0-0.16,26424,List1B,black,woman,,,,,,,,survey_gender,88,,,I feel solidarity with my gender.,solidarity
8842.8,,,html-slider-response,453,1670856,0.0-24.0-1.0-0.17,26424,List1B,black,woman,,,,,,,,survey_gender,34,,,Family is not more important to me than friendship.,filler
8196.5,,,html-slider-response,454,1679056,0.0-24.0-1.0-0.18,26424,List1B,black,woman,,,,,,,,survey_gender,67,,,I feel a bond with my friends.,filler
3617.2,,,html-slider-response,455,1682676,0.0-24.0-1.0-0.19,26424,List1B,black,woman,,,,,,,,survey_gender,43,,,Most of the friends in my life are very similar to me.,filler
4102.1,,,html-slider-response,456,1686781,0.0-24.0-1.0-0.20,26424,List1B,black,woman,,,,,,,,survey_gender,64,,,My friends have a lot in common with each other.,filler
3283.3,,,html-slider-response,457,1690067,0.0-24.0-1.0-0.21,26424,List1B,black,woman,,,,,,,,survey_gender,78,,,I am glad to have the friends that I have.,filler
2850.2,,,html-slider-response,458,1692920,0.0-24.0-1.0-0.22,26424,List1B,black,woman,,,,,,,,survey_gender,87,,,I feel solidarity with my friends.,filler
4085.6,,,html-slider-response,459,1697008,0.0-24.0-1.0-0.23,26424,List1B,black,woman,,,,,,,,survey_gender,42,,,It is not always easy for people to know what I am thinking.,filler
3397.1,,,html-slider-response,460,1700409,0.0-24.0-1.0-0.24,26424,List1B,black,woman,,,,,,,,survey_gender,73,,,I consider myself a highly empathetic person.,filler
3797.2,,,html-slider-response,461,1704209,0.0-24.0-1.0-0.25,26424,List1B,black,woman,,,,,,,,survey_gender,78,,,It is pleasant to be my gender.,pleasant
3422,,,html-slider-response,462,1707635,0.0-24.0-1.0-0.26,26424,List1B,black,woman,,,,,,,,survey_gender,89,,,I am glad to be my gender.,glad
2793.3,,,html-slider-response,463,1710431,0.0-24.0-1.0-0.27,26424,List1B,black,woman,,,,,,,,survey_gender,85,,,I have a lot in common with my friends.,filler
10967.6,,,survey-text,464,1721402,0.0-25.0,26424,List1B,black,woman,,,,,"{""Q0"":""ccc""}",,,worker_id,,,,,
19204.3,,,external-html,465,1740835,0.0-26.0,26424,List1B,black,woman,debrief.html,,,,,,,,,,,,
