rt,stimulus,button_pressed,trial_type,trial_index,time_elapsed,internal_node_id,subject,list,ppt_race,ppt_gender,url,first_guess,correct,key_press,responses,image_type,phrase_type,test_part,response,stimulus1,stimulus2,question_type,survey_item
6426.6,Welcome to the experiment. Press Continue to begin.,0,html-button-response,0,6441,0.0-0.0,26663,List2A,black,man,,,,,,,,,,,,,
177619.6,,,external-html,1,186309,0.0-1.0,26663,List2A,black,man,consent.html,,,,,,,,,,,,
39698.3,"<p>On the next page, you will see portraits of 8 people and their names.</p><p>Your first task is to take a few minutes to memorise the names of these people.</p><p>You will have to recall their names during the rest of the experiment, so it is</p><p>essential that you try to memorise these people and their names as best as you can.</p><br><p><strong>You will then be tested on your memory of these names and portraits.</strong></p><br><p>The experiment will start after you have completed this memory test.</p><br><p>Ready?</p>",0,html-button-response,2,226013,0.0-2.0,26663,List2A,black,man,,,,,,,,,,,,,
22339.6,"<img src='img/portrait_matrix_list2.jpg' style='width:900px;height:500px;''></img><p>If you have memorised all the portraits and names and are ready to start, press Continue.</p><p><strong>Please note: Your memory of these faces will be tested 4 times during this experiment.</strong></p>",0,html-button-response,3,249361,0.0-3.0-0.0,26663,List2A,black,man,,,,,,,,,,,,,
24370.4,"<img src=""portrait/BW1.jpg""style=""height:400px;""></img>",0,html-button-response,4,274738,0.0-3.0-1.0,26663,List2A,black,man,,TRUE,0,,,,,,,,,,
null,CORRECT,,html-keyboard-response,5,276251,0.0-3.0-2.0-0.0,26663,List2A,black,man,,,,null,,,,,,,,,
7807.6,"<img src=""portrait/WW1.jpg""style=""height:400px;""></img>",1,html-button-response,6,284067,0.0-3.0-4.0,26663,List2A,black,man,,TRUE,1,,,,,,,,,,
null,CORRECT,,html-keyboard-response,7,285572,0.0-3.0-5.0-0.0,26663,List2A,black,man,,,,null,,,,,,,,,
7469.1,"<img src=""portrait/WW2.jpg""style=""height:400px;""></img>",3,html-button-response,8,293048,0.0-3.0-7.0,26663,List2A,black,man,,TRUE,3,,,,,,,,,,
null,CORRECT,,html-keyboard-response,9,294553,0.0-3.0-8.0-0.0,26663,List2A,black,man,,,,null,,,,,,,,,
7269.7,"<img src=""portrait/BW2.jpg""style=""height:400px;""></img>",2,html-button-response,10,301829,0.0-3.0-10.0,26663,List2A,black,man,,TRUE,2,,,,,,,,,,
null,CORRECT,,html-keyboard-response,11,303334,0.0-3.0-11.0-0.0,26663,List2A,black,man,,,,null,,,,,,,,,
7034.1,"<img src=""portrait/BM2.jpg""style=""height:400px;""></img>",5,html-button-response,12,310375,0.0-3.0-13.0,26663,List2A,black,man,,TRUE,5,,,,,,,,,,
null,CORRECT,,html-keyboard-response,13,311881,0.0-3.0-14.0-0.0,26663,List2A,black,man,,,,null,,,,,,,,,
8548.4,"<img src=""portrait/WM2.jpg""style=""height:400px;""></img>",7,html-button-response,14,320435,0.0-3.0-16.0,26663,List2A,black,man,,TRUE,7,,,,,,,,,,
null,CORRECT,,html-keyboard-response,15,321940,0.0-3.0-17.0-0.0,26663,List2A,black,man,,,,null,,,,,,,,,
7269.3,"<img src=""portrait/WM1.jpg""style=""height:400px;""></img>",6,html-button-response,16,329216,0.0-3.0-19.0,26663,List2A,black,man,,TRUE,6,,,,,,,,,,
null,CORRECT,,html-keyboard-response,17,330722,0.0-3.0-20.0-0.0,26663,List2A,black,man,,,,null,,,,,,,,,
6073.2,"<img src=""portrait/BM1.jpg""style=""height:400px;""></img>",4,html-button-response,18,336800,0.0-3.0-22.0,26663,List2A,black,man,,TRUE,4,,,,,,,,,,
null,CORRECT,,html-keyboard-response,19,338305,0.0-3.0-23.0-0.0,26663,List2A,black,man,,,,null,,,,,,,,,
5934,<p>You got 8 out of 8 right first time. Press Continue.</p>,0,html-button-response,20,344252,0.0-3.0-25.0,26663,List2A,black,man,,,,,,,,,,,,,
69008.3,"<p>In this experiment, you will view photographs of the people from the memory game interacting.</p><p>By using the <strong>exact</strong> phrase given <i>after</i> the photograph appears and recalling the correct names of the people in the photographs, form a sentence describing the interaction. You do not need to capitalise names.</p><p>Type your answer in the space provided. Please complete every sentence before moving onto the next trial.</p><p>You will only have a few seconds to memorise each given photograph and phrase before you can respond, so try your best to focus.</p><p>An example is given below. Press 'Continue' when you are ready.</p><img src='img/speaking_example.jpg' style='width:800px;height:460px;''></img>",0,html-button-response,21,414276,0.0-4.0,26663,List2A,black,man,,,,,,,,,,,,,
4649.1,"<p>Before the experiment starts, you will watch two example trials. Press 'Continue'.</p>",0,html-button-response,22,419947,0.0-5.0,26663,List2A,black,man,,,,,,,,,,,,,
null,<img src='img/play_eg.gif' style='height:400px;''></img>,,html-keyboard-response,23,422960,0.0-6.0,26663,List2A,black,man,,,,null,,,,,,,,,
null,<p>is playing with</p>,,html-keyboard-response,24,424963,0.0-7.0,26663,List2A,black,man,,,,null,,,,,,,,,
16197.5,<p><b>Answer:</b> jane is playing with ruth</p>,0,html-button-response,25,441165,0.0-8.0,26663,List2A,black,man,,,,,,,,,,,,,
null,<img src='img/dance_eg.gif' style='height:400px;''></img>,,html-keyboard-response,26,444171,0.0-9.0,26663,List2A,black,man,,,,null,,,,,,,,,
null,<p>is being entertained by</p>,,html-keyboard-response,27,446176,0.0-10.0,26663,List2A,black,man,,,,null,,,,,,,,,
6428.6,<p><b>Answer:</b> fred is being entertained by mike</p>,0,html-button-response,28,452609,0.0-11.0,26663,List2A,black,man,,,,,,,,,,,,,
12545.8,"<p>Ready to start the experiment?</p><br><p><strong>Remember to describe the picture using a full sentence,</strong></p><p><strong>that combines the names of the people with the <i>exact</i> phrase given.</strong></p><p><strong>To receive full payment you must do this correctly.</strong></p><p><strong> You do not need to capitalise names or use punctuation.</strong></p><br><p>Press 'Continue' to begin.</p>",0,html-button-response,29,466161,0.0-12.0,26663,List2A,black,man,,,,,,,,,,,,,
null,"<div style=""font-size:60px;"">+</div>",,html-keyboard-response,30,467667,0.0-13.0-0.0,26663,List2A,black,man,,,,null,,,,,,,,,
null,"<img src=""stim_listA/hug8.gif""style=""height:400px;""></stim_listA>",,html-keyboard-response,31,469689,0.0-13.0-1.0,26663,List2A,black,man,,,,null,,,,,,,,,
null,is being hugged by,,html-keyboard-response,32,471693,0.0-13.0-2.0,26663,List2A,black,man,,,,null,,,,,,,,,
36905,,,survey-text,33,508627,0.0-13.0-3.0,26663,List2A,black,man,,,,,"{""Q0"":""Kate is being hug by jane""}","<img src=""stim_listA/hug8.gif""style=""height:400px;""></stim_listA>",is being hugged by,,,,,,
null,"<div style=""font-size:60px;"">+</div>",,html-keyboard-response,34,509134,0.0-13.0-0.1,26663,List2A,black,man,,,,null,,,,,,,,,
null,"<img src=""stim_listA/oppose8.gif""style=""height:400px;""></stim_listA>",,html-keyboard-response,35,511140,0.0-13.0-1.1,26663,List2A,black,man,,,,null,,,,,,,,,
null,is being opposed by,,html-keyboard-response,36,513144,0.0-13.0-2.1,26663,List2A,black,man,,,,null,,,,,,,,,
55394.9,,,survey-text,37,568552,0.0-13.0-3.1,26663,List2A,black,man,,,,,"{""Q0"":""Beth is being exposed by ruth""}","<img src=""stim_listA/oppose8.gif""style=""height:400px;""></stim_listA>",is being opposed by,,,,,,
null,"<div style=""font-size:60px;"">+</div>",,html-keyboard-response,38,569056,0.0-13.0-0.2,26663,List2A,black,man,,,,null,,,,,,,,,
null,"<img src=""stim_listA/shout8.gif""style=""height:400px;""></stim_listA>",,html-keyboard-response,39,571063,0.0-13.0-1.2,26663,List2A,black,man,,,,null,,,,,,,,,
null,is being shouted at by,,html-keyboard-response,40,573067,0.0-13.0-2.2,26663,List2A,black,man,,,,null,,,,,,,,,
32872.3,,,survey-text,41,605952,0.0-13.0-3.2,26663,List2A,black,man,,,,,"{""Q0"":""Kate is being shouted at by jane""}","<img src=""stim_listA/shout8.gif""style=""height:400px;""></stim_listA>",is being shouted at by,,,,,,
null,"<div style=""font-size:60px;"">+</div>",,html-keyboard-response,42,606457,0.0-13.0-0.3,26663,List2A,black,man,,,,null,,,,,,,,,
null,"<img src=""stim_listA/copy5.gif""style=""height:400px;""></stim_listA>",,html-keyboard-response,43,608464,0.0-13.0-1.3,26663,List2A,black,man,,,,null,,,,,,,,,
null,is copying,,html-keyboard-response,44,610468,0.0-13.0-2.3,26663,List2A,black,man,,,,null,,,,,,,,,
27850.2,,,survey-text,45,638332,0.0-13.0-3.3,26663,List2A,black,man,,,,,"{""Q0"":""Luke is copying fred""}","<img src=""stim_listA/copy5.gif""style=""height:400px;""></stim_listA>",is copying,,,,,,
null,"<div style=""font-size:60px;"">+</div>",,html-keyboard-response,46,638838,0.0-13.0-0.4,26663,List2A,black,man,,,,null,,,,,,,,,
null,"<img src=""stim_listA/oppose5.gif""style=""height:400px;""></stim_listA>",,html-keyboard-response,47,640845,0.0-13.0-1.4,26663,List2A,black,man,,,,null,,,,,,,,,
null,is opposing,,html-keyboard-response,48,642850,0.0-13.0-2.4,26663,List2A,black,man,,,,null,,,,,,,,,
20079.2,,,survey-text,49,662942,0.0-13.0-3.4,26663,List2A,black,man,,,,,"{""Q0"":""Mike is copying Dave""}","<img src=""stim_listA/oppose5.gif""style=""height:400px;""></stim_listA>",is opposing,,,,,,
null,"<div style=""font-size:60px;"">+</div>",,html-keyboard-response,50,663446,0.0-13.0-0.5,26663,List2A,black,man,,,,null,,,,,,,,,
null,"<img src=""stim_listA/shout1.gif""style=""height:400px;""></stim_listA>",,html-keyboard-response,51,665454,0.0-13.0-1.5,26663,List2A,black,man,,,,null,,,,,,,,,
null,is shouting at,,html-keyboard-response,52,667458,0.0-13.0-2.5,26663,List2A,black,man,,,,null,,,,,,,,,
27014.1,,,survey-text,53,694488,0.0-13.0-3.5,26663,List2A,black,man,,,,,"{""Q0"":""Luke is shouting at jane""}","<img src=""stim_listA/shout1.gif""style=""height:400px;""></stim_listA>",is shouting at,,,,,,
null,"<div style=""font-size:60px;"">+</div>",,html-keyboard-response,54,694993,0.0-13.0-0.6,26663,List2A,black,man,,,,null,,,,,,,,,
null,"<img src=""stim_listA/touch3.gif""style=""height:400px;""></stim_listA>",,html-keyboard-response,55,697001,0.0-13.0-1.6,26663,List2A,black,man,,,,null,,,,,,,,,
null,is touching,,html-keyboard-response,56,699005,0.0-13.0-2.6,26663,List2A,black,man,,,,null,,,,,,,,,
28217.3,,,survey-text,57,727236,0.0-13.0-3.6,26663,List2A,black,man,,,,,"{""Q0"":""Kate is touching dave""}","<img src=""stim_listA/touch3.gif""style=""height:400px;""></stim_listA>",is touching,,,,,,
null,"<div style=""font-size:60px;"">+</div>",,html-keyboard-response,58,727741,0.0-13.0-0.7,26663,List2A,black,man,,,,null,,,,,,,,,
null,"<img src=""stim_listA/greet2.gif""style=""height:400px;""></stim_listA>",,html-keyboard-response,59,729749,0.0-13.0-1.7,26663,List2A,black,man,,,,null,,,,,,,,,
null,is being greeted by,,html-keyboard-response,60,731753,0.0-13.0-2.7,26663,List2A,black,man,,,,null,,,,,,,,,
21688.5,,,survey-text,61,753455,0.0-13.0-3.7,26663,List2A,black,man,,,,,"{""Q0"":""Luke is greeted by jane""}","<img src=""stim_listA/greet2.gif""style=""height:400px;""></stim_listA>",is being greeted by,,,,,,
null,"<div style=""font-size:60px;"">+</div>",,html-keyboard-response,62,753960,0.0-13.0-0.8,26663,List2A,black,man,,,,null,,,,,,,,,
null,"<img src=""stim_listA/hug1.gif""style=""height:400px;""></stim_listA>",,html-keyboard-response,63,755968,0.0-13.0-1.8,26663,List2A,black,man,,,,null,,,,,,,,,
null,is hugging,,html-keyboard-response,64,757973,0.0-13.0-2.8,26663,List2A,black,man,,,,null,,,,,,,,,
30958,,,survey-text,65,788982,0.0-13.0-3.8,26663,List2A,black,man,,,,,"{""Q0"":""Ruth is hugging luke""}","<img src=""stim_listA/hug1.gif""style=""height:400px;""></stim_listA>",is hugging,,,,,,
null,"<div style=""font-size:60px;"">+</div>",,html-keyboard-response,66,789487,0.0-13.0-0.9,26663,List2A,black,man,,,,null,,,,,,,,,
null,"<img src=""stim_listA/shout5.gif""style=""height:400px;""></stim_listA>",,html-keyboard-response,67,791493,0.0-13.0-1.9,26663,List2A,black,man,,,,null,,,,,,,,,
null,is shouting at,,html-keyboard-response,68,793530,0.0-13.0-2.9,26663,List2A,black,man,,,,null,,,,,,,,,
16686,,,survey-text,69,810230,0.0-13.0-3.9,26663,List2A,black,man,,,,,"{""Q0"":""Luke is shouting at fred""}","<img src=""stim_listA/shout5.gif""style=""height:400px;""></stim_listA>",is shouting at,,,,,,
null,"<div style=""font-size:60px;"">+</div>",,html-keyboard-response,70,810734,0.0-13.0-0.10,26663,List2A,black,man,,,,null,,,,,,,,,
null,"<img src=""stim_listA/oppose6.gif""style=""height:400px;""></stim_listA>",,html-keyboard-response,71,812741,0.0-13.0-1.10,26663,List2A,black,man,,,,null,,,,,,,,,
null,is being opposed by,,html-keyboard-response,72,814744,0.0-13.0-2.10,26663,List2A,black,man,,,,null,,,,,,,,,
17571.9,,,survey-text,73,832330,0.0-13.0-3.10,26663,List2A,black,man,,,,,"{""Q0"":""Luke is being opposed by fred""}","<img src=""stim_listA/oppose6.gif""style=""height:400px;""></stim_listA>",is being opposed by,,,,,,
null,"<div style=""font-size:60px;"">+</div>",,html-keyboard-response,74,832836,0.0-13.0-0.11,26663,List2A,black,man,,,,null,,,,,,,,,
null,"<img src=""stim_listA/greet1.gif""style=""height:400px;""></stim_listA>",,html-keyboard-response,75,834844,0.0-13.0-1.11,26663,List2A,black,man,,,,null,,,,,,,,,
null,is greeting,,html-keyboard-response,76,836850,0.0-13.0-2.11,26663,List2A,black,man,,,,null,,,,,,,,,
26253.1,,,survey-text,77,863127,0.0-13.0-3.11,26663,List2A,black,man,,,,,"{""Q0"":""Dave is greeting by ruth""}","<img src=""stim_listA/greet1.gif""style=""height:400px;""></stim_listA>",is greeting,,,,,,
null,"<div style=""font-size:60px;"">+</div>",,html-keyboard-response,78,863632,0.0-13.0-0.12,26663,List2A,black,man,,,,null,,,,,,,,,
null,"<img src=""stim_listA/oppose2.gif""style=""height:400px;""></stim_listA>",,html-keyboard-response,79,865640,0.0-13.0-1.12,26663,List2A,black,man,,,,null,,,,,,,,,
null,is being opposed by,,html-keyboard-response,80,867644,0.0-13.0-2.12,26663,List2A,black,man,,,,null,,,,,,,,,
21428.7,,,survey-text,81,889086,0.0-13.0-3.12,26663,List2A,black,man,,,,,"{""Q0"":""Ruth is being opposed by ruth""}","<img src=""stim_listA/oppose2.gif""style=""height:400px;""></stim_listA>",is being opposed by,,,,,,
null,"<div style=""font-size:60px;"">+</div>",,html-keyboard-response,82,889591,0.0-13.0-0.13,26663,List2A,black,man,,,,null,,,,,,,,,
null,"<img src=""stim_listA/kiss3.gif""style=""height:400px;""></stim_listA>",,html-keyboard-response,83,891598,0.0-13.0-1.13,26663,List2A,black,man,,,,null,,,,,,,,,
null,is kissing,,html-keyboard-response,84,893606,0.0-13.0-2.13,26663,List2A,black,man,,,,null,,,,,,,,,
36505.7,,,survey-text,85,930129,0.0-13.0-3.13,26663,List2A,black,man,,,,,"{""Q0"":""Dave and Kate is kissing""}","<img src=""stim_listA/kiss3.gif""style=""height:400px;""></stim_listA>",is kissing,,,,,,
null,"<div style=""font-size:60px;"">+</div>",,html-keyboard-response,86,930633,0.0-13.0-0.14,26663,List2A,black,man,,,,null,,,,,,,,,
null,"<img src=""stim_listA/kiss7.gif""style=""height:400px;""></stim_listA>",,html-keyboard-response,87,932641,0.0-13.0-1.14,26663,List2A,black,man,,,,null,,,,,,,,,
null,is kissing,,html-keyboard-response,88,934653,0.0-13.0-2.14,26663,List2A,black,man,,,,null,,,,,,,,,
19511.6,,,survey-text,89,954191,0.0-13.0-3.14,26663,List2A,black,man,,,,,"{""Q0"":""Kate is kissing ruth""}","<img src=""stim_listA/kiss7.gif""style=""height:400px;""></stim_listA>",is kissing,,,,,,
null,"<div style=""font-size:60px;"">+</div>",,html-keyboard-response,90,954696,0.0-13.0-0.15,26663,List2A,black,man,,,,null,,,,,,,,,
null,"<img src=""stim_listA/touch2.gif""style=""height:400px;""></stim_listA>",,html-keyboard-response,91,956704,0.0-13.0-1.15,26663,List2A,black,man,,,,null,,,,,,,,,
null,is being touched by,,html-keyboard-response,92,958707,0.0-13.0-2.15,26663,List2A,black,man,,,,null,,,,,,,,,
25487.6,,,survey-text,93,984209,0.0-13.0-3.15,26663,List2A,black,man,,,,,"{""Q0"":""Luke is being touched by ruth""}","<img src=""stim_listA/touch2.gif""style=""height:400px;""></stim_listA>",is being touched by,,,,,,
null,"<div style=""font-size:60px;"">+</div>",,html-keyboard-response,94,984714,0.0-13.0-0.16,26663,List2A,black,man,,,,null,,,,,,,,,
null,"<img src=""stim_listA/oppose7.gif""style=""height:400px;""></stim_listA>",,html-keyboard-response,95,986722,0.0-13.0-1.16,26663,List2A,black,man,,,,null,,,,,,,,,
null,is opposing,,html-keyboard-response,96,988726,0.0-13.0-2.16,26663,List2A,black,man,,,,null,,,,,,,,,
24736.9,,,survey-text,97,1013477,0.0-13.0-3.16,26663,List2A,black,man,,,,,"{""Q0"":""Jane is opposing kate""}","<img src=""stim_listA/oppose7.gif""style=""height:400px;""></stim_listA>",is opposing,,,,,,
null,"<div style=""font-size:60px;"">+</div>",,html-keyboard-response,98,1013981,0.0-13.0-0.17,26663,List2A,black,man,,,,null,,,,,,,,,
null,"<img src=""stim_listA/hug6.gif""style=""height:400px;""></stim_listA>",,html-keyboard-response,99,1015988,0.0-13.0-1.17,26663,List2A,black,man,,,,null,,,,,,,,,
null,is being hugged by,,html-keyboard-response,100,1017992,0.0-13.0-2.17,26663,List2A,black,man,,,,null,,,,,,,,,
22526.7,,,survey-text,101,1040532,0.0-13.0-3.17,26663,List2A,black,man,,,,,"{""Q0"":""Mike is being hugged by dave""}","<img src=""stim_listA/hug6.gif""style=""height:400px;""></stim_listA>",is being hugged by,,,,,,
null,"<div style=""font-size:60px;"">+</div>",,html-keyboard-response,102,1041036,0.0-13.0-0.18,26663,List2A,black,man,,,,null,,,,,,,,,
null,"<img src=""stim_listA/copy2.gif""style=""height:400px;""></stim_listA>",,html-keyboard-response,103,1043044,0.0-13.0-1.18,26663,List2A,black,man,,,,null,,,,,,,,,
null,is being copied by,,html-keyboard-response,104,1045048,0.0-13.0-2.18,26663,List2A,black,man,,,,null,,,,,,,,,
37561.4,,,survey-text,105,1082621,0.0-13.0-3.18,26663,List2A,black,man,,,,,"{""Q0"":""Jane is being copied by luke""}","<img src=""stim_listA/copy2.gif""style=""height:400px;""></stim_listA>",is being copied by,,,,,,
null,"<div style=""font-size:60px;"">+</div>",,html-keyboard-response,106,1083126,0.0-13.0-0.19,26663,List2A,black,man,,,,null,,,,,,,,,
null,"<img src=""stim_listA/seduce2.gif""style=""height:400px;""></stim_listA>",,html-keyboard-response,107,1085133,0.0-13.0-1.19,26663,List2A,black,man,,,,null,,,,,,,,,
null,is being seduced by,,html-keyboard-response,108,1087137,0.0-13.0-2.19,26663,List2A,black,man,,,,null,,,,,,,,,
23892.1,,,survey-text,109,1111042,0.0-13.0-3.19,26663,List2A,black,man,,,,,"{""Q0"":""Ruth is being seduced by dave""}","<img src=""stim_listA/seduce2.gif""style=""height:400px;""></stim_listA>",is being seduced by,,,,,,
12429.2,"<img src='img/portrait_matrix_list2.jpg' style='width:900px;height:500px;''></img><p>If you have memorised all the portraits and names and are ready to start, press Continue.</p><p><strong>Please note: Your memory of these faces will be tested 4 times during this experiment.</strong></p>",0,html-button-response,110,1123490,0.0-14.0-0.0,26663,List2A,black,man,,,,,,,,,,,,,
7708.6,"<img src=""portrait/WW2.jpg""style=""height:400px;""></img>",3,html-button-response,111,1132219,0.0-14.0-1.0,26663,List2A,black,man,,TRUE,3,,,,,,,,,,
null,CORRECT,,html-keyboard-response,112,1133733,0.0-14.0-2.0-0.0,26663,List2A,black,man,,,,null,,,,,,,,,
6383.6,"<img src=""portrait/WM2.jpg""style=""height:400px;""></img>",7,html-button-response,113,1140124,0.0-14.0-4.0,26663,List2A,black,man,,TRUE,7,,,,,,,,,,
null,CORRECT,,html-keyboard-response,114,1141631,0.0-14.0-5.0-0.0,26663,List2A,black,man,,,,null,,,,,,,,,
5156.6,"<img src=""portrait/BM1.jpg""style=""height:400px;""></img>",4,html-button-response,115,1146795,0.0-14.0-7.0,26663,List2A,black,man,,TRUE,4,,,,,,,,,,
null,CORRECT,,html-keyboard-response,116,1148301,0.0-14.0-8.0-0.0,26663,List2A,black,man,,,,null,,,,,,,,,
6101.2,"<img src=""portrait/BM2.jpg""style=""height:400px;""></img>",5,html-button-response,117,1154409,0.0-14.0-10.0,26663,List2A,black,man,,TRUE,5,,,,,,,,,,
null,CORRECT,,html-keyboard-response,118,1155925,0.0-14.0-11.0-0.0,26663,List2A,black,man,,,,null,,,,,,,,,
5661.8,"<img src=""portrait/WW1.jpg""style=""height:400px;""></img>",1,html-button-response,119,1161595,0.0-14.0-13.0,26663,List2A,black,man,,TRUE,1,,,,,,,,,,
null,CORRECT,,html-keyboard-response,120,1163107,0.0-14.0-14.0-0.0,26663,List2A,black,man,,,,null,,,,,,,,,
5164.7,"<img src=""portrait/BW2.jpg""style=""height:400px;""></img>",2,html-button-response,121,1168279,0.0-14.0-16.0,26663,List2A,black,man,,TRUE,2,,,,,,,,,,
null,CORRECT,,html-keyboard-response,122,1169785,0.0-14.0-17.0-0.0,26663,List2A,black,man,,,,null,,,,,,,,,
5937.4,"<img src=""portrait/BW1.jpg""style=""height:400px;""></img>",0,html-button-response,123,1175730,0.0-14.0-19.0,26663,List2A,black,man,,TRUE,0,,,,,,,,,,
null,CORRECT,,html-keyboard-response,124,1177236,0.0-14.0-20.0-0.0,26663,List2A,black,man,,,,null,,,,,,,,,
5569.1,"<img src=""portrait/WM1.jpg""style=""height:400px;""></img>",6,html-button-response,125,1182812,0.0-14.0-22.0,26663,List2A,black,man,,TRUE,6,,,,,,,,,,
null,CORRECT,,html-keyboard-response,126,1184318,0.0-14.0-23.0-0.0,26663,List2A,black,man,,,,null,,,,,,,,,
2502.6,<p>You got 8 out of 8 right first time. Press Continue.</p>,0,html-button-response,127,1186835,0.0-14.0-25.0,26663,List2A,black,man,,,,,,,,,,,,,
null,"<div style=""font-size:60px;"">+</div>",,html-keyboard-response,128,1188351,0.0-15.0-0.0,26663,List2A,black,man,,,,null,,,,,,,,,
null,"<img src=""stim_listA/challenge1.gif""style=""height:400px;""></stim_listA>",,html-keyboard-response,129,1190359,0.0-15.0-1.0,26663,List2A,black,man,,,,null,,,,,,,,,
null,is challenging,,html-keyboard-response,130,1192363,0.0-15.0-2.0,26663,List2A,black,man,,,,null,,,,,,,,,
16356.5,,,survey-text,131,1208734,0.0-15.0-3.0,26663,List2A,black,man,,,,,"{""Q0"":""Dave is challenging ruth""}","<img src=""stim_listA/challenge1.gif""style=""height:400px;""></stim_listA>",is challenging,,,,,,
null,"<div style=""font-size:60px;"">+</div>",,html-keyboard-response,132,1209240,0.0-15.0-0.1,26663,List2A,black,man,,,,null,,,,,,,,,
null,"<img src=""stim_listA/look4.gif""style=""height:400px;""></stim_listA>",,html-keyboard-response,133,1211269,0.0-15.0-1.1,26663,List2A,black,man,,,,null,,,,,,,,,
null,is being looked at by,,html-keyboard-response,134,1213274,0.0-15.0-2.1,26663,List2A,black,man,,,,null,,,,,,,,,
24404.1,,,survey-text,135,1237694,0.0-15.0-3.1,26663,List2A,black,man,,,,,"{""Q0"":""Kate is being looked at by mike""}","<img src=""stim_listA/look4.gif""style=""height:400px;""></stim_listA>",is being looked at by,,,,,,
null,"<div style=""font-size:60px;"">+</div>",,html-keyboard-response,136,1238198,0.0-15.0-0.2,26663,List2A,black,man,,,,null,,,,,,,,,
null,"<img src=""stim_listA/look7.gif""style=""height:400px;""></stim_listA>",,html-keyboard-response,137,1240206,0.0-15.0-1.2,26663,List2A,black,man,,,,null,,,,,,,,,
null,is looking at,,html-keyboard-response,138,1242211,0.0-15.0-2.2,26663,List2A,black,man,,,,null,,,,,,,,,
84477.2,,,survey-text,139,1326715,0.0-15.0-3.2,26663,List2A,black,man,,,,,"{""Q0"":""Beth is being looked at by dave ""}","<img src=""stim_listA/look7.gif""style=""height:400px;""></stim_listA>",is looking at,,,,,,
null,"<div style=""font-size:60px;"">+</div>",,html-keyboard-response,140,1327231,0.0-15.0-0.3,26663,List2A,black,man,,,,null,,,,,,,,,
null,"<img src=""stim_listA/greet6.gif""style=""height:400px;""></stim_listA>",,html-keyboard-response,141,1329256,0.0-15.0-1.3,26663,List2A,black,man,,,,null,,,,,,,,,
null,is being greeted by,,html-keyboard-response,142,1331261,0.0-15.0-2.3,26663,List2A,black,man,,,,null,,,,,,,,,
18978.9,,,survey-text,143,1350258,0.0-15.0-3.3,26663,List2A,black,man,,,,,"{""Q0"":""Luke is being greeted by mike""}","<img src=""stim_listA/greet6.gif""style=""height:400px;""></stim_listA>",is being greeted by,,,,,,
null,"<div style=""font-size:60px;"">+</div>",,html-keyboard-response,144,1350762,0.0-15.0-0.4,26663,List2A,black,man,,,,null,,,,,,,,,
null,"<img src=""stim_listA/greet8.gif""style=""height:400px;""></stim_listA>",,html-keyboard-response,145,1352769,0.0-15.0-1.4,26663,List2A,black,man,,,,null,,,,,,,,,
null,is being greeted by,,html-keyboard-response,146,1354773,0.0-15.0-2.4,26663,List2A,black,man,,,,null,,,,,,,,,
21779.7,,,survey-text,147,1376566,0.0-15.0-3.4,26663,List2A,black,man,,,,,"{""Q0"":""Kate is being greeted by ruth""}","<img src=""stim_listA/greet8.gif""style=""height:400px;""></stim_listA>",is being greeted by,,,,,,
null,"<div style=""font-size:60px;"">+</div>",,html-keyboard-response,148,1377070,0.0-15.0-0.5,26663,List2A,black,man,,,,null,,,,,,,,,
null,"<img src=""stim_listA/copy8.gif""style=""height:400px;""></stim_listA>",,html-keyboard-response,149,1379076,0.0-15.0-1.5,26663,List2A,black,man,,,,null,,,,,,,,,
null,is being copied by,,html-keyboard-response,150,1381080,0.0-15.0-2.5,26663,List2A,black,man,,,,null,,,,,,,,,
33338.1,,,survey-text,151,1414431,0.0-15.0-3.5,26663,List2A,black,man,,,,,"{""Q0"":""Kate is copied ruth""}","<img src=""stim_listA/copy8.gif""style=""height:400px;""></stim_listA>",is being copied by,,,,,,
null,"<div style=""font-size:60px;"">+</div>",,html-keyboard-response,152,1414934,0.0-15.0-0.6,26663,List2A,black,man,,,,null,,,,,,,,,
null,"<img src=""stim_listA/seduce7.gif""style=""height:400px;""></stim_listA>",,html-keyboard-response,153,1416941,0.0-15.0-1.6,26663,List2A,black,man,,,,null,,,,,,,,,
null,is seducing,,html-keyboard-response,154,1418945,0.0-15.0-2.6,26663,List2A,black,man,,,,null,,,,,,,,,
12986,,,survey-text,155,1431943,0.0-15.0-3.6,26663,List2A,black,man,,,,,"{""Q0"":""Kate is seducing ruth""}","<img src=""stim_listA/seduce7.gif""style=""height:400px;""></stim_listA>",is seducing,,,,,,
null,"<div style=""font-size:60px;"">+</div>",,html-keyboard-response,156,1432448,0.0-15.0-0.7,26663,List2A,black,man,,,,null,,,,,,,,,
null,"<img src=""stim_listA/kiss4.gif""style=""height:400px;""></stim_listA>",,html-keyboard-response,157,1434453,0.0-15.0-1.7,26663,List2A,black,man,,,,null,,,,,,,,,
null,is being kissed by,,html-keyboard-response,158,1436457,0.0-15.0-2.7,26663,List2A,black,man,,,,null,,,,,,,,,
19383.2,,,survey-text,159,1455856,0.0-15.0-3.7,26663,List2A,black,man,,,,,"{""Q0"":""Kate is being kissed by mike""}","<img src=""stim_listA/kiss4.gif""style=""height:400px;""></stim_listA>",is being kissed by,,,,,,
null,"<div style=""font-size:60px;"">+</div>",,html-keyboard-response,160,1456360,0.0-15.0-0.8,26663,List2A,black,man,,,,null,,,,,,,,,
null,"<img src=""stim_listA/challenge3.gif""style=""height:400px;""></stim_listA>",,html-keyboard-response,161,1458369,0.0-15.0-1.8,26663,List2A,black,man,,,,null,,,,,,,,,
null,is challenging,,html-keyboard-response,162,1460375,0.0-15.0-2.8,26663,List2A,black,man,,,,null,,,,,,,,,
13688.4,,,survey-text,163,1474083,0.0-15.0-3.8,26663,List2A,black,man,,,,,"{""Q0"":""Beth is challenging mike""}","<img src=""stim_listA/challenge3.gif""style=""height:400px;""></stim_listA>",is challenging,,,,,,
null,"<div style=""font-size:60px;"">+</div>",,html-keyboard-response,164,1474587,0.0-15.0-0.9,26663,List2A,black,man,,,,null,,,,,,,,,
null,"<img src=""stim_listA/look6.gif""style=""height:400px;""></stim_listA>",,html-keyboard-response,165,1476594,0.0-15.0-1.9,26663,List2A,black,man,,,,null,,,,,,,,,
null,is being looked at by,,html-keyboard-response,166,1478598,0.0-15.0-2.9,26663,List2A,black,man,,,,null,,,,,,,,,
18734.1,,,survey-text,167,1497346,0.0-15.0-3.9,26663,List2A,black,man,,,,,"{""Q0"":""Mike is being looked at by dave""}","<img src=""stim_listA/look6.gif""style=""height:400px;""></stim_listA>",is being looked at by,,,,,,
null,"<div style=""font-size:60px;"">+</div>",,html-keyboard-response,168,1497850,0.0-15.0-0.10,26663,List2A,black,man,,,,null,,,,,,,,,
null,"<img src=""stim_listA/look2.gif""style=""height:400px;""></stim_listA>",,html-keyboard-response,169,1499857,0.0-15.0-1.10,26663,List2A,black,man,,,,null,,,,,,,,,
null,is being looked at by,,html-keyboard-response,170,1457111,0.0-15.0-2.10,26663,List2A,black,man,,,,null,,,,,,,,,
25525.6,,,survey-text,171,1482692,0.0-15.0-3.10,26663,List2A,black,man,,,,,"{""Q0"":""Jane is being looked at by dave""}","<img src=""stim_listA/look2.gif""style=""height:400px;""></stim_listA>",is being looked at by,,,,,,
null,"<div style=""font-size:60px;"">+</div>",,html-keyboard-response,172,1483225,0.0-15.0-0.11,26663,List2A,black,man,,,,null,,,,,,,,,
null,"<img src=""stim_listA/touch7.gif""style=""height:400px;""></stim_listA>",,html-keyboard-response,173,1485289,0.0-15.0-1.11,26663,List2A,black,man,,,,null,,,,,,,,,
null,is touching,,html-keyboard-response,174,1487295,0.0-15.0-2.11,26663,List2A,black,man,,,,null,,,,,,,,,
16125.4,,,survey-text,175,1503441,0.0-15.0-3.11,26663,List2A,black,man,,,,,"{""Q0"":""Jane is touching kate""}","<img src=""stim_listA/touch7.gif""style=""height:400px;""></stim_listA>",is touching,,,,,,
null,"<div style=""font-size:60px;"">+</div>",,html-keyboard-response,176,1503947,0.0-15.0-0.12,26663,List2A,black,man,,,,null,,,,,,,,,
null,"<img src=""stim_listA/kiss1.gif""style=""height:400px;""></stim_listA>",,html-keyboard-response,177,1505967,0.0-15.0-1.12,26663,List2A,black,man,,,,null,,,,,,,,,
null,is kissing,,html-keyboard-response,178,1507972,0.0-15.0-2.12,26663,List2A,black,man,,,,null,,,,,,,,,
21139.4,,,survey-text,179,1529124,0.0-15.0-3.12,26663,List2A,black,man,,,,,"{""Q0"":""Luke is kissing ruth""}","<img src=""stim_listA/kiss1.gif""style=""height:400px;""></stim_listA>",is kissing,,,,,,
null,"<div style=""font-size:60px;"">+</div>",,html-keyboard-response,180,1529629,0.0-15.0-0.13,26663,List2A,black,man,,,,null,,,,,,,,,
null,"<img src=""stim_listA/hug2.gif""style=""height:400px;""></stim_listA>",,html-keyboard-response,181,1531634,0.0-15.0-1.13,26663,List2A,black,man,,,,null,,,,,,,,,
null,is being hugged by,,html-keyboard-response,182,1533638,0.0-15.0-2.13,26663,List2A,black,man,,,,null,,,,,,,,,
21666.2,,,survey-text,183,1555316,0.0-15.0-3.13,26663,List2A,black,man,,,,,"{""Q0"":""Jane is being hugged by dave""}","<img src=""stim_listA/hug2.gif""style=""height:400px;""></stim_listA>",is being hugged by,,,,,,
null,"<div style=""font-size:60px;"">+</div>",,html-keyboard-response,184,1555820,0.0-15.0-0.14,26663,List2A,black,man,,,,null,,,,,,,,,
null,"<img src=""stim_listA/copy1.gif""style=""height:400px;""></stim_listA>",,html-keyboard-response,185,1557827,0.0-15.0-1.14,26663,List2A,black,man,,,,null,,,,,,,,,
null,is copying,,html-keyboard-response,186,1559833,0.0-15.0-2.14,26663,List2A,black,man,,,,null,,,,,,,,,
18798.7,,,survey-text,187,1578664,0.0-15.0-3.14,26663,List2A,black,man,,,,,"{""Q0"":""Dave is copying ruth""}","<img src=""stim_listA/copy1.gif""style=""height:400px;""></stim_listA>",is copying,,,,,,
null,"<div style=""font-size:60px;"">+</div>",,html-keyboard-response,188,1579176,0.0-15.0-0.15,26663,List2A,black,man,,,,null,,,,,,,,,
null,"<img src=""stim_listA/seduce6.gif""style=""height:400px;""></stim_listA>",,html-keyboard-response,189,1581183,0.0-15.0-1.15,26663,List2A,black,man,,,,null,,,,,,,,,
null,is being seduced by,,html-keyboard-response,190,1583187,0.0-15.0-2.15,26663,List2A,black,man,,,,null,,,,,,,,,
19212.7,,,survey-text,191,1602411,0.0-15.0-3.15,26663,List2A,black,man,,,,,"{""Q0"":""Dave is being seduced by fred""}","<img src=""stim_listA/seduce6.gif""style=""height:400px;""></stim_listA>",is being seduced by,,,,,,
null,"<div style=""font-size:60px;"">+</div>",,html-keyboard-response,192,1602915,0.0-15.0-0.16,26663,List2A,black,man,,,,null,,,,,,,,,
null,"<img src=""stim_listA/look1.gif""style=""height:400px;""></stim_listA>",,html-keyboard-response,193,1604921,0.0-15.0-1.16,26663,List2A,black,man,,,,null,,,,,,,,,
null,is looking at,,html-keyboard-response,194,1606924,0.0-15.0-2.16,26663,List2A,black,man,,,,null,,,,,,,,,
17080.3,,,survey-text,195,1624015,0.0-15.0-3.16,26663,List2A,black,man,,,,,"{""Q0"":""Luke is looking at ruth""}","<img src=""stim_listA/look1.gif""style=""height:400px;""></stim_listA>",is looking at,,,,,,
null,"<div style=""font-size:60px;"">+</div>",,html-keyboard-response,196,1624520,0.0-15.0-0.17,26663,List2A,black,man,,,,null,,,,,,,,,
null,"<img src=""stim_listA/greet7.gif""style=""height:400px;""></stim_listA>",,html-keyboard-response,197,1626529,0.0-15.0-1.17,26663,List2A,black,man,,,,null,,,,,,,,,
null,is greeting,,html-keyboard-response,198,1628534,0.0-15.0-2.17,26663,List2A,black,man,,,,null,,,,,,,,,
18113.8,,,survey-text,199,1646662,0.0-15.0-3.17,26663,List2A,black,man,,,,,"{""Q0"":""Jane is greeting beth""}","<img src=""stim_listA/greet7.gif""style=""height:400px;""></stim_listA>",is greeting,,,,,,
null,"<div style=""font-size:60px;"">+</div>",,html-keyboard-response,200,1647168,0.0-15.0-0.18,26663,List2A,black,man,,,,null,,,,,,,,,
null,"<img src=""stim_listA/touch6.gif""style=""height:400px;""></stim_listA>",,html-keyboard-response,201,1649176,0.0-15.0-1.18,26663,List2A,black,man,,,,null,,,,,,,,,
null,is being touched by,,html-keyboard-response,202,1651181,0.0-15.0-2.18,26663,List2A,black,man,,,,null,,,,,,,,,
17635.8,,,survey-text,203,1668830,0.0-15.0-3.18,26663,List2A,black,man,,,,,"{""Q0"":""Fred is being touched by luke""}","<img src=""stim_listA/touch6.gif""style=""height:400px;""></stim_listA>",is being touched by,,,,,,
null,"<div style=""font-size:60px;"">+</div>",,html-keyboard-response,204,1669334,0.0-15.0-0.19,26663,List2A,black,man,,,,null,,,,,,,,,
null,"<img src=""stim_listA/seduce8.gif""style=""height:400px;""></stim_listA>",,html-keyboard-response,205,1671341,0.0-15.0-1.19,26663,List2A,black,man,,,,null,,,,,,,,,
null,is being seduced by,,html-keyboard-response,206,1673346,0.0-15.0-2.19,26663,List2A,black,man,,,,null,,,,,,,,,
21143.3,,,survey-text,207,1694506,0.0-15.0-3.19,26663,List2A,black,man,,,,,"{""Q0"":""Jane is being seduced by beth""}","<img src=""stim_listA/seduce8.gif""style=""height:400px;""></stim_listA>",is being seduced by,,,,,,
14893.3,"<img src='img/portrait_matrix_list2.jpg' style='width:900px;height:500px;''></img><p>If you have memorised all the portraits and names and are ready to start, press Continue.</p><p><strong>Please note: Your memory of these faces will be tested 4 times during this experiment.</strong></p>",0,html-button-response,208,1709420,0.0-16.0-0.0,26663,List2A,black,man,,,,,,,,,,,,,
9181.9,"<img src=""portrait/BM2.jpg""style=""height:400px;""></img>",5,html-button-response,209,1719616,0.0-16.0-1.0,26663,List2A,black,man,,TRUE,5,,,,,,,,,,
null,CORRECT,,html-keyboard-response,210,1721132,0.0-16.0-2.0-0.0,26663,List2A,black,man,,,,null,,,,,,,,,
4744.6,"<img src=""portrait/BW1.jpg""style=""height:400px;""></img>",0,html-button-response,211,1725884,0.0-16.0-4.0,26663,List2A,black,man,,TRUE,0,,,,,,,,,,
null,CORRECT,,html-keyboard-response,212,1727390,0.0-16.0-5.0-0.0,26663,List2A,black,man,,,,null,,,,,,,,,
2346.2,"<img src=""portrait/BM1.jpg""style=""height:400px;""></img>",4,html-button-response,213,1729744,0.0-16.0-7.0,26663,List2A,black,man,,TRUE,4,,,,,,,,,,
null,CORRECT,,html-keyboard-response,214,1731250,0.0-16.0-8.0-0.0,26663,List2A,black,man,,,,null,,,,,,,,,
3659.1,"<img src=""portrait/WM1.jpg""style=""height:400px;""></img>",6,html-button-response,215,1734916,0.0-16.0-10.0,26663,List2A,black,man,,TRUE,6,,,,,,,,,,
null,CORRECT,,html-keyboard-response,216,1736422,0.0-16.0-11.0-0.0,26663,List2A,black,man,,,,null,,,,,,,,,
6999.1,"<img src=""portrait/WW2.jpg""style=""height:400px;""></img>",3,html-button-response,217,1743428,0.0-16.0-13.0,26663,List2A,black,man,,TRUE,3,,,,,,,,,,
null,CORRECT,,html-keyboard-response,218,1744933,0.0-16.0-14.0-0.0,26663,List2A,black,man,,,,null,,,,,,,,,
5872.4,"<img src=""portrait/BW2.jpg""style=""height:400px;""></img>",2,html-button-response,219,1750811,0.0-16.0-16.0,26663,List2A,black,man,,TRUE,2,,,,,,,,,,
null,CORRECT,,html-keyboard-response,220,1752316,0.0-16.0-17.0-0.0,26663,List2A,black,man,,,,null,,,,,,,,,
2681.1,"<img src=""portrait/WM2.jpg""style=""height:400px;""></img>",7,html-button-response,221,1755004,0.0-16.0-19.0,26663,List2A,black,man,,TRUE,7,,,,,,,,,,
null,CORRECT,,html-keyboard-response,222,1756511,0.0-16.0-20.0-0.0,26663,List2A,black,man,,,,null,,,,,,,,,
7514.8,"<img src=""portrait/WW1.jpg""style=""height:400px;""></img>",1,html-button-response,223,1764034,0.0-16.0-22.0,26663,List2A,black,man,,TRUE,1,,,,,,,,,,
null,CORRECT,,html-keyboard-response,224,1765539,0.0-16.0-23.0-0.0,26663,List2A,black,man,,,,null,,,,,,,,,
5254.5,<p>You got 8 out of 8 right first time. Press Continue.</p>,0,html-button-response,225,1770801,0.0-16.0-25.0,26663,List2A,black,man,,,,,,,,,,,,,
null,"<div style=""font-size:60px;"">+</div>",,html-keyboard-response,226,1772314,0.0-17.0-0.0,26663,List2A,black,man,,,,null,,,,,,,,,
null,"<img src=""stim_listA/look8.gif""style=""height:400px;""></stim_listA>",,html-keyboard-response,227,1774319,0.0-17.0-1.0,26663,List2A,black,man,,,,null,,,,,,,,,
null,is being looked at by,,html-keyboard-response,228,1776324,0.0-17.0-2.0,26663,List2A,black,man,,,,null,,,,,,,,,
29669.9,,,survey-text,229,1806007,0.0-17.0-3.0,26663,List2A,black,man,,,,,"{""Q0"":""Jane is being looked at by kate""}","<img src=""stim_listA/look8.gif""style=""height:400px;""></stim_listA>",is being looked at by,,,,,,
null,"<div style=""font-size:60px;"">+</div>",,html-keyboard-response,230,1806513,0.0-17.0-0.1,26663,List2A,black,man,,,,null,,,,,,,,,
null,"<img src=""stim_listA/touch8.gif""style=""height:400px;""></stim_listA>",,html-keyboard-response,231,1808522,0.0-17.0-1.1,26663,List2A,black,man,,,,null,,,,,,,,,
null,is being touched by,,html-keyboard-response,232,1810526,0.0-17.0-2.1,26663,List2A,black,man,,,,null,,,,,,,,,
26253.8,,,survey-text,233,1836790,0.0-17.0-3.1,26663,List2A,black,man,,,,,"{""Q0"":""Ruth is being touched by beth""}","<img src=""stim_listA/touch8.gif""style=""height:400px;""></stim_listA>",is being touched by,,,,,,
null,"<div style=""font-size:60px;"">+</div>",,html-keyboard-response,234,1837296,0.0-17.0-0.2,26663,List2A,black,man,,,,null,,,,,,,,,
null,"<img src=""stim_listA/seduce3.gif""style=""height:400px;""></stim_listA>",,html-keyboard-response,235,1839303,0.0-17.0-1.2,26663,List2A,black,man,,,,null,,,,,,,,,
null,is seducing,,html-keyboard-response,236,1841307,0.0-17.0-2.2,26663,List2A,black,man,,,,null,,,,,,,,,
22041.9,,,survey-text,237,1863362,0.0-17.0-3.2,26663,List2A,black,man,,,,,"{""Q0"":""Fred is seducing kate""}","<img src=""stim_listA/seduce3.gif""style=""height:400px;""></stim_listA>",is seducing,,,,,,
null,"<div style=""font-size:60px;"">+</div>",,html-keyboard-response,238,1863867,0.0-17.0-0.3,26663,List2A,black,man,,,,null,,,,,,,,,
null,"<img src=""stim_listA/challenge4.gif""style=""height:400px;""></stim_listA>",,html-keyboard-response,239,1865875,0.0-17.0-1.3,26663,List2A,black,man,,,,null,,,,,,,,,
null,is being challenged by,,html-keyboard-response,240,1867878,0.0-17.0-2.3,26663,List2A,black,man,,,,null,,,,,,,,,
15492.8,,,survey-text,241,1883384,0.0-17.0-3.3,26663,List2A,black,man,,,,,"{""Q0"":""Fred is being challenged by kate""}","<img src=""stim_listA/challenge4.gif""style=""height:400px;""></stim_listA>",is being challenged by,,,,,,
null,"<div style=""font-size:60px;"">+</div>",,html-keyboard-response,242,1883888,0.0-17.0-0.4,26663,List2A,black,man,,,,null,,,,,,,,,
null,"<img src=""stim_listA/kiss2.gif""style=""height:400px;""></stim_listA>",,html-keyboard-response,243,1885896,0.0-17.0-1.4,26663,List2A,black,man,,,,null,,,,,,,,,
null,is being kissed by,,html-keyboard-response,244,1887900,0.0-17.0-2.4,26663,List2A,black,man,,,,null,,,,,,,,,
19284.8,,,survey-text,245,1907197,0.0-17.0-3.4,26663,List2A,black,man,,,,,"{""Q0"":""Dave is being kissed by jane""}","<img src=""stim_listA/kiss2.gif""style=""height:400px;""></stim_listA>",is being kissed by,,,,,,
null,"<div style=""font-size:60px;"">+</div>",,html-keyboard-response,246,1907702,0.0-17.0-0.5,26663,List2A,black,man,,,,null,,,,,,,,,
null,"<img src=""stim_listA/oppose1.gif""style=""height:400px;""></stim_listA>",,html-keyboard-response,247,1909709,0.0-17.0-1.5,26663,List2A,black,man,,,,null,,,,,,,,,
null,is opposing,,html-keyboard-response,248,1911713,0.0-17.0-2.5,26663,List2A,black,man,,,,null,,,,,,,,,
13866.2,,,survey-text,249,1925592,0.0-17.0-3.5,26663,List2A,black,man,,,,,"{""Q0"":""Dave is opposing jane""}","<img src=""stim_listA/oppose1.gif""style=""height:400px;""></stim_listA>",is opposing,,,,,,
null,"<div style=""font-size:60px;"">+</div>",,html-keyboard-response,250,1926096,0.0-17.0-0.6,26663,List2A,black,man,,,,null,,,,,,,,,
null,"<img src=""stim_listA/oppose3.gif""style=""height:400px;""></stim_listA>",,html-keyboard-response,251,1928102,0.0-17.0-1.6,26663,List2A,black,man,,,,null,,,,,,,,,
null,is opposing,,html-keyboard-response,252,1930107,0.0-17.0-2.6,26663,List2A,black,man,,,,null,,,,,,,,,
17535.6,,,survey-text,253,1947657,0.0-17.0-3.6,26663,List2A,black,man,,,,,"{""Q0"":""Mike is opposing kate""}","<img src=""stim_listA/oppose3.gif""style=""height:400px;""></stim_listA>",is opposing,,,,,,
null,"<div style=""font-size:60px;"">+</div>",,html-keyboard-response,254,1948161,0.0-17.0-0.7,26663,List2A,black,man,,,,null,,,,,,,,,
null,"<img src=""stim_listA/shout2.gif""style=""height:400px;""></stim_listA>",,html-keyboard-response,255,1950168,0.0-17.0-1.7,26663,List2A,black,man,,,,null,,,,,,,,,
null,is being shouted at by,,html-keyboard-response,256,1952172,0.0-17.0-2.7,26663,List2A,black,man,,,,null,,,,,,,,,
14878.1,,,survey-text,257,1967064,0.0-17.0-3.7,26663,List2A,black,man,,,,,"{""Q0"":""Dave is being shouted at by jane""}","<img src=""stim_listA/shout2.gif""style=""height:400px;""></stim_listA>",is being shouted at by,,,,,,
null,"<div style=""font-size:60px;"">+</div>",,html-keyboard-response,258,1967570,0.0-17.0-0.8,26663,List2A,black,man,,,,null,,,,,,,,,
null,"<img src=""stim_listA/touch5.gif""style=""height:400px;""></stim_listA>",,html-keyboard-response,259,1969577,0.0-17.0-1.8,26663,List2A,black,man,,,,null,,,,,,,,,
null,is touching,,html-keyboard-response,260,1971581,0.0-17.0-2.8,26663,List2A,black,man,,,,null,,,,,,,,,
10535.4,,,survey-text,261,1982131,0.0-17.0-3.8,26663,List2A,black,man,,,,,"{""Q0"":""Dave is touching mike""}","<img src=""stim_listA/touch5.gif""style=""height:400px;""></stim_listA>",is touching,,,,,,
null,"<div style=""font-size:60px;"">+</div>",,html-keyboard-response,262,1982635,0.0-17.0-0.9,26663,List2A,black,man,,,,null,,,,,,,,,
null,"<img src=""stim_listA/kiss5.gif""style=""height:400px;""></stim_listA>",,html-keyboard-response,263,1984643,0.0-17.0-1.9,26663,List2A,black,man,,,,null,,,,,,,,,
null,is kissing,,html-keyboard-response,264,1986647,0.0-17.0-2.9,26663,List2A,black,man,,,,null,,,,,,,,,
16205.8,,,survey-text,265,2002868,0.0-17.0-3.9,26663,List2A,black,man,,,,,"{""Q0"":""Fred is kissing luke""}","<img src=""stim_listA/kiss5.gif""style=""height:400px;""></stim_listA>",is kissing,,,,,,
null,"<div style=""font-size:60px;"">+</div>",,html-keyboard-response,266,2003373,0.0-17.0-0.10,26663,List2A,black,man,,,,null,,,,,,,,,
null,"<img src=""stim_listA/look5.gif""style=""height:400px;""></stim_listA>",,html-keyboard-response,267,2005379,0.0-17.0-1.10,26663,List2A,black,man,,,,null,,,,,,,,,
null,is looking at,,html-keyboard-response,268,2007383,0.0-17.0-2.10,26663,List2A,black,man,,,,null,,,,,,,,,
12783.3,,,survey-text,269,2020179,0.0-17.0-3.10,26663,List2A,black,man,,,,,"{""Q0"":""Fred is looking at luke""}","<img src=""stim_listA/look5.gif""style=""height:400px;""></stim_listA>",is looking at,,,,,,
null,"<div style=""font-size:60px;"">+</div>",,html-keyboard-response,270,2020684,0.0-17.0-0.11,26663,List2A,black,man,,,,null,,,,,,,,,
null,"<img src=""stim_listA/touch1.gif""style=""height:400px;""></stim_listA>",,html-keyboard-response,271,2022691,0.0-17.0-1.11,26663,List2A,black,man,,,,null,,,,,,,,,
null,is touching,,html-keyboard-response,272,2024697,0.0-17.0-2.11,26663,List2A,black,man,,,,null,,,,,,,,,
15757.5,,,survey-text,273,2040467,0.0-17.0-3.11,26663,List2A,black,man,,,,,"{""Q0"":""Dave is touching jane""}","<img src=""stim_listA/touch1.gif""style=""height:400px;""></stim_listA>",is touching,,,,,,
null,"<div style=""font-size:60px;"">+</div>",,html-keyboard-response,274,2040972,0.0-17.0-0.12,26663,List2A,black,man,,,,null,,,,,,,,,
null,"<img src=""stim_listA/challenge8.gif""style=""height:400px;""></stim_listA>",,html-keyboard-response,275,2042979,0.0-17.0-1.12,26663,List2A,black,man,,,,null,,,,,,,,,
null,is being challenged by,,html-keyboard-response,276,2044983,0.0-17.0-2.12,26663,List2A,black,man,,,,null,,,,,,,,,
16860.1,,,survey-text,277,2061853,0.0-17.0-3.12,26663,List2A,black,man,,,,,"{""Q0"":""Kate is being challenged by ruth""}","<img src=""stim_listA/challenge8.gif""style=""height:400px;""></stim_listA>",is being challenged by,,,,,,
null,"<div style=""font-size:60px;"">+</div>",,html-keyboard-response,278,2062358,0.0-17.0-0.13,26663,List2A,black,man,,,,null,,,,,,,,,
null,"<img src=""stim_listA/copy4.gif""style=""height:400px;""></stim_listA>",,html-keyboard-response,279,2064365,0.0-17.0-1.13,26663,List2A,black,man,,,,null,,,,,,,,,
null,is being copied by,,html-keyboard-response,280,2066369,0.0-17.0-2.13,26663,List2A,black,man,,,,null,,,,,,,,,
13515.8,,,survey-text,281,2079898,0.0-17.0-3.13,26663,List2A,black,man,,,,,"{""Q0"":""Fred is being copied by kate""}","<img src=""stim_listA/copy4.gif""style=""height:400px;""></stim_listA>",is being copied by,,,,,,
null,"<div style=""font-size:60px;"">+</div>",,html-keyboard-response,282,2080403,0.0-17.0-0.14,26663,List2A,black,man,,,,null,,,,,,,,,
null,"<img src=""stim_listA/shout6.gif""style=""height:400px;""></stim_listA>",,html-keyboard-response,283,2082412,0.0-17.0-1.14,26663,List2A,black,man,,,,null,,,,,,,,,
null,is being shouted at by,,html-keyboard-response,284,2084417,0.0-17.0-2.14,26663,List2A,black,man,,,,null,,,,,,,,,
16503.5,,,survey-text,285,2100933,0.0-17.0-3.14,26663,List2A,black,man,,,,,"{""Q0"":""Dave is being shouted at by mike""}","<img src=""stim_listA/shout6.gif""style=""height:400px;""></stim_listA>",is being shouted at by,,,,,,
null,"<div style=""font-size:60px;"">+</div>",,html-keyboard-response,286,2101439,0.0-17.0-0.15,26663,List2A,black,man,,,,null,,,,,,,,,
null,"<img src=""stim_listA/touch4.gif""style=""height:400px;""></stim_listA>",,html-keyboard-response,287,2103447,0.0-17.0-1.15,26663,List2A,black,man,,,,null,,,,,,,,,
null,is being touched by,,html-keyboard-response,288,2105452,0.0-17.0-2.15,26663,List2A,black,man,,,,null,,,,,,,,,
20032.4,,,survey-text,289,2125527,0.0-17.0-3.15,26663,List2A,black,man,,,,,"{""Q0"":""Fred is being touched by beth""}","<img src=""stim_listA/touch4.gif""style=""height:400px;""></stim_listA>",is being touched by,,,,,,
null,"<div style=""font-size:60px;"">+</div>",,html-keyboard-response,290,2126051,0.0-17.0-0.16,26663,List2A,black,man,,,,null,,,,,,,,,
null,"<img src=""stim_listA/hug5.gif""style=""height:400px;""></stim_listA>",,html-keyboard-response,291,2128060,0.0-17.0-1.16,26663,List2A,black,man,,,,null,,,,,,,,,
null,is hugging,,html-keyboard-response,292,2130064,0.0-17.0-2.16,26663,List2A,black,man,,,,null,,,,,,,,,
9283.9,,,survey-text,293,2139368,0.0-17.0-3.16,26663,List2A,black,man,,,,,"{""Q0"":""Fred is hugging luke""}","<img src=""stim_listA/hug5.gif""style=""height:400px;""></stim_listA>",is hugging,,,,,,
null,"<div style=""font-size:60px;"">+</div>",,html-keyboard-response,294,2139873,0.0-17.0-0.17,26663,List2A,black,man,,,,null,,,,,,,,,
null,"<img src=""stim_listA/challenge5.gif""style=""height:400px;""></stim_listA>",,html-keyboard-response,295,2141881,0.0-17.0-1.17,26663,List2A,black,man,,,,null,,,,,,,,,
null,is challenging,,html-keyboard-response,296,2143887,0.0-17.0-2.17,26663,List2A,black,man,,,,null,,,,,,,,,
12637.5,,,survey-text,297,2156545,0.0-17.0-3.17,26663,List2A,black,man,,,,,"{""Q0"":""Dave is challenging fred""}","<img src=""stim_listA/challenge5.gif""style=""height:400px;""></stim_listA>",is challenging,,,,,,
null,"<div style=""font-size:60px;"">+</div>",,html-keyboard-response,298,2157050,0.0-17.0-0.18,26663,List2A,black,man,,,,null,,,,,,,,,
null,"<img src=""stim_listA/kiss8.gif""style=""height:400px;""></stim_listA>",,html-keyboard-response,299,2159058,0.0-17.0-1.18,26663,List2A,black,man,,,,null,,,,,,,,,
null,is being kissed by,,html-keyboard-response,300,2161063,0.0-17.0-2.18,26663,List2A,black,man,,,,null,,,,,,,,,
27945.1,,,survey-text,301,2189021,0.0-17.0-3.18,26663,List2A,black,man,,,,,"{""Q0"":""Jane is being kissed by kate""}","<img src=""stim_listA/kiss8.gif""style=""height:400px;""></stim_listA>",is being kissed by,,,,,,
null,"<div style=""font-size:60px;"">+</div>",,html-keyboard-response,302,2189527,0.0-17.0-0.19,26663,List2A,black,man,,,,null,,,,,,,,,
null,"<img src=""stim_listA/challenge7.gif""style=""height:400px;""></stim_listA>",,html-keyboard-response,303,2191534,0.0-17.0-1.19,26663,List2A,black,man,,,,null,,,,,,,,,
null,is challenging,,html-keyboard-response,304,2193539,0.0-17.0-2.19,26663,List2A,black,man,,,,null,,,,,,,,,
16087.4,,,survey-text,305,2209639,0.0-17.0-3.19,26663,List2A,black,man,,,,,"{""Q0"":""Jane is challenging beth""}","<img src=""stim_listA/challenge7.gif""style=""height:400px;""></stim_listA>",is challenging,,,,,,
4861.9,"<img src='img/portrait_matrix_list2.jpg' style='width:900px;height:500px;''></img><p>If you have memorised all the portraits and names and are ready to start, press Continue.</p><p><strong>Please note: Your memory of these faces will be tested 4 times during this experiment.</strong></p>",0,html-button-response,306,2214514,0.0-18.0-0.0,26663,List2A,black,man,,,,,,,,,,,,,
2722.4,"<img src=""portrait/WM1.jpg""style=""height:400px;""></img>",6,html-button-response,307,2218252,0.0-18.0-1.0,26663,List2A,black,man,,TRUE,6,,,,,,,,,,
null,CORRECT,,html-keyboard-response,308,2219770,0.0-18.0-2.0-0.0,26663,List2A,black,man,,,,null,,,,,,,,,
2500.2,"<img src=""portrait/WM2.jpg""style=""height:400px;""></img>",7,html-button-response,309,2222278,0.0-18.0-4.0,26663,List2A,black,man,,TRUE,7,,,,,,,,,,
null,CORRECT,,html-keyboard-response,310,2223784,0.0-18.0-5.0-0.0,26663,List2A,black,man,,,,null,,,,,,,,,
2557.8,"<img src=""portrait/BM2.jpg""style=""height:400px;""></img>",5,html-button-response,311,2226352,0.0-18.0-7.0,26663,List2A,black,man,,TRUE,5,,,,,,,,,,
null,CORRECT,,html-keyboard-response,312,2227859,0.0-18.0-8.0-0.0,26663,List2A,black,man,,,,null,,,,,,,,,
2404.3,"<img src=""portrait/BW2.jpg""style=""height:400px;""></img>",2,html-button-response,313,2230277,0.0-18.0-10.0,26663,List2A,black,man,,TRUE,2,,,,,,,,,,
null,CORRECT,,html-keyboard-response,314,2231783,0.0-18.0-11.0-0.0,26663,List2A,black,man,,,,null,,,,,,,,,
2262.6,"<img src=""portrait/BM1.jpg""style=""height:400px;""></img>",4,html-button-response,315,2234058,0.0-18.0-13.0,26663,List2A,black,man,,TRUE,4,,,,,,,,,,
null,CORRECT,,html-keyboard-response,316,2235567,0.0-18.0-14.0-0.0,26663,List2A,black,man,,,,null,,,,,,,,,
2766.1,"<img src=""portrait/WW2.jpg""style=""height:400px;""></img>",3,html-button-response,317,2238344,0.0-18.0-16.0,26663,List2A,black,man,,TRUE,3,,,,,,,,,,
null,CORRECT,,html-keyboard-response,318,2239851,0.0-18.0-17.0-0.0,26663,List2A,black,man,,,,null,,,,,,,,,
3705.7,"<img src=""portrait/BW1.jpg""style=""height:400px;""></img>",0,html-button-response,319,2243564,0.0-18.0-19.0,26663,List2A,black,man,,TRUE,0,,,,,,,,,,
null,CORRECT,,html-keyboard-response,320,2245072,0.0-18.0-20.0-0.0,26663,List2A,black,man,,,,null,,,,,,,,,
4071.1,"<img src=""portrait/WW1.jpg""style=""height:400px;""></img>",1,html-button-response,321,2249151,0.0-18.0-22.0,26663,List2A,black,man,,TRUE,1,,,,,,,,,,
null,CORRECT,,html-keyboard-response,322,2250657,0.0-18.0-23.0-0.0,26663,List2A,black,man,,,,null,,,,,,,,,
1805.6,<p>You got 8 out of 8 right first time. Press Continue.</p>,0,html-button-response,323,2252475,0.0-18.0-25.0,26663,List2A,black,man,,,,,,,,,,,,,
null,"<div style=""font-size:60px;"">+</div>",,html-keyboard-response,324,2253989,0.0-19.0-0.0,26663,List2A,black,man,,,,null,,,,,,,,,
null,"<img src=""stim_listA/hug3.gif""style=""height:400px;""></stim_listA>",,html-keyboard-response,325,2255997,0.0-19.0-1.0,26663,List2A,black,man,,,,null,,,,,,,,,
null,is hugging,,html-keyboard-response,326,2258001,0.0-19.0-2.0,26663,List2A,black,man,,,,null,,,,,,,,,
14912.6,,,survey-text,327,2272943,0.0-19.0-3.0,26663,List2A,black,man,,,,,"{""Q0"":""Fred is hugging beth""}","<img src=""stim_listA/hug3.gif""style=""height:400px;""></stim_listA>",is hugging,,,,,,
null,"<div style=""font-size:60px;"">+</div>",,html-keyboard-response,328,2273448,0.0-19.0-0.1,26663,List2A,black,man,,,,null,,,,,,,,,
null,"<img src=""stim_listA/shout4.gif""style=""height:400px;""></stim_listA>",,html-keyboard-response,329,2275456,0.0-19.0-1.1,26663,List2A,black,man,,,,null,,,,,,,,,
null,is being shouted at by,,html-keyboard-response,330,2277460,0.0-19.0-2.1,26663,List2A,black,man,,,,null,,,,,,,,,
13935.3,,,survey-text,331,2291408,0.0-19.0-3.1,26663,List2A,black,man,,,,,"{""Q0"":""Mike is being shouted at by kate""}","<img src=""stim_listA/shout4.gif""style=""height:400px;""></stim_listA>",is being shouted at by,,,,,,
null,"<div style=""font-size:60px;"">+</div>",,html-keyboard-response,332,2291913,0.0-19.0-0.2,26663,List2A,black,man,,,,null,,,,,,,,,
null,"<img src=""stim_listA/seduce4.gif""style=""height:400px;""></stim_listA>",,html-keyboard-response,333,2293923,0.0-19.0-1.2,26663,List2A,black,man,,,,null,,,,,,,,,
null,is being seduced by,,html-keyboard-response,334,2295930,0.0-19.0-2.2,26663,List2A,black,man,,,,null,,,,,,,,,
12327.5,,,survey-text,335,2308271,0.0-19.0-3.2,26663,List2A,black,man,,,,,"{""Q0"":""Mike is being seduced by beth""}","<img src=""stim_listA/seduce4.gif""style=""height:400px;""></stim_listA>",is being seduced by,,,,,,
null,"<div style=""font-size:60px;"">+</div>",,html-keyboard-response,336,2308777,0.0-19.0-0.3,26663,List2A,black,man,,,,null,,,,,,,,,
null,"<img src=""stim_listA/challenge6.gif""style=""height:400px;""></stim_listA>",,html-keyboard-response,337,2310785,0.0-19.0-1.3,26663,List2A,black,man,,,,null,,,,,,,,,
null,is being challenged by,,html-keyboard-response,338,2312789,0.0-19.0-2.3,26663,List2A,black,man,,,,null,,,,,,,,,
9038.2,,,survey-text,339,2321841,0.0-19.0-3.3,26663,List2A,black,man,,,,,"{""Q0"":""Luke is being challenged by mike""}","<img src=""stim_listA/challenge6.gif""style=""height:400px;""></stim_listA>",is being challenged by,,,,,,
null,"<div style=""font-size:60px;"">+</div>",,html-keyboard-response,340,2322346,0.0-19.0-0.4,26663,List2A,black,man,,,,null,,,,,,,,,
null,"<img src=""stim_listA/copy3.gif""style=""height:400px;""></stim_listA>",,html-keyboard-response,341,2324353,0.0-19.0-1.4,26663,List2A,black,man,,,,null,,,,,,,,,
null,is copying,,html-keyboard-response,342,2326358,0.0-19.0-2.4,26663,List2A,black,man,,,,null,,,,,,,,,
11365.1,,,survey-text,343,2337737,0.0-19.0-3.4,26663,List2A,black,man,,,,,"{""Q0"":""Mike is copying beth""}","<img src=""stim_listA/copy3.gif""style=""height:400px;""></stim_listA>",is copying,,,,,,
null,"<div style=""font-size:60px;"">+</div>",,html-keyboard-response,344,2338242,0.0-19.0-0.5,26663,List2A,black,man,,,,null,,,,,,,,,
null,"<img src=""stim_listA/challenge2.gif""style=""height:400px;""></stim_listA>",,html-keyboard-response,345,2340251,0.0-19.0-1.5,26663,List2A,black,man,,,,null,,,,,,,,,
null,is being challenged by,,html-keyboard-response,346,2342257,0.0-19.0-2.5,26663,List2A,black,man,,,,null,,,,,,,,,
16534.3,,,survey-text,347,2358807,0.0-19.0-3.5,26663,List2A,black,man,,,,,"{""Q0"":""Luke is being challenged by jane""}","<img src=""stim_listA/challenge2.gif""style=""height:400px;""></stim_listA>",is being challenged by,,,,,,
null,"<div style=""font-size:60px;"">+</div>",,html-keyboard-response,348,2359312,0.0-19.0-0.6,26663,List2A,black,man,,,,null,,,,,,,,,
null,"<img src=""stim_listA/hug7.gif""style=""height:400px;""></stim_listA>",,html-keyboard-response,349,2361321,0.0-19.0-1.6,26663,List2A,black,man,,,,null,,,,,,,,,
null,is hugging,,html-keyboard-response,350,2363325,0.0-19.0-2.6,26663,List2A,black,man,,,,null,,,,,,,,,
23465.6,,,survey-text,351,2386813,0.0-19.0-3.6,26663,List2A,black,man,,,,,"{""Q0"":""Jane is hugging ruth""}","<img src=""stim_listA/hug7.gif""style=""height:400px;""></stim_listA>",is hugging,,,,,,
null,"<div style=""font-size:60px;"">+</div>",,html-keyboard-response,352,2387318,0.0-19.0-0.7,26663,List2A,black,man,,,,null,,,,,,,,,
null,"<img src=""stim_listA/look3.gif""style=""height:400px;""></stim_listA>",,html-keyboard-response,353,2389325,0.0-19.0-1.7,26663,List2A,black,man,,,,null,,,,,,,,,
null,is looking at,,html-keyboard-response,354,2391331,0.0-19.0-2.7,26663,List2A,black,man,,,,null,,,,,,,,,
8655.1,,,survey-text,355,2399999,0.0-19.0-3.7,26663,List2A,black,man,,,,,"{""Q0"":""Fred is looking at beth""}","<img src=""stim_listA/look3.gif""style=""height:400px;""></stim_listA>",is looking at,,,,,,
null,"<div style=""font-size:60px;"">+</div>",,html-keyboard-response,356,2400504,0.0-19.0-0.8,26663,List2A,black,man,,,,null,,,,,,,,,
null,"<img src=""stim_listA/greet3.gif""style=""height:400px;""></stim_listA>",,html-keyboard-response,357,2402512,0.0-19.0-1.8,26663,List2A,black,man,,,,null,,,,,,,,,
null,is greeting,,html-keyboard-response,358,2404517,0.0-19.0-2.8,26663,List2A,black,man,,,,null,,,,,,,,,
8925.2,,,survey-text,359,2413453,0.0-19.0-3.8,26663,List2A,black,man,,,,,"{""Q0"":""Mike is greeting beth""}","<img src=""stim_listA/greet3.gif""style=""height:400px;""></stim_listA>",is greeting,,,,,,
null,"<div style=""font-size:60px;"">+</div>",,html-keyboard-response,360,2413957,0.0-19.0-0.9,26663,List2A,black,man,,,,null,,,,,,,,,
null,"<img src=""stim_listA/seduce5.gif""style=""height:400px;""></stim_listA>",,html-keyboard-response,361,2415964,0.0-19.0-1.9,26663,List2A,black,man,,,,null,,,,,,,,,
null,is seducing,,html-keyboard-response,362,2417969,0.0-19.0-2.9,26663,List2A,black,man,,,,null,,,,,,,,,
11434.7,,,survey-text,363,2429418,0.0-19.0-3.9,26663,List2A,black,man,,,,,"{""Q0"":""Mike is seducing Luke""}","<img src=""stim_listA/seduce5.gif""style=""height:400px;""></stim_listA>",is seducing,,,,,,
null,"<div style=""font-size:60px;"">+</div>",,html-keyboard-response,364,2429923,0.0-19.0-0.10,26663,List2A,black,man,,,,null,,,,,,,,,
null,"<img src=""stim_listA/shout3.gif""style=""height:400px;""></stim_listA>",,html-keyboard-response,365,2431931,0.0-19.0-1.10,26663,List2A,black,man,,,,null,,,,,,,,,
null,is shouting at,,html-keyboard-response,366,2433935,0.0-19.0-2.10,26663,List2A,black,man,,,,null,,,,,,,,,
11164.7,,,survey-text,367,2445116,0.0-19.0-3.10,26663,List2A,black,man,,,,,"{""Q0"":""Fred is shouting at beth""}","<img src=""stim_listA/shout3.gif""style=""height:400px;""></stim_listA>",is shouting at,,,,,,
null,"<div style=""font-size:60px;"">+</div>",,html-keyboard-response,368,2445621,0.0-19.0-0.11,26663,List2A,black,man,,,,null,,,,,,,,,
null,"<img src=""stim_listA/kiss6.gif""style=""height:400px;""></stim_listA>",,html-keyboard-response,369,2447629,0.0-19.0-1.11,26663,List2A,black,man,,,,null,,,,,,,,,
null,is being kissed by,,html-keyboard-response,370,2449634,0.0-19.0-2.11,26663,List2A,black,man,,,,null,,,,,,,,,
11748,,,survey-text,371,2461396,0.0-19.0-3.11,26663,List2A,black,man,,,,,"{""Q0"":""Dave is being kissed by mike""}","<img src=""stim_listA/kiss6.gif""style=""height:400px;""></stim_listA>",is being kissed by,,,,,,
null,"<div style=""font-size:60px;"">+</div>",,html-keyboard-response,372,2461902,0.0-19.0-0.12,26663,List2A,black,man,,,,null,,,,,,,,,
null,"<img src=""stim_listA/greet5.gif""style=""height:400px;""></stim_listA>",,html-keyboard-response,373,2463912,0.0-19.0-1.12,26663,List2A,black,man,,,,null,,,,,,,,,
null,is greeting,,html-keyboard-response,374,2465916,0.0-19.0-2.12,26663,List2A,black,man,,,,null,,,,,,,,,
11201.9,,,survey-text,375,2477128,0.0-19.0-3.12,26663,List2A,black,man,,,,,"{""Q0"":""Dave is greeting fred""}","<img src=""stim_listA/greet5.gif""style=""height:400px;""></stim_listA>",is greeting,,,,,,
null,"<div style=""font-size:60px;"">+</div>",,html-keyboard-response,376,2477634,0.0-19.0-0.13,26663,List2A,black,man,,,,null,,,,,,,,,
null,"<img src=""stim_listA/copy6.gif""style=""height:400px;""></stim_listA>",,html-keyboard-response,377,2479642,0.0-19.0-1.13,26663,List2A,black,man,,,,null,,,,,,,,,
null,is being copied by,,html-keyboard-response,378,2481646,0.0-19.0-2.13,26663,List2A,black,man,,,,null,,,,,,,,,
15178.7,,,survey-text,379,2496837,0.0-19.0-3.13,26663,List2A,black,man,,,,,"{""Q0"":""Luke is being copied by mike""}","<img src=""stim_listA/copy6.gif""style=""height:400px;""></stim_listA>",is being copied by,,,,,,
null,"<div style=""font-size:60px;"">+</div>",,html-keyboard-response,380,2497345,0.0-19.0-0.14,26663,List2A,black,man,,,,null,,,,,,,,,
null,"<img src=""stim_listA/seduce1.gif""style=""height:400px;""></stim_listA>",,html-keyboard-response,381,2499352,0.0-19.0-1.14,26663,List2A,black,man,,,,null,,,,,,,,,
null,is seducing,,html-keyboard-response,382,2501357,0.0-19.0-2.14,26663,List2A,black,man,,,,null,,,,,,,,,
17084,,,survey-text,383,2518453,0.0-19.0-3.14,26663,List2A,black,man,,,,,"{""Q0"":""Luke is seducing jane""}","<img src=""stim_listA/seduce1.gif""style=""height:400px;""></stim_listA>",is seducing,,,,,,
null,"<div style=""font-size:60px;"">+</div>",,html-keyboard-response,384,2518958,0.0-19.0-0.15,26663,List2A,black,man,,,,null,,,,,,,,,
null,"<img src=""stim_listA/copy7.gif""style=""height:400px;""></stim_listA>",,html-keyboard-response,385,2520965,0.0-19.0-1.15,26663,List2A,black,man,,,,null,,,,,,,,,
null,is copying,,html-keyboard-response,386,2522969,0.0-19.0-2.15,26663,List2A,black,man,,,,null,,,,,,,,,
10852.2,,,survey-text,387,2533835,0.0-19.0-3.15,26663,List2A,black,man,,,,,"{""Q0"":""Beth is copying jane""}","<img src=""stim_listA/copy7.gif""style=""height:400px;""></stim_listA>",is copying,,,,,,
null,"<div style=""font-size:60px;"">+</div>",,html-keyboard-response,388,2534340,0.0-19.0-0.16,26663,List2A,black,man,,,,null,,,,,,,,,
null,"<img src=""stim_listA/greet4.gif""style=""height:400px;""></stim_listA>",,html-keyboard-response,389,2536347,0.0-19.0-1.16,26663,List2A,black,man,,,,null,,,,,,,,,
null,is being greeted by,,html-keyboard-response,390,2538384,0.0-19.0-2.16,26663,List2A,black,man,,,,null,,,,,,,,,
12022.8,,,survey-text,391,2550427,0.0-19.0-3.16,26663,List2A,black,man,,,,,"{""Q0"":""Fred is being greeted by kate""}","<img src=""stim_listA/greet4.gif""style=""height:400px;""></stim_listA>",is being greeted by,,,,,,
null,"<div style=""font-size:60px;"">+</div>",,html-keyboard-response,392,2550932,0.0-19.0-0.17,26663,List2A,black,man,,,,null,,,,,,,,,
null,"<img src=""stim_listA/hug4.gif""style=""height:400px;""></stim_listA>",,html-keyboard-response,393,2552940,0.0-19.0-1.17,26663,List2A,black,man,,,,null,,,,,,,,,
null,is being hugged by,,html-keyboard-response,394,2554944,0.0-19.0-2.17,26663,List2A,black,man,,,,null,,,,,,,,,
11204.1,,,survey-text,395,2566163,0.0-19.0-3.17,26663,List2A,black,man,,,,,"{""Q0"":""Mike is being hugged by kate""}","<img src=""stim_listA/hug4.gif""style=""height:400px;""></stim_listA>",is being hugged by,,,,,,
null,"<div style=""font-size:60px;"">+</div>",,html-keyboard-response,396,2566669,0.0-19.0-0.18,26663,List2A,black,man,,,,null,,,,,,,,,
null,"<img src=""stim_listA/shout7.gif""style=""height:400px;""></stim_listA>",,html-keyboard-response,397,2568679,0.0-19.0-1.18,26663,List2A,black,man,,,,null,,,,,,,,,
null,is shouting at,,html-keyboard-response,398,2570685,0.0-19.0-2.18,26663,List2A,black,man,,,,null,,,,,,,,,
27011,,,survey-text,399,2597710,0.0-19.0-3.18,26663,List2A,black,man,,,,,"{""Q0"":""Beth is shouting at ruth""}","<img src=""stim_listA/shout7.gif""style=""height:400px;""></stim_listA>",is shouting at,,,,,,
null,"<div style=""font-size:60px;"">+</div>",,html-keyboard-response,400,2598217,0.0-19.0-0.19,26663,List2A,black,man,,,,null,,,,,,,,,
null,"<img src=""stim_listA/oppose4.gif""style=""height:400px;""></stim_listA>",,html-keyboard-response,401,2600225,0.0-19.0-1.19,26663,List2A,black,man,,,,null,,,,,,,,,
null,is being opposed by,,html-keyboard-response,402,2602230,0.0-19.0-2.19,26663,List2A,black,man,,,,null,,,,,,,,,
15287.9,,,survey-text,403,2617533,0.0-19.0-3.19,26663,List2A,black,man,,,,,"{""Q0"":""Fred is being opposed by beth""}","<img src=""stim_listA/oppose4.gif""style=""height:400px;""></stim_listA>",is being opposed by,,,,,,
11846.8,<p>Thank you for completing that task.</p><p>The final part of this session is a questionnaire that will take about 4 minutes.</p><p>Press Continue.</p>,0,html-button-response,404,2629398,0.0-20.0,26663,List2A,black,man,,,,,,,,,,,,,
142388.7,,,survey-text,405,2772837,0.0-21.0,26663,List2A,black,man,,,,,"{""Q0"":""36"",""Q1"":""English language"",""Q2"":""English language"",""Q3"":""United States of American"",""Q4"":""United States of America"",""Q5"":""Black/African American"",""Q6"":""Male""}",,,demographics,,,,,
5464.7,<p>Have you lived in the USA for the last 5 years or more?</p>,0,html-button-response,406,2778318,0.0-22.0,26663,List2A,black,man,,,,,,,,fiveyears,,,,,
6096.8,<p>Move the slider to show the extent to which you agree with the following statements.</p>,0,html-button-response,407,2785421,0.0-23.0,26663,List2A,black,man,,,,,,,,,,,,,
7314.6,,,html-slider-response,408,2793752,0.0-24.0-0.0-0.0,26663,List2A,black,man,,,,,,,,survey_gender,100,,,My friends understand me.,filler
5680.6,,,html-slider-response,409,2799440,0.0-24.0-0.0-0.1,26663,List2A,black,man,,,,,,,,survey_gender,95,,,I feel committed to my gender.,committed
5776.3,,,html-slider-response,410,2805224,0.0-24.0-0.0-0.2,26663,List2A,black,man,,,,,,,,survey_gender,98,,,I have a lot in common with the average person of my gender.,average
4617.5,,,html-slider-response,411,2809848,0.0-24.0-0.0-0.3,26663,List2A,black,man,,,,,,,,survey_gender,100,,,It is pleasant to be my gender.,pleasant
4765.4,,,html-slider-response,412,2814621,0.0-24.0-0.0-0.4,26663,List2A,black,man,,,,,,,,survey_gender,61,,,I often think about my actions.,filler
8623.6,,,html-slider-response,413,2823251,0.0-24.0-0.0-0.5,26663,List2A,black,man,,,,,,,,survey_gender,94,,,People of my gender have a lot in common with each other.,common
4482.3,,,html-slider-response,414,2827741,0.0-24.0-0.0-0.6,26663,List2A,black,man,,,,,,,,survey_gender,95,,,I have a lot in common with my friends.,filler
7844.5,,,html-slider-response,415,2835592,0.0-24.0-0.0-0.7,26663,List2A,black,man,,,,,,,,survey_gender,17,,,Family is not more important to me than friendship.,filler
7791.4,,,html-slider-response,416,2843391,0.0-24.0-0.0-0.8,26663,List2A,black,man,,,,,,,,survey_gender,82,,,It is not always easy for people to know what I am thinking.,filler
9073.3,,,html-slider-response,417,2852471,0.0-24.0-0.0-0.9,26663,List2A,black,man,,,,,,,,survey_gender,87,,,The fact that I am my gender is an important part of my identity.,identity
3100.3,,,html-slider-response,418,2855578,0.0-24.0-0.0-0.10,26663,List2A,black,man,,,,,,,,survey_gender,78,,,Routine is not important to me.,filler
6599.6,,,html-slider-response,419,2862186,0.0-24.0-0.0-0.11,26663,List2A,black,man,,,,,,,,survey_gender,88,,,People of my gender are very similar to each other.,verysimilar
6299.7,,,html-slider-response,420,2868499,0.0-24.0-0.0-0.12,26663,List2A,black,man,,,,,,,,survey_gender,5,,,I would say I am an animal person.,filler
3537.7,,,html-slider-response,421,2872043,0.0-24.0-0.0-0.13,26663,List2A,black,man,,,,,,,,survey_gender,79,,,Being my gender gives me a good feeling.,feeling
2820.2,,,html-slider-response,422,2874869,0.0-24.0-0.0-0.14,26663,List2A,black,man,,,,,,,,survey_gender,97,,,I am glad to be my gender.,glad
2887.1,,,html-slider-response,423,2877763,0.0-24.0-0.0-0.15,26663,List2A,black,man,,,,,,,,survey_gender,84,,,I feel solidarity with my gender.,solidarity
3538.5,,,html-slider-response,424,2881307,0.0-24.0-0.0-0.16,26663,List2A,black,man,,,,,,,,survey_gender,90,,,I feel a bond with my friends.,filler
3402,,,html-slider-response,425,2884716,0.0-24.0-0.0-0.17,26663,List2A,black,man,,,,,,,,survey_gender,76,,,I am similar to the average person of my gender.,similar
4099.8,,,html-slider-response,426,2888822,0.0-24.0-0.0-0.18,26663,List2A,black,man,,,,,,,,survey_gender,97,,,Being my gender is an important part of how I see myself.,important
3335,,,html-slider-response,427,2892163,0.0-24.0-0.0-0.19,26663,List2A,black,man,,,,,,,,survey_gender,72,,,Being around my friends gives me a good feeling.,filler
3204.1,,,html-slider-response,428,2895373,0.0-24.0-0.0-0.20,26663,List2A,black,man,,,,,,,,survey_gender,97,,,I feel a bond with my gender.,bond
5265.7,,,html-slider-response,429,2900645,0.0-24.0-0.0-0.21,26663,List2A,black,man,,,,,,,,survey_gender,92,,,I often think about the fact that I am my gender.,often
2472.5,,,html-slider-response,430,2903125,0.0-24.0-0.0-0.22,26663,List2A,black,man,,,,,,,,survey_gender,95,,,My friends have a lot in common with each other.,filler
4117.1,,,html-slider-response,431,2907247,0.0-24.0-0.0-0.23,26663,List2A,black,man,,,,,,,,survey_gender,78,,,I feel solidarity with my friends.,filler
4333.5,,,html-slider-response,432,2911587,0.0-24.0-0.0-0.24,26663,List2A,black,man,,,,,,,,survey_gender,81,,,Most of the friends in my life are very similar to me.,filler
5662.3,,,html-slider-response,433,2917258,0.0-24.0-0.0-0.25,26663,List2A,black,man,,,,,,,,survey_gender,86,,,I consider myself a highly empathetic person.,filler
6064.5,,,html-slider-response,434,2923329,0.0-24.0-0.0-0.26,26663,List2A,black,man,,,,,,,,survey_gender,91,,,I think that my gender has a lot to be proud of.,proud
3550.5,,,html-slider-response,435,2926887,0.0-24.0-0.0-0.27,26663,List2A,black,man,,,,,,,,survey_gender,94,,,I am glad to have the friends that I have.,filler
3986.3,,,html-slider-response,436,2930880,0.0-24.0-1.0-0.0,26663,List2A,black,man,,,,,,,,survey_race,94,,,I think that my race has a lot to be proud of.,proud
3100.7,,,html-slider-response,437,2933988,0.0-24.0-1.0-0.1,26663,List2A,black,man,,,,,,,,survey_race,96,,,Getting older does not worry me.,filler
3086.9,,,html-slider-response,438,2937080,0.0-24.0-1.0-0.2,26663,List2A,black,man,,,,,,,,survey_race,100,,,I feel a bond with people the same age as me.,filler
5164.7,,,html-slider-response,439,2942251,0.0-24.0-1.0-0.3,26663,List2A,black,man,,,,,,,,survey_race,81,,,The fact that I am my race is an important part of my identity.,identity
4882.6,,,html-slider-response,440,2947141,0.0-24.0-1.0-0.4,26663,List2A,black,man,,,,,,,,survey_race,81,,,People my age have a lot in common with each other.,filler
4085.4,,,html-slider-response,441,2951233,0.0-24.0-1.0-0.5,26663,List2A,black,man,,,,,,,,survey_race,84,,,I often think about the fact that I am my age.,filler
2753.1,,,html-slider-response,442,2953993,0.0-24.0-1.0-0.6,26663,List2A,black,man,,,,,,,,survey_race,89,,,I feel solidarity with my race.,solidarity
11983.6,,,html-slider-response,443,2965982,0.0-24.0-1.0-0.7,26663,List2A,black,man,,,,,,,,survey_race,76,,,My age is not an important part of who I am.,filler
5564.7,,,html-slider-response,444,2971554,0.0-24.0-1.0-0.8,26663,List2A,black,man,,,,,,,,survey_race,66,,,I have a lot in common with the average person of my race.,average
2419.7,,,html-slider-response,445,2973980,0.0-24.0-1.0-0.9,26663,List2A,black,man,,,,,,,,survey_race,81,,,I feel committed to my race.,committed
3321.3,,,html-slider-response,446,2977307,0.0-24.0-1.0-0.10,26663,List2A,black,man,,,,,,,,survey_race,100,,,"The older I get, the wiser I feel.",filler
2455,,,html-slider-response,447,2979769,0.0-24.0-1.0-0.11,26663,List2A,black,man,,,,,,,,survey_race,100,,,I am glad to be my age.,filler
3388.8,,,html-slider-response,448,2983165,0.0-24.0-1.0-0.12,26663,List2A,black,man,,,,,,,,survey_race,82,,,People of my race are very similar to each other.,verysimilar
3796.6,,,html-slider-response,449,2986970,0.0-24.0-1.0-0.13,26663,List2A,black,man,,,,,,,,survey_race,85,,,People of my race have a lot in common with each other.,common
3203.6,,,html-slider-response,450,2990181,0.0-24.0-1.0-0.14,26663,List2A,black,man,,,,,,,,survey_race,98,,,Being my race is an important part of how I see myself.,important
2585.2,,,html-slider-response,451,2992772,0.0-24.0-1.0-0.15,26663,List2A,black,man,,,,,,,,survey_race,83,,,I am glad to be the age I am.,filler
7662.1,,,html-slider-response,452,3000440,0.0-24.0-1.0-0.16,26663,List2A,black,man,,,,,,,,survey_race,67,,,Being my age gives me a good feeling.,filler
7579.1,,,html-slider-response,453,3008026,0.0-24.0-1.0-0.17,26663,List2A,black,man,,,,,,,,survey_race,57,,,I often think about the fact that I am my race.,often
5545.1,,,html-slider-response,454,3013578,0.0-24.0-1.0-0.18,26663,List2A,black,man,,,,,,,,survey_race,47,,,I consider myself an introvert.,filler
3987,,,html-slider-response,455,3017573,0.0-24.0-1.0-0.19,26663,List2A,black,man,,,,,,,,survey_race,59,,,I am similar to the average person of my race.,similar
3883.1,,,html-slider-response,456,3021468,0.0-24.0-1.0-0.20,26663,List2A,black,man,,,,,,,,survey_race,42,,,I consider myself an extrovert.,filler
3690.8,,,html-slider-response,457,3025169,0.0-24.0-1.0-0.21,26663,List2A,black,man,,,,,,,,survey_race,86,,,Being my race gives me a good feeling.,feeling
2814.6,,,html-slider-response,458,3027995,0.0-24.0-1.0-0.22,26663,List2A,black,man,,,,,,,,survey_race,88,,,It is pleasant to be my race.,pleasant
2955.3,,,html-slider-response,459,3030955,0.0-24.0-1.0-0.23,26663,List2A,black,man,,,,,,,,survey_race,91,,,I have a lot in common with people of a similar age to me.,filler
3336.1,,,html-slider-response,460,3034298,0.0-24.0-1.0-0.24,26663,List2A,black,man,,,,,,,,survey_race,88,,,I feel solidarity with people the same age as me.,filler
2355.4,,,html-slider-response,461,3036660,0.0-24.0-1.0-0.25,26663,List2A,black,man,,,,,,,,survey_race,91,,,I am glad to be my race.,glad
2652.4,,,html-slider-response,462,3039320,0.0-24.0-1.0-0.26,26663,List2A,black,man,,,,,,,,survey_race,99,,,I feel a bond with my race.,bond
4269.7,,,html-slider-response,463,3043595,0.0-24.0-1.0-0.27,26663,List2A,black,man,,,,,,,,survey_race,92,,,I enjoy being in large groups.,filler
15089.5,,,survey-text,464,3058710,0.0-25.0,26663,List2A,black,man,,,,,"{""Q0"":""ccc""}",,,worker_id,,,,,
32427.6,,,external-html,465,3093749,0.0-26.0,26663,List2A,black,man,debrief.html,,,,,,,,,,,,
