rt,stimulus,button_pressed,trial_type,trial_index,time_elapsed,internal_node_id,subject,list,ppt_race,ppt_gender,url,first_guess,correct,key_press,responses,image_type,phrase_type,test_part,response,stimulus1,stimulus2,question_type,survey_item
4998.3,Welcome to the experiment. Press Continue to begin.,0,html-button-response,0,5012,0.0-0.0,27529,List2B,black,woman,,,,,,,,,,,,,
27802.6,,,external-html,1,34268,0.0-1.0,27529,List2B,black,woman,consent.html,,,,,,,,,,,,
16454.5,"<p>On the next page, you will see portraits of 8 people and their names.</p><p>Your first task is to take a few minutes to memorise the names of these people.</p><p>You will have to recall their names during the rest of the experiment, so it is</p><p>essential that you try to memorise these people and their names as best as you can.</p><br><p><strong>You will then be tested on your memory of these names and portraits.</strong></p><br><p>The experiment will start after you have completed this memory test.</p><br><p>Ready?</p>",0,html-button-response,2,50724,0.0-2.0,27529,List2B,black,woman,,,,,,,,,,,,,
86507.5,"<img src='img/portrait_matrix_list2.jpg' style='width:900px;height:500px;''></img><p>If you have memorised all the portraits and names and are ready to start, press Continue.</p><p><strong>Please note: Your memory of these faces will be tested 4 times during this experiment.</strong></p>",0,html-button-response,3,138244,0.0-3.0-0.0,27529,List2B,black,woman,,,,,,,,,,,,,
2959.9,"<img src=""portrait/WM1.jpg""style=""height:400px;""></img>",6,html-button-response,4,142217,0.0-3.0-1.0,27529,List2B,black,woman,,TRUE,6,,,,,,,,,,
null,CORRECT,,html-keyboard-response,5,143742,0.0-3.0-2.0-0.0,27529,List2B,black,woman,,,,null,,,,,,,,,
2700.5,"<img src=""portrait/WM2.jpg""style=""height:400px;""></img>",7,html-button-response,6,146448,0.0-3.0-4.0,27529,List2B,black,woman,,TRUE,7,,,,,,,,,,
null,CORRECT,,html-keyboard-response,7,147958,0.0-3.0-5.0-0.0,27529,List2B,black,woman,,,,null,,,,,,,,,
3241.4,"<img src=""portrait/BW2.jpg""style=""height:400px;""></img>",2,html-button-response,8,151203,0.0-3.0-7.0,27529,List2B,black,woman,,TRUE,2,,,,,,,,,,
null,CORRECT,,html-keyboard-response,9,152727,0.0-3.0-8.0-0.0,27529,List2B,black,woman,,,,null,,,,,,,,,
2436.2,"<img src=""portrait/WW2.jpg""style=""height:400px;""></img>",3,html-button-response,10,155166,0.0-3.0-10.0,27529,List2B,black,woman,,TRUE,3,,,,,,,,,,
null,CORRECT,,html-keyboard-response,11,156683,0.0-3.0-11.0-0.0,27529,List2B,black,woman,,,,null,,,,,,,,,
5526.2,"<img src=""portrait/BW1.jpg""style=""height:400px;""></img>",0,html-button-response,12,162211,0.0-3.0-13.0,27529,List2B,black,woman,,TRUE,0,,,,,,,,,,
null,CORRECT,,html-keyboard-response,13,163731,0.0-3.0-14.0-0.0,27529,List2B,black,woman,,,,null,,,,,,,,,
5784,"<img src=""portrait/BM1.jpg""style=""height:400px;""></img>",4,html-button-response,14,169517,0.0-3.0-16.0,27529,List2B,black,woman,,TRUE,4,,,,,,,,,,
null,CORRECT,,html-keyboard-response,15,171037,0.0-3.0-17.0-0.0,27529,List2B,black,woman,,,,null,,,,,,,,,
6352.5,"<img src=""portrait/WW1.jpg""style=""height:400px;""></img>",1,html-button-response,16,177394,0.0-3.0-19.0,27529,List2B,black,woman,,TRUE,1,,,,,,,,,,
null,CORRECT,,html-keyboard-response,17,178920,0.0-3.0-20.0-0.0,27529,List2B,black,woman,,,,null,,,,,,,,,
2981.1,"<img src=""portrait/BM2.jpg""style=""height:400px;""></img>",5,html-button-response,18,181904,0.0-3.0-22.0,27529,List2B,black,woman,,TRUE,5,,,,,,,,,,
null,CORRECT,,html-keyboard-response,19,183431,0.0-3.0-23.0-0.0,27529,List2B,black,woman,,,,null,,,,,,,,,
1805.5,<p>You got 8 out of 8 right first time. Press Continue.</p>,0,html-button-response,20,185241,0.0-3.0-25.0,27529,List2B,black,woman,,,,,,,,,,,,,
67076.1,"<p>In this experiment, you will view photographs of the people from the memory game interacting.</p><p>By using the <strong>exact</strong> phrase given <i>after</i> the photograph appears and recalling the correct names of the people in the photographs, form a sentence describing the interaction. You do not need to capitalise names.</p><p>Type your answer in the space provided. Please complete every sentence before moving onto the next trial.</p><p>You will only have a few seconds to memorise each given photograph and phrase before you can respond, so try your best to focus.</p><p>An example is given below. Press 'Continue' when you are ready.</p><img src='img/speaking_example.jpg' style='width:800px;height:460px;''></img>",0,html-button-response,21,253325,0.0-4.0,27529,List2B,black,woman,,,,,,,,,,,,,
2117.5,"<p>Before the experiment starts, you will watch two example trials. Press 'Continue'.</p>",0,html-button-response,22,256457,0.0-5.0,27529,List2B,black,woman,,,,,,,,,,,,,
null,<img src='img/play_eg.gif' style='height:400px;''></img>,,html-keyboard-response,23,259466,0.0-6.0,27529,List2B,black,woman,,,,null,,,,,,,,,
null,<p>is playing with</p>,,html-keyboard-response,24,261470,0.0-7.0,27529,List2B,black,woman,,,,null,,,,,,,,,
2526.2,<p><b>Answer:</b> jane is playing with ruth</p>,0,html-button-response,25,263998,0.0-8.0,27529,List2B,black,woman,,,,,,,,,,,,,
null,<img src='img/dance_eg.gif' style='height:400px;''></img>,,html-keyboard-response,26,267012,0.0-9.0,27529,List2B,black,woman,,,,null,,,,,,,,,
null,<p>is being entertained by</p>,,html-keyboard-response,27,269022,0.0-10.0,27529,List2B,black,woman,,,,null,,,,,,,,,
1798.7,<p><b>Answer:</b> fred is being entertained by mike</p>,0,html-button-response,28,270823,0.0-11.0,27529,List2B,black,woman,,,,,,,,,,,,,
31975.9,"<p>Ready to start the experiment?</p><br><p><strong>Remember to describe the picture using a full sentence,</strong></p><p><strong>that combines the names of the people with the <i>exact</i> phrase given.</strong></p><p><strong>To receive full payment you must do this correctly.</strong></p><p><strong> You do not need to capitalise names or use punctuation.</strong></p><br><p>Press 'Continue' to begin.</p>",0,html-button-response,29,303820,0.0-12.0,27529,List2B,black,woman,,,,,,,,,,,,,
null,"<div style=""font-size:60px;"">+</div>",,html-keyboard-response,30,305338,0.0-13.0-0.0,27529,List2B,black,woman,,,,null,,,,,,,,,
null,"<img src=""stim_listB/touch5.gif""style=""height:400px;""></stim_listB>",,html-keyboard-response,31,307358,0.0-13.0-1.0,27529,List2B,black,woman,,,,null,,,,,,,,,
null,is touching,,html-keyboard-response,32,309366,0.0-13.0-2.0,27529,List2B,black,woman,,,,null,,,,,,,,,
7226.7,,,survey-text,33,316609,0.0-13.0-3.0,27529,List2B,black,woman,,,,,"{""Q0"":""Mike is touching Dave""}","<img src=""stim_listB/touch5.gif""style=""height:400px;""></stim_listB>",is touching,,,,,,
null,"<div style=""font-size:60px;"">+</div>",,html-keyboard-response,34,317115,0.0-13.0-0.1,27529,List2B,black,woman,,,,null,,,,,,,,,
null,"<img src=""stim_listB/hug2.gif""style=""height:400px;""></stim_listB>",,html-keyboard-response,35,319119,0.0-13.0-1.1,27529,List2B,black,woman,,,,null,,,,,,,,,
null,is being hugged by,,html-keyboard-response,36,321123,0.0-13.0-2.1,27529,List2B,black,woman,,,,null,,,,,,,,,
14521.2,,,survey-text,37,335655,0.0-13.0-3.1,27529,List2B,black,woman,,,,,"{""Q0"":""Dave is being hugged by Jane""}","<img src=""stim_listB/hug2.gif""style=""height:400px;""></stim_listB>",is being hugged by,,,,,,
null,"<div style=""font-size:60px;"">+</div>",,html-keyboard-response,38,336159,0.0-13.0-0.2,27529,List2B,black,woman,,,,null,,,,,,,,,
null,"<img src=""stim_listB/greet3.gif""style=""height:400px;""></stim_listB>",,html-keyboard-response,39,338176,0.0-13.0-1.2,27529,List2B,black,woman,,,,null,,,,,,,,,
null,is greeting,,html-keyboard-response,40,340187,0.0-13.0-2.2,27529,List2B,black,woman,,,,null,,,,,,,,,
8381.3,,,survey-text,41,348580,0.0-13.0-3.2,27529,List2B,black,woman,,,,,"{""Q0"":""Beth is greeted by Mike""}","<img src=""stim_listB/greet3.gif""style=""height:400px;""></stim_listB>",is greeting,,,,,,
null,"<div style=""font-size:60px;"">+</div>",,html-keyboard-response,42,349085,0.0-13.0-0.3,27529,List2B,black,woman,,,,null,,,,,,,,,
null,"<img src=""stim_listB/hug6.gif""style=""height:400px;""></stim_listB>",,html-keyboard-response,43,351102,0.0-13.0-1.3,27529,List2B,black,woman,,,,null,,,,,,,,,
null,is being hugged by,,html-keyboard-response,44,353114,0.0-13.0-2.3,27529,List2B,black,woman,,,,null,,,,,,,,,
7767,,,survey-text,45,360892,0.0-13.0-3.3,27529,List2B,black,woman,,,,,"{""Q0"":""Mike is being hugged by Dave""}","<img src=""stim_listB/hug6.gif""style=""height:400px;""></stim_listB>",is being hugged by,,,,,,
null,"<div style=""font-size:60px;"">+</div>",,html-keyboard-response,46,361402,0.0-13.0-0.4,27529,List2B,black,woman,,,,null,,,,,,,,,
null,"<img src=""stim_listB/challenge7.gif""style=""height:400px;""></stim_listB>",,html-keyboard-response,47,363415,0.0-13.0-1.4,27529,List2B,black,woman,,,,null,,,,,,,,,
null,is challenging,,html-keyboard-response,48,365429,0.0-13.0-2.4,27529,List2B,black,woman,,,,null,,,,,,,,,
13256.3,,,survey-text,49,378698,0.0-13.0-3.4,27529,List2B,black,woman,,,,,"{""Q0"":""Beth is challenging Jane""}","<img src=""stim_listB/challenge7.gif""style=""height:400px;""></stim_listB>",is challenging,,,,,,
null,"<div style=""font-size:60px;"">+</div>",,html-keyboard-response,50,379211,0.0-13.0-0.5,27529,List2B,black,woman,,,,null,,,,,,,,,
null,"<img src=""stim_listB/look8.gif""style=""height:400px;""></stim_listB>",,html-keyboard-response,51,381217,0.0-13.0-1.5,27529,List2B,black,woman,,,,null,,,,,,,,,
null,is being looked at by,,html-keyboard-response,52,383225,0.0-13.0-2.5,27529,List2B,black,woman,,,,null,,,,,,,,,
16902.4,,,survey-text,53,400138,0.0-13.0-3.5,27529,List2B,black,woman,,,,,"{""Q0"":""Jane is being looked at by Kate""}","<img src=""stim_listB/look8.gif""style=""height:400px;""></stim_listB>",is being looked at by,,,,,,
null,"<div style=""font-size:60px;"">+</div>",,html-keyboard-response,54,400646,0.0-13.0-0.6,27529,List2B,black,woman,,,,null,,,,,,,,,
null,"<img src=""stim_listB/greet2.gif""style=""height:400px;""></stim_listB>",,html-keyboard-response,55,402659,0.0-13.0-1.6,27529,List2B,black,woman,,,,null,,,,,,,,,
null,is being greeted by,,html-keyboard-response,56,404672,0.0-13.0-2.6,27529,List2B,black,woman,,,,null,,,,,,,,,
8217.3,,,survey-text,57,412901,0.0-13.0-3.6,27529,List2B,black,woman,,,,,"{""Q0"":""Jane is being greeted by Luke""}","<img src=""stim_listB/greet2.gif""style=""height:400px;""></stim_listB>",is being greeted by,,,,,,
null,"<div style=""font-size:60px;"">+</div>",,html-keyboard-response,58,413417,0.0-13.0-0.7,27529,List2B,black,woman,,,,null,,,,,,,,,
null,"<img src=""stim_listB/kiss5.gif""style=""height:400px;""></stim_listB>",,html-keyboard-response,59,415433,0.0-13.0-1.7,27529,List2B,black,woman,,,,null,,,,,,,,,
null,is kissing,,html-keyboard-response,60,417438,0.0-13.0-2.7,27529,List2B,black,woman,,,,null,,,,,,,,,
8395.4,,,survey-text,61,425844,0.0-13.0-3.7,27529,List2B,black,woman,,,,,"{""Q0"":""Luke is kissing Fred""}","<img src=""stim_listB/kiss5.gif""style=""height:400px;""></stim_listB>",is kissing,,,,,,
null,"<div style=""font-size:60px;"">+</div>",,html-keyboard-response,62,426348,0.0-13.0-0.8,27529,List2B,black,woman,,,,null,,,,,,,,,
null,"<img src=""stim_listB/copy8.gif""style=""height:400px;""></stim_listB>",,html-keyboard-response,63,428351,0.0-13.0-1.8,27529,List2B,black,woman,,,,null,,,,,,,,,
null,is being copied by,,html-keyboard-response,64,430363,0.0-13.0-2.8,27529,List2B,black,woman,,,,null,,,,,,,,,
25632.5,,,survey-text,65,456008,0.0-13.0-3.8,27529,List2B,black,woman,,,,,"{""Q0"":""Kate is being copied by Ruth""}","<img src=""stim_listB/copy8.gif""style=""height:400px;""></stim_listB>",is being copied by,,,,,,
null,"<div style=""font-size:60px;"">+</div>",,html-keyboard-response,66,456525,0.0-13.0-0.9,27529,List2B,black,woman,,,,null,,,,,,,,,
null,"<img src=""stim_listB/shout2.gif""style=""height:400px;""></stim_listB>",,html-keyboard-response,67,458543,0.0-13.0-1.9,27529,List2B,black,woman,,,,null,,,,,,,,,
null,is being shouted at by,,html-keyboard-response,68,460554,0.0-13.0-2.9,27529,List2B,black,woman,,,,null,,,,,,,,,
9085.9,,,survey-text,69,469650,0.0-13.0-3.9,27529,List2B,black,woman,,,,,"{""Q0"":""Jane is being shouted at by Dave""}","<img src=""stim_listB/shout2.gif""style=""height:400px;""></stim_listB>",is being shouted at by,,,,,,
null,"<div style=""font-size:60px;"">+</div>",,html-keyboard-response,70,470159,0.0-13.0-0.10,27529,List2B,black,woman,,,,null,,,,,,,,,
null,"<img src=""stim_listB/oppose8.gif""style=""height:400px;""></stim_listB>",,html-keyboard-response,71,472167,0.0-13.0-1.10,27529,List2B,black,woman,,,,null,,,,,,,,,
null,is being opposed by,,html-keyboard-response,72,474182,0.0-13.0-2.10,27529,List2B,black,woman,,,,null,,,,,,,,,
30938.3,,,survey-text,73,505132,0.0-13.0-3.10,27529,List2B,black,woman,,,,,"{""Q0"":""Ruth is being challenged by Beth""}","<img src=""stim_listB/oppose8.gif""style=""height:400px;""></stim_listB>",is being opposed by,,,,,,
null,"<div style=""font-size:60px;"">+</div>",,html-keyboard-response,74,505638,0.0-13.0-0.11,27529,List2B,black,woman,,,,null,,,,,,,,,
null,"<img src=""stim_listB/oppose4.gif""style=""height:400px;""></stim_listB>",,html-keyboard-response,75,507653,0.0-13.0-1.11,27529,List2B,black,woman,,,,null,,,,,,,,,
null,is being opposed by,,html-keyboard-response,76,509664,0.0-13.0-2.11,27529,List2B,black,woman,,,,null,,,,,,,,,
40541.9,,,survey-text,77,550217,0.0-13.0-3.11,27529,List2B,black,woman,,,,,"{""Q0"":""Beth is being opposed by Fred""}","<img src=""stim_listB/oppose4.gif""style=""height:400px;""></stim_listB>",is being opposed by,,,,,,
null,"<div style=""font-size:60px;"">+</div>",,html-keyboard-response,78,550728,0.0-13.0-0.12,27529,List2B,black,woman,,,,null,,,,,,,,,
null,"<img src=""stim_listB/look1.gif""style=""height:400px;""></stim_listB>",,html-keyboard-response,79,552735,0.0-13.0-1.12,27529,List2B,black,woman,,,,null,,,,,,,,,
null,is looking at,,html-keyboard-response,80,554752,0.0-13.0-2.12,27529,List2B,black,woman,,,,null,,,,,,,,,
17779.2,,,survey-text,81,572543,0.0-13.0-3.12,27529,List2B,black,woman,,,,,"{""Q0"":""Luke is looking at Ruth""}","<img src=""stim_listB/look1.gif""style=""height:400px;""></stim_listB>",is looking at,,,,,,
null,"<div style=""font-size:60px;"">+</div>",,html-keyboard-response,82,573048,0.0-13.0-0.13,27529,List2B,black,woman,,,,null,,,,,,,,,
null,"<img src=""stim_listB/touch4.gif""style=""height:400px;""></stim_listB>",,html-keyboard-response,83,575059,0.0-13.0-1.13,27529,List2B,black,woman,,,,null,,,,,,,,,
null,is being touched by,,html-keyboard-response,84,577070,0.0-13.0-2.13,27529,List2B,black,woman,,,,null,,,,,,,,,
7091.8,,,survey-text,85,584173,0.0-13.0-3.13,27529,List2B,black,woman,,,,,"{""Q0"":""Beth is being touched by Fred""}","<img src=""stim_listB/touch4.gif""style=""height:400px;""></stim_listB>",is being touched by,,,,,,
null,"<div style=""font-size:60px;"">+</div>",,html-keyboard-response,86,584686,0.0-13.0-0.14,27529,List2B,black,woman,,,,null,,,,,,,,,
null,"<img src=""stim_listB/seduce6.gif""style=""height:400px;""></stim_listB>",,html-keyboard-response,87,586693,0.0-13.0-1.14,27529,List2B,black,woman,,,,null,,,,,,,,,
null,is being seduced by,,html-keyboard-response,88,588705,0.0-13.0-2.14,27529,List2B,black,woman,,,,null,,,,,,,,,
7096.4,,,survey-text,89,595813,0.0-13.0-3.14,27529,List2B,black,woman,,,,,"{""Q0"":""Fred is being seduced by Dave""}","<img src=""stim_listB/seduce6.gif""style=""height:400px;""></stim_listB>",is being seduced by,,,,,,
null,"<div style=""font-size:60px;"">+</div>",,html-keyboard-response,90,596323,0.0-13.0-0.15,27529,List2B,black,woman,,,,null,,,,,,,,,
null,"<img src=""stim_listB/greet6.gif""style=""height:400px;""></stim_listB>",,html-keyboard-response,91,598340,0.0-13.0-1.15,27529,List2B,black,woman,,,,null,,,,,,,,,
null,is being greeted by,,html-keyboard-response,92,600355,0.0-13.0-2.15,27529,List2B,black,woman,,,,null,,,,,,,,,
8716,,,survey-text,93,609092,0.0-13.0-3.15,27529,List2B,black,woman,,,,,"{""Q0"":""Mike is being greeted by Luke""}","<img src=""stim_listB/greet6.gif""style=""height:400px;""></stim_listB>",is being greeted by,,,,,,
null,"<div style=""font-size:60px;"">+</div>",,html-keyboard-response,94,609601,0.0-13.0-0.16,27529,List2B,black,woman,,,,null,,,,,,,,,
null,"<img src=""stim_listB/seduce8.gif""style=""height:400px;""></stim_listB>",,html-keyboard-response,95,611616,0.0-13.0-1.16,27529,List2B,black,woman,,,,null,,,,,,,,,
null,is being seduced by,,html-keyboard-response,96,613623,0.0-13.0-2.16,27529,List2B,black,woman,,,,null,,,,,,,,,
10162.6,,,survey-text,97,623797,0.0-13.0-3.16,27529,List2B,black,woman,,,,,"{""Q0"":""Beth is being seduced by Jane""}","<img src=""stim_listB/seduce8.gif""style=""height:400px;""></stim_listB>",is being seduced by,,,,,,
null,"<div style=""font-size:60px;"">+</div>",,html-keyboard-response,98,624301,0.0-13.0-0.17,27529,List2B,black,woman,,,,null,,,,,,,,,
null,"<img src=""stim_listB/copy3.gif""style=""height:400px;""></stim_listB>",,html-keyboard-response,99,626308,0.0-13.0-1.17,27529,List2B,black,woman,,,,null,,,,,,,,,
null,is copying,,html-keyboard-response,100,628311,0.0-13.0-2.17,27529,List2B,black,woman,,,,null,,,,,,,,,
7501.3,,,survey-text,101,635824,0.0-13.0-3.17,27529,List2B,black,woman,,,,,"{""Q0"":""Mike is copying Beth""}","<img src=""stim_listB/copy3.gif""style=""height:400px;""></stim_listB>",is copying,,,,,,
null,"<div style=""font-size:60px;"">+</div>",,html-keyboard-response,102,636335,0.0-13.0-0.18,27529,List2B,black,woman,,,,null,,,,,,,,,
null,"<img src=""stim_listB/copy1.gif""style=""height:400px;""></stim_listB>",,html-keyboard-response,103,638342,0.0-13.0-1.18,27529,List2B,black,woman,,,,null,,,,,,,,,
null,is copying,,html-keyboard-response,104,640352,0.0-13.0-2.18,27529,List2B,black,woman,,,,null,,,,,,,,,
5694,,,survey-text,105,646064,0.0-13.0-3.18,27529,List2B,black,woman,,,,,"{""Q0"":""Dave is copying Ruth""}","<img src=""stim_listB/copy1.gif""style=""height:400px;""></stim_listB>",is copying,,,,,,
null,"<div style=""font-size:60px;"">+</div>",,html-keyboard-response,106,646574,0.0-13.0-0.19,27529,List2B,black,woman,,,,null,,,,,,,,,
null,"<img src=""stim_listB/touch7.gif""style=""height:400px;""></stim_listB>",,html-keyboard-response,107,648586,0.0-13.0-1.19,27529,List2B,black,woman,,,,null,,,,,,,,,
null,is touching,,html-keyboard-response,108,650590,0.0-13.0-2.19,27529,List2B,black,woman,,,,null,,,,,,,,,
16937.5,,,survey-text,109,667532,0.0-13.0-3.19,27529,List2B,black,woman,,,,,"{""Q0"":""Jane is touching Kate""}","<img src=""stim_listB/touch7.gif""style=""height:400px;""></stim_listB>",is touching,,,,,,
11788.4,"<img src='img/portrait_matrix_list2.jpg' style='width:900px;height:500px;''></img><p>If you have memorised all the portraits and names and are ready to start, press Continue.</p><p><strong>Please note: Your memory of these faces will be tested 4 times during this experiment.</strong></p>",0,html-button-response,110,679325,0.0-14.0-0.0,27529,List2B,black,woman,,,,,,,,,,,,,
3220.1,"<img src=""portrait/BM1.jpg""style=""height:400px;""></img>",4,html-button-response,111,683566,0.0-14.0-1.0,27529,List2B,black,woman,,TRUE,4,,,,,,,,,,
null,CORRECT,,html-keyboard-response,112,685081,0.0-14.0-2.0-0.0,27529,List2B,black,woman,,,,null,,,,,,,,,
2571.6,"<img src=""portrait/BW2.jpg""style=""height:400px;""></img>",2,html-button-response,113,687657,0.0-14.0-4.0,27529,List2B,black,woman,,TRUE,2,,,,,,,,,,
null,CORRECT,,html-keyboard-response,114,689177,0.0-14.0-5.0-0.0,27529,List2B,black,woman,,,,null,,,,,,,,,
4570.7,"<img src=""portrait/BW1.jpg""style=""height:400px;""></img>",0,html-button-response,115,693752,0.0-14.0-7.0,27529,List2B,black,woman,,TRUE,0,,,,,,,,,,
null,CORRECT,,html-keyboard-response,116,695264,0.0-14.0-8.0-0.0,27529,List2B,black,woman,,,,null,,,,,,,,,
1681.2,"<img src=""portrait/WW2.jpg""style=""height:400px;""></img>",3,html-button-response,117,696948,0.0-14.0-10.0,27529,List2B,black,woman,,TRUE,3,,,,,,,,,,
null,CORRECT,,html-keyboard-response,118,698471,0.0-14.0-11.0-0.0,27529,List2B,black,woman,,,,null,,,,,,,,,
1674,"<img src=""portrait/WM1.jpg""style=""height:400px;""></img>",6,html-button-response,119,700149,0.0-14.0-13.0,27529,List2B,black,woman,,TRUE,6,,,,,,,,,,
null,CORRECT,,html-keyboard-response,120,701657,0.0-14.0-14.0-0.0,27529,List2B,black,woman,,,,null,,,,,,,,,
1717.5,"<img src=""portrait/WM2.jpg""style=""height:400px;""></img>",7,html-button-response,121,703377,0.0-14.0-16.0,27529,List2B,black,woman,,TRUE,7,,,,,,,,,,
null,CORRECT,,html-keyboard-response,122,704901,0.0-14.0-17.0-0.0,27529,List2B,black,woman,,,,null,,,,,,,,,
1625.8,"<img src=""portrait/BM2.jpg""style=""height:400px;""></img>",5,html-button-response,123,706531,0.0-14.0-19.0,27529,List2B,black,woman,,TRUE,5,,,,,,,,,,
null,CORRECT,,html-keyboard-response,124,708056,0.0-14.0-20.0-0.0,27529,List2B,black,woman,,,,null,,,,,,,,,
3215.5,"<img src=""portrait/WW1.jpg""style=""height:400px;""></img>",1,html-button-response,125,711275,0.0-14.0-22.0,27529,List2B,black,woman,,TRUE,1,,,,,,,,,,
null,CORRECT,,html-keyboard-response,126,712802,0.0-14.0-23.0-0.0,27529,List2B,black,woman,,,,null,,,,,,,,,
1540.9,<p>You got 8 out of 8 right first time. Press Continue.</p>,0,html-button-response,127,714346,0.0-14.0-25.0,27529,List2B,black,woman,,,,,,,,,,,,,
null,"<div style=""font-size:60px;"">+</div>",,html-keyboard-response,128,715871,0.0-15.0-0.0,27529,List2B,black,woman,,,,null,,,,,,,,,
null,"<img src=""stim_listB/look3.gif""style=""height:400px;""></stim_listB>",,html-keyboard-response,129,717875,0.0-15.0-1.0,27529,List2B,black,woman,,,,null,,,,,,,,,
null,is looking at,,html-keyboard-response,130,719888,0.0-15.0-2.0,27529,List2B,black,woman,,,,null,,,,,,,,,
7028.8,,,survey-text,131,726927,0.0-15.0-3.0,27529,List2B,black,woman,,,,,"{""Q0"":""Fred is looking at Beth""}","<img src=""stim_listB/look3.gif""style=""height:400px;""></stim_listB>",is looking at,,,,,,
null,"<div style=""font-size:60px;"">+</div>",,html-keyboard-response,132,727430,0.0-15.0-0.1,27529,List2B,black,woman,,,,null,,,,,,,,,
null,"<img src=""stim_listB/touch1.gif""style=""height:400px;""></stim_listB>",,html-keyboard-response,133,729440,0.0-15.0-1.1,27529,List2B,black,woman,,,,null,,,,,,,,,
null,is touching,,html-keyboard-response,134,731455,0.0-15.0-2.1,27529,List2B,black,woman,,,,null,,,,,,,,,
4772.8,,,survey-text,135,736234,0.0-15.0-3.1,27529,List2B,black,woman,,,,,"{""Q0"":""Dave is touching Jane""}","<img src=""stim_listB/touch1.gif""style=""height:400px;""></stim_listB>",is touching,,,,,,
null,"<div style=""font-size:60px;"">+</div>",,html-keyboard-response,136,736745,0.0-15.0-0.2,27529,List2B,black,woman,,,,null,,,,,,,,,
null,"<img src=""stim_listB/kiss7.gif""style=""height:400px;""></stim_listB>",,html-keyboard-response,137,738756,0.0-15.0-1.2,27529,List2B,black,woman,,,,null,,,,,,,,,
null,is kissing,,html-keyboard-response,138,740761,0.0-15.0-2.2,27529,List2B,black,woman,,,,null,,,,,,,,,
5239.9,,,survey-text,139,746014,0.0-15.0-3.2,27529,List2B,black,woman,,,,,"{""Q0"":""Beth is kissing Ruth""}","<img src=""stim_listB/kiss7.gif""style=""height:400px;""></stim_listB>",is kissing,,,,,,
null,"<div style=""font-size:60px;"">+</div>",,html-keyboard-response,140,746525,0.0-15.0-0.3,27529,List2B,black,woman,,,,null,,,,,,,,,
null,"<img src=""stim_listB/greet5.gif""style=""height:400px;""></stim_listB>",,html-keyboard-response,141,748534,0.0-15.0-1.3,27529,List2B,black,woman,,,,null,,,,,,,,,
null,is greeting,,html-keyboard-response,142,750541,0.0-15.0-2.3,27529,List2B,black,woman,,,,null,,,,,,,,,
6947.3,,,survey-text,143,757498,0.0-15.0-3.3,27529,List2B,black,woman,,,,,"{""Q0"":""Dave is greeting Fred""}","<img src=""stim_listB/greet5.gif""style=""height:400px;""></stim_listB>",is greeting,,,,,,
null,"<div style=""font-size:60px;"">+</div>",,html-keyboard-response,144,758001,0.0-15.0-0.4,27529,List2B,black,woman,,,,null,,,,,,,,,
null,"<img src=""stim_listB/seduce4.gif""style=""height:400px;""></stim_listB>",,html-keyboard-response,145,760006,0.0-15.0-1.4,27529,List2B,black,woman,,,,null,,,,,,,,,
null,is being seduced by,,html-keyboard-response,146,762019,0.0-15.0-2.4,27529,List2B,black,woman,,,,null,,,,,,,,,
10157.3,,,survey-text,147,772188,0.0-15.0-3.4,27529,List2B,black,woman,,,,,"{""Q0"":""Mike is being seduced by Kate""}","<img src=""stim_listB/seduce4.gif""style=""height:400px;""></stim_listB>",is being seduced by,,,,,,
null,"<div style=""font-size:60px;"">+</div>",,html-keyboard-response,148,772702,0.0-15.0-0.5,27529,List2B,black,woman,,,,null,,,,,,,,,
null,"<img src=""stim_listB/hug1.gif""style=""height:400px;""></stim_listB>",,html-keyboard-response,149,774706,0.0-15.0-1.5,27529,List2B,black,woman,,,,null,,,,,,,,,
null,is hugging,,html-keyboard-response,150,776712,0.0-15.0-2.5,27529,List2B,black,woman,,,,null,,,,,,,,,
5442.4,,,survey-text,151,782165,0.0-15.0-3.5,27529,List2B,black,woman,,,,,"{""Q0"":""Ruth is hugging Luke""}","<img src=""stim_listB/hug1.gif""style=""height:400px;""></stim_listB>",is hugging,,,,,,
null,"<div style=""font-size:60px;"">+</div>",,html-keyboard-response,152,782670,0.0-15.0-0.6,27529,List2B,black,woman,,,,null,,,,,,,,,
null,"<img src=""stim_listB/seduce3.gif""style=""height:400px;""></stim_listB>",,html-keyboard-response,153,784675,0.0-15.0-1.6,27529,List2B,black,woman,,,,null,,,,,,,,,
null,is seducing,,html-keyboard-response,154,786688,0.0-15.0-2.6,27529,List2B,black,woman,,,,null,,,,,,,,,
7275.7,,,survey-text,155,793975,0.0-15.0-3.6,27529,List2B,black,woman,,,,,"{""Q0"":""Fred is seducing Kate""}","<img src=""stim_listB/seduce3.gif""style=""height:400px;""></stim_listB>",is seducing,,,,,,
null,"<div style=""font-size:60px;"">+</div>",,html-keyboard-response,156,794482,0.0-15.0-0.7,27529,List2B,black,woman,,,,null,,,,,,,,,
null,"<img src=""stim_listB/kiss2.gif""style=""height:400px;""></stim_listB>",,html-keyboard-response,157,796497,0.0-15.0-1.7,27529,List2B,black,woman,,,,null,,,,,,,,,
null,is being kissed by,,html-keyboard-response,158,798501,0.0-15.0-2.7,27529,List2B,black,woman,,,,null,,,,,,,,,
6121.9,,,survey-text,159,804627,0.0-15.0-3.7,27529,List2B,black,woman,,,,,"{""Q0"":""Dave is being kissed by Jane""}","<img src=""stim_listB/kiss2.gif""style=""height:400px;""></stim_listB>",is being kissed by,,,,,,
null,"<div style=""font-size:60px;"">+</div>",,html-keyboard-response,160,805140,0.0-15.0-0.8,27529,List2B,black,woman,,,,null,,,,,,,,,
null,"<img src=""stim_listB/hug7.gif""style=""height:400px;""></stim_listB>",,html-keyboard-response,161,807152,0.0-15.0-1.8,27529,List2B,black,woman,,,,null,,,,,,,,,
null,is hugging,,html-keyboard-response,162,809156,0.0-15.0-2.8,27529,List2B,black,woman,,,,null,,,,,,,,,
8476.7,,,survey-text,163,817644,0.0-15.0-3.8,27529,List2B,black,woman,,,,,"{""Q0"":""Ruth is hugging Beth""}","<img src=""stim_listB/hug7.gif""style=""height:400px;""></stim_listB>",is hugging,,,,,,
null,"<div style=""font-size:60px;"">+</div>",,html-keyboard-response,164,818151,0.0-15.0-0.9,27529,List2B,black,woman,,,,null,,,,,,,,,
null,"<img src=""stim_listB/look2.gif""style=""height:400px;""></stim_listB>",,html-keyboard-response,165,820164,0.0-15.0-1.9,27529,List2B,black,woman,,,,null,,,,,,,,,
null,is being looked at by,,html-keyboard-response,166,822174,0.0-15.0-2.9,27529,List2B,black,woman,,,,null,,,,,,,,,
6250.4,,,survey-text,167,828438,0.0-15.0-3.9,27529,List2B,black,woman,,,,,"{""Q0"":""Dave is being looked at by Jane""}","<img src=""stim_listB/look2.gif""style=""height:400px;""></stim_listB>",is being looked at by,,,,,,
null,"<div style=""font-size:60px;"">+</div>",,html-keyboard-response,168,828956,0.0-15.0-0.10,27529,List2B,black,woman,,,,null,,,,,,,,,
null,"<img src=""stim_listB/hug8.gif""style=""height:400px;""></stim_listB>",,html-keyboard-response,169,830961,0.0-15.0-1.10,27529,List2B,black,woman,,,,null,,,,,,,,,
null,is being hugged by,,html-keyboard-response,170,832966,0.0-15.0-2.10,27529,List2B,black,woman,,,,null,,,,,,,,,
7591.3,,,survey-text,171,840562,0.0-15.0-3.10,27529,List2B,black,woman,,,,,"{""Q0"":""Kate is being hugged by Jane""}","<img src=""stim_listB/hug8.gif""style=""height:400px;""></stim_listB>",is being hugged by,,,,,,
null,"<div style=""font-size:60px;"">+</div>",,html-keyboard-response,172,841073,0.0-15.0-0.11,27529,List2B,black,woman,,,,null,,,,,,,,,
null,"<img src=""stim_listB/hug5.gif""style=""height:400px;""></stim_listB>",,html-keyboard-response,173,843081,0.0-15.0-1.11,27529,List2B,black,woman,,,,null,,,,,,,,,
null,is hugging,,html-keyboard-response,174,845086,0.0-15.0-2.11,27529,List2B,black,woman,,,,null,,,,,,,,,
4420.9,,,survey-text,175,849519,0.0-15.0-3.11,27529,List2B,black,woman,,,,,"{""Q0"":""Luke is hugging Fred""}","<img src=""stim_listB/hug5.gif""style=""height:400px;""></stim_listB>",is hugging,,,,,,
null,"<div style=""font-size:60px;"">+</div>",,html-keyboard-response,176,850025,0.0-15.0-0.12,27529,List2B,black,woman,,,,null,,,,,,,,,
null,"<img src=""stim_listB/kiss4.gif""style=""height:400px;""></stim_listB>",,html-keyboard-response,177,852034,0.0-15.0-1.12,27529,List2B,black,woman,,,,null,,,,,,,,,
null,is being kissed by,,html-keyboard-response,178,854039,0.0-15.0-2.12,27529,List2B,black,woman,,,,null,,,,,,,,,
7241.9,,,survey-text,179,861291,0.0-15.0-3.12,27529,List2B,black,woman,,,,,"{""Q0"":""Mike is being kissed by Kate""}","<img src=""stim_listB/kiss4.gif""style=""height:400px;""></stim_listB>",is being kissed by,,,,,,
null,"<div style=""font-size:60px;"">+</div>",,html-keyboard-response,180,861803,0.0-15.0-0.13,27529,List2B,black,woman,,,,null,,,,,,,,,
null,"<img src=""stim_listB/hug4.gif""style=""height:400px;""></stim_listB>",,html-keyboard-response,181,863810,0.0-15.0-1.13,27529,List2B,black,woman,,,,null,,,,,,,,,
null,is being hugged by,,html-keyboard-response,182,865819,0.0-15.0-2.13,27529,List2B,black,woman,,,,null,,,,,,,,,
7796.1,,,survey-text,183,873627,0.0-15.0-3.13,27529,List2B,black,woman,,,,,"{""Q0"":""Mike is being hugged by Kate""}","<img src=""stim_listB/hug4.gif""style=""height:400px;""></stim_listB>",is being hugged by,,,,,,
null,"<div style=""font-size:60px;"">+</div>",,html-keyboard-response,184,874137,0.0-15.0-0.14,27529,List2B,black,woman,,,,null,,,,,,,,,
null,"<img src=""stim_listB/seduce5.gif""style=""height:400px;""></stim_listB>",,html-keyboard-response,185,876151,0.0-15.0-1.14,27529,List2B,black,woman,,,,null,,,,,,,,,
null,is seducing,,html-keyboard-response,186,878158,0.0-15.0-2.14,27529,List2B,black,woman,,,,null,,,,,,,,,
4053.8,,,survey-text,187,882225,0.0-15.0-3.14,27529,List2B,black,woman,,,,,"{""Q0"":""Mike is seducing Luke""}","<img src=""stim_listB/seduce5.gif""style=""height:400px;""></stim_listB>",is seducing,,,,,,
null,"<div style=""font-size:60px;"">+</div>",,html-keyboard-response,188,882731,0.0-15.0-0.15,27529,List2B,black,woman,,,,null,,,,,,,,,
null,"<img src=""stim_listB/copy2.gif""style=""height:400px;""></stim_listB>",,html-keyboard-response,189,884736,0.0-15.0-1.15,27529,List2B,black,woman,,,,null,,,,,,,,,
null,is being copied by,,html-keyboard-response,190,886741,0.0-15.0-2.15,27529,List2B,black,woman,,,,null,,,,,,,,,
8371.3,,,survey-text,191,895125,0.0-15.0-3.15,27529,List2B,black,woman,,,,,"{""Q0"":""Luke is being copied by Jane""}","<img src=""stim_listB/copy2.gif""style=""height:400px;""></stim_listB>",is being copied by,,,,,,
null,"<div style=""font-size:60px;"">+</div>",,html-keyboard-response,192,895628,0.0-15.0-0.16,27529,List2B,black,woman,,,,null,,,,,,,,,
null,"<img src=""stim_listB/shout1.gif""style=""height:400px;""></stim_listB>",,html-keyboard-response,193,897643,0.0-15.0-1.16,27529,List2B,black,woman,,,,null,,,,,,,,,
null,is shouting at,,html-keyboard-response,194,899651,0.0-15.0-2.16,27529,List2B,black,woman,,,,null,,,,,,,,,
6728.4,,,survey-text,195,906391,0.0-15.0-3.16,27529,List2B,black,woman,,,,,"{""Q0"":""Luke is shouting at Ruth""}","<img src=""stim_listB/shout1.gif""style=""height:400px;""></stim_listB>",is shouting at,,,,,,
null,"<div style=""font-size:60px;"">+</div>",,html-keyboard-response,196,906906,0.0-15.0-0.17,27529,List2B,black,woman,,,,null,,,,,,,,,
null,"<img src=""stim_listB/shout6.gif""style=""height:400px;""></stim_listB>",,html-keyboard-response,197,908914,0.0-15.0-1.17,27529,List2B,black,woman,,,,null,,,,,,,,,
null,is being shouted at by,,html-keyboard-response,198,910927,0.0-15.0-2.17,27529,List2B,black,woman,,,,null,,,,,,,,,
6470,,,survey-text,199,917408,0.0-15.0-3.17,27529,List2B,black,woman,,,,,"{""Q0"":""Mike is being shouted at by Dave""}","<img src=""stim_listB/shout6.gif""style=""height:400px;""></stim_listB>",is being shouted at by,,,,,,
null,"<div style=""font-size:60px;"">+</div>",,html-keyboard-response,200,917919,0.0-15.0-0.18,27529,List2B,black,woman,,,,null,,,,,,,,,
null,"<img src=""stim_listB/oppose2.gif""style=""height:400px;""></stim_listB>",,html-keyboard-response,201,919936,0.0-15.0-1.18,27529,List2B,black,woman,,,,null,,,,,,,,,
null,is being opposed by,,html-keyboard-response,202,921954,0.0-15.0-2.18,27529,List2B,black,woman,,,,null,,,,,,,,,
11147.5,,,survey-text,203,933113,0.0-15.0-3.18,27529,List2B,black,woman,,,,,"{""Q0"":""Luke is being opposed by Ruth""}","<img src=""stim_listB/oppose2.gif""style=""height:400px;""></stim_listB>",is being opposed by,,,,,,
null,"<div style=""font-size:60px;"">+</div>",,html-keyboard-response,204,933625,0.0-15.0-0.19,27529,List2B,black,woman,,,,null,,,,,,,,,
null,"<img src=""stim_listB/look7.gif""style=""height:400px;""></stim_listB>",,html-keyboard-response,205,935634,0.0-15.0-1.19,27529,List2B,black,woman,,,,null,,,,,,,,,
null,is looking at,,html-keyboard-response,206,937641,0.0-15.0-2.19,27529,List2B,black,woman,,,,null,,,,,,,,,
4930.9,,,survey-text,207,942583,0.0-15.0-3.19,27529,List2B,black,woman,,,,,"{""Q0"":""Ruth is looking at Beth""}","<img src=""stim_listB/look7.gif""style=""height:400px;""></stim_listB>",is looking at,,,,,,
6296,"<img src='img/portrait_matrix_list2.jpg' style='width:900px;height:500px;''></img><p>If you have memorised all the portraits and names and are ready to start, press Continue.</p><p><strong>Please note: Your memory of these faces will be tested 4 times during this experiment.</strong></p>",0,html-button-response,208,948881,0.0-16.0-0.0,27529,List2B,black,woman,,,,,,,,,,,,,
1299.6,"<img src=""portrait/BM2.jpg""style=""height:400px;""></img>",5,html-button-response,209,951192,0.0-16.0-1.0,27529,List2B,black,woman,,TRUE,5,,,,,,,,,,
null,CORRECT,,html-keyboard-response,210,952718,0.0-16.0-2.0-0.0,27529,List2B,black,woman,,,,null,,,,,,,,,
1086.8,"<img src=""portrait/WM2.jpg""style=""height:400px;""></img>",7,html-button-response,211,953809,0.0-16.0-4.0,27529,List2B,black,woman,,TRUE,7,,,,,,,,,,
null,CORRECT,,html-keyboard-response,212,955326,0.0-16.0-5.0-0.0,27529,List2B,black,woman,,,,null,,,,,,,,,
1207.7,"<img src=""portrait/WM1.jpg""style=""height:400px;""></img>",6,html-button-response,213,956537,0.0-16.0-7.0,27529,List2B,black,woman,,TRUE,6,,,,,,,,,,
null,CORRECT,,html-keyboard-response,214,958050,0.0-16.0-8.0-0.0,27529,List2B,black,woman,,,,null,,,,,,,,,
1126.8,"<img src=""portrait/BM1.jpg""style=""height:400px;""></img>",4,html-button-response,215,959180,0.0-16.0-10.0,27529,List2B,black,woman,,TRUE,4,,,,,,,,,,
null,CORRECT,,html-keyboard-response,216,960694,0.0-16.0-11.0-0.0,27529,List2B,black,woman,,,,null,,,,,,,,,
1485.9,"<img src=""portrait/WW2.jpg""style=""height:400px;""></img>",3,html-button-response,217,962184,0.0-16.0-13.0,27529,List2B,black,woman,,TRUE,3,,,,,,,,,,
null,CORRECT,,html-keyboard-response,218,963715,0.0-16.0-14.0-0.0,27529,List2B,black,woman,,,,null,,,,,,,,,
1873.2,"<img src=""portrait/WW1.jpg""style=""height:400px;""></img>",1,html-button-response,219,965592,0.0-16.0-16.0,27529,List2B,black,woman,,TRUE,1,,,,,,,,,,
null,CORRECT,,html-keyboard-response,220,967109,0.0-16.0-17.0-0.0,27529,List2B,black,woman,,,,null,,,,,,,,,
2152.7,"<img src=""portrait/BW2.jpg""style=""height:400px;""></img>",2,html-button-response,221,969266,0.0-16.0-19.0,27529,List2B,black,woman,,TRUE,2,,,,,,,,,,
null,CORRECT,,html-keyboard-response,222,970796,0.0-16.0-20.0-0.0,27529,List2B,black,woman,,,,null,,,,,,,,,
888.2,"<img src=""portrait/BW1.jpg""style=""height:400px;""></img>",0,html-button-response,223,971693,0.0-16.0-22.0,27529,List2B,black,woman,,TRUE,0,,,,,,,,,,
null,CORRECT,,html-keyboard-response,224,973214,0.0-16.0-23.0-0.0,27529,List2B,black,woman,,,,null,,,,,,,,,
1166,<p>You got 8 out of 8 right first time. Press Continue.</p>,0,html-button-response,225,974385,0.0-16.0-25.0,27529,List2B,black,woman,,,,,,,,,,,,,
null,"<div style=""font-size:60px;"">+</div>",,html-keyboard-response,226,975902,0.0-17.0-0.0,27529,List2B,black,woman,,,,null,,,,,,,,,
null,"<img src=""stim_listB/look4.gif""style=""height:400px;""></stim_listB>",,html-keyboard-response,227,977910,0.0-17.0-1.0,27529,List2B,black,woman,,,,null,,,,,,,,,
null,is being looked at by,,html-keyboard-response,228,979926,0.0-17.0-2.0,27529,List2B,black,woman,,,,null,,,,,,,,,
5489.8,,,survey-text,229,985419,0.0-17.0-3.0,27529,List2B,black,woman,,,,,"{""Q0"":""Mike is being looked at by Kate""}","<img src=""stim_listB/look4.gif""style=""height:400px;""></stim_listB>",is being looked at by,,,,,,
null,"<div style=""font-size:60px;"">+</div>",,html-keyboard-response,230,985932,0.0-17.0-0.1,27529,List2B,black,woman,,,,null,,,,,,,,,
null,"<img src=""stim_listB/shout5.gif""style=""height:400px;""></stim_listB>",,html-keyboard-response,231,987934,0.0-17.0-1.1,27529,List2B,black,woman,,,,null,,,,,,,,,
null,is shouting at,,html-keyboard-response,232,989945,0.0-17.0-2.1,27529,List2B,black,woman,,,,null,,,,,,,,,
5134,,,survey-text,233,995084,0.0-17.0-3.1,27529,List2B,black,woman,,,,,"{""Q0"":""Fred is shouting at Luke""}","<img src=""stim_listB/shout5.gif""style=""height:400px;""></stim_listB>",is shouting at,,,,,,
null,"<div style=""font-size:60px;"">+</div>",,html-keyboard-response,234,995601,0.0-17.0-0.2,27529,List2B,black,woman,,,,null,,,,,,,,,
null,"<img src=""stim_listB/oppose1.gif""style=""height:400px;""></stim_listB>",,html-keyboard-response,235,997616,0.0-17.0-1.2,27529,List2B,black,woman,,,,null,,,,,,,,,
null,is opposing,,html-keyboard-response,236,999626,0.0-17.0-2.2,27529,List2B,black,woman,,,,null,,,,,,,,,
5129.7,,,survey-text,237,1004761,0.0-17.0-3.2,27529,List2B,black,woman,,,,,"{""Q0"":""Jane is opposing Dave""}","<img src=""stim_listB/oppose1.gif""style=""height:400px;""></stim_listB>",is opposing,,,,,,
null,"<div style=""font-size:60px;"">+</div>",,html-keyboard-response,238,1005274,0.0-17.0-0.3,27529,List2B,black,woman,,,,null,,,,,,,,,
null,"<img src=""stim_listB/challenge8.gif""style=""height:400px;""></stim_listB>",,html-keyboard-response,239,1007283,0.0-17.0-1.3,27529,List2B,black,woman,,,,null,,,,,,,,,
null,is being challenged by,,html-keyboard-response,240,1009297,0.0-17.0-2.3,27529,List2B,black,woman,,,,null,,,,,,,,,
8639.7,,,survey-text,241,1017947,0.0-17.0-3.3,27529,List2B,black,woman,,,,,"{""Q0"":""Kate is being challenged by Ruth""}","<img src=""stim_listB/challenge8.gif""style=""height:400px;""></stim_listB>",is being challenged by,,,,,,
null,"<div style=""font-size:60px;"">+</div>",,html-keyboard-response,242,1018452,0.0-17.0-0.4,27529,List2B,black,woman,,,,null,,,,,,,,,
null,"<img src=""stim_listB/shout7.gif""style=""height:400px;""></stim_listB>",,html-keyboard-response,243,1020463,0.0-17.0-1.4,27529,List2B,black,woman,,,,null,,,,,,,,,
null,is shouting at,,html-keyboard-response,244,1022481,0.0-17.0-2.4,27529,List2B,black,woman,,,,null,,,,,,,,,
10236,,,survey-text,245,1032728,0.0-17.0-3.4,27529,List2B,black,woman,,,,,"{""Q0"":""Beth is shouting at Ruth""}","<img src=""stim_listB/shout7.gif""style=""height:400px;""></stim_listB>",is shouting at,,,,,,
null,"<div style=""font-size:60px;"">+</div>",,html-keyboard-response,246,1033243,0.0-17.0-0.5,27529,List2B,black,woman,,,,null,,,,,,,,,
null,"<img src=""stim_listB/seduce2.gif""style=""height:400px;""></stim_listB>",,html-keyboard-response,247,1035247,0.0-17.0-1.5,27529,List2B,black,woman,,,,null,,,,,,,,,
null,is being seduced by,,html-keyboard-response,248,1037251,0.0-17.0-2.5,27529,List2B,black,woman,,,,null,,,,,,,,,
8118.3,,,survey-text,249,1045380,0.0-17.0-3.5,27529,List2B,black,woman,,,,,"{""Q0"":""Beth is being seduced by Dave""}","<img src=""stim_listB/seduce2.gif""style=""height:400px;""></stim_listB>",is being seduced by,,,,,,
null,"<div style=""font-size:60px;"">+</div>",,html-keyboard-response,250,1045887,0.0-17.0-0.6,27529,List2B,black,woman,,,,null,,,,,,,,,
null,"<img src=""stim_listB/touch8.gif""style=""height:400px;""></stim_listB>",,html-keyboard-response,251,1047891,0.0-17.0-1.6,27529,List2B,black,woman,,,,null,,,,,,,,,
null,is being touched by,,html-keyboard-response,252,1049894,0.0-17.0-2.6,27529,List2B,black,woman,,,,null,,,,,,,,,
6673.8,,,survey-text,253,1056576,0.0-17.0-3.6,27529,List2B,black,woman,,,,,"{""Q0"":""Beth is being touched by Ruth""}","<img src=""stim_listB/touch8.gif""style=""height:400px;""></stim_listB>",is being touched by,,,,,,
null,"<div style=""font-size:60px;"">+</div>",,html-keyboard-response,254,1057087,0.0-17.0-0.7,27529,List2B,black,woman,,,,null,,,,,,,,,
null,"<img src=""stim_listB/hug3.gif""style=""height:400px;""></stim_listB>",,html-keyboard-response,255,1059102,0.0-17.0-1.7,27529,List2B,black,woman,,,,null,,,,,,,,,
null,is hugging,,html-keyboard-response,256,1061112,0.0-17.0-2.7,27529,List2B,black,woman,,,,null,,,,,,,,,
4550.7,,,survey-text,257,1065674,0.0-17.0-3.7,27529,List2B,black,woman,,,,,"{""Q0"":""Beth is hugging Fred""}","<img src=""stim_listB/hug3.gif""style=""height:400px;""></stim_listB>",is hugging,,,,,,
null,"<div style=""font-size:60px;"">+</div>",,html-keyboard-response,258,1066186,0.0-17.0-0.8,27529,List2B,black,woman,,,,null,,,,,,,,,
null,"<img src=""stim_listB/kiss3.gif""style=""height:400px;""></stim_listB>",,html-keyboard-response,259,1068200,0.0-17.0-1.8,27529,List2B,black,woman,,,,null,,,,,,,,,
null,is kissing,,html-keyboard-response,260,1070209,0.0-17.0-2.8,27529,List2B,black,woman,,,,null,,,,,,,,,
4638.2,,,survey-text,261,1074857,0.0-17.0-3.8,27529,List2B,black,woman,,,,,"{""Q0"":""Beth is kissing Fred""}","<img src=""stim_listB/kiss3.gif""style=""height:400px;""></stim_listB>",is kissing,,,,,,
null,"<div style=""font-size:60px;"">+</div>",,html-keyboard-response,262,1075370,0.0-17.0-0.9,27529,List2B,black,woman,,,,null,,,,,,,,,
null,"<img src=""stim_listB/oppose6.gif""style=""height:400px;""></stim_listB>",,html-keyboard-response,263,1077389,0.0-17.0-1.9,27529,List2B,black,woman,,,,null,,,,,,,,,
null,is being opposed by,,html-keyboard-response,264,1079399,0.0-17.0-2.9,27529,List2B,black,woman,,,,null,,,,,,,,,
5602.9,,,survey-text,265,1085013,0.0-17.0-3.9,27529,List2B,black,woman,,,,,"{""Q0"":""Fred is being opposed by Luke""}","<img src=""stim_listB/oppose6.gif""style=""height:400px;""></stim_listB>",is being opposed by,,,,,,
null,"<div style=""font-size:60px;"">+</div>",,html-keyboard-response,266,1085516,0.0-17.0-0.10,27529,List2B,black,woman,,,,null,,,,,,,,,
null,"<img src=""stim_listB/touch6.gif""style=""height:400px;""></stim_listB>",,html-keyboard-response,267,1087528,0.0-17.0-1.10,27529,List2B,black,woman,,,,null,,,,,,,,,
null,is being touched by,,html-keyboard-response,268,1089531,0.0-17.0-2.10,27529,List2B,black,woman,,,,null,,,,,,,,,
5963.8,,,survey-text,269,1095506,0.0-17.0-3.10,27529,List2B,black,woman,,,,,"{""Q0"":""Fred is being touched by Luke""}","<img src=""stim_listB/touch6.gif""style=""height:400px;""></stim_listB>",is being touched by,,,,,,
null,"<div style=""font-size:60px;"">+</div>",,html-keyboard-response,270,1096017,0.0-17.0-0.11,27529,List2B,black,woman,,,,null,,,,,,,,,
null,"<img src=""stim_listB/oppose5.gif""style=""height:400px;""></stim_listB>",,html-keyboard-response,271,1098034,0.0-17.0-1.11,27529,List2B,black,woman,,,,null,,,,,,,,,
null,is opposing,,html-keyboard-response,272,1100039,0.0-17.0-2.11,27529,List2B,black,woman,,,,null,,,,,,,,,
4154.5,,,survey-text,273,1104207,0.0-17.0-3.11,27529,List2B,black,woman,,,,,"{""Q0"":""Mike is opposing Dave""}","<img src=""stim_listB/oppose5.gif""style=""height:400px;""></stim_listB>",is opposing,,,,,,
null,"<div style=""font-size:60px;"">+</div>",,html-keyboard-response,274,1104718,0.0-17.0-0.12,27529,List2B,black,woman,,,,null,,,,,,,,,
null,"<img src=""stim_listB/shout3.gif""style=""height:400px;""></stim_listB>",,html-keyboard-response,275,1106725,0.0-17.0-1.12,27529,List2B,black,woman,,,,null,,,,,,,,,
null,is shouting at,,html-keyboard-response,276,1108739,0.0-17.0-2.12,27529,List2B,black,woman,,,,null,,,,,,,,,
4443.2,,,survey-text,277,1113192,0.0-17.0-3.12,27529,List2B,black,woman,,,,,"{""Q0"":""Fred is shouting at Beth""}","<img src=""stim_listB/shout3.gif""style=""height:400px;""></stim_listB>",is shouting at,,,,,,
null,"<div style=""font-size:60px;"">+</div>",,html-keyboard-response,278,1113703,0.0-17.0-0.13,27529,List2B,black,woman,,,,null,,,,,,,,,
null,"<img src=""stim_listB/challenge2.gif""style=""height:400px;""></stim_listB>",,html-keyboard-response,279,1115717,0.0-17.0-1.13,27529,List2B,black,woman,,,,null,,,,,,,,,
null,is being challenged by,,html-keyboard-response,280,1117724,0.0-17.0-2.13,27529,List2B,black,woman,,,,null,,,,,,,,,
6138.5,,,survey-text,281,1123873,0.0-17.0-3.13,27529,List2B,black,woman,,,,,"{""Q0"":""Luke is being challenged by Jane""}","<img src=""stim_listB/challenge2.gif""style=""height:400px;""></stim_listB>",is being challenged by,,,,,,
null,"<div style=""font-size:60px;"">+</div>",,html-keyboard-response,282,1124378,0.0-17.0-0.14,27529,List2B,black,woman,,,,null,,,,,,,,,
null,"<img src=""stim_listB/copy4.gif""style=""height:400px;""></stim_listB>",,html-keyboard-response,283,1126393,0.0-17.0-1.14,27529,List2B,black,woman,,,,null,,,,,,,,,
null,is being copied by,,html-keyboard-response,284,1128407,0.0-17.0-2.14,27529,List2B,black,woman,,,,null,,,,,,,,,
5938.5,,,survey-text,285,1134357,0.0-17.0-3.14,27529,List2B,black,woman,,,,,"{""Q0"":""Fred is being copied by Kate""}","<img src=""stim_listB/copy4.gif""style=""height:400px;""></stim_listB>",is being copied by,,,,,,
null,"<div style=""font-size:60px;"">+</div>",,html-keyboard-response,286,1134864,0.0-17.0-0.15,27529,List2B,black,woman,,,,null,,,,,,,,,
null,"<img src=""stim_listB/challenge5.gif""style=""height:400px;""></stim_listB>",,html-keyboard-response,287,1136879,0.0-17.0-1.15,27529,List2B,black,woman,,,,null,,,,,,,,,
null,is challenging,,html-keyboard-response,288,1138886,0.0-17.0-2.15,27529,List2B,black,woman,,,,null,,,,,,,,,
7154.5,,,survey-text,289,1146054,0.0-17.0-3.15,27529,List2B,black,woman,,,,,"{""Q0"":""Fred is challenging Dave""}","<img src=""stim_listB/challenge5.gif""style=""height:400px;""></stim_listB>",is challenging,,,,,,
null,"<div style=""font-size:60px;"">+</div>",,html-keyboard-response,290,1146563,0.0-17.0-0.16,27529,List2B,black,woman,,,,null,,,,,,,,,
null,"<img src=""stim_listB/challenge3.gif""style=""height:400px;""></stim_listB>",,html-keyboard-response,291,1148579,0.0-17.0-1.16,27529,List2B,black,woman,,,,null,,,,,,,,,
null,is challenging,,html-keyboard-response,292,1150590,0.0-17.0-2.16,27529,List2B,black,woman,,,,null,,,,,,,,,
7768.4,,,survey-text,293,1158371,0.0-17.0-3.16,27529,List2B,black,woman,,,,,"{""Q0"":""Beth is challenging Mike""}","<img src=""stim_listB/challenge3.gif""style=""height:400px;""></stim_listB>",is challenging,,,,,,
null,"<div style=""font-size:60px;"">+</div>",,html-keyboard-response,294,1158884,0.0-17.0-0.17,27529,List2B,black,woman,,,,null,,,,,,,,,
null,"<img src=""stim_listB/touch3.gif""style=""height:400px;""></stim_listB>",,html-keyboard-response,295,1160896,0.0-17.0-1.17,27529,List2B,black,woman,,,,null,,,,,,,,,
null,is touching,,html-keyboard-response,296,1162908,0.0-17.0-2.17,27529,List2B,black,woman,,,,null,,,,,,,,,
3755,,,survey-text,297,1166674,0.0-17.0-3.17,27529,List2B,black,woman,,,,,"{""Q0"":""Mike is touching Kate""}","<img src=""stim_listB/touch3.gif""style=""height:400px;""></stim_listB>",is touching,,,,,,
null,"<div style=""font-size:60px;"">+</div>",,html-keyboard-response,298,1167189,0.0-17.0-0.18,27529,List2B,black,woman,,,,null,,,,,,,,,
null,"<img src=""stim_listB/shout8.gif""style=""height:400px;""></stim_listB>",,html-keyboard-response,299,1169205,0.0-17.0-1.18,27529,List2B,black,woman,,,,null,,,,,,,,,
null,is being shouted at by,,html-keyboard-response,300,1171213,0.0-17.0-2.18,27529,List2B,black,woman,,,,null,,,,,,,,,
8473,,,survey-text,301,1179697,0.0-17.0-3.18,27529,List2B,black,woman,,,,,"{""Q0"":""Kate is being shouted at by Jane""}","<img src=""stim_listB/shout8.gif""style=""height:400px;""></stim_listB>",is being shouted at by,,,,,,
null,"<div style=""font-size:60px;"">+</div>",,html-keyboard-response,302,1180206,0.0-17.0-0.19,27529,List2B,black,woman,,,,null,,,,,,,,,
null,"<img src=""stim_listB/oppose3.gif""style=""height:400px;""></stim_listB>",,html-keyboard-response,303,1182217,0.0-17.0-1.19,27529,List2B,black,woman,,,,null,,,,,,,,,
null,is opposing,,html-keyboard-response,304,1184230,0.0-17.0-2.19,27529,List2B,black,woman,,,,null,,,,,,,,,
3985.7,,,survey-text,305,1188228,0.0-17.0-3.19,27529,List2B,black,woman,,,,,"{""Q0"":""Kate is opposing Mike""}","<img src=""stim_listB/oppose3.gif""style=""height:400px;""></stim_listB>",is opposing,,,,,,
590695.4,"<img src='img/portrait_matrix_list2.jpg' style='width:900px;height:500px;''></img><p>If you have memorised all the portraits and names and are ready to start, press Continue.</p><p><strong>Please note: Your memory of these faces will be tested 4 times during this experiment.</strong></p>",0,html-button-response,306,1778927,0.0-18.0-0.0,27529,List2B,black,woman,,,,,,,,,,,,,
2131.4,"<img src=""portrait/BM2.jpg""style=""height:400px;""></img>",5,html-button-response,307,1782071,0.0-18.0-1.0,27529,List2B,black,woman,,TRUE,5,,,,,,,,,,
null,CORRECT,,html-keyboard-response,308,1783589,0.0-18.0-2.0-0.0,27529,List2B,black,woman,,,,null,,,,,,,,,
2297.5,"<img src=""portrait/BW1.jpg""style=""height:400px;""></img>",0,html-button-response,309,1785889,0.0-18.0-4.0,27529,List2B,black,woman,,TRUE,0,,,,,,,,,,
null,CORRECT,,html-keyboard-response,310,1787411,0.0-18.0-5.0-0.0,27529,List2B,black,woman,,,,null,,,,,,,,,
1688.2,"<img src=""portrait/WW1.jpg""style=""height:400px;""></img>",1,html-button-response,311,1789103,0.0-18.0-7.0,27529,List2B,black,woman,,TRUE,1,,,,,,,,,,
null,CORRECT,,html-keyboard-response,312,1790628,0.0-18.0-8.0-0.0,27529,List2B,black,woman,,,,null,,,,,,,,,
1119.5,"<img src=""portrait/BM1.jpg""style=""height:400px;""></img>",4,html-button-response,313,1791751,0.0-18.0-10.0,27529,List2B,black,woman,,TRUE,4,,,,,,,,,,
null,CORRECT,,html-keyboard-response,314,1793269,0.0-18.0-11.0-0.0,27529,List2B,black,woman,,,,null,,,,,,,,,
1086.5,"<img src=""portrait/WM2.jpg""style=""height:400px;""></img>",7,html-button-response,315,1794359,0.0-18.0-13.0,27529,List2B,black,woman,,TRUE,7,,,,,,,,,,
null,CORRECT,,html-keyboard-response,316,1795867,0.0-18.0-14.0-0.0,27529,List2B,black,woman,,,,null,,,,,,,,,
1035.5,"<img src=""portrait/WW2.jpg""style=""height:400px;""></img>",3,html-button-response,317,1796905,0.0-18.0-16.0,27529,List2B,black,woman,,TRUE,3,,,,,,,,,,
null,CORRECT,,html-keyboard-response,318,1798423,0.0-18.0-17.0-0.0,27529,List2B,black,woman,,,,null,,,,,,,,,
2267,"<img src=""portrait/BW2.jpg""style=""height:400px;""></img>",2,html-button-response,319,1800695,0.0-18.0-19.0,27529,List2B,black,woman,,TRUE,2,,,,,,,,,,
null,CORRECT,,html-keyboard-response,320,1802219,0.0-18.0-20.0-0.0,27529,List2B,black,woman,,,,null,,,,,,,,,
1082.1,"<img src=""portrait/WM1.jpg""style=""height:400px;""></img>",6,html-button-response,321,1803304,0.0-18.0-22.0,27529,List2B,black,woman,,TRUE,6,,,,,,,,,,
null,CORRECT,,html-keyboard-response,322,1804825,0.0-18.0-23.0-0.0,27529,List2B,black,woman,,,,null,,,,,,,,,
1183.2,<p>You got 8 out of 8 right first time. Press Continue.</p>,0,html-button-response,323,1806010,0.0-18.0-25.0,27529,List2B,black,woman,,,,,,,,,,,,,
null,"<div style=""font-size:60px;"">+</div>",,html-keyboard-response,324,1807531,0.0-19.0-0.0,27529,List2B,black,woman,,,,null,,,,,,,,,
null,"<img src=""stim_listB/look5.gif""style=""height:400px;""></stim_listB>",,html-keyboard-response,325,1809536,0.0-19.0-1.0,27529,List2B,black,woman,,,,null,,,,,,,,,
null,is looking at,,html-keyboard-response,326,1811543,0.0-19.0-2.0,27529,List2B,black,woman,,,,null,,,,,,,,,
7748.1,,,survey-text,327,1819299,0.0-19.0-3.0,27529,List2B,black,woman,,,,,"{""Q0"":""Luke is looking at Fred""}","<img src=""stim_listB/look5.gif""style=""height:400px;""></stim_listB>",is looking at,,,,,,
null,"<div style=""font-size:60px;"">+</div>",,html-keyboard-response,328,1819813,0.0-19.0-0.1,27529,List2B,black,woman,,,,null,,,,,,,,,
null,"<img src=""stim_listB/seduce1.gif""style=""height:400px;""></stim_listB>",,html-keyboard-response,329,1821824,0.0-19.0-1.1,27529,List2B,black,woman,,,,null,,,,,,,,,
null,is seducing,,html-keyboard-response,330,1823839,0.0-19.0-2.1,27529,List2B,black,woman,,,,null,,,,,,,,,
6420.3,,,survey-text,331,1830268,0.0-19.0-3.1,27529,List2B,black,woman,,,,,"{""Q0"":""Luke is seducing Jane""}","<img src=""stim_listB/seduce1.gif""style=""height:400px;""></stim_listB>",is seducing,,,,,,
null,"<div style=""font-size:60px;"">+</div>",,html-keyboard-response,332,1830784,0.0-19.0-0.2,27529,List2B,black,woman,,,,null,,,,,,,,,
null,"<img src=""stim_listB/greet8.gif""style=""height:400px;""></stim_listB>",,html-keyboard-response,333,1832787,0.0-19.0-1.2,27529,List2B,black,woman,,,,null,,,,,,,,,
null,is being greeted by,,html-keyboard-response,334,1834802,0.0-19.0-2.2,27529,List2B,black,woman,,,,null,,,,,,,,,
9839.6,,,survey-text,335,1844653,0.0-19.0-3.2,27529,List2B,black,woman,,,,,"{""Q0"":""Kate is being greeted by Ruth""}","<img src=""stim_listB/greet8.gif""style=""height:400px;""></stim_listB>",is being greeted by,,,,,,
null,"<div style=""font-size:60px;"">+</div>",,html-keyboard-response,336,1845164,0.0-19.0-0.3,27529,List2B,black,woman,,,,null,,,,,,,,,
null,"<img src=""stim_listB/touch2.gif""style=""height:400px;""></stim_listB>",,html-keyboard-response,337,1847177,0.0-19.0-1.3,27529,List2B,black,woman,,,,null,,,,,,,,,
null,is being touched by,,html-keyboard-response,338,1849189,0.0-19.0-2.3,27529,List2B,black,woman,,,,null,,,,,,,,,
9042.9,,,survey-text,339,1858241,0.0-19.0-3.3,27529,List2B,black,woman,,,,,"{""Q0"":""Ruth is being touched by Luke""}","<img src=""stim_listB/touch2.gif""style=""height:400px;""></stim_listB>",is being touched by,,,,,,
null,"<div style=""font-size:60px;"">+</div>",,html-keyboard-response,340,1858746,0.0-19.0-0.4,27529,List2B,black,woman,,,,null,,,,,,,,,
null,"<img src=""stim_listB/greet4.gif""style=""height:400px;""></stim_listB>",,html-keyboard-response,341,1860758,0.0-19.0-1.4,27529,List2B,black,woman,,,,null,,,,,,,,,
null,is being greeted by,,html-keyboard-response,342,1862769,0.0-19.0-2.4,27529,List2B,black,woman,,,,null,,,,,,,,,
7601.8,,,survey-text,343,1870379,0.0-19.0-3.4,27529,List2B,black,woman,,,,,"{""Q0"":""Fred is being greeted by Kate""}","<img src=""stim_listB/greet4.gif""style=""height:400px;""></stim_listB>",is being greeted by,,,,,,
null,"<div style=""font-size:60px;"">+</div>",,html-keyboard-response,344,1870886,0.0-19.0-0.5,27529,List2B,black,woman,,,,null,,,,,,,,,
null,"<img src=""stim_listB/copy7.gif""style=""height:400px;""></stim_listB>",,html-keyboard-response,345,1872903,0.0-19.0-1.5,27529,List2B,black,woman,,,,null,,,,,,,,,
null,is copying,,html-keyboard-response,346,1874913,0.0-19.0-2.5,27529,List2B,black,woman,,,,null,,,,,,,,,
8706.6,,,survey-text,347,1883628,0.0-19.0-3.5,27529,List2B,black,woman,,,,,"{""Q0"":""Beth is copying Jane""}","<img src=""stim_listB/copy7.gif""style=""height:400px;""></stim_listB>",is copying,,,,,,
null,"<div style=""font-size:60px;"">+</div>",,html-keyboard-response,348,1884135,0.0-19.0-0.6,27529,List2B,black,woman,,,,null,,,,,,,,,
null,"<img src=""stim_listB/kiss6.gif""style=""height:400px;""></stim_listB>",,html-keyboard-response,349,1886151,0.0-19.0-1.6,27529,List2B,black,woman,,,,null,,,,,,,,,
null,is being kissed by,,html-keyboard-response,350,1888164,0.0-19.0-2.6,27529,List2B,black,woman,,,,null,,,,,,,,,
5691.1,,,survey-text,351,1893863,0.0-19.0-3.6,27529,List2B,black,woman,,,,,"{""Q0"":""Dave is being kissed by Mike""}","<img src=""stim_listB/kiss6.gif""style=""height:400px;""></stim_listB>",is being kissed by,,,,,,
null,"<div style=""font-size:60px;"">+</div>",,html-keyboard-response,352,1894367,0.0-19.0-0.7,27529,List2B,black,woman,,,,null,,,,,,,,,
null,"<img src=""stim_listB/shout4.gif""style=""height:400px;""></stim_listB>",,html-keyboard-response,353,1896375,0.0-19.0-1.7,27529,List2B,black,woman,,,,null,,,,,,,,,
null,is being shouted at by,,html-keyboard-response,354,1898390,0.0-19.0-2.7,27529,List2B,black,woman,,,,null,,,,,,,,,
5832.1,,,survey-text,355,1904232,0.0-19.0-3.7,27529,List2B,black,woman,,,,,"{""Q0"":""Mike is being shouted at by Kate""}","<img src=""stim_listB/shout4.gif""style=""height:400px;""></stim_listB>",is being shouted at by,,,,,,
null,"<div style=""font-size:60px;"">+</div>",,html-keyboard-response,356,1904745,0.0-19.0-0.8,27529,List2B,black,woman,,,,null,,,,,,,,,
null,"<img src=""stim_listB/copy6.gif""style=""height:400px;""></stim_listB>",,html-keyboard-response,357,1906762,0.0-19.0-1.8,27529,List2B,black,woman,,,,null,,,,,,,,,
null,is being copied by,,html-keyboard-response,358,1908768,0.0-19.0-2.8,27529,List2B,black,woman,,,,null,,,,,,,,,
5559,,,survey-text,359,1914336,0.0-19.0-3.8,27529,List2B,black,woman,,,,,"{""Q0"":""Luke is being copied by Mike""}","<img src=""stim_listB/copy6.gif""style=""height:400px;""></stim_listB>",is being copied by,,,,,,
null,"<div style=""font-size:60px;"">+</div>",,html-keyboard-response,360,1914849,0.0-19.0-0.9,27529,List2B,black,woman,,,,null,,,,,,,,,
null,"<img src=""stim_listB/kiss1.gif""style=""height:400px;""></stim_listB>",,html-keyboard-response,361,1916862,0.0-19.0-1.9,27529,List2B,black,woman,,,,null,,,,,,,,,
null,is kissing,,html-keyboard-response,362,1918875,0.0-19.0-2.9,27529,List2B,black,woman,,,,null,,,,,,,,,
7309.2,,,survey-text,363,1926190,0.0-19.0-3.9,27529,List2B,black,woman,,,,,"{""Q0"":""Luke is kissing Ruth""}","<img src=""stim_listB/kiss1.gif""style=""height:400px;""></stim_listB>",is kissing,,,,,,
null,"<div style=""font-size:60px;"">+</div>",,html-keyboard-response,364,1926705,0.0-19.0-0.10,27529,List2B,black,woman,,,,null,,,,,,,,,
null,"<img src=""stim_listB/oppose7.gif""style=""height:400px;""></stim_listB>",,html-keyboard-response,365,1928714,0.0-19.0-1.10,27529,List2B,black,woman,,,,null,,,,,,,,,
null,is opposing,,html-keyboard-response,366,1930719,0.0-19.0-2.10,27529,List2B,black,woman,,,,null,,,,,,,,,
4345.3,,,survey-text,367,1935074,0.0-19.0-3.10,27529,List2B,black,woman,,,,,"{""Q0"":""Jane is opposing Kate""}","<img src=""stim_listB/oppose7.gif""style=""height:400px;""></stim_listB>",is opposing,,,,,,
null,"<div style=""font-size:60px;"">+</div>",,html-keyboard-response,368,1935590,0.0-19.0-0.11,27529,List2B,black,woman,,,,null,,,,,,,,,
null,"<img src=""stim_listB/challenge6.gif""style=""height:400px;""></stim_listB>",,html-keyboard-response,369,1937600,0.0-19.0-1.11,27529,List2B,black,woman,,,,null,,,,,,,,,
null,is being challenged by,,html-keyboard-response,370,1939611,0.0-19.0-2.11,27529,List2B,black,woman,,,,null,,,,,,,,,
5843,,,survey-text,371,1945461,0.0-19.0-3.11,27529,List2B,black,woman,,,,,"{""Q0"":""Mike is being challenged by Luke""}","<img src=""stim_listB/challenge6.gif""style=""height:400px;""></stim_listB>",is being challenged by,,,,,,
null,"<div style=""font-size:60px;"">+</div>",,html-keyboard-response,372,1945978,0.0-19.0-0.12,27529,List2B,black,woman,,,,null,,,,,,,,,
null,"<img src=""stim_listB/copy5.gif""style=""height:400px;""></stim_listB>",,html-keyboard-response,373,1947989,0.0-19.0-1.12,27529,List2B,black,woman,,,,null,,,,,,,,,
null,is copying,,html-keyboard-response,374,1950005,0.0-19.0-2.12,27529,List2B,black,woman,,,,null,,,,,,,,,
5571.2,,,survey-text,375,1955585,0.0-19.0-3.12,27529,List2B,black,woman,,,,,"{""Q0"":""Fred is copying Dave""}","<img src=""stim_listB/copy5.gif""style=""height:400px;""></stim_listB>",is copying,,,,,,
null,"<div style=""font-size:60px;"">+</div>",,html-keyboard-response,376,1956098,0.0-19.0-0.13,27529,List2B,black,woman,,,,null,,,,,,,,,
null,"<img src=""stim_listB/greet7.gif""style=""height:400px;""></stim_listB>",,html-keyboard-response,377,1958115,0.0-19.0-1.13,27529,List2B,black,woman,,,,null,,,,,,,,,
null,is greeting,,html-keyboard-response,378,1960123,0.0-19.0-2.13,27529,List2B,black,woman,,,,null,,,,,,,,,
5280.1,,,survey-text,379,1965410,0.0-19.0-3.13,27529,List2B,black,woman,,,,,"{""Q0"":""Jane is greeting Beth""}","<img src=""stim_listB/greet7.gif""style=""height:400px;""></stim_listB>",is greeting,,,,,,
null,"<div style=""font-size:60px;"">+</div>",,html-keyboard-response,380,1965915,0.0-19.0-0.14,27529,List2B,black,woman,,,,null,,,,,,,,,
null,"<img src=""stim_listB/seduce7.gif""style=""height:400px;""></stim_listB>",,html-keyboard-response,381,1967918,0.0-19.0-1.14,27529,List2B,black,woman,,,,null,,,,,,,,,
null,is seducing,,html-keyboard-response,382,1969930,0.0-19.0-2.14,27529,List2B,black,woman,,,,null,,,,,,,,,
5019.2,,,survey-text,383,1974957,0.0-19.0-3.14,27529,List2B,black,woman,,,,,"{""Q0"":""Kate is seducing Ruth""}","<img src=""stim_listB/seduce7.gif""style=""height:400px;""></stim_listB>",is seducing,,,,,,
null,"<div style=""font-size:60px;"">+</div>",,html-keyboard-response,384,1975468,0.0-19.0-0.15,27529,List2B,black,woman,,,,null,,,,,,,,,
null,"<img src=""stim_listB/look6.gif""style=""height:400px;""></stim_listB>",,html-keyboard-response,385,1977473,0.0-19.0-1.15,27529,List2B,black,woman,,,,null,,,,,,,,,
null,is being looked at by,,html-keyboard-response,386,1979481,0.0-19.0-2.15,27529,List2B,black,woman,,,,null,,,,,,,,,
7049.6,,,survey-text,387,1986538,0.0-19.0-3.15,27529,List2B,black,woman,,,,,"{""Q0"":""Dave is being looked at by Mike""}","<img src=""stim_listB/look6.gif""style=""height:400px;""></stim_listB>",is being looked at by,,,,,,
null,"<div style=""font-size:60px;"">+</div>",,html-keyboard-response,388,1987052,0.0-19.0-0.16,27529,List2B,black,woman,,,,null,,,,,,,,,
null,"<img src=""stim_listB/challenge1.gif""style=""height:400px;""></stim_listB>",,html-keyboard-response,389,1989055,0.0-19.0-1.16,27529,List2B,black,woman,,,,null,,,,,,,,,
null,is challenging,,html-keyboard-response,390,1991063,0.0-19.0-2.16,27529,List2B,black,woman,,,,null,,,,,,,,,
4479.2,,,survey-text,391,1995554,0.0-19.0-3.16,27529,List2B,black,woman,,,,,"{""Q0"":""Ruth is challenging Dave""}","<img src=""stim_listB/challenge1.gif""style=""height:400px;""></stim_listB>",is challenging,,,,,,
null,"<div style=""font-size:60px;"">+</div>",,html-keyboard-response,392,1996057,0.0-19.0-0.17,27529,List2B,black,woman,,,,null,,,,,,,,,
null,"<img src=""stim_listB/kiss8.gif""style=""height:400px;""></stim_listB>",,html-keyboard-response,393,1998061,0.0-19.0-1.17,27529,List2B,black,woman,,,,null,,,,,,,,,
null,is being kissed by,,html-keyboard-response,394,2000069,0.0-19.0-2.17,27529,List2B,black,woman,,,,null,,,,,,,,,
5841.2,,,survey-text,395,2005918,0.0-19.0-3.17,27529,List2B,black,woman,,,,,"{""Q0"":""Jane is being kissed by Kate""}","<img src=""stim_listB/kiss8.gif""style=""height:400px;""></stim_listB>",is being kissed by,,,,,,
null,"<div style=""font-size:60px;"">+</div>",,html-keyboard-response,396,2006427,0.0-19.0-0.18,27529,List2B,black,woman,,,,null,,,,,,,,,
null,"<img src=""stim_listB/challenge4.gif""style=""height:400px;""></stim_listB>",,html-keyboard-response,397,2008437,0.0-19.0-1.18,27529,List2B,black,woman,,,,null,,,,,,,,,
null,is being challenged by,,html-keyboard-response,398,2010439,0.0-19.0-2.18,27529,List2B,black,woman,,,,null,,,,,,,,,
7287,,,survey-text,399,2017732,0.0-19.0-3.18,27529,List2B,black,woman,,,,,"{""Q0"":""Kate is being challenged by Fred""}","<img src=""stim_listB/challenge4.gif""style=""height:400px;""></stim_listB>",is being challenged by,,,,,,
null,"<div style=""font-size:60px;"">+</div>",,html-keyboard-response,400,2018238,0.0-19.0-0.19,27529,List2B,black,woman,,,,null,,,,,,,,,
null,"<img src=""stim_listB/greet1.gif""style=""height:400px;""></stim_listB>",,html-keyboard-response,401,2020252,0.0-19.0-1.19,27529,List2B,black,woman,,,,null,,,,,,,,,
null,is greeting,,html-keyboard-response,402,2022255,0.0-19.0-2.19,27529,List2B,black,woman,,,,null,,,,,,,,,
5342,,,survey-text,403,2027601,0.0-19.0-3.19,27529,List2B,black,woman,,,,,"{""Q0"":""Dave is greeting Ruth""}","<img src=""stim_listB/greet1.gif""style=""height:400px;""></stim_listB>",is greeting,,,,,,
8199.9,<p>Thank you for completing that task.</p><p>The final part of this session is a questionnaire that will take about 4 minutes.</p><p>Press Continue.</p>,0,html-button-response,404,2035802,0.0-20.0,27529,List2B,black,woman,,,,,,,,,,,,,
38516.3,,,survey-text,405,2075373,0.0-21.0,27529,List2B,black,woman,,,,,"{""Q0"":""39"",""Q1"":""English"",""Q2"":""English"",""Q3"":""United States"",""Q4"":""USA"",""Q5"":""African American"",""Q6"":""Female""}",,,demographics,,,,,
2280.1,<p>Have you lived in the USA for the last 5 years or more?</p>,0,html-button-response,406,2077659,0.0-22.0,27529,List2B,black,woman,,,,,,,,fiveyears,,,,,
2643.9,<p>Move the slider to show the extent to which you agree with the following statements.</p>,0,html-button-response,407,2081313,0.0-23.0,27529,List2B,black,woman,,,,,,,,,,,,,
4783.6,,,html-slider-response,408,2087114,0.0-24.0-0.0-0.0,27529,List2B,black,woman,,,,,,,,survey_gender,12,,,My friends understand me.,filler
3898.4,,,html-slider-response,409,2091018,0.0-24.0-0.0-0.1,27529,List2B,black,woman,,,,,,,,survey_gender,11,,,Most of the friends in my life are very similar to me.,filler
6158.6,,,html-slider-response,410,2097181,0.0-24.0-0.0-0.2,27529,List2B,black,woman,,,,,,,,survey_gender,48,,,I feel a bond with my gender.,bond
4377.8,,,html-slider-response,411,2101561,0.0-24.0-0.0-0.3,27529,List2B,black,woman,,,,,,,,survey_gender,1,,,My friends have a lot in common with each other.,filler
3835.1,,,html-slider-response,412,2105399,0.0-24.0-0.0-0.4,27529,List2B,black,woman,,,,,,,,survey_gender,82,,,It is not always easy for people to know what I am thinking.,filler
3165.7,,,html-slider-response,413,2108567,0.0-24.0-0.0-0.5,27529,List2B,black,woman,,,,,,,,survey_gender,62,,,I consider myself a highly empathetic person.,filler
4352.5,,,html-slider-response,414,2112924,0.0-24.0-0.0-0.6,27529,List2B,black,woman,,,,,,,,survey_gender,77,,,Routine is not important to me.,filler
5081.3,,,html-slider-response,415,2118010,0.0-24.0-0.0-0.7,27529,List2B,black,woman,,,,,,,,survey_gender,72,,,I think that my gender has a lot to be proud of.,proud
3160.1,,,html-slider-response,416,2121174,0.0-24.0-0.0-0.8,27529,List2B,black,woman,,,,,,,,survey_gender,67,,,People of my gender have a lot in common with each other.,common
3930.2,,,html-slider-response,417,2125107,0.0-24.0-0.0-0.9,27529,List2B,black,woman,,,,,,,,survey_gender,68,,,The fact that I am my gender is an important part of my identity.,identity
7822.8,,,html-slider-response,418,2132934,0.0-24.0-0.0-0.10,27529,List2B,black,woman,,,,,,,,survey_gender,29,,,I have a lot in common with the average person of my gender.,average
4909.5,,,html-slider-response,419,2137851,0.0-24.0-0.0-0.11,27529,List2B,black,woman,,,,,,,,survey_gender,50,,,Being my gender gives me a good feeling.,feeling
5934.3,,,html-slider-response,420,2143790,0.0-24.0-0.0-0.12,27529,List2B,black,woman,,,,,,,,survey_gender,49,,,I feel solidarity with my gender.,solidarity
5883.2,,,html-slider-response,421,2149675,0.0-24.0-0.0-0.13,27529,List2B,black,woman,,,,,,,,survey_gender,65,,,I am similar to the average person of my gender.,similar
4429.9,,,html-slider-response,422,2154107,0.0-24.0-0.0-0.14,27529,List2B,black,woman,,,,,,,,survey_gender,25,,,I have a lot in common with my friends.,filler
3147.3,,,html-slider-response,423,2157257,0.0-24.0-0.0-0.15,27529,List2B,black,woman,,,,,,,,survey_gender,20,,,I feel a bond with my friends.,filler
3500.7,,,html-slider-response,424,2160760,0.0-24.0-0.0-0.16,27529,List2B,black,woman,,,,,,,,survey_gender,20,,,It is pleasant to be my gender.,pleasant
3644.9,,,html-slider-response,425,2164409,0.0-24.0-0.0-0.17,27529,List2B,black,woman,,,,,,,,survey_gender,80,,,I feel committed to my gender.,committed
3674.9,,,html-slider-response,426,2168087,0.0-24.0-0.0-0.18,27529,List2B,black,woman,,,,,,,,survey_gender,65,,,People of my gender are very similar to each other.,verysimilar
2767.9,,,html-slider-response,427,2170858,0.0-24.0-0.0-0.19,27529,List2B,black,woman,,,,,,,,survey_gender,44,,,I am glad to be my gender.,glad
4554.8,,,html-slider-response,428,2175415,0.0-24.0-0.0-0.20,27529,List2B,black,woman,,,,,,,,survey_gender,24,,,I feel solidarity with my friends.,filler
2798.1,,,html-slider-response,429,2178215,0.0-24.0-0.0-0.21,27529,List2B,black,woman,,,,,,,,survey_gender,97,,,I often think about my actions.,filler
2808.6,,,html-slider-response,430,2181025,0.0-24.0-0.0-0.22,27529,List2B,black,woman,,,,,,,,survey_gender,74,,,Being my gender is an important part of how I see myself.,important
4349.7,,,html-slider-response,431,2185376,0.0-24.0-0.0-0.23,27529,List2B,black,woman,,,,,,,,survey_gender,48,,,Being around my friends gives me a good feeling.,filler
2674.4,,,html-slider-response,432,2188055,0.0-24.0-0.0-0.24,27529,List2B,black,woman,,,,,,,,survey_gender,100,,,I would say I am an animal person.,filler
4079.4,,,html-slider-response,433,2192137,0.0-24.0-0.0-0.25,27529,List2B,black,woman,,,,,,,,survey_gender,73,,,I often think about the fact that I am my gender.,often
7118.7,,,html-slider-response,434,2199257,0.0-24.0-0.0-0.26,27529,List2B,black,woman,,,,,,,,survey_gender,99,,,I am glad to have the friends that I have.,filler
8744.1,,,html-slider-response,435,2208005,0.0-24.0-0.0-0.27,27529,List2B,black,woman,,,,,,,,survey_gender,100,,,Family is not more important to me than friendship.,filler
5901.7,,,html-slider-response,436,2213908,0.0-24.0-1.0-0.0,27529,List2B,black,woman,,,,,,,,survey_race,63,,,I have a lot in common with the average person of my race.,average
12825.1,,,html-slider-response,437,2226734,0.0-24.0-1.0-0.1,27529,List2B,black,woman,,,,,,,,survey_race,68,,,I feel solidarity with my race.,solidarity
3364.6,,,html-slider-response,438,2230100,0.0-24.0-1.0-0.2,27529,List2B,black,woman,,,,,,,,survey_race,100,,,I often think about the fact that I am my race.,often
2656.5,,,html-slider-response,439,2232757,0.0-24.0-1.0-0.3,27529,List2B,black,woman,,,,,,,,survey_race,69,,,People of my race have a lot in common with each other.,common
7360.1,,,html-slider-response,440,2240119,0.0-24.0-1.0-0.4,27529,List2B,black,woman,,,,,,,,survey_race,35,,,Being my race gives me a good feeling.,feeling
4776.7,,,html-slider-response,441,2244900,0.0-24.0-1.0-0.5,27529,List2B,black,woman,,,,,,,,survey_race,14,,,I am glad to be my age.,filler
2341.4,,,html-slider-response,442,2247246,0.0-24.0-1.0-0.6,27529,List2B,black,woman,,,,,,,,survey_race,15,,,It is pleasant to be my race.,pleasant
3859,,,html-slider-response,443,2251107,0.0-24.0-1.0-0.7,27529,List2B,black,woman,,,,,,,,survey_race,30,,,People my age have a lot in common with each other.,filler
1959.8,,,html-slider-response,444,2253069,0.0-24.0-1.0-0.8,27529,List2B,black,woman,,,,,,,,survey_race,18,,,I am glad to be the age I am.,filler
3612.3,,,html-slider-response,445,2256683,0.0-24.0-1.0-0.9,27529,List2B,black,woman,,,,,,,,survey_race,1,,,I enjoy being in large groups.,filler
7121.1,,,html-slider-response,446,2263806,0.0-24.0-1.0-0.10,27529,List2B,black,woman,,,,,,,,survey_race,1,,,Getting older does not worry me.,filler
4129.2,,,html-slider-response,447,2267938,0.0-24.0-1.0-0.11,27529,List2B,black,woman,,,,,,,,survey_race,77,,,Being my race is an important part of how I see myself.,important
3126.2,,,html-slider-response,448,2271066,0.0-24.0-1.0-0.12,27529,List2B,black,woman,,,,,,,,survey_race,82,,,The fact that I am my race is an important part of my identity.,identity
7751.5,,,html-slider-response,449,2278821,0.0-24.0-1.0-0.13,27529,List2B,black,woman,,,,,,,,survey_race,84,,,My age is not an important part of who I am.,filler
3340.2,,,html-slider-response,450,2282164,0.0-24.0-1.0-0.14,27529,List2B,black,woman,,,,,,,,survey_race,0,,,I consider myself an extrovert.,filler
3884.3,,,html-slider-response,451,2286050,0.0-24.0-1.0-0.15,27529,List2B,black,woman,,,,,,,,survey_race,79,,,I feel a bond with my race.,bond
3233,,,html-slider-response,452,2289287,0.0-24.0-1.0-0.16,27529,List2B,black,woman,,,,,,,,survey_race,91,,,I often think about the fact that I am my age.,filler
2644.5,,,html-slider-response,453,2291935,0.0-24.0-1.0-0.17,27529,List2B,black,woman,,,,,,,,survey_race,100,,,I consider myself an introvert.,filler
2614.3,,,html-slider-response,454,2294552,0.0-24.0-1.0-0.18,27529,List2B,black,woman,,,,,,,,survey_race,41,,,I am glad to be my race.,glad
3242.2,,,html-slider-response,455,2297797,0.0-24.0-1.0-0.19,27529,List2B,black,woman,,,,,,,,survey_race,53,,,I feel committed to my race.,committed
3050.4,,,html-slider-response,456,2300851,0.0-24.0-1.0-0.20,27529,List2B,black,woman,,,,,,,,survey_race,3,,,Being my age gives me a good feeling.,filler
2530.3,,,html-slider-response,457,2303384,0.0-24.0-1.0-0.21,27529,List2B,black,woman,,,,,,,,survey_race,3,,,"The older I get, the wiser I feel.",filler
5586.6,,,html-slider-response,458,2308972,0.0-24.0-1.0-0.22,27529,List2B,black,woman,,,,,,,,survey_race,20,,,I have a lot in common with people of a similar age to me.,filler
3217.7,,,html-slider-response,459,2312192,0.0-24.0-1.0-0.23,27529,List2B,black,woman,,,,,,,,survey_race,49,,,I feel solidarity with people the same age as me.,filler
8930.9,,,html-slider-response,460,2321124,0.0-24.0-1.0-0.24,27529,List2B,black,woman,,,,,,,,survey_race,29,,,I am similar to the average person of my race.,similar
4255.8,,,html-slider-response,461,2325381,0.0-24.0-1.0-0.25,27529,List2B,black,woman,,,,,,,,survey_race,73,,,I think that my race has a lot to be proud of.,proud
6703.8,,,html-slider-response,462,2332087,0.0-24.0-1.0-0.26,27529,List2B,black,woman,,,,,,,,survey_race,15,,,People of my race are very similar to each other.,verysimilar
4888.1,,,html-slider-response,463,2336978,0.0-24.0-1.0-0.27,27529,List2B,black,woman,,,,,,,,survey_race,22,,,I feel a bond with people the same age as me.,filler
14603.7,,,survey-text,464,2351585,0.0-25.0,27529,List2B,black,woman,,,,,"{""Q0"":""ccc""}",,,worker_id,,,,,
37548.7,,,external-html,465,2389552,0.0-26.0,27529,List2B,black,woman,debrief.html,,,,,,,,,,,,
