rt,stimulus,button_pressed,trial_type,trial_index,time_elapsed,internal_node_id,subject,list,ppt_race,ppt_gender,url,first_guess,correct,key_press,responses,image_type,phrase_type,test_part,response,stimulus1,stimulus2,question_type,survey_item
195754.7,Welcome to the experiment. Press Continue to begin.,0,html-button-response,0,195758,0.0-0.0,28369,List1B,white,woman,,,,,,,,,,,,,
38303.1,,,external-html,1,235357,0.0-1.0,28369,List1B,white,woman,consent.html,,,,,,,,,,,,
34010.9,"<p>On the next page, you will see portraits of 8 people and their names.</p><p>Your first task is to take a few minutes to memorise the names of these people.</p><p>You will have to recall their names during the rest of the experiment, so it is</p><p>essential that you try to memorise these people and their names as best as you can.</p><br><p><strong>You will then be tested on your memory of these names and portraits.</strong></p><br><p>The experiment will start after you have completed this memory test.</p><br><p>Ready?</p>",0,html-button-response,2,269369,0.0-2.0,28369,List1B,white,woman,,,,,,,,,,,,,
113532.6,"<img src='img/portrait_matrix_list1.jpg' style='width:900px;height:500px;''></img><p>If you have memorised all the portraits and names and are ready to start, press Continue.</p><p><strong>Please note: Your memory of these faces will be tested 4 times during this experiment.</strong></p>",0,html-button-response,3,383909,0.0-3.0-0.0,28369,List1B,white,woman,,,,,,,,,,,,,
5059.2,"<img src=""portrait/WW2.jpg""style=""height:400px;""></img>",3,html-button-response,4,389975,0.0-3.0-1.0,28369,List1B,white,woman,,TRUE,3,,,,,,,,,,
null,CORRECT,,html-keyboard-response,5,391493,0.0-3.0-2.0-0.0,28369,List1B,white,woman,,,,null,,,,,,,,,
3181.2,"<img src=""portrait/WM1.jpg""style=""height:400px;""></img>",6,html-button-response,6,394676,0.0-3.0-4.0,28369,List1B,white,woman,,TRUE,6,,,,,,,,,,
null,CORRECT,,html-keyboard-response,7,396190,0.0-3.0-5.0-0.0,28369,List1B,white,woman,,,,null,,,,,,,,,
2535.3,"<img src=""portrait/BW2.jpg""style=""height:400px;""></img>",2,html-button-response,8,398728,0.0-3.0-7.0,28369,List1B,white,woman,,TRUE,2,,,,,,,,,,
null,CORRECT,,html-keyboard-response,9,400252,0.0-3.0-8.0-0.0,28369,List1B,white,woman,,,,null,,,,,,,,,
2782,"<img src=""portrait/WW1.jpg""style=""height:400px;""></img>",1,html-button-response,10,403036,0.0-3.0-10.0,28369,List1B,white,woman,,TRUE,1,,,,,,,,,,
null,CORRECT,,html-keyboard-response,11,404558,0.0-3.0-11.0-0.0,28369,List1B,white,woman,,,,null,,,,,,,,,
2720.9,"<img src=""portrait/BM2.jpg""style=""height:400px;""></img>",5,html-button-response,12,407281,0.0-3.0-13.0,28369,List1B,white,woman,,TRUE,5,,,,,,,,,,
null,CORRECT,,html-keyboard-response,13,408813,0.0-3.0-14.0-0.0,28369,List1B,white,woman,,,,null,,,,,,,,,
5186.6,"<img src=""portrait/BM1.jpg""style=""height:400px;""></img>",4,html-button-response,14,414001,0.0-3.0-16.0,28369,List1B,white,woman,,TRUE,4,,,,,,,,,,
null,CORRECT,,html-keyboard-response,15,415506,0.0-3.0-17.0-0.0,28369,List1B,white,woman,,,,null,,,,,,,,,
3448.6,"<img src=""portrait/BW1.jpg""style=""height:400px;""></img>",0,html-button-response,16,418956,0.0-3.0-19.0,28369,List1B,white,woman,,TRUE,0,,,,,,,,,,
null,CORRECT,,html-keyboard-response,17,420467,0.0-3.0-20.0-0.0,28369,List1B,white,woman,,,,null,,,,,,,,,
2731.6,"<img src=""portrait/WM2.jpg""style=""height:400px;""></img>",7,html-button-response,18,423200,0.0-3.0-22.0,28369,List1B,white,woman,,TRUE,7,,,,,,,,,,
null,CORRECT,,html-keyboard-response,19,424714,0.0-3.0-23.0-0.0,28369,List1B,white,woman,,,,null,,,,,,,,,
1563.5,<p>You got 8 out of 8 right first time. Press Continue.</p>,0,html-button-response,20,426281,0.0-3.0-25.0,28369,List1B,white,woman,,,,,,,,,,,,,
25031.1,"<p>In this experiment, you will view photographs of the people from the memory game interacting.</p><p>By using the <strong>exact</strong> phrase given <i>after</i> the photograph appears and recalling the correct names of the people in the photographs, form a sentence describing the interaction. You do not need to capitalise names.</p><p>Type your answer in the space provided. Please complete every sentence before moving onto the next trial.</p><p>You will only have a few seconds to memorise each given photograph and phrase before you can respond, so try your best to focus.</p><p>An example is given below. Press 'Continue' when you are ready.</p><img src='img/speaking_example.jpg' style='width:800px;height:460px;''></img>",0,html-button-response,21,452329,0.0-4.0,28369,List1B,white,woman,,,,,,,,,,,,,
1770.3,"<p>Before the experiment starts, you will watch two example trials. Press 'Continue'.</p>",0,html-button-response,22,455117,0.0-5.0,28369,List1B,white,woman,,,,,,,,,,,,,
null,<img src='img/play_eg.gif' style='height:400px;''></img>,,html-keyboard-response,23,458123,0.0-6.0,28369,List1B,white,woman,,,,null,,,,,,,,,
null,<p>is playing with</p>,,html-keyboard-response,24,460129,0.0-7.0,28369,List1B,white,woman,,,,null,,,,,,,,,
2727.3,<p><b>Answer:</b> kate is playing with beth</p>,0,html-button-response,25,462857,0.0-8.0,28369,List1B,white,woman,,,,,,,,,,,,,
null,<img src='img/dance_eg.gif' style='height:400px;''></img>,,html-keyboard-response,26,465874,0.0-9.0,28369,List1B,white,woman,,,,null,,,,,,,,,
null,<p>is being entertained by</p>,,html-keyboard-response,27,467879,0.0-10.0,28369,List1B,white,woman,,,,null,,,,,,,,,
1299,<p><b>Answer:</b> luke is being entertained by dave</p>,0,html-button-response,28,469179,0.0-11.0,28369,List1B,white,woman,,,,,,,,,,,,,
3713.8,"<p>Ready to start the experiment?</p><br><p><strong>Remember to describe the picture using a full sentence,</strong></p><p><strong>that combines the names of the people with the <i>exact</i> phrase given.</strong></p><p><strong>To receive full payment you must do this correctly.</strong></p><p><strong> You do not need to capitalise names or use punctuation.</strong></p><br><p>Press 'Continue' to begin.</p>",0,html-button-response,29,473896,0.0-12.0,28369,List1B,white,woman,,,,,,,,,,,,,
null,"<div style=""font-size:60px;"">+</div>",,html-keyboard-response,30,475419,0.0-13.0-0.0,28369,List1B,white,woman,,,,null,,,,,,,,,
null,"<img src=""stim_listB/look8.gif""style=""height:400px;""></stim_listB>",,html-keyboard-response,31,477423,0.0-13.0-1.0,28369,List1B,white,woman,,,,null,,,,,,,,,
null,is being looked at by,,html-keyboard-response,32,479434,0.0-13.0-2.0,28369,List1B,white,woman,,,,null,,,,,,,,,
9525.3,,,survey-text,33,488965,0.0-13.0-3.0,28369,List1B,white,woman,,,,,"{""Q0"":""Kate is being looked at by Jane""}","<img src=""stim_listB/look8.gif""style=""height:400px;""></stim_listB>",is being looked at by,,,,,,
null,"<div style=""font-size:60px;"">+</div>",,html-keyboard-response,34,489482,0.0-13.0-0.1,28369,List1B,white,woman,,,,null,,,,,,,,,
null,"<img src=""stim_listB/oppose3.gif""style=""height:400px;""></stim_listB>",,html-keyboard-response,35,491485,0.0-13.0-1.1,28369,List1B,white,woman,,,,null,,,,,,,,,
null,is opposing,,html-keyboard-response,36,493493,0.0-13.0-2.1,28369,List1B,white,woman,,,,null,,,,,,,,,
6593.1,,,survey-text,37,500090,0.0-13.0-3.1,28369,List1B,white,woman,,,,,"{""Q0"":""Jane is opposing Dave""}","<img src=""stim_listB/oppose3.gif""style=""height:400px;""></stim_listB>",is opposing,,,,,,
null,"<div style=""font-size:60px;"">+</div>",,html-keyboard-response,38,500593,0.0-13.0-0.2,28369,List1B,white,woman,,,,null,,,,,,,,,
null,"<img src=""stim_listB/copy5.gif""style=""height:400px;""></stim_listB>",,html-keyboard-response,39,502597,0.0-13.0-1.2,28369,List1B,white,woman,,,,null,,,,,,,,,
null,is copying,,html-keyboard-response,40,504612,0.0-13.0-2.2,28369,List1B,white,woman,,,,null,,,,,,,,,
4912,,,survey-text,41,509528,0.0-13.0-3.2,28369,List1B,white,woman,,,,,"{""Q0"":""Luke is copying Mike""}","<img src=""stim_listB/copy5.gif""style=""height:400px;""></stim_listB>",is copying,,,,,,
null,"<div style=""font-size:60px;"">+</div>",,html-keyboard-response,42,510031,0.0-13.0-0.3,28369,List1B,white,woman,,,,null,,,,,,,,,
null,"<img src=""stim_listB/oppose4.gif""style=""height:400px;""></stim_listB>",,html-keyboard-response,43,512036,0.0-13.0-1.3,28369,List1B,white,woman,,,,null,,,,,,,,,
null,is being opposed by,,html-keyboard-response,44,514047,0.0-13.0-2.3,28369,List1B,white,woman,,,,null,,,,,,,,,
7280.6,,,survey-text,45,521331,0.0-13.0-3.3,28369,List1B,white,woman,,,,,"{""Q0"":""Luke is being opposed by Ruth""}","<img src=""stim_listB/oppose4.gif""style=""height:400px;""></stim_listB>",is being opposed by,,,,,,
null,"<div style=""font-size:60px;"">+</div>",,html-keyboard-response,46,521840,0.0-13.0-0.4,28369,List1B,white,woman,,,,null,,,,,,,,,
null,"<img src=""stim_listB/challenge2.gif""style=""height:400px;""></stim_listB>",,html-keyboard-response,47,523854,0.0-13.0-1.4,28369,List1B,white,woman,,,,null,,,,,,,,,
null,is being challenged by,,html-keyboard-response,48,525856,0.0-13.0-2.4,28369,List1B,white,woman,,,,null,,,,,,,,,
8380.6,,,survey-text,49,534241,0.0-13.0-3.4,28369,List1B,white,woman,,,,,"{""Q0"":""Fred is being challenged by Kate""}","<img src=""stim_listB/challenge2.gif""style=""height:400px;""></stim_listB>",is being challenged by,,,,,,
null,"<div style=""font-size:60px;"">+</div>",,html-keyboard-response,50,534760,0.0-13.0-0.5,28369,List1B,white,woman,,,,null,,,,,,,,,
null,"<img src=""stim_listB/hug4.gif""style=""height:400px;""></stim_listB>",,html-keyboard-response,51,536775,0.0-13.0-1.5,28369,List1B,white,woman,,,,null,,,,,,,,,
null,is being hugged by,,html-keyboard-response,52,538790,0.0-13.0-2.5,28369,List1B,white,woman,,,,null,,,,,,,,,
7046,,,survey-text,53,545842,0.0-13.0-3.5,28369,List1B,white,woman,,,,,"{""Q0"":""Jane is being hugged by Dave""}","<img src=""stim_listB/hug4.gif""style=""height:400px;""></stim_listB>",is being hugged by,,,,,,
null,"<div style=""font-size:60px;"">+</div>",,html-keyboard-response,54,546349,0.0-13.0-0.6,28369,List1B,white,woman,,,,null,,,,,,,,,
null,"<img src=""stim_listB/challenge6.gif""style=""height:400px;""></stim_listB>",,html-keyboard-response,55,548364,0.0-13.0-1.6,28369,List1B,white,woman,,,,null,,,,,,,,,
null,is being challenged by,,html-keyboard-response,56,550378,0.0-13.0-2.6,28369,List1B,white,woman,,,,null,,,,,,,,,
7473.7,,,survey-text,57,557855,0.0-13.0-3.6,28369,List1B,white,woman,,,,,"{""Q0"":""Fred is being challenged by Dave""}","<img src=""stim_listB/challenge6.gif""style=""height:400px;""></stim_listB>",is being challenged by,,,,,,
null,"<div style=""font-size:60px;"">+</div>",,html-keyboard-response,58,558368,0.0-13.0-0.7,28369,List1B,white,woman,,,,null,,,,,,,,,
null,"<img src=""stim_listB/greet3.gif""style=""height:400px;""></stim_listB>",,html-keyboard-response,59,560372,0.0-13.0-1.7,28369,List1B,white,woman,,,,null,,,,,,,,,
null,is greeting,,html-keyboard-response,60,562380,0.0-13.0-2.7,28369,List1B,white,woman,,,,null,,,,,,,,,
7444.8,,,survey-text,61,569829,0.0-13.0-3.7,28369,List1B,white,woman,,,,,"{""Q0"":""Ruth is greeting Dave""}","<img src=""stim_listB/greet3.gif""style=""height:400px;""></stim_listB>",is greeting,,,,,,
null,"<div style=""font-size:60px;"">+</div>",,html-keyboard-response,62,570333,0.0-13.0-0.8,28369,List1B,white,woman,,,,null,,,,,,,,,
null,"<img src=""stim_listB/copy2.gif""style=""height:400px;""></stim_listB>",,html-keyboard-response,63,572337,0.0-13.0-1.8,28369,List1B,white,woman,,,,null,,,,,,,,,
null,is being copied by,,html-keyboard-response,64,574339,0.0-13.0-2.8,28369,List1B,white,woman,,,,null,,,,,,,,,
6899.8,,,survey-text,65,581243,0.0-13.0-3.8,28369,List1B,white,woman,,,,,"{""Q0"":""Fred is being copied by Kate""}","<img src=""stim_listB/copy2.gif""style=""height:400px;""></stim_listB>",is being copied by,,,,,,
null,"<div style=""font-size:60px;"">+</div>",,html-keyboard-response,66,581752,0.0-13.0-0.9,28369,List1B,white,woman,,,,null,,,,,,,,,
null,"<img src=""stim_listB/kiss7.gif""style=""height:400px;""></stim_listB>",,html-keyboard-response,67,583764,0.0-13.0-1.9,28369,List1B,white,woman,,,,null,,,,,,,,,
null,is kissing,,html-keyboard-response,68,585781,0.0-13.0-2.9,28369,List1B,white,woman,,,,null,,,,,,,,,
7319.4,,,survey-text,69,593105,0.0-13.0-3.9,28369,List1B,white,woman,,,,,"{""Q0"":""Beth is kissing Ruth""}","<img src=""stim_listB/kiss7.gif""style=""height:400px;""></stim_listB>",is kissing,,,,,,
null,"<div style=""font-size:60px;"">+</div>",,html-keyboard-response,70,593609,0.0-13.0-0.10,28369,List1B,white,woman,,,,null,,,,,,,,,
null,"<img src=""stim_listB/hug6.gif""style=""height:400px;""></stim_listB>",,html-keyboard-response,71,595620,0.0-13.0-1.10,28369,List1B,white,woman,,,,null,,,,,,,,,
null,is being hugged by,,html-keyboard-response,72,597626,0.0-13.0-2.10,28369,List1B,white,woman,,,,null,,,,,,,,,
4893.9,,,survey-text,73,602523,0.0-13.0-3.10,28369,List1B,white,woman,,,,,"{""Q0"":""Mike is hugging Dave""}","<img src=""stim_listB/hug6.gif""style=""height:400px;""></stim_listB>",is being hugged by,,,,,,
null,"<div style=""font-size:60px;"">+</div>",,html-keyboard-response,74,603032,0.0-13.0-0.11,28369,List1B,white,woman,,,,null,,,,,,,,,
null,"<img src=""stim_listB/kiss1.gif""style=""height:400px;""></stim_listB>",,html-keyboard-response,75,605044,0.0-13.0-1.11,28369,List1B,white,woman,,,,null,,,,,,,,,
null,is kissing,,html-keyboard-response,76,607052,0.0-13.0-2.11,28369,List1B,white,woman,,,,null,,,,,,,,,
5279.5,,,survey-text,77,612334,0.0-13.0-3.11,28369,List1B,white,woman,,,,,"{""Q0"":""Fred is kissing Beth""}","<img src=""stim_listB/kiss1.gif""style=""height:400px;""></stim_listB>",is kissing,,,,,,
null,"<div style=""font-size:60px;"">+</div>",,html-keyboard-response,78,612836,0.0-13.0-0.12,28369,List1B,white,woman,,,,null,,,,,,,,,
null,"<img src=""stim_listB/hug7.gif""style=""height:400px;""></stim_listB>",,html-keyboard-response,79,614839,0.0-13.0-1.12,28369,List1B,white,woman,,,,null,,,,,,,,,
null,is hugging,,html-keyboard-response,80,616842,0.0-13.0-2.12,28369,List1B,white,woman,,,,null,,,,,,,,,
3953.6,,,survey-text,81,620797,0.0-13.0-3.12,28369,List1B,white,woman,,,,,"{""Q0"":""Beth is hugging Ruth""}","<img src=""stim_listB/hug7.gif""style=""height:400px;""></stim_listB>",is hugging,,,,,,
null,"<div style=""font-size:60px;"">+</div>",,html-keyboard-response,82,621312,0.0-13.0-0.13,28369,List1B,white,woman,,,,null,,,,,,,,,
null,"<img src=""stim_listB/look2.gif""style=""height:400px;""></stim_listB>",,html-keyboard-response,83,623323,0.0-13.0-1.13,28369,List1B,white,woman,,,,null,,,,,,,,,
null,is being looked at by,,html-keyboard-response,84,625338,0.0-13.0-2.13,28369,List1B,white,woman,,,,null,,,,,,,,,
11167.3,,,survey-text,85,636509,0.0-13.0-3.13,28369,List1B,white,woman,,,,,"{""Q0"":""Kate is looking at Mike""}","<img src=""stim_listB/look2.gif""style=""height:400px;""></stim_listB>",is being looked at by,,,,,,
null,"<div style=""font-size:60px;"">+</div>",,html-keyboard-response,86,637013,0.0-13.0-0.14,28369,List1B,white,woman,,,,null,,,,,,,,,
null,"<img src=""stim_listB/touch4.gif""style=""height:400px;""></stim_listB>",,html-keyboard-response,87,639023,0.0-13.0-1.14,28369,List1B,white,woman,,,,null,,,,,,,,,
null,is being touched by,,html-keyboard-response,88,641031,0.0-13.0-2.14,28369,List1B,white,woman,,,,null,,,,,,,,,
6458.1,,,survey-text,89,647492,0.0-13.0-3.14,28369,List1B,white,woman,,,,,"{""Q0"":""Ruth is being touched by Luke""}","<img src=""stim_listB/touch4.gif""style=""height:400px;""></stim_listB>",is being touched by,,,,,,
null,"<div style=""font-size:60px;"">+</div>",,html-keyboard-response,90,648003,0.0-13.0-0.15,28369,List1B,white,woman,,,,null,,,,,,,,,
null,"<img src=""stim_listB/greet5.gif""style=""height:400px;""></stim_listB>",,html-keyboard-response,91,650006,0.0-13.0-1.15,28369,List1B,white,woman,,,,null,,,,,,,,,
null,is greeting,,html-keyboard-response,92,652008,0.0-13.0-2.15,28369,List1B,white,woman,,,,null,,,,,,,,,
7761.2,,,survey-text,93,659773,0.0-13.0-3.15,28369,List1B,white,woman,,,,,"{""Q0"":""Luke is greeting Mike""}","<img src=""stim_listB/greet5.gif""style=""height:400px;""></stim_listB>",is greeting,,,,,,
null,"<div style=""font-size:60px;"">+</div>",,html-keyboard-response,94,660285,0.0-13.0-0.16,28369,List1B,white,woman,,,,null,,,,,,,,,
null,"<img src=""stim_listB/hug8.gif""style=""height:400px;""></stim_listB>",,html-keyboard-response,95,662289,0.0-13.0-1.16,28369,List1B,white,woman,,,,null,,,,,,,,,
null,is being hugged by,,html-keyboard-response,96,664292,0.0-13.0-2.16,28369,List1B,white,woman,,,,null,,,,,,,,,
6738.3,,,survey-text,97,671034,0.0-13.0-3.16,28369,List1B,white,woman,,,,,"{""Q0"":""Kate is being hugged by Jane""}","<img src=""stim_listB/hug8.gif""style=""height:400px;""></stim_listB>",is being hugged by,,,,,,
null,"<div style=""font-size:60px;"">+</div>",,html-keyboard-response,98,671539,0.0-13.0-0.17,28369,List1B,white,woman,,,,null,,,,,,,,,
null,"<img src=""stim_listB/seduce8.gif""style=""height:400px;""></stim_listB>",,html-keyboard-response,99,673546,0.0-13.0-1.17,28369,List1B,white,woman,,,,null,,,,,,,,,
null,is being seduced by,,html-keyboard-response,100,675548,0.0-13.0-2.17,28369,List1B,white,woman,,,,null,,,,,,,,,
44603.7,,,survey-text,101,720154,0.0-13.0-3.17,28369,List1B,white,woman,,,,,"{""Q0"":""Kate is being seduced by Ruth""}","<img src=""stim_listB/seduce8.gif""style=""height:400px;""></stim_listB>",is being seduced by,,,,,,
null,"<div style=""font-size:60px;"">+</div>",,html-keyboard-response,102,720675,0.0-13.0-0.18,28369,List1B,white,woman,,,,null,,,,,,,,,
null,"<img src=""stim_listB/oppose8.gif""style=""height:400px;""></stim_listB>",,html-keyboard-response,103,722685,0.0-13.0-1.18,28369,List1B,white,woman,,,,null,,,,,,,,,
null,is being opposed by,,html-keyboard-response,104,724691,0.0-13.0-2.18,28369,List1B,white,woman,,,,null,,,,,,,,,
5570.1,,,survey-text,105,730264,0.0-13.0-3.18,28369,List1B,white,woman,,,,,"{""Q0"":""Ruth is being opposed by Beth""}","<img src=""stim_listB/oppose8.gif""style=""height:400px;""></stim_listB>",is being opposed by,,,,,,
null,"<div style=""font-size:60px;"">+</div>",,html-keyboard-response,106,730783,0.0-13.0-0.19,28369,List1B,white,woman,,,,null,,,,,,,,,
null,"<img src=""stim_listB/greet2.gif""style=""height:400px;""></stim_listB>",,html-keyboard-response,107,732792,0.0-13.0-1.19,28369,List1B,white,woman,,,,null,,,,,,,,,
null,is being greeted by,,html-keyboard-response,108,734800,0.0-13.0-2.19,28369,List1B,white,woman,,,,null,,,,,,,,,
6406.1,,,survey-text,109,741212,0.0-13.0-3.19,28369,List1B,white,woman,,,,,"{""Q0"":""Fred is being greeted by Kate""}","<img src=""stim_listB/greet2.gif""style=""height:400px;""></stim_listB>",is being greeted by,,,,,,
11826,"<img src='img/portrait_matrix_list1.jpg' style='width:900px;height:500px;''></img><p>If you have memorised all the portraits and names and are ready to start, press Continue.</p><p><strong>Please note: Your memory of these faces will be tested 4 times during this experiment.</strong></p>",0,html-button-response,110,753039,0.0-14.0-0.0,28369,List1B,white,woman,,,,,,,,,,,,,
2195.6,"<img src=""portrait/BW1.jpg""style=""height:400px;""></img>",0,html-button-response,111,756255,0.0-14.0-1.0,28369,List1B,white,woman,,TRUE,0,,,,,,,,,,
null,CORRECT,,html-keyboard-response,112,757761,0.0-14.0-2.0-0.0,28369,List1B,white,woman,,,,null,,,,,,,,,
2181.9,"<img src=""portrait/BM2.jpg""style=""height:400px;""></img>",5,html-button-response,113,759945,0.0-14.0-4.0,28369,List1B,white,woman,,TRUE,5,,,,,,,,,,
null,CORRECT,,html-keyboard-response,114,761462,0.0-14.0-5.0-0.0,28369,List1B,white,woman,,,,null,,,,,,,,,
3213.7,"<img src=""portrait/WM1.jpg""style=""height:400px;""></img>",6,html-button-response,115,764679,0.0-14.0-7.0,28369,List1B,white,woman,,TRUE,6,,,,,,,,,,
null,CORRECT,,html-keyboard-response,116,766208,0.0-14.0-8.0-0.0,28369,List1B,white,woman,,,,null,,,,,,,,,
2995,"<img src=""portrait/WW1.jpg""style=""height:400px;""></img>",1,html-button-response,117,769205,0.0-14.0-10.0,28369,List1B,white,woman,,TRUE,1,,,,,,,,,,
null,CORRECT,,html-keyboard-response,118,770720,0.0-14.0-11.0-0.0,28369,List1B,white,woman,,,,null,,,,,,,,,
3245,"<img src=""portrait/BM1.jpg""style=""height:400px;""></img>",4,html-button-response,119,773967,0.0-14.0-13.0,28369,List1B,white,woman,,TRUE,4,,,,,,,,,,
null,CORRECT,,html-keyboard-response,120,775484,0.0-14.0-14.0-0.0,28369,List1B,white,woman,,,,null,,,,,,,,,
2795.8,"<img src=""portrait/WW2.jpg""style=""height:400px;""></img>",3,html-button-response,121,778282,0.0-14.0-16.0,28369,List1B,white,woman,,TRUE,3,,,,,,,,,,
null,CORRECT,,html-keyboard-response,122,779806,0.0-14.0-17.0-0.0,28369,List1B,white,woman,,,,null,,,,,,,,,
3860.1,"<img src=""portrait/BW2.jpg""style=""height:400px;""></img>",2,html-button-response,123,783667,0.0-14.0-19.0,28369,List1B,white,woman,,TRUE,2,,,,,,,,,,
null,CORRECT,,html-keyboard-response,124,785190,0.0-14.0-20.0-0.0,28369,List1B,white,woman,,,,null,,,,,,,,,
4167.4,"<img src=""portrait/WM2.jpg""style=""height:400px;""></img>",7,html-button-response,125,789359,0.0-14.0-22.0,28369,List1B,white,woman,,TRUE,7,,,,,,,,,,
null,CORRECT,,html-keyboard-response,126,790867,0.0-14.0-23.0-0.0,28369,List1B,white,woman,,,,null,,,,,,,,,
1383.2,<p>You got 8 out of 8 right first time. Press Continue.</p>,0,html-button-response,127,792253,0.0-14.0-25.0,28369,List1B,white,woman,,,,,,,,,,,,,
null,"<div style=""font-size:60px;"">+</div>",,html-keyboard-response,128,793782,0.0-15.0-0.0,28369,List1B,white,woman,,,,null,,,,,,,,,
null,"<img src=""stim_listB/challenge5.gif""style=""height:400px;""></stim_listB>",,html-keyboard-response,129,795786,0.0-15.0-1.0,28369,List1B,white,woman,,,,null,,,,,,,,,
null,is challenging,,html-keyboard-response,130,797792,0.0-15.0-2.0,28369,List1B,white,woman,,,,null,,,,,,,,,
6436,,,survey-text,131,804232,0.0-15.0-3.0,28369,List1B,white,woman,,,,,"{""Q0"":""Mike is challenging Luke""}","<img src=""stim_listB/challenge5.gif""style=""height:400px;""></stim_listB>",is challenging,,,,,,
null,"<div style=""font-size:60px;"">+</div>",,html-keyboard-response,132,804740,0.0-15.0-0.1,28369,List1B,white,woman,,,,null,,,,,,,,,
null,"<img src=""stim_listB/greet7.gif""style=""height:400px;""></stim_listB>",,html-keyboard-response,133,806746,0.0-15.0-1.1,28369,List1B,white,woman,,,,null,,,,,,,,,
null,is greeting,,html-keyboard-response,134,808754,0.0-15.0-2.1,28369,List1B,white,woman,,,,null,,,,,,,,,
4628.9,,,survey-text,135,813387,0.0-15.0-3.1,28369,List1B,white,woman,,,,,"{""Q0"":""Ruth is greeting Kate""}","<img src=""stim_listB/greet7.gif""style=""height:400px;""></stim_listB>",is greeting,,,,,,
null,"<div style=""font-size:60px;"">+</div>",,html-keyboard-response,136,813897,0.0-15.0-0.2,28369,List1B,white,woman,,,,null,,,,,,,,,
null,"<img src=""stim_listB/touch7.gif""style=""height:400px;""></stim_listB>",,html-keyboard-response,137,815905,0.0-15.0-1.2,28369,List1B,white,woman,,,,null,,,,,,,,,
null,is touching,,html-keyboard-response,138,817910,0.0-15.0-2.2,28369,List1B,white,woman,,,,null,,,,,,,,,
3274,,,survey-text,139,821187,0.0-15.0-3.2,28369,List1B,white,woman,,,,,"{""Q0"":""Jane is touching Kate""}","<img src=""stim_listB/touch7.gif""style=""height:400px;""></stim_listB>",is touching,,,,,,
null,"<div style=""font-size:60px;"">+</div>",,html-keyboard-response,140,821691,0.0-15.0-0.3,28369,List1B,white,woman,,,,null,,,,,,,,,
null,"<img src=""stim_listB/challenge4.gif""style=""height:400px;""></stim_listB>",,html-keyboard-response,141,823707,0.0-15.0-1.3,28369,List1B,white,woman,,,,null,,,,,,,,,
null,is being challenged by,,html-keyboard-response,142,825715,0.0-15.0-2.3,28369,List1B,white,woman,,,,null,,,,,,,,,
4695.9,,,survey-text,143,830416,0.0-15.0-3.3,28369,List1B,white,woman,,,,,"{""Q0"":""Jane is being challenged by Luke""}","<img src=""stim_listB/challenge4.gif""style=""height:400px;""></stim_listB>",is being challenged by,,,,,,
null,"<div style=""font-size:60px;"">+</div>",,html-keyboard-response,144,830923,0.0-15.0-0.4,28369,List1B,white,woman,,,,null,,,,,,,,,
null,"<img src=""stim_listB/touch8.gif""style=""height:400px;""></stim_listB>",,html-keyboard-response,145,832930,0.0-15.0-1.4,28369,List1B,white,woman,,,,null,,,,,,,,,
null,is being touched by,,html-keyboard-response,146,834938,0.0-15.0-2.4,28369,List1B,white,woman,,,,null,,,,,,,,,
5151.9,,,survey-text,147,840093,0.0-15.0-3.4,28369,List1B,white,woman,,,,,"{""Q0"":""Beth is being touched by Ruth""}","<img src=""stim_listB/touch8.gif""style=""height:400px;""></stim_listB>",is being touched by,,,,,,
null,"<div style=""font-size:60px;"">+</div>",,html-keyboard-response,148,840607,0.0-15.0-0.5,28369,List1B,white,woman,,,,null,,,,,,,,,
null,"<img src=""stim_listB/seduce4.gif""style=""height:400px;""></stim_listB>",,html-keyboard-response,149,842621,0.0-15.0-1.5,28369,List1B,white,woman,,,,null,,,,,,,,,
null,is being seduced by,,html-keyboard-response,150,844626,0.0-15.0-2.5,28369,List1B,white,woman,,,,null,,,,,,,,,
5542.9,,,survey-text,151,850172,0.0-15.0-3.5,28369,List1B,white,woman,,,,,"{""Q0"":""Ruth is being seduced by Dave""}","<img src=""stim_listB/seduce4.gif""style=""height:400px;""></stim_listB>",is being seduced by,,,,,,
null,"<div style=""font-size:60px;"">+</div>",,html-keyboard-response,152,850680,0.0-15.0-0.6,28369,List1B,white,woman,,,,null,,,,,,,,,
null,"<img src=""stim_listB/seduce6.gif""style=""height:400px;""></stim_listB>",,html-keyboard-response,153,852694,0.0-15.0-1.6,28369,List1B,white,woman,,,,null,,,,,,,,,
null,is being seduced by,,html-keyboard-response,154,854710,0.0-15.0-2.6,28369,List1B,white,woman,,,,null,,,,,,,,,
6189.1,,,survey-text,155,860904,0.0-15.0-3.6,28369,List1B,white,woman,,,,,"{""Q0"":""Mike is being seduced by Luke""}","<img src=""stim_listB/seduce6.gif""style=""height:400px;""></stim_listB>",is being seduced by,,,,,,
null,"<div style=""font-size:60px;"">+</div>",,html-keyboard-response,156,861420,0.0-15.0-0.7,28369,List1B,white,woman,,,,null,,,,,,,,,
null,"<img src=""stim_listB/seduce1.gif""style=""height:400px;""></stim_listB>",,html-keyboard-response,157,863434,0.0-15.0-1.7,28369,List1B,white,woman,,,,null,,,,,,,,,
null,is seducing,,html-keyboard-response,158,865441,0.0-15.0-2.7,28369,List1B,white,woman,,,,null,,,,,,,,,
5421.8,,,survey-text,159,870866,0.0-15.0-3.7,28369,List1B,white,woman,,,,,"{""Q0"":""Kate is seducing Fred""}","<img src=""stim_listB/seduce1.gif""style=""height:400px;""></stim_listB>",is seducing,,,,,,
null,"<div style=""font-size:60px;"">+</div>",,html-keyboard-response,160,871377,0.0-15.0-0.8,28369,List1B,white,woman,,,,null,,,,,,,,,
null,"<img src=""stim_listB/seduce5.gif""style=""height:400px;""></stim_listB>",,html-keyboard-response,161,873392,0.0-15.0-1.8,28369,List1B,white,woman,,,,null,,,,,,,,,
null,is seducing,,html-keyboard-response,162,875409,0.0-15.0-2.8,28369,List1B,white,woman,,,,null,,,,,,,,,
8845.9,,,survey-text,163,884258,0.0-15.0-3.8,28369,List1B,white,woman,,,,,"{""Q0"":""Fred is seducing Dave""}","<img src=""stim_listB/seduce5.gif""style=""height:400px;""></stim_listB>",is seducing,,,,,,
null,"<div style=""font-size:60px;"">+</div>",,html-keyboard-response,164,884772,0.0-15.0-0.9,28369,List1B,white,woman,,,,null,,,,,,,,,
null,"<img src=""stim_listB/hug1.gif""style=""height:400px;""></stim_listB>",,html-keyboard-response,165,886780,0.0-15.0-1.9,28369,List1B,white,woman,,,,null,,,,,,,,,
null,is hugging,,html-keyboard-response,166,888786,0.0-15.0-2.9,28369,List1B,white,woman,,,,null,,,,,,,,,
5231.1,,,survey-text,167,894021,0.0-15.0-3.9,28369,List1B,white,woman,,,,,"{""Q0"":""Fred is hugging Beth""}","<img src=""stim_listB/hug1.gif""style=""height:400px;""></stim_listB>",is hugging,,,,,,
null,"<div style=""font-size:60px;"">+</div>",,html-keyboard-response,168,894524,0.0-15.0-0.10,28369,List1B,white,woman,,,,null,,,,,,,,,
null,"<img src=""stim_listB/look5.gif""style=""height:400px;""></stim_listB>",,html-keyboard-response,169,896537,0.0-15.0-1.10,28369,List1B,white,woman,,,,null,,,,,,,,,
null,is looking at,,html-keyboard-response,170,898545,0.0-15.0-2.10,28369,List1B,white,woman,,,,null,,,,,,,,,
5137,,,survey-text,171,903685,0.0-15.0-3.10,28369,List1B,white,woman,,,,,"{""Q0"":""Luke is looking at Fred""}","<img src=""stim_listB/look5.gif""style=""height:400px;""></stim_listB>",is looking at,,,,,,
null,"<div style=""font-size:60px;"">+</div>",,html-keyboard-response,172,904198,0.0-15.0-0.11,28369,List1B,white,woman,,,,null,,,,,,,,,
null,"<img src=""stim_listB/touch2.gif""style=""height:400px;""></stim_listB>",,html-keyboard-response,173,906212,0.0-15.0-1.11,28369,List1B,white,woman,,,,null,,,,,,,,,
null,is being touched by,,html-keyboard-response,174,908219,0.0-15.0-2.11,28369,List1B,white,woman,,,,null,,,,,,,,,
10254.5,,,survey-text,175,918477,0.0-15.0-3.11,28369,List1B,white,woman,,,,,"{""Q0"":""Fred is being touched by Beth""}","<img src=""stim_listB/touch2.gif""style=""height:400px;""></stim_listB>",is being touched by,,,,,,
null,"<div style=""font-size:60px;"">+</div>",,html-keyboard-response,176,918984,0.0-15.0-0.12,28369,List1B,white,woman,,,,null,,,,,,,,,
null,"<img src=""stim_listB/kiss2.gif""style=""height:400px;""></stim_listB>",,html-keyboard-response,177,920990,0.0-15.0-1.12,28369,List1B,white,woman,,,,null,,,,,,,,,
null,is being kissed by,,html-keyboard-response,178,923000,0.0-15.0-2.12,28369,List1B,white,woman,,,,null,,,,,,,,,
6673.7,,,survey-text,179,929677,0.0-15.0-3.12,28369,List1B,white,woman,,,,,"{""Q0"":""Kate is being kissed by Mike""}","<img src=""stim_listB/kiss2.gif""style=""height:400px;""></stim_listB>",is being kissed by,,,,,,
null,"<div style=""font-size:60px;"">+</div>",,html-keyboard-response,180,930189,0.0-15.0-0.13,28369,List1B,white,woman,,,,null,,,,,,,,,
null,"<img src=""stim_listB/copy7.gif""style=""height:400px;""></stim_listB>",,html-keyboard-response,181,932204,0.0-15.0-1.13,28369,List1B,white,woman,,,,null,,,,,,,,,
null,is copying,,html-keyboard-response,182,934212,0.0-15.0-2.13,28369,List1B,white,woman,,,,null,,,,,,,,,
4089.8,,,survey-text,183,938305,0.0-15.0-3.13,28369,List1B,white,woman,,,,,"{""Q0"":""Ruth is copying Kate""}","<img src=""stim_listB/copy7.gif""style=""height:400px;""></stim_listB>",is copying,,,,,,
null,"<div style=""font-size:60px;"">+</div>",,html-keyboard-response,184,938807,0.0-15.0-0.14,28369,List1B,white,woman,,,,null,,,,,,,,,
null,"<img src=""stim_listB/oppose6.gif""style=""height:400px;""></stim_listB>",,html-keyboard-response,185,940813,0.0-15.0-1.14,28369,List1B,white,woman,,,,null,,,,,,,,,
null,is being opposed by,,html-keyboard-response,186,942820,0.0-15.0-2.14,28369,List1B,white,woman,,,,null,,,,,,,,,
5308.5,,,survey-text,187,948133,0.0-15.0-3.14,28369,List1B,white,woman,,,,,"{""Q0"":""Fred is being opposed by Luke""}","<img src=""stim_listB/oppose6.gif""style=""height:400px;""></stim_listB>",is being opposed by,,,,,,
null,"<div style=""font-size:60px;"">+</div>",,html-keyboard-response,188,948639,0.0-15.0-0.15,28369,List1B,white,woman,,,,null,,,,,,,,,
null,"<img src=""stim_listB/kiss5.gif""style=""height:400px;""></stim_listB>",,html-keyboard-response,189,950656,0.0-15.0-1.15,28369,List1B,white,woman,,,,null,,,,,,,,,
null,is kissing,,html-keyboard-response,190,952661,0.0-15.0-2.15,28369,List1B,white,woman,,,,null,,,,,,,,,
3758.3,,,survey-text,191,956422,0.0-15.0-3.15,28369,List1B,white,woman,,,,,"{""Q0"":""Luke is kissing Fred""}","<img src=""stim_listB/kiss5.gif""style=""height:400px;""></stim_listB>",is kissing,,,,,,
null,"<div style=""font-size:60px;"">+</div>",,html-keyboard-response,192,956933,0.0-15.0-0.16,28369,List1B,white,woman,,,,null,,,,,,,,,
null,"<img src=""stim_listB/oppose2.gif""style=""height:400px;""></stim_listB>",,html-keyboard-response,193,958947,0.0-15.0-1.16,28369,List1B,white,woman,,,,null,,,,,,,,,
null,is being opposed by,,html-keyboard-response,194,960953,0.0-15.0-2.16,28369,List1B,white,woman,,,,null,,,,,,,,,
5877.3,,,survey-text,195,966833,0.0-15.0-3.16,28369,List1B,white,woman,,,,,"{""Q0"":""Beth is being opposed by Fred""}","<img src=""stim_listB/oppose2.gif""style=""height:400px;""></stim_listB>",is being opposed by,,,,,,
null,"<div style=""font-size:60px;"">+</div>",,html-keyboard-response,196,967338,0.0-15.0-0.17,28369,List1B,white,woman,,,,null,,,,,,,,,
null,"<img src=""stim_listB/look3.gif""style=""height:400px;""></stim_listB>",,html-keyboard-response,197,969352,0.0-15.0-1.17,28369,List1B,white,woman,,,,null,,,,,,,,,
null,is looking at,,html-keyboard-response,198,971359,0.0-15.0-2.17,28369,List1B,white,woman,,,,null,,,,,,,,,
3987.6,,,survey-text,199,975350,0.0-15.0-3.17,28369,List1B,white,woman,,,,,"{""Q0"":""Luke is looking at Ruth""}","<img src=""stim_listB/look3.gif""style=""height:400px;""></stim_listB>",is looking at,,,,,,
null,"<div style=""font-size:60px;"">+</div>",,html-keyboard-response,200,975863,0.0-15.0-0.18,28369,List1B,white,woman,,,,null,,,,,,,,,
null,"<img src=""stim_listB/shout7.gif""style=""height:400px;""></stim_listB>",,html-keyboard-response,201,977865,0.0-15.0-1.18,28369,List1B,white,woman,,,,null,,,,,,,,,
null,is shouting at,,html-keyboard-response,202,979877,0.0-15.0-2.18,28369,List1B,white,woman,,,,null,,,,,,,,,
41675.8,,,survey-text,203,1021556,0.0-15.0-3.18,28369,List1B,white,woman,,,,,"{""Q0"":""Beth is shouting at Ruth""}","<img src=""stim_listB/shout7.gif""style=""height:400px;""></stim_listB>",is shouting at,,,,,,
null,"<div style=""font-size:60px;"">+</div>",,html-keyboard-response,204,1022071,0.0-15.0-0.19,28369,List1B,white,woman,,,,null,,,,,,,,,
null,"<img src=""stim_listB/kiss3.gif""style=""height:400px;""></stim_listB>",,html-keyboard-response,205,1024090,0.0-15.0-1.19,28369,List1B,white,woman,,,,null,,,,,,,,,
null,is kissing,,html-keyboard-response,206,1026096,0.0-15.0-2.19,28369,List1B,white,woman,,,,null,,,,,,,,,
4082.6,,,survey-text,207,1030183,0.0-15.0-3.19,28369,List1B,white,woman,,,,,"{""Q0"":""Ruth is kissing Luke""}","<img src=""stim_listB/kiss3.gif""style=""height:400px;""></stim_listB>",is kissing,,,,,,
20447.2,"<img src='img/portrait_matrix_list1.jpg' style='width:900px;height:500px;''></img><p>If you have memorised all the portraits and names and are ready to start, press Continue.</p><p><strong>Please note: Your memory of these faces will be tested 4 times during this experiment.</strong></p>",0,html-button-response,208,1050632,0.0-16.0-0.0,28369,List1B,white,woman,,,,,,,,,,,,,
2426.4,"<img src=""portrait/BM2.jpg""style=""height:400px;""></img>",5,html-button-response,209,1054065,0.0-16.0-1.0,28369,List1B,white,woman,,TRUE,5,,,,,,,,,,
null,CORRECT,,html-keyboard-response,210,1055582,0.0-16.0-2.0-0.0,28369,List1B,white,woman,,,,null,,,,,,,,,
1042.4,"<img src=""portrait/WW2.jpg""style=""height:400px;""></img>",3,html-button-response,211,1056628,0.0-16.0-4.0,28369,List1B,white,woman,,TRUE,3,,,,,,,,,,
null,CORRECT,,html-keyboard-response,212,1058142,0.0-16.0-5.0-0.0,28369,List1B,white,woman,,,,null,,,,,,,,,
1768.3,"<img src=""portrait/WM2.jpg""style=""height:400px;""></img>",7,html-button-response,213,1059913,0.0-16.0-7.0,28369,List1B,white,woman,,TRUE,7,,,,,,,,,,
null,CORRECT,,html-keyboard-response,214,1061714,0.0-16.0-8.0-0.0,28369,List1B,white,woman,,,,null,,,,,,,,,
20433.7,"<img src=""portrait/BM1.jpg""style=""height:400px;""></img>",4,html-button-response,215,1082151,0.0-16.0-10.0,28369,List1B,white,woman,,TRUE,4,,,,,,,,,,
null,CORRECT,,html-keyboard-response,216,1083663,0.0-16.0-11.0-0.0,28369,List1B,white,woman,,,,null,,,,,,,,,
1724.8,"<img src=""portrait/WW1.jpg""style=""height:400px;""></img>",1,html-button-response,217,1085391,0.0-16.0-13.0,28369,List1B,white,woman,,TRUE,1,,,,,,,,,,
null,CORRECT,,html-keyboard-response,218,1086907,0.0-16.0-14.0-0.0,28369,List1B,white,woman,,,,null,,,,,,,,,
1929.2,"<img src=""portrait/BW1.jpg""style=""height:400px;""></img>",0,html-button-response,219,1088838,0.0-16.0-16.0,28369,List1B,white,woman,,TRUE,0,,,,,,,,,,
null,CORRECT,,html-keyboard-response,220,1090365,0.0-16.0-17.0-0.0,28369,List1B,white,woman,,,,null,,,,,,,,,
3418,"<img src=""portrait/WM1.jpg""style=""height:400px;""></img>",6,html-button-response,221,1093785,0.0-16.0-19.0,28369,List1B,white,woman,,TRUE,6,,,,,,,,,,
null,CORRECT,,html-keyboard-response,222,1095310,0.0-16.0-20.0-0.0,28369,List1B,white,woman,,,,null,,,,,,,,,
2238.1,"<img src=""portrait/BW2.jpg""style=""height:400px;""></img>",2,html-button-response,223,1097551,0.0-16.0-22.0,28369,List1B,white,woman,,TRUE,2,,,,,,,,,,
null,CORRECT,,html-keyboard-response,224,1099065,0.0-16.0-23.0-0.0,28369,List1B,white,woman,,,,null,,,,,,,,,
985.9,<p>You got 8 out of 8 right first time. Press Continue.</p>,0,html-button-response,225,1100053,0.0-16.0-25.0,28369,List1B,white,woman,,,,,,,,,,,,,
null,"<div style=""font-size:60px;"">+</div>",,html-keyboard-response,226,1101575,0.0-17.0-0.0,28369,List1B,white,woman,,,,null,,,,,,,,,
null,"<img src=""stim_listB/shout5.gif""style=""height:400px;""></stim_listB>",,html-keyboard-response,227,1103593,0.0-17.0-1.0,28369,List1B,white,woman,,,,null,,,,,,,,,
null,is shouting at,,html-keyboard-response,228,1105596,0.0-17.0-2.0,28369,List1B,white,woman,,,,null,,,,,,,,,
5541.4,,,survey-text,229,1111140,0.0-17.0-3.0,28369,List1B,white,woman,,,,,"{""Q0"":""Fred is shouting at Luke""}","<img src=""stim_listB/shout5.gif""style=""height:400px;""></stim_listB>",is shouting at,,,,,,
null,"<div style=""font-size:60px;"">+</div>",,html-keyboard-response,230,1111652,0.0-17.0-0.1,28369,List1B,white,woman,,,,null,,,,,,,,,
null,"<img src=""stim_listB/seduce7.gif""style=""height:400px;""></stim_listB>",,html-keyboard-response,231,1113668,0.0-17.0-1.1,28369,List1B,white,woman,,,,null,,,,,,,,,
null,is seducing,,html-keyboard-response,232,1115683,0.0-17.0-2.1,28369,List1B,white,woman,,,,null,,,,,,,,,
4547,,,survey-text,233,1120233,0.0-17.0-3.1,28369,List1B,white,woman,,,,,"{""Q0"":""Jane is seducing Beth""}","<img src=""stim_listB/seduce7.gif""style=""height:400px;""></stim_listB>",is seducing,,,,,,
null,"<div style=""font-size:60px;"">+</div>",,html-keyboard-response,234,1120743,0.0-17.0-0.2,28369,List1B,white,woman,,,,null,,,,,,,,,
null,"<img src=""stim_listB/copy1.gif""style=""height:400px;""></stim_listB>",,html-keyboard-response,235,1122758,0.0-17.0-1.2,28369,List1B,white,woman,,,,null,,,,,,,,,
null,is copying,,html-keyboard-response,236,1124774,0.0-17.0-2.2,28369,List1B,white,woman,,,,null,,,,,,,,,
4105.5,,,survey-text,237,1128884,0.0-17.0-3.2,28369,List1B,white,woman,,,,,"{""Q0"":""Beth is copying Mike""}","<img src=""stim_listB/copy1.gif""style=""height:400px;""></stim_listB>",is copying,,,,,,
null,"<div style=""font-size:60px;"">+</div>",,html-keyboard-response,238,1129386,0.0-17.0-0.3,28369,List1B,white,woman,,,,null,,,,,,,,,
null,"<img src=""stim_listB/oppose1.gif""style=""height:400px;""></stim_listB>",,html-keyboard-response,239,1131400,0.0-17.0-1.3,28369,List1B,white,woman,,,,null,,,,,,,,,
null,is opposing,,html-keyboard-response,240,1133415,0.0-17.0-2.3,28369,List1B,white,woman,,,,null,,,,,,,,,
3830.7,,,survey-text,241,1137249,0.0-17.0-3.3,28369,List1B,white,woman,,,,,"{""Q0"":""Kate is opposing Mike""}","<img src=""stim_listB/oppose1.gif""style=""height:400px;""></stim_listB>",is opposing,,,,,,
null,"<div style=""font-size:60px;"">+</div>",,html-keyboard-response,242,1137760,0.0-17.0-0.4,28369,List1B,white,woman,,,,null,,,,,,,,,
null,"<img src=""stim_listB/touch1.gif""style=""height:400px;""></stim_listB>",,html-keyboard-response,243,1139777,0.0-17.0-1.4,28369,List1B,white,woman,,,,null,,,,,,,,,
null,is touching,,html-keyboard-response,244,1141790,0.0-17.0-2.4,28369,List1B,white,woman,,,,null,,,,,,,,,
3156,,,survey-text,245,1144950,0.0-17.0-3.4,28369,List1B,white,woman,,,,,"{""Q0"":""Kate is touching Mike""}","<img src=""stim_listB/touch1.gif""style=""height:400px;""></stim_listB>",is touching,,,,,,
null,"<div style=""font-size:60px;"">+</div>",,html-keyboard-response,246,1145454,0.0-17.0-0.5,28369,List1B,white,woman,,,,null,,,,,,,,,
null,"<img src=""stim_listB/shout4.gif""style=""height:400px;""></stim_listB>",,html-keyboard-response,247,1147469,0.0-17.0-1.5,28369,List1B,white,woman,,,,null,,,,,,,,,
null,is being shouted at by,,html-keyboard-response,248,1149481,0.0-17.0-2.5,28369,List1B,white,woman,,,,null,,,,,,,,,
7700.2,,,survey-text,249,1157185,0.0-17.0-3.5,28369,List1B,white,woman,,,,,"{""Q0"":""Jane is being shouted at by Dave""}","<img src=""stim_listB/shout4.gif""style=""height:400px;""></stim_listB>",is being shouted at by,,,,,,
null,"<div style=""font-size:60px;"">+</div>",,html-keyboard-response,250,1157692,0.0-17.0-0.6,28369,List1B,white,woman,,,,null,,,,,,,,,
null,"<img src=""stim_listB/copy3.gif""style=""height:400px;""></stim_listB>",,html-keyboard-response,251,1159703,0.0-17.0-1.6,28369,List1B,white,woman,,,,null,,,,,,,,,
null,is copying,,html-keyboard-response,252,1161714,0.0-17.0-2.6,28369,List1B,white,woman,,,,null,,,,,,,,,
5550.2,,,survey-text,253,1167268,0.0-17.0-3.6,28369,List1B,white,woman,,,,,"{""Q0"":""Ruth is copying Dave""}","<img src=""stim_listB/copy3.gif""style=""height:400px;""></stim_listB>",is copying,,,,,,
null,"<div style=""font-size:60px;"">+</div>",,html-keyboard-response,254,1167783,0.0-17.0-0.7,28369,List1B,white,woman,,,,null,,,,,,,,,
null,"<img src=""stim_listB/look6.gif""style=""height:400px;""></stim_listB>",,html-keyboard-response,255,1169797,0.0-17.0-1.7,28369,List1B,white,woman,,,,null,,,,,,,,,
null,is being looked at by,,html-keyboard-response,256,1171812,0.0-17.0-2.7,28369,List1B,white,woman,,,,null,,,,,,,,,
5088.2,,,survey-text,257,1176904,0.0-17.0-3.7,28369,List1B,white,woman,,,,,"{""Q0"":""Mike is being looked at by Dave""}","<img src=""stim_listB/look6.gif""style=""height:400px;""></stim_listB>",is being looked at by,,,,,,
null,"<div style=""font-size:60px;"">+</div>",,html-keyboard-response,258,1177408,0.0-17.0-0.8,28369,List1B,white,woman,,,,null,,,,,,,,,
null,"<img src=""stim_listB/oppose7.gif""style=""height:400px;""></stim_listB>",,html-keyboard-response,259,1179422,0.0-17.0-1.8,28369,List1B,white,woman,,,,null,,,,,,,,,
null,is opposing,,html-keyboard-response,260,1181434,0.0-17.0-2.8,28369,List1B,white,woman,,,,null,,,,,,,,,
4746.4,,,survey-text,261,1186184,0.0-17.0-3.8,28369,List1B,white,woman,,,,,"{""Q0"":""Jane is opposing Kate""}","<img src=""stim_listB/oppose7.gif""style=""height:400px;""></stim_listB>",is opposing,,,,,,
null,"<div style=""font-size:60px;"">+</div>",,html-keyboard-response,262,1186697,0.0-17.0-0.9,28369,List1B,white,woman,,,,null,,,,,,,,,
null,"<img src=""stim_listB/look7.gif""style=""height:400px;""></stim_listB>",,html-keyboard-response,263,1188713,0.0-17.0-1.9,28369,List1B,white,woman,,,,null,,,,,,,,,
null,is looking at,,html-keyboard-response,264,1190728,0.0-17.0-2.9,28369,List1B,white,woman,,,,null,,,,,,,,,
4398.6,,,survey-text,265,1195130,0.0-17.0-3.9,28369,List1B,white,woman,,,,,"{""Q0"":""Ruth is looking at Beth""}","<img src=""stim_listB/look7.gif""style=""height:400px;""></stim_listB>",is looking at,,,,,,
null,"<div style=""font-size:60px;"">+</div>",,html-keyboard-response,266,1195639,0.0-17.0-0.10,28369,List1B,white,woman,,,,null,,,,,,,,,
null,"<img src=""stim_listB/shout1.gif""style=""height:400px;""></stim_listB>",,html-keyboard-response,267,1197655,0.0-17.0-1.10,28369,List1B,white,woman,,,,null,,,,,,,,,
null,is shouting at,,html-keyboard-response,268,1199670,0.0-17.0-2.10,28369,List1B,white,woman,,,,null,,,,,,,,,
4448.8,,,survey-text,269,1204123,0.0-17.0-3.10,28369,List1B,white,woman,,,,,"{""Q0"":""Beth is shouting at Fred""}","<img src=""stim_listB/shout1.gif""style=""height:400px;""></stim_listB>",is shouting at,,,,,,
null,"<div style=""font-size:60px;"">+</div>",,html-keyboard-response,270,1204630,0.0-17.0-0.11,28369,List1B,white,woman,,,,null,,,,,,,,,
null,"<img src=""stim_listB/shout8.gif""style=""height:400px;""></stim_listB>",,html-keyboard-response,271,1206646,0.0-17.0-1.11,28369,List1B,white,woman,,,,null,,,,,,,,,
null,is being shouted at by,,html-keyboard-response,272,1208662,0.0-17.0-2.11,28369,List1B,white,woman,,,,null,,,,,,,,,
8427.6,,,survey-text,273,1217093,0.0-17.0-3.11,28369,List1B,white,woman,,,,,"{""Q0"":""Jane is being shouted at by Kate""}","<img src=""stim_listB/shout8.gif""style=""height:400px;""></stim_listB>",is being shouted at by,,,,,,
null,"<div style=""font-size:60px;"">+</div>",,html-keyboard-response,274,1217602,0.0-17.0-0.12,28369,List1B,white,woman,,,,null,,,,,,,,,
null,"<img src=""stim_listB/shout3.gif""style=""height:400px;""></stim_listB>",,html-keyboard-response,275,1219617,0.0-17.0-1.12,28369,List1B,white,woman,,,,null,,,,,,,,,
null,is shouting at,,html-keyboard-response,276,1221623,0.0-17.0-2.12,28369,List1B,white,woman,,,,null,,,,,,,,,
6128.9,,,survey-text,277,1227755,0.0-17.0-3.12,28369,List1B,white,woman,,,,,"{""Q0"":""Ruth is shouting at Luke""}","<img src=""stim_listB/shout3.gif""style=""height:400px;""></stim_listB>",is shouting at,,,,,,
null,"<div style=""font-size:60px;"">+</div>",,html-keyboard-response,278,1228259,0.0-17.0-0.13,28369,List1B,white,woman,,,,null,,,,,,,,,
null,"<img src=""stim_listB/greet6.gif""style=""height:400px;""></stim_listB>",,html-keyboard-response,279,1230272,0.0-17.0-1.13,28369,List1B,white,woman,,,,null,,,,,,,,,
null,is being greeted by,,html-keyboard-response,280,1232277,0.0-17.0-2.13,28369,List1B,white,woman,,,,null,,,,,,,,,
6964.8,,,survey-text,281,1239245,0.0-17.0-3.13,28369,List1B,white,woman,,,,,"{""Q0"":""Fred is being greeted by Dave""}","<img src=""stim_listB/greet6.gif""style=""height:400px;""></stim_listB>",is being greeted by,,,,,,
null,"<div style=""font-size:60px;"">+</div>",,html-keyboard-response,282,1239749,0.0-17.0-0.14,28369,List1B,white,woman,,,,null,,,,,,,,,
null,"<img src=""stim_listB/challenge3.gif""style=""height:400px;""></stim_listB>",,html-keyboard-response,283,1241763,0.0-17.0-1.14,28369,List1B,white,woman,,,,null,,,,,,,,,
null,is challenging,,html-keyboard-response,284,1243778,0.0-17.0-2.14,28369,List1B,white,woman,,,,null,,,,,,,,,
4784.2,,,survey-text,285,1248566,0.0-17.0-3.14,28369,List1B,white,woman,,,,,"{""Q0"":""Ruth is challenging Dave""}","<img src=""stim_listB/challenge3.gif""style=""height:400px;""></stim_listB>",is challenging,,,,,,
null,"<div style=""font-size:60px;"">+</div>",,html-keyboard-response,286,1249073,0.0-17.0-0.15,28369,List1B,white,woman,,,,null,,,,,,,,,
null,"<img src=""stim_listB/oppose5.gif""style=""height:400px;""></stim_listB>",,html-keyboard-response,287,1251088,0.0-17.0-1.15,28369,List1B,white,woman,,,,null,,,,,,,,,
null,is opposing,,html-keyboard-response,288,1253103,0.0-17.0-2.15,28369,List1B,white,woman,,,,null,,,,,,,,,
4910.9,,,survey-text,289,1258017,0.0-17.0-3.15,28369,List1B,white,woman,,,,,"{""Q0"":""Dave is opposing Mike""}","<img src=""stim_listB/oppose5.gif""style=""height:400px;""></stim_listB>",is opposing,,,,,,
null,"<div style=""font-size:60px;"">+</div>",,html-keyboard-response,290,1258530,0.0-17.0-0.16,28369,List1B,white,woman,,,,null,,,,,,,,,
null,"<img src=""stim_listB/hug3.gif""style=""height:400px;""></stim_listB>",,html-keyboard-response,291,1260545,0.0-17.0-1.16,28369,List1B,white,woman,,,,null,,,,,,,,,
null,is hugging,,html-keyboard-response,292,1262560,0.0-17.0-2.16,28369,List1B,white,woman,,,,null,,,,,,,,,
5582.2,,,survey-text,293,1268144,0.0-17.0-3.16,28369,List1B,white,woman,,,,,"{""Q0"":""Ruth is hugging Luke""}","<img src=""stim_listB/hug3.gif""style=""height:400px;""></stim_listB>",is hugging,,,,,,
null,"<div style=""font-size:60px;"">+</div>",,html-keyboard-response,294,1268654,0.0-17.0-0.17,28369,List1B,white,woman,,,,null,,,,,,,,,
null,"<img src=""stim_listB/touch6.gif""style=""height:400px;""></stim_listB>",,html-keyboard-response,295,1270670,0.0-17.0-1.17,28369,List1B,white,woman,,,,null,,,,,,,,,
null,is being touched by,,html-keyboard-response,296,1272685,0.0-17.0-2.17,28369,List1B,white,woman,,,,null,,,,,,,,,
4765.1,,,survey-text,297,1277453,0.0-17.0-3.17,28369,List1B,white,woman,,,,,"{""Q0"":""Fred is being touched by Luke""}","<img src=""stim_listB/touch6.gif""style=""height:400px;""></stim_listB>",is being touched by,,,,,,
null,"<div style=""font-size:60px;"">+</div>",,html-keyboard-response,298,1277963,0.0-17.0-0.18,28369,List1B,white,woman,,,,null,,,,,,,,,
null,"<img src=""stim_listB/shout2.gif""style=""height:400px;""></stim_listB>",,html-keyboard-response,299,1279971,0.0-17.0-1.18,28369,List1B,white,woman,,,,null,,,,,,,,,
null,is being shouted at by,,html-keyboard-response,300,1281983,0.0-17.0-2.18,28369,List1B,white,woman,,,,null,,,,,,,,,
7000.6,,,survey-text,301,1288986,0.0-17.0-3.18,28369,List1B,white,woman,,,,,"{""Q0"":""Mike is being shouted at by Kate""}","<img src=""stim_listB/shout2.gif""style=""height:400px;""></stim_listB>",is being shouted at by,,,,,,
null,"<div style=""font-size:60px;"">+</div>",,html-keyboard-response,302,1289502,0.0-17.0-0.19,28369,List1B,white,woman,,,,null,,,,,,,,,
null,"<img src=""stim_listB/challenge1.gif""style=""height:400px;""></stim_listB>",,html-keyboard-response,303,1291516,0.0-17.0-1.19,28369,List1B,white,woman,,,,null,,,,,,,,,
null,is challenging,,html-keyboard-response,304,1293533,0.0-17.0-2.19,28369,List1B,white,woman,,,,null,,,,,,,,,
10429.9,,,survey-text,305,1303966,0.0-17.0-3.19,28369,List1B,white,woman,,,,,"{""Q0"":""Fred is challenging Kate""}","<img src=""stim_listB/challenge1.gif""style=""height:400px;""></stim_listB>",is challenging,,,,,,
5019.6,"<img src='img/portrait_matrix_list1.jpg' style='width:900px;height:500px;''></img><p>If you have memorised all the portraits and names and are ready to start, press Continue.</p><p><strong>Please note: Your memory of these faces will be tested 4 times during this experiment.</strong></p>",0,html-button-response,306,1308988,0.0-18.0-0.0,28369,List1B,white,woman,,,,,,,,,,,,,
12293,"<img src=""portrait/WM1.jpg""style=""height:400px;""></img>",6,html-button-response,307,1322296,0.0-18.0-1.0,28369,List1B,white,woman,,TRUE,6,,,,,,,,,,
null,CORRECT,,html-keyboard-response,308,1323819,0.0-18.0-2.0-0.0,28369,List1B,white,woman,,,,null,,,,,,,,,
3053.6,"<img src=""portrait/BW1.jpg""style=""height:400px;""></img>",0,html-button-response,309,1326875,0.0-18.0-4.0,28369,List1B,white,woman,,TRUE,0,,,,,,,,,,
null,CORRECT,,html-keyboard-response,310,1328399,0.0-18.0-5.0-0.0,28369,List1B,white,woman,,,,null,,,,,,,,,
2787.7,"<img src=""portrait/BW2.jpg""style=""height:400px;""></img>",2,html-button-response,311,1331189,0.0-18.0-7.0,28369,List1B,white,woman,,TRUE,2,,,,,,,,,,
null,CORRECT,,html-keyboard-response,312,1332710,0.0-18.0-8.0-0.0,28369,List1B,white,woman,,,,null,,,,,,,,,
1255.4,"<img src=""portrait/WW2.jpg""style=""height:400px;""></img>",3,html-button-response,313,1333967,0.0-18.0-10.0,28369,List1B,white,woman,,TRUE,3,,,,,,,,,,
null,CORRECT,,html-keyboard-response,314,1335493,0.0-18.0-11.0-0.0,28369,List1B,white,woman,,,,null,,,,,,,,,
1078.2,"<img src=""portrait/BM1.jpg""style=""height:400px;""></img>",4,html-button-response,315,1336573,0.0-18.0-13.0,28369,List1B,white,woman,,TRUE,4,,,,,,,,,,
null,CORRECT,,html-keyboard-response,316,1338090,0.0-18.0-14.0-0.0,28369,List1B,white,woman,,,,null,,,,,,,,,
2679.6,"<img src=""portrait/BM2.jpg""style=""height:400px;""></img>",5,html-button-response,317,1340771,0.0-18.0-16.0,28369,List1B,white,woman,,TRUE,5,,,,,,,,,,
null,CORRECT,,html-keyboard-response,318,1342302,0.0-18.0-17.0-0.0,28369,List1B,white,woman,,,,null,,,,,,,,,
1308.5,"<img src=""portrait/WM2.jpg""style=""height:400px;""></img>",7,html-button-response,319,1343613,0.0-18.0-19.0,28369,List1B,white,woman,,TRUE,7,,,,,,,,,,
null,CORRECT,,html-keyboard-response,320,1345133,0.0-18.0-20.0-0.0,28369,List1B,white,woman,,,,null,,,,,,,,,
2460.5,"<img src=""portrait/WW1.jpg""style=""height:400px;""></img>",1,html-button-response,321,1347596,0.0-18.0-22.0,28369,List1B,white,woman,,TRUE,1,,,,,,,,,,
null,CORRECT,,html-keyboard-response,322,1349129,0.0-18.0-23.0-0.0,28369,List1B,white,woman,,,,null,,,,,,,,,
1204.1,<p>You got 8 out of 8 right first time. Press Continue.</p>,0,html-button-response,323,1350336,0.0-18.0-25.0,28369,List1B,white,woman,,,,,,,,,,,,,
null,"<div style=""font-size:60px;"">+</div>",,html-keyboard-response,324,1351860,0.0-19.0-0.0,28369,List1B,white,woman,,,,null,,,,,,,,,
null,"<img src=""stim_listB/seduce2.gif""style=""height:400px;""></stim_listB>",,html-keyboard-response,325,1353874,0.0-19.0-1.0,28369,List1B,white,woman,,,,null,,,,,,,,,
null,is being seduced by,,html-keyboard-response,326,1355891,0.0-19.0-2.0,28369,List1B,white,woman,,,,null,,,,,,,,,
19804.3,,,survey-text,327,1375704,0.0-19.0-3.0,28369,List1B,white,woman,,,,,"{""Q0"":""Mike is being seduced by Beth""}","<img src=""stim_listB/seduce2.gif""style=""height:400px;""></stim_listB>",is being seduced by,,,,,,
null,"<div style=""font-size:60px;"">+</div>",,html-keyboard-response,328,1376206,0.0-19.0-0.1,28369,List1B,white,woman,,,,null,,,,,,,,,
null,"<img src=""stim_listB/greet4.gif""style=""height:400px;""></stim_listB>",,html-keyboard-response,329,1378222,0.0-19.0-1.1,28369,List1B,white,woman,,,,null,,,,,,,,,
null,is being greeted by,,html-keyboard-response,330,1380238,0.0-19.0-2.1,28369,List1B,white,woman,,,,null,,,,,,,,,
6483.8,,,survey-text,331,1386726,0.0-19.0-3.1,28369,List1B,white,woman,,,,,"{""Q0"":""Jane is being greeted by Luke""}","<img src=""stim_listB/greet4.gif""style=""height:400px;""></stim_listB>",is being greeted by,,,,,,
null,"<div style=""font-size:60px;"">+</div>",,html-keyboard-response,332,1387237,0.0-19.0-0.2,28369,List1B,white,woman,,,,null,,,,,,,,,
null,"<img src=""stim_listB/copy6.gif""style=""height:400px;""></stim_listB>",,html-keyboard-response,333,1389256,0.0-19.0-1.2,28369,List1B,white,woman,,,,null,,,,,,,,,
null,is being copied by,,html-keyboard-response,334,1391261,0.0-19.0-2.2,28369,List1B,white,woman,,,,null,,,,,,,,,
4953.3,,,survey-text,335,1396218,0.0-19.0-3.2,28369,List1B,white,woman,,,,,"{""Q0"":""Dave is being copied by Fred""}","<img src=""stim_listB/copy6.gif""style=""height:400px;""></stim_listB>",is being copied by,,,,,,
null,"<div style=""font-size:60px;"">+</div>",,html-keyboard-response,336,1396732,0.0-19.0-0.3,28369,List1B,white,woman,,,,null,,,,,,,,,
null,"<img src=""stim_listB/greet8.gif""style=""height:400px;""></stim_listB>",,html-keyboard-response,337,1398750,0.0-19.0-1.3,28369,List1B,white,woman,,,,null,,,,,,,,,
null,is being greeted by,,html-keyboard-response,338,1400756,0.0-19.0-2.3,28369,List1B,white,woman,,,,null,,,,,,,,,
5538,,,survey-text,339,1406298,0.0-19.0-3.3,28369,List1B,white,woman,,,,,"{""Q0"":""Jane is being greeted by Beth""}","<img src=""stim_listB/greet8.gif""style=""height:400px;""></stim_listB>",is being greeted by,,,,,,
null,"<div style=""font-size:60px;"">+</div>",,html-keyboard-response,340,1406802,0.0-19.0-0.4,28369,List1B,white,woman,,,,null,,,,,,,,,
null,"<img src=""stim_listB/kiss8.gif""style=""height:400px;""></stim_listB>",,html-keyboard-response,341,1408817,0.0-19.0-1.4,28369,List1B,white,woman,,,,null,,,,,,,,,
null,is being kissed by,,html-keyboard-response,342,1410830,0.0-19.0-2.4,28369,List1B,white,woman,,,,null,,,,,,,,,
11958.1,,,survey-text,343,1422793,0.0-19.0-3.4,28369,List1B,white,woman,,,,,"{""Q0"":""Jane is kissing Kate""}","<img src=""stim_listB/kiss8.gif""style=""height:400px;""></stim_listB>",is being kissed by,,,,,,
null,"<div style=""font-size:60px;"">+</div>",,html-keyboard-response,344,1423297,0.0-19.0-0.5,28369,List1B,white,woman,,,,null,,,,,,,,,
null,"<img src=""stim_listB/hug5.gif""style=""height:400px;""></stim_listB>",,html-keyboard-response,345,1425308,0.0-19.0-1.5,28369,List1B,white,woman,,,,null,,,,,,,,,
null,is hugging,,html-keyboard-response,346,1427313,0.0-19.0-2.5,28369,List1B,white,woman,,,,null,,,,,,,,,
5649.7,,,survey-text,347,1432966,0.0-19.0-3.5,28369,List1B,white,woman,,,,,"{""Q0"":""Luke is hugging fred""}","<img src=""stim_listB/hug5.gif""style=""height:400px;""></stim_listB>",is hugging,,,,,,
null,"<div style=""font-size:60px;"">+</div>",,html-keyboard-response,348,1433469,0.0-19.0-0.6,28369,List1B,white,woman,,,,null,,,,,,,,,
null,"<img src=""stim_listB/kiss6.gif""style=""height:400px;""></stim_listB>",,html-keyboard-response,349,1435485,0.0-19.0-1.6,28369,List1B,white,woman,,,,null,,,,,,,,,
null,is being kissed by,,html-keyboard-response,350,1437499,0.0-19.0-2.6,28369,List1B,white,woman,,,,null,,,,,,,,,
5763.4,,,survey-text,351,1443267,0.0-19.0-3.6,28369,List1B,white,woman,,,,,"{""Q0"":""Dave is being kissed by Mike""}","<img src=""stim_listB/kiss6.gif""style=""height:400px;""></stim_listB>",is being kissed by,,,,,,
null,"<div style=""font-size:60px;"">+</div>",,html-keyboard-response,352,1443769,0.0-19.0-0.7,28369,List1B,white,woman,,,,null,,,,,,,,,
null,"<img src=""stim_listB/seduce3.gif""style=""height:400px;""></stim_listB>",,html-keyboard-response,353,1445780,0.0-19.0-1.7,28369,List1B,white,woman,,,,null,,,,,,,,,
null,is seducing,,html-keyboard-response,354,1447789,0.0-19.0-2.7,28369,List1B,white,woman,,,,null,,,,,,,,,
4338.8,,,survey-text,355,1452131,0.0-19.0-3.7,28369,List1B,white,woman,,,,,"{""Q0"":""Jane is seducing Luke""}","<img src=""stim_listB/seduce3.gif""style=""height:400px;""></stim_listB>",is seducing,,,,,,
null,"<div style=""font-size:60px;"">+</div>",,html-keyboard-response,356,1452637,0.0-19.0-0.8,28369,List1B,white,woman,,,,null,,,,,,,,,
null,"<img src=""stim_listB/challenge7.gif""style=""height:400px;""></stim_listB>",,html-keyboard-response,357,1454640,0.0-19.0-1.8,28369,List1B,white,woman,,,,null,,,,,,,,,
null,is challenging,,html-keyboard-response,358,1456649,0.0-19.0-2.8,28369,List1B,white,woman,,,,null,,,,,,,,,
3695.6,,,survey-text,359,1460348,0.0-19.0-3.8,28369,List1B,white,woman,,,,,"{""Q0"":""Kate is challenging Ruth""}","<img src=""stim_listB/challenge7.gif""style=""height:400px;""></stim_listB>",is challenging,,,,,,
null,"<div style=""font-size:60px;"">+</div>",,html-keyboard-response,360,1460859,0.0-19.0-0.9,28369,List1B,white,woman,,,,null,,,,,,,,,
null,"<img src=""stim_listB/challenge8.gif""style=""height:400px;""></stim_listB>",,html-keyboard-response,361,1462864,0.0-19.0-1.9,28369,List1B,white,woman,,,,null,,,,,,,,,
null,is being challenged by,,html-keyboard-response,362,1464891,0.0-19.0-2.9,28369,List1B,white,woman,,,,null,,,,,,,,,
5743.7,,,survey-text,363,1470637,0.0-19.0-3.9,28369,List1B,white,woman,,,,,"{""Q0"":""Beth is challenging Kate""}","<img src=""stim_listB/challenge8.gif""style=""height:400px;""></stim_listB>",is being challenged by,,,,,,
null,"<div style=""font-size:60px;"">+</div>",,html-keyboard-response,364,1471142,0.0-19.0-0.10,28369,List1B,white,woman,,,,null,,,,,,,,,
null,"<img src=""stim_listB/touch5.gif""style=""height:400px;""></stim_listB>",,html-keyboard-response,365,1473155,0.0-19.0-1.10,28369,List1B,white,woman,,,,null,,,,,,,,,
null,is touching,,html-keyboard-response,366,1475158,0.0-19.0-2.10,28369,List1B,white,woman,,,,null,,,,,,,,,
5418.1,,,survey-text,367,1480579,0.0-19.0-3.10,28369,List1B,white,woman,,,,,"{""Q0"":""Mike is touching Dave""}","<img src=""stim_listB/touch5.gif""style=""height:400px;""></stim_listB>",is touching,,,,,,
null,"<div style=""font-size:60px;"">+</div>",,html-keyboard-response,368,1481091,0.0-19.0-0.11,28369,List1B,white,woman,,,,null,,,,,,,,,
null,"<img src=""stim_listB/copy8.gif""style=""height:400px;""></stim_listB>",,html-keyboard-response,369,1483105,0.0-19.0-1.11,28369,List1B,white,woman,,,,null,,,,,,,,,
null,is being copied by,,html-keyboard-response,370,1485108,0.0-19.0-2.11,28369,List1B,white,woman,,,,null,,,,,,,,,
5677.7,,,survey-text,371,1490789,0.0-19.0-3.11,28369,List1B,white,woman,,,,,"{""Q0"":""Jane is being copied by Beth""}","<img src=""stim_listB/copy8.gif""style=""height:400px;""></stim_listB>",is being copied by,,,,,,
null,"<div style=""font-size:60px;"">+</div>",,html-keyboard-response,372,1491302,0.0-19.0-0.12,28369,List1B,white,woman,,,,null,,,,,,,,,
null,"<img src=""stim_listB/hug2.gif""style=""height:400px;""></stim_listB>",,html-keyboard-response,373,1493313,0.0-19.0-1.12,28369,List1B,white,woman,,,,null,,,,,,,,,
null,is being hugged by,,html-keyboard-response,374,1495323,0.0-19.0-2.12,28369,List1B,white,woman,,,,null,,,,,,,,,
5504.8,,,survey-text,375,1500831,0.0-19.0-3.12,28369,List1B,white,woman,,,,,"{""Q0"":""Kate is being hugged by Mike""}","<img src=""stim_listB/hug2.gif""style=""height:400px;""></stim_listB>",is being hugged by,,,,,,
null,"<div style=""font-size:60px;"">+</div>",,html-keyboard-response,376,1501346,0.0-19.0-0.13,28369,List1B,white,woman,,,,null,,,,,,,,,
null,"<img src=""stim_listB/look4.gif""style=""height:400px;""></stim_listB>",,html-keyboard-response,377,1503359,0.0-19.0-1.13,28369,List1B,white,woman,,,,null,,,,,,,,,
null,is being looked at by,,html-keyboard-response,378,1505361,0.0-19.0-2.13,28369,List1B,white,woman,,,,null,,,,,,,,,
9262.7,,,survey-text,379,1514627,0.0-19.0-3.13,28369,List1B,white,woman,,,,,"{""Q0"":""Dave is being looked at by Jane""}","<img src=""stim_listB/look4.gif""style=""height:400px;""></stim_listB>",is being looked at by,,,,,,
null,"<div style=""font-size:60px;"">+</div>",,html-keyboard-response,380,1515131,0.0-19.0-0.14,28369,List1B,white,woman,,,,null,,,,,,,,,
null,"<img src=""stim_listB/look1.gif""style=""height:400px;""></stim_listB>",,html-keyboard-response,381,1517139,0.0-19.0-1.14,28369,List1B,white,woman,,,,null,,,,,,,,,
null,is looking at,,html-keyboard-response,382,1519144,0.0-19.0-2.14,28369,List1B,white,woman,,,,null,,,,,,,,,
3476.1,,,survey-text,383,1522624,0.0-19.0-3.14,28369,List1B,white,woman,,,,,"{""Q0"":""Fred is looking at Beth""}","<img src=""stim_listB/look1.gif""style=""height:400px;""></stim_listB>",is looking at,,,,,,
null,"<div style=""font-size:60px;"">+</div>",,html-keyboard-response,384,1523131,0.0-19.0-0.15,28369,List1B,white,woman,,,,null,,,,,,,,,
null,"<img src=""stim_listB/shout6.gif""style=""height:400px;""></stim_listB>",,html-keyboard-response,385,1525144,0.0-19.0-1.15,28369,List1B,white,woman,,,,null,,,,,,,,,
null,is being shouted at by,,html-keyboard-response,386,1527147,0.0-19.0-2.15,28369,List1B,white,woman,,,,null,,,,,,,,,
5099.7,,,survey-text,387,1532250,0.0-19.0-3.15,28369,List1B,white,woman,,,,,"{""Q0"":""Mike is being shouted at by Dave""}","<img src=""stim_listB/shout6.gif""style=""height:400px;""></stim_listB>",is being shouted at by,,,,,,
null,"<div style=""font-size:60px;"">+</div>",,html-keyboard-response,388,1532762,0.0-19.0-0.16,28369,List1B,white,woman,,,,null,,,,,,,,,
null,"<img src=""stim_listB/copy4.gif""style=""height:400px;""></stim_listB>",,html-keyboard-response,389,1534768,0.0-19.0-1.16,28369,List1B,white,woman,,,,null,,,,,,,,,
null,is being copied by,,html-keyboard-response,390,1536781,0.0-19.0-2.16,28369,List1B,white,woman,,,,null,,,,,,,,,
4836.3,,,survey-text,391,1541631,0.0-19.0-3.16,28369,List1B,white,woman,,,,,"{""Q0"":""Luke is being copied by Jane""}","<img src=""stim_listB/copy4.gif""style=""height:400px;""></stim_listB>",is being copied by,,,,,,
null,"<div style=""font-size:60px;"">+</div>",,html-keyboard-response,392,1542136,0.0-19.0-0.17,28369,List1B,white,woman,,,,null,,,,,,,,,
null,"<img src=""stim_listB/kiss4.gif""style=""height:400px;""></stim_listB>",,html-keyboard-response,393,1544140,0.0-19.0-1.17,28369,List1B,white,woman,,,,null,,,,,,,,,
null,is being kissed by,,html-keyboard-response,394,1546144,0.0-19.0-2.17,28369,List1B,white,woman,,,,null,,,,,,,,,
4577.1,,,survey-text,395,1550725,0.0-19.0-3.17,28369,List1B,white,woman,,,,,"{""Q0"":""Jane is being kissed by Dave""}","<img src=""stim_listB/kiss4.gif""style=""height:400px;""></stim_listB>",is being kissed by,,,,,,
null,"<div style=""font-size:60px;"">+</div>",,html-keyboard-response,396,1551234,0.0-19.0-0.18,28369,List1B,white,woman,,,,null,,,,,,,,,
null,"<img src=""stim_listB/touch3.gif""style=""height:400px;""></stim_listB>",,html-keyboard-response,397,1553252,0.0-19.0-1.18,28369,List1B,white,woman,,,,null,,,,,,,,,
null,is touching,,html-keyboard-response,398,1555258,0.0-19.0-2.18,28369,List1B,white,woman,,,,null,,,,,,,,,
3424.4,,,survey-text,399,1558685,0.0-19.0-3.18,28369,List1B,white,woman,,,,,"{""Q0"":""Jane is touching Dave""}","<img src=""stim_listB/touch3.gif""style=""height:400px;""></stim_listB>",is touching,,,,,,
null,"<div style=""font-size:60px;"">+</div>",,html-keyboard-response,400,1559200,0.0-19.0-0.19,28369,List1B,white,woman,,,,null,,,,,,,,,
null,"<img src=""stim_listB/greet1.gif""style=""height:400px;""></stim_listB>",,html-keyboard-response,401,1561218,0.0-19.0-1.19,28369,List1B,white,woman,,,,null,,,,,,,,,
null,is greeting,,html-keyboard-response,402,1563223,0.0-19.0-2.19,28369,List1B,white,woman,,,,null,,,,,,,,,
3293.4,,,survey-text,403,1566519,0.0-19.0-3.19,28369,List1B,white,woman,,,,,"{""Q0"":""Beth is greeting Mike""}","<img src=""stim_listB/greet1.gif""style=""height:400px;""></stim_listB>",is greeting,,,,,,
2066.9,<p>Thank you for completing that task.</p><p>The final part of this session is a questionnaire that will take about 4 minutes.</p><p>Press Continue.</p>,0,html-button-response,404,1568587,0.0-20.0,28369,List1B,white,woman,,,,,,,,,,,,,
17272.5,,,survey-text,405,1586871,0.0-21.0,28369,List1B,white,woman,,,,,"{""Q0"":""19"",""Q1"":""English"",""Q2"":""Englih"",""Q3"":""USA"",""Q4"":""American"",""Q5"":""White"",""Q6"":""Woman""}",,,demographics,,,,,
1362.5,<p>Have you lived in the USA for the last 5 years or more?</p>,0,html-button-response,406,1588236,0.0-22.0,28369,List1B,white,woman,,,,,,,,fiveyears,,,,,
1541,<p>Move the slider to show the extent to which you agree with the following statements.</p>,0,html-button-response,407,1590794,0.0-23.0,28369,List1B,white,woman,,,,,,,,,,,,,
4150.6,,,html-slider-response,408,1595959,0.0-24.0-0.0-0.0,28369,List1B,white,woman,,,,,,,,survey_gender,89,,,I am glad to be my gender.,glad
3396.6,,,html-slider-response,409,1599359,0.0-24.0-0.0-0.1,28369,List1B,white,woman,,,,,,,,survey_gender,92,,,Being my gender is an important part of how I see myself.,important
11443.6,,,html-slider-response,410,1610805,0.0-24.0-0.0-0.2,28369,List1B,white,woman,,,,,,,,survey_gender,37,,,People of my gender are very similar to each other.,verysimilar
3654.9,,,html-slider-response,411,1614462,0.0-24.0-0.0-0.3,28369,List1B,white,woman,,,,,,,,survey_gender,69,,,I am similar to the average person of my gender.,similar
7394.3,,,html-slider-response,412,1621858,0.0-24.0-0.0-0.4,28369,List1B,white,woman,,,,,,,,survey_gender,91,,,I would say I am an animal person.,filler
3635.1,,,html-slider-response,413,1625496,0.0-24.0-0.0-0.5,28369,List1B,white,woman,,,,,,,,survey_gender,84,,,I often think about my actions.,filler
3157.8,,,html-slider-response,414,1628656,0.0-24.0-0.0-0.6,28369,List1B,white,woman,,,,,,,,survey_gender,83,,,Being my gender gives me a good feeling.,feeling
5532,,,html-slider-response,415,1634190,0.0-24.0-0.0-0.7,28369,List1B,white,woman,,,,,,,,survey_gender,58,,,Most of the friends in my life are very similar to me.,filler
1973.3,,,html-slider-response,416,1636165,0.0-24.0-0.0-0.8,28369,List1B,white,woman,,,,,,,,survey_gender,61,,,I feel a bond with my friends.,filler
3684.5,,,html-slider-response,417,1639851,0.0-24.0-0.0-0.9,28369,List1B,white,woman,,,,,,,,survey_gender,34,,,Routine is not important to me.,filler
2487.9,,,html-slider-response,418,1642340,0.0-24.0-0.0-0.10,28369,List1B,white,woman,,,,,,,,survey_gender,68,,,I consider myself a highly empathetic person.,filler
3781.2,,,html-slider-response,419,1646124,0.0-24.0-0.0-0.11,28369,List1B,white,woman,,,,,,,,survey_gender,83,,,I often think about the fact that I am my gender.,often
5241.8,,,html-slider-response,420,1651368,0.0-24.0-0.0-0.12,28369,List1B,white,woman,,,,,,,,survey_gender,62,,,It is not always easy for people to know what I am thinking.,filler
3640.7,,,html-slider-response,421,1655012,0.0-24.0-0.0-0.13,28369,List1B,white,woman,,,,,,,,survey_gender,72,,,I have a lot in common with the average person of my gender.,average
2333.2,,,html-slider-response,422,1657347,0.0-24.0-0.0-0.14,28369,List1B,white,woman,,,,,,,,survey_gender,61,,,I feel solidarity with my friends.,filler
3312.3,,,html-slider-response,423,1660661,0.0-24.0-0.0-0.15,28369,List1B,white,woman,,,,,,,,survey_gender,63,,,Being around my friends gives me a good feeling.,filler
2718.4,,,html-slider-response,424,1663381,0.0-24.0-0.0-0.16,28369,List1B,white,woman,,,,,,,,survey_gender,59,,,My friends have a lot in common with each other.,filler
6354.2,,,html-slider-response,425,1669738,0.0-24.0-0.0-0.17,28369,List1B,white,woman,,,,,,,,survey_gender,51,,,Family is not more important to me than friendship.,filler
2006.3,,,html-slider-response,426,1671747,0.0-24.0-0.0-0.18,28369,List1B,white,woman,,,,,,,,survey_gender,62,,,I have a lot in common with my friends.,filler
2077.5,,,html-slider-response,427,1673826,0.0-24.0-0.0-0.19,28369,List1B,white,woman,,,,,,,,survey_gender,55,,,My friends understand me.,filler
3121.3,,,html-slider-response,428,1676950,0.0-24.0-0.0-0.20,28369,List1B,white,woman,,,,,,,,survey_gender,77,,,It is pleasant to be my gender.,pleasant
2502.2,,,html-slider-response,429,1679455,0.0-24.0-0.0-0.21,28369,List1B,white,woman,,,,,,,,survey_gender,90,,,I feel a bond with my gender.,bond
2372.7,,,html-slider-response,430,1681831,0.0-24.0-0.0-0.22,28369,List1B,white,woman,,,,,,,,survey_gender,90,,,I think that my gender has a lot to be proud of.,proud
1904.4,,,html-slider-response,431,1683737,0.0-24.0-0.0-0.23,28369,List1B,white,woman,,,,,,,,survey_gender,79,,,I feel solidarity with my gender.,solidarity
2377.4,,,html-slider-response,432,1686115,0.0-24.0-0.0-0.24,28369,List1B,white,woman,,,,,,,,survey_gender,94,,,The fact that I am my gender is an important part of my identity.,identity
3096.2,,,html-slider-response,433,1689214,0.0-24.0-0.0-0.25,28369,List1B,white,woman,,,,,,,,survey_gender,59,,,I am glad to have the friends that I have.,filler
3583.5,,,html-slider-response,434,1692800,0.0-24.0-0.0-0.26,28369,List1B,white,woman,,,,,,,,survey_gender,62,,,I feel committed to my gender.,committed
3938.8,,,html-slider-response,435,1696741,0.0-24.0-0.0-0.27,28369,List1B,white,woman,,,,,,,,survey_gender,32,,,People of my gender have a lot in common with each other.,common
5233.2,,,html-slider-response,436,1701978,0.0-24.0-1.0-0.0,28369,List1B,white,woman,,,,,,,,survey_race,84,,,I often think about the fact that I am my race.,often
3785.2,,,html-slider-response,437,1705765,0.0-24.0-1.0-0.1,28369,List1B,white,woman,,,,,,,,survey_race,66,,,I am similar to the average person of my race.,similar
2972.3,,,html-slider-response,438,1708739,0.0-24.0-1.0-0.2,28369,List1B,white,woman,,,,,,,,survey_race,21,,,I enjoy being in large groups.,filler
4314.6,,,html-slider-response,439,1713057,0.0-24.0-1.0-0.3,28369,List1B,white,woman,,,,,,,,survey_race,59,,,The fact that I am my race is an important part of my identity.,identity
2964.4,,,html-slider-response,440,1716023,0.0-24.0-1.0-0.4,28369,List1B,white,woman,,,,,,,,survey_race,58,,,Being my race is an important part of how I see myself.,important
4217,,,html-slider-response,441,1720242,0.0-24.0-1.0-0.5,28369,List1B,white,woman,,,,,,,,survey_race,28,,,My age is not an important part of who I am.,filler
14380,,,html-slider-response,442,1734625,0.0-24.0-1.0-0.6,28369,List1B,white,woman,,,,,,,,survey_race,54,,,I am glad to be my race.,glad
73765.4,,,html-slider-response,443,1808394,0.0-24.0-1.0-0.7,28369,List1B,white,woman,,,,,,,,survey_race,46,,,I feel a bond with my race.,bond
2403.3,,,html-slider-response,444,1810801,0.0-24.0-1.0-0.8,28369,List1B,white,woman,,,,,,,,survey_race,60,,,People of my race have a lot in common with each other.,common
4855,,,html-slider-response,445,1815659,0.0-24.0-1.0-0.9,28369,List1B,white,woman,,,,,,,,survey_race,32,,,Being my race gives me a good feeling.,feeling
3562.6,,,html-slider-response,446,1819223,0.0-24.0-1.0-0.10,28369,List1B,white,woman,,,,,,,,survey_race,62,,,I have a lot in common with people of a similar age to me.,filler
4318.4,,,html-slider-response,447,1823544,0.0-24.0-1.0-0.11,28369,List1B,white,woman,,,,,,,,survey_race,13,,,I consider myself an extrovert.,filler
3682.2,,,html-slider-response,448,1827229,0.0-24.0-1.0-0.12,28369,List1B,white,woman,,,,,,,,survey_race,87,,,I often think about the fact that I am my age.,filler
212762.9,,,html-slider-response,449,2039994,0.0-24.0-1.0-0.13,28369,List1B,white,woman,,,,,,,,survey_race,72,,,I feel solidarity with people the same age as me.,filler
6191.1,,,html-slider-response,450,2046187,0.0-24.0-1.0-0.14,28369,List1B,white,woman,,,,,,,,survey_race,86,,,I am glad to be my age.,filler
5024.4,,,html-slider-response,451,2051214,0.0-24.0-1.0-0.15,28369,List1B,white,woman,,,,,,,,survey_race,58,,,I have a lot in common with the average person of my race.,average
2430.6,,,html-slider-response,452,2053646,0.0-24.0-1.0-0.16,28369,List1B,white,woman,,,,,,,,survey_race,74,,,I am glad to be the age I am.,filler
1956.8,,,html-slider-response,453,2055604,0.0-24.0-1.0-0.17,28369,List1B,white,woman,,,,,,,,survey_race,74,,,I feel a bond with people the same age as me.,filler
5016.8,,,html-slider-response,454,2060622,0.0-24.0-1.0-0.18,28369,List1B,white,woman,,,,,,,,survey_race,41,,,Getting older does not worry me.,filler
3512.2,,,html-slider-response,455,2064136,0.0-24.0-1.0-0.19,28369,List1B,white,woman,,,,,,,,survey_race,67,,,Being my age gives me a good feeling.,filler
3697.9,,,html-slider-response,456,2067837,0.0-24.0-1.0-0.20,28369,List1B,white,woman,,,,,,,,survey_race,89,,,I consider myself an introvert.,filler
2528.8,,,html-slider-response,457,2070368,0.0-24.0-1.0-0.21,28369,List1B,white,woman,,,,,,,,survey_race,65,,,"The older I get, the wiser I feel.",filler
5568,,,html-slider-response,458,2075937,0.0-24.0-1.0-0.22,28369,List1B,white,woman,,,,,,,,survey_race,50,,,I think that my race has a lot to be proud of.,proud
3267.4,,,html-slider-response,459,2079207,0.0-24.0-1.0-0.23,28369,List1B,white,woman,,,,,,,,survey_race,42,,,I feel solidarity with my race.,solidarity
3438.8,,,html-slider-response,460,2082648,0.0-24.0-1.0-0.24,28369,List1B,white,woman,,,,,,,,survey_race,57,,,It is pleasant to be my race.,pleasant
188555.6,,,html-slider-response,461,2271206,0.0-24.0-1.0-0.25,28369,List1B,white,woman,,,,,,,,survey_race,58,,,People my age have a lot in common with each other.,filler
2918.5,,,html-slider-response,462,2274127,0.0-24.0-1.0-0.26,28369,List1B,white,woman,,,,,,,,survey_race,57,,,People of my race are very similar to each other.,verysimilar
2192.8,,,html-slider-response,463,2276321,0.0-24.0-1.0-0.27,28369,List1B,white,woman,,,,,,,,survey_race,44,,,I feel committed to my race.,committed
3090.5,,,survey-text,464,2279415,0.0-25.0,28369,List1B,white,woman,,,,,"{""Q0"":""ccc""}",,,worker_id,,,,,
23373.4,,,external-html,465,2303548,0.0-26.0,28369,List1B,white,woman,debrief.html,,,,,,,,,,,,
