"rt","stimulus","button_pressed","trial_type","trial_index","time_elapsed","internal_node_id","subject","list","ppt_race","ppt_gender","url","first_guess","correct","key_press","responses","image_type","phrase_type","test_part","response","stimulus1","stimulus2","question_type","survey_item"
"17727.10000000149","Welcome to the experiment. Press Continue to begin.","0","html-button-response","0","17730","0.0-0.0","28428","List1B","black","woman","","","","","","","","","","","","",""
"112325.89999999851","","","external-html","1","131317","0.0-1.0","28428","List1B","black","woman","consent.html","","","","","","","","","","","",""
"9635","<p>On the next page, you will see portraits of 8 people and their names.</p><p>Your first task is to take a few minutes to memorise the names of these people.</p><p>You will have to recall their names during the rest of the experiment, so it is</p><p>essential that you try to memorise these people and their names as best as you can.</p><br><p><strong>You will then be tested on your memory of these names and portraits.</strong></p><br><p>The experiment will start after you have completed this memory test.</p><br><p>Ready?</p>","0","html-button-response","2","140953","0.0-2.0","28428","List1B","black","woman","","","","","","","","","","","","",""
"222975.79999999702","<img src='img/portrait_matrix_list1.jpg' style='width:900px;height:500px;''></img><p>If you have memorised all the portraits and names and are ready to start, press Continue.</p><p><strong>Please note: Your memory of these faces will be tested 4 times during this experiment.</strong></p>","0","html-button-response","3","364931","0.0-3.0-0.0","28428","List1B","black","woman","","","","","","","","","","","","",""
"5569.80000000447","<img src=""portrait/BW1.jpg""style=""height:400px;""></img>","0","html-button-response","4","371505","0.0-3.0-1.0","28428","List1B","black","woman","","true","0","","","","","","","","","",""
"null","CORRECT","","html-keyboard-response","5","373016","0.0-3.0-2.0-0.0","28428","List1B","black","woman","","","","null","","","","","","","","",""
"2775.6999999955297","<img src=""portrait/BM2.jpg""style=""height:400px;""></img>","5","html-button-response","6","375793","0.0-3.0-4.0","28428","List1B","black","woman","","true","5","","","","","","","","","",""
"null","CORRECT","","html-keyboard-response","7","377312","0.0-3.0-5.0-0.0","28428","List1B","black","woman","","","","null","","","","","","","","",""
"2062.5","<img src=""portrait/BM1.jpg""style=""height:400px;""></img>","4","html-button-response","8","379376","0.0-3.0-7.0","28428","List1B","black","woman","","true","4","","","","","","","","","",""
"null","CORRECT","","html-keyboard-response","9","380900","0.0-3.0-8.0-0.0","28428","List1B","black","woman","","","","null","","","","","","","","",""
"2265.7999999970198","<img src=""portrait/WM2.jpg""style=""height:400px;""></img>","7","html-button-response","10","383167","0.0-3.0-10.0","28428","List1B","black","woman","","true","7","","","","","","","","","",""
"null","CORRECT","","html-keyboard-response","11","384693","0.0-3.0-11.0-0.0","28428","List1B","black","woman","","","","null","","","","","","","","",""
"2508.2000000029802","<img src=""portrait/BW2.jpg""style=""height:400px;""></img>","2","html-button-response","12","387203","0.0-3.0-13.0","28428","List1B","black","woman","","true","2","","","","","","","","","",""
"null","CORRECT","","html-keyboard-response","13","388707","0.0-3.0-14.0-0.0","28428","List1B","black","woman","","","","null","","","","","","","","",""
"9928.19999999553","<img src=""portrait/WM1.jpg""style=""height:400px;""></img>","6","html-button-response","14","398637","0.0-3.0-16.0","28428","List1B","black","woman","","true","6","","","","","","","","","",""
"null","CORRECT","","html-keyboard-response","15","400139","0.0-3.0-17.0-0.0","28428","List1B","black","woman","","","","null","","","","","","","","",""
"2821.2999999970198","<img src=""portrait/WW2.jpg""style=""height:400px;""></img>","3","html-button-response","16","402961","0.0-3.0-19.0","28428","List1B","black","woman","","true","3","","","","","","","","","",""
"null","CORRECT","","html-keyboard-response","17","404470","0.0-3.0-20.0-0.0","28428","List1B","black","woman","","","","null","","","","","","","","",""
"2013.8999999985099","<img src=""portrait/WW1.jpg""style=""height:400px;""></img>","1","html-button-response","18","406485","0.0-3.0-22.0","28428","List1B","black","woman","","true","1","","","","","","","","","",""
"null","CORRECT","","html-keyboard-response","19","407987","0.0-3.0-23.0-0.0","28428","List1B","black","woman","","","","null","","","","","","","","",""
"1269.7999999970198","<p>You got 8 out of 8 right first time. Press Continue.</p>","0","html-button-response","20","409259","0.0-3.0-25.0","28428","List1B","black","woman","","","","","","","","","","","","",""
"33887.30000000447","<p>In this experiment, you will view photographs of the people from the memory game interacting.</p><p>By using the <strong>exact</strong> phrase given <i>after</i> the photograph appears and recalling the correct names of the people in the photographs, form a sentence describing the interaction. You do not need to capitalise names.</p><p>Type your answer in the space provided. Please complete every sentence before moving onto the next trial.</p><p>You will only have a few seconds to memorise each given photograph and phrase before you can respond, so try your best to focus.</p><p>An example is given below. Press 'Continue' when you are ready.</p><img src='img/speaking_example.jpg' style='width:800px;height:460px;''></img>","0","html-button-response","21","444157","0.0-4.0","28428","List1B","black","woman","","","","","","","","","","","","",""
"1975.5","<p>Before the experiment starts, you will watch two example trials. Press 'Continue'.</p>","0","html-button-response","22","447143","0.0-5.0","28428","List1B","black","woman","","","","","","","","","","","","",""
"null","<img src='img/play_eg.gif' style='height:400px;''></img>","","html-keyboard-response","23","450166","0.0-6.0","28428","List1B","black","woman","","","","null","","","","","","","","",""
"null","<p>is playing with</p>","","html-keyboard-response","24","452171","0.0-7.0","28428","List1B","black","woman","","","","null","","","","","","","","",""
"1776.6000000014901","<p><b>Answer:</b> kate is playing with beth</p>","0","html-button-response","25","453949","0.0-8.0","28428","List1B","black","woman","","","","","","","","","","","","",""
"null","<img src='img/dance_eg.gif' style='height:400px;''></img>","","html-keyboard-response","26","456967","0.0-9.0","28428","List1B","black","woman","","","","null","","","","","","","","",""
"null","<p>is being entertained by</p>","","html-keyboard-response","27","458977","0.0-10.0","28428","List1B","black","woman","","","","null","","","","","","","","",""
"3020.10000000149","<p><b>Answer:</b> luke is being entertained by dave</p>","0","html-button-response","28","461997","0.0-11.0","28428","List1B","black","woman","","","","","","","","","","","","",""
"6774","<p>Ready to start the experiment?</p><br><p><strong>Remember to describe the picture using a full sentence,</strong></p><p><strong>that combines the names of the people with the <i>exact</i> phrase given.</strong></p><p><strong>To receive full payment you must do this correctly.</strong></p><p><strong> You do not need to capitalise names or use punctuation.</strong></p><br><p>Press 'Continue' to begin.</p>","0","html-button-response","29","469775","0.0-12.0","28428","List1B","black","woman","","","","","","","","","","","","",""
"null","<div style=""font-size:60px;"">+</div>","","html-keyboard-response","30","471278","0.0-13.0-0.0","28428","List1B","black","woman","","","","null","","","","","","","","",""
"null","<img src=""stim_listB/greet6.gif""style=""height:400px;""></stim_listB>","","html-keyboard-response","31","473290","0.0-13.0-1.0","28428","List1B","black","woman","","","","null","","","","","","","","",""
"null","is being greeted by","","html-keyboard-response","32","475297","0.0-13.0-2.0","28428","List1B","black","woman","","","","null","","","","","","","","",""
"11571.59999999404","","","survey-text","33","486873","0.0-13.0-3.0","28428","List1B","black","woman","","","","","{""Q0"":""fred is greeted by dave""}","<img src=""stim_listB/greet6.gif""style=""height:400px;""></stim_listB>","is being greeted by","","","","","",""
"null","<div style=""font-size:60px;"">+</div>","","html-keyboard-response","34","487387","0.0-13.0-0.1","28428","List1B","black","woman","","","","null","","","","","","","","",""
"null","<img src=""stim_listB/seduce1.gif""style=""height:400px;""></stim_listB>","","html-keyboard-response","35","489392","0.0-13.0-1.1","28428","List1B","black","woman","","","","null","","","","","","","","",""
"null","is seducing","","html-keyboard-response","36","491408","0.0-13.0-2.1","28428","List1B","black","woman","","","","null","","","","","","","","",""
"27259.60000000149","","","survey-text","37","518669","0.0-13.0-3.1","28428","List1B","black","woman","","","","","{""Q0"":""Kate is seduced by fred""}","<img src=""stim_listB/seduce1.gif""style=""height:400px;""></stim_listB>","is seducing","","","","","",""
"null","<div style=""font-size:60px;"">+</div>","","html-keyboard-response","38","519174","0.0-13.0-0.2","28428","List1B","black","woman","","","","null","","","","","","","","",""
"null","<img src=""stim_listB/kiss5.gif""style=""height:400px;""></stim_listB>","","html-keyboard-response","39","521189","0.0-13.0-1.2","28428","List1B","black","woman","","","","null","","","","","","","","",""
"null","is kissing","","html-keyboard-response","40","523205","0.0-13.0-2.2","28428","List1B","black","woman","","","","null","","","","","","","","",""
"6771.5","","","survey-text","41","529978","0.0-13.0-3.2","28428","List1B","black","woman","","","","","{""Q0"":""fred is kissing luke""}","<img src=""stim_listB/kiss5.gif""style=""height:400px;""></stim_listB>","is kissing","","","","","",""
"null","<div style=""font-size:60px;"">+</div>","","html-keyboard-response","42","530486","0.0-13.0-0.3","28428","List1B","black","woman","","","","null","","","","","","","","",""
"null","<img src=""stim_listB/look8.gif""style=""height:400px;""></stim_listB>","","html-keyboard-response","43","532491","0.0-13.0-1.3","28428","List1B","black","woman","","","","null","","","","","","","","",""
"null","is being looked at by","","html-keyboard-response","44","534500","0.0-13.0-2.3","28428","List1B","black","woman","","","","null","","","","","","","","",""
"8427.60000000149","","","survey-text","45","542929","0.0-13.0-3.3","28428","List1B","black","woman","","","","","{""Q0"":""kate is being looked at by jane""}","<img src=""stim_listB/look8.gif""style=""height:400px;""></stim_listB>","is being looked at by","","","","","",""
"null","<div style=""font-size:60px;"">+</div>","","html-keyboard-response","46","543431","0.0-13.0-0.4","28428","List1B","black","woman","","","","null","","","","","","","","",""
"null","<img src=""stim_listB/greet5.gif""style=""height:400px;""></stim_listB>","","html-keyboard-response","47","545434","0.0-13.0-1.4","28428","List1B","black","woman","","","","null","","","","","","","","",""
"null","is greeting","","html-keyboard-response","48","547435","0.0-13.0-2.4","28428","List1B","black","woman","","","","null","","","","","","","","",""
"6067.29999999702","","","survey-text","49","553503","0.0-13.0-3.4","28428","List1B","black","woman","","","","","{""Q0"":""luke is greeting mike""}","<img src=""stim_listB/greet5.gif""style=""height:400px;""></stim_listB>","is greeting","","","","","",""
"null","<div style=""font-size:60px;"">+</div>","","html-keyboard-response","50","554016","0.0-13.0-0.5","28428","List1B","black","woman","","","","null","","","","","","","","",""
"null","<img src=""stim_listB/seduce3.gif""style=""height:400px;""></stim_listB>","","html-keyboard-response","51","556024","0.0-13.0-1.5","28428","List1B","black","woman","","","","null","","","","","","","","",""
"null","is seducing","","html-keyboard-response","52","558032","0.0-13.0-2.5","28428","List1B","black","woman","","","","null","","","","","","","","",""
"8866.39999999851","","","survey-text","53","566902","0.0-13.0-3.5","28428","List1B","black","woman","","","","","{""Q0"":""jane is seducing luke""}","<img src=""stim_listB/seduce3.gif""style=""height:400px;""></stim_listB>","is seducing","","","","","",""
"null","<div style=""font-size:60px;"">+</div>","","html-keyboard-response","54","567404","0.0-13.0-0.6","28428","List1B","black","woman","","","","null","","","","","","","","",""
"null","<img src=""stim_listB/challenge8.gif""style=""height:400px;""></stim_listB>","","html-keyboard-response","55","569408","0.0-13.0-1.6","28428","List1B","black","woman","","","","null","","","","","","","","",""
"null","is being challenged by","","html-keyboard-response","56","571418","0.0-13.0-2.6","28428","List1B","black","woman","","","","null","","","","","","","","",""
"10072.80000000447","","","survey-text","57","581494","0.0-13.0-3.6","28428","List1B","black","woman","","","","","{""Q0"":""jane is being challenged by beth""}","<img src=""stim_listB/challenge8.gif""style=""height:400px;""></stim_listB>","is being challenged by","","","","","",""
"null","<div style=""font-size:60px;"">+</div>","","html-keyboard-response","58","582004","0.0-13.0-0.7","28428","List1B","black","woman","","","","null","","","","","","","","",""
"null","<img src=""stim_listB/greet3.gif""style=""height:400px;""></stim_listB>","","html-keyboard-response","59","584007","0.0-13.0-1.7","28428","List1B","black","woman","","","","null","","","","","","","","",""
"null","is greeting","","html-keyboard-response","60","586011","0.0-13.0-2.7","28428","List1B","black","woman","","","","null","","","","","","","","",""
"7715.20000000298","","","survey-text","61","593727","0.0-13.0-3.7","28428","List1B","black","woman","","","","","{""Q0"":""jane is greeted by dave""}","<img src=""stim_listB/greet3.gif""style=""height:400px;""></stim_listB>","is greeting","","","","","",""
"null","<div style=""font-size:60px;"">+</div>","","html-keyboard-response","62","594230","0.0-13.0-0.8","28428","List1B","black","woman","","","","null","","","","","","","","",""
"null","<img src=""stim_listB/touch1.gif""style=""height:400px;""></stim_listB>","","html-keyboard-response","63","596240","0.0-13.0-1.8","28428","List1B","black","woman","","","","null","","","","","","","","",""
"null","is touching","","html-keyboard-response","64","598250","0.0-13.0-2.8","28428","List1B","black","woman","","","","null","","","","","","","","",""
"7389.5","","","survey-text","65","605641","0.0-13.0-3.8","28428","List1B","black","woman","","","","","{""Q0"":""mike is touching kate""}","<img src=""stim_listB/touch1.gif""style=""height:400px;""></stim_listB>","is touching","","","","","",""
"null","<div style=""font-size:60px;"">+</div>","","html-keyboard-response","66","606142","0.0-13.0-0.9","28428","List1B","black","woman","","","","null","","","","","","","","",""
"null","<img src=""stim_listB/shout3.gif""style=""height:400px;""></stim_listB>","","html-keyboard-response","67","608145","0.0-13.0-1.9","28428","List1B","black","woman","","","","null","","","","","","","","",""
"null","is shouting at","","html-keyboard-response","68","610153","0.0-13.0-2.9","28428","List1B","black","woman","","","","null","","","","","","","","",""
"19843.29999999702","","","survey-text","69","629999","0.0-13.0-3.9","28428","List1B","black","woman","","","","","{""Q0"":""ruth is arguing with luke""}","<img src=""stim_listB/shout3.gif""style=""height:400px;""></stim_listB>","is shouting at","","","","","",""
"null","<div style=""font-size:60px;"">+</div>","","html-keyboard-response","70","630513","0.0-13.0-0.10","28428","List1B","black","woman","","","","null","","","","","","","","",""
"null","<img src=""stim_listB/greet8.gif""style=""height:400px;""></stim_listB>","","html-keyboard-response","71","632525","0.0-13.0-1.10","28428","List1B","black","woman","","","","null","","","","","","","","",""
"null","is being greeted by","","html-keyboard-response","72","634527","0.0-13.0-2.10","28428","List1B","black","woman","","","","null","","","","","","","","",""
"7731.20000000298","","","survey-text","73","642261","0.0-13.0-3.10","28428","List1B","black","woman","","","","","{""Q0"":""jane is being greeted by beth""}","<img src=""stim_listB/greet8.gif""style=""height:400px;""></stim_listB>","is being greeted by","","","","","",""
"null","<div style=""font-size:60px;"">+</div>","","html-keyboard-response","74","642769","0.0-13.0-0.11","28428","List1B","black","woman","","","","null","","","","","","","","",""
"null","<img src=""stim_listB/challenge3.gif""style=""height:400px;""></stim_listB>","","html-keyboard-response","75","644776","0.0-13.0-1.11","28428","List1B","black","woman","","","","null","","","","","","","","",""
"null","is challenging","","html-keyboard-response","76","646785","0.0-13.0-2.11","28428","List1B","black","woman","","","","null","","","","","","","","",""
"8490.89999999851","","","survey-text","77","655279","0.0-13.0-3.11","28428","List1B","black","woman","","","","","{""Q0"":""dave is challenging ruth""}","<img src=""stim_listB/challenge3.gif""style=""height:400px;""></stim_listB>","is challenging","","","","","",""
"null","<div style=""font-size:60px;"">+</div>","","html-keyboard-response","78","655783","0.0-13.0-0.12","28428","List1B","black","woman","","","","null","","","","","","","","",""
"null","<img src=""stim_listB/oppose3.gif""style=""height:400px;""></stim_listB>","","html-keyboard-response","79","657790","0.0-13.0-1.12","28428","List1B","black","woman","","","","null","","","","","","","","",""
"null","is opposing","","html-keyboard-response","80","659804","0.0-13.0-2.12","28428","List1B","black","woman","","","","null","","","","","","","","",""
"6180.10000000149","","","survey-text","81","665987","0.0-13.0-3.12","28428","List1B","black","woman","","","","","{""Q0"":""dave is opposing jane""}","<img src=""stim_listB/oppose3.gif""style=""height:400px;""></stim_listB>","is opposing","","","","","",""
"null","<div style=""font-size:60px;"">+</div>","","html-keyboard-response","82","666499","0.0-13.0-0.13","28428","List1B","black","woman","","","","null","","","","","","","","",""
"null","<img src=""stim_listB/touch5.gif""style=""height:400px;""></stim_listB>","","html-keyboard-response","83","668515","0.0-13.0-1.13","28428","List1B","black","woman","","","","null","","","","","","","","",""
"null","is touching","","html-keyboard-response","84","670525","0.0-13.0-2.13","28428","List1B","black","woman","","","","null","","","","","","","","",""
"6170.89999999851","","","survey-text","85","676699","0.0-13.0-3.13","28428","List1B","black","woman","","","","","{""Q0"":""mike is touching dave""}","<img src=""stim_listB/touch5.gif""style=""height:400px;""></stim_listB>","is touching","","","","","",""
"null","<div style=""font-size:60px;"">+</div>","","html-keyboard-response","86","677200","0.0-13.0-0.14","28428","List1B","black","woman","","","","null","","","","","","","","",""
"null","<img src=""stim_listB/touch7.gif""style=""height:400px;""></stim_listB>","","html-keyboard-response","87","679208","0.0-13.0-1.14","28428","List1B","black","woman","","","","null","","","","","","","","",""
"null","is touching","","html-keyboard-response","88","681223","0.0-13.0-2.14","28428","List1B","black","woman","","","","null","","","","","","","","",""
"6742.70000000298","","","survey-text","89","687967","0.0-13.0-3.14","28428","List1B","black","woman","","","","","{""Q0"":""kate is touching jane""}","<img src=""stim_listB/touch7.gif""style=""height:400px;""></stim_listB>","is touching","","","","","",""
"null","<div style=""font-size:60px;"">+</div>","","html-keyboard-response","90","688473","0.0-13.0-0.15","28428","List1B","black","woman","","","","null","","","","","","","","",""
"null","<img src=""stim_listB/look4.gif""style=""height:400px;""></stim_listB>","","html-keyboard-response","91","690490","0.0-13.0-1.15","28428","List1B","black","woman","","","","null","","","","","","","","",""
"null","is being looked at by","","html-keyboard-response","92","692491","0.0-13.0-2.15","28428","List1B","black","woman","","","","null","","","","","","","","",""
"8050.5","","","survey-text","93","700545","0.0-13.0-3.15","28428","List1B","black","woman","","","","","{""Q0"":""kate is being looked at by dave""}","<img src=""stim_listB/look4.gif""style=""height:400px;""></stim_listB>","is being looked at by","","","","","",""
"null","<div style=""font-size:60px;"">+</div>","","html-keyboard-response","94","701049","0.0-13.0-0.16","28428","List1B","black","woman","","","","null","","","","","","","","",""
"null","<img src=""stim_listB/copy2.gif""style=""height:400px;""></stim_listB>","","html-keyboard-response","95","703057","0.0-13.0-1.16","28428","List1B","black","woman","","","","null","","","","","","","","",""
"null","is being copied by","","html-keyboard-response","96","705063","0.0-13.0-2.16","28428","List1B","black","woman","","","","null","","","","","","","","",""
"7680.80000000447","","","survey-text","97","712748","0.0-13.0-3.16","28428","List1B","black","woman","","","","","{""Q0"":""kate is being copied by fred""}","<img src=""stim_listB/copy2.gif""style=""height:400px;""></stim_listB>","is being copied by","","","","","",""
"null","<div style=""font-size:60px;"">+</div>","","html-keyboard-response","98","713249","0.0-13.0-0.17","28428","List1B","black","woman","","","","null","","","","","","","","",""
"null","<img src=""stim_listB/shout5.gif""style=""height:400px;""></stim_listB>","","html-keyboard-response","99","715252","0.0-13.0-1.17","28428","List1B","black","woman","","","","null","","","","","","","","",""
"null","is shouting at","","html-keyboard-response","100","717254","0.0-13.0-2.17","28428","List1B","black","woman","","","","null","","","","","","","","",""
"7427.9000000059605","","","survey-text","101","724686","0.0-13.0-3.17","28428","List1B","black","woman","","","","","{""Q0"":""fred is shouting at luke""}","<img src=""stim_listB/shout5.gif""style=""height:400px;""></stim_listB>","is shouting at","","","","","",""
"null","<div style=""font-size:60px;"">+</div>","","html-keyboard-response","102","725187","0.0-13.0-0.18","28428","List1B","black","woman","","","","null","","","","","","","","",""
"null","<img src=""stim_listB/oppose1.gif""style=""height:400px;""></stim_listB>","","html-keyboard-response","103","727191","0.0-13.0-1.18","28428","List1B","black","woman","","","","null","","","","","","","","",""
"null","is opposing","","html-keyboard-response","104","729195","0.0-13.0-2.18","28428","List1B","black","woman","","","","null","","","","","","","","",""
"6534.5999999940395","","","survey-text","105","735732","0.0-13.0-3.18","28428","List1B","black","woman","","","","","{""Q0"":""kate is opposing mike""}","<img src=""stim_listB/oppose1.gif""style=""height:400px;""></stim_listB>","is opposing","","","","","",""
"null","<div style=""font-size:60px;"">+</div>","","html-keyboard-response","106","736233","0.0-13.0-0.19","28428","List1B","black","woman","","","","null","","","","","","","","",""
"null","<img src=""stim_listB/seduce4.gif""style=""height:400px;""></stim_listB>","","html-keyboard-response","107","738241","0.0-13.0-1.19","28428","List1B","black","woman","","","","null","","","","","","","","",""
"null","is being seduced by","","html-keyboard-response","108","740255","0.0-13.0-2.19","28428","List1B","black","woman","","","","null","","","","","","","","",""
"13685.69999999553","","","survey-text","109","753943","0.0-13.0-3.19","28428","List1B","black","woman","","","","","{""Q0"":""dave is being seduced by ruth""}","<img src=""stim_listB/seduce4.gif""style=""height:400px;""></stim_listB>","is being seduced by","","","","","",""
"105445.70000000298","<img src='img/portrait_matrix_list1.jpg' style='width:900px;height:500px;''></img><p>If you have memorised all the portraits and names and are ready to start, press Continue.</p><p><strong>Please note: Your memory of these faces will be tested 4 times during this experiment.</strong></p>","0","html-button-response","110","859389","0.0-14.0-0.0","28428","List1B","black","woman","","","","","","","","","","","","",""
"2170","<img src=""portrait/WM2.jpg""style=""height:400px;""></img>","7","html-button-response","111","862575","0.0-14.0-1.0","28428","List1B","black","woman","","true","7","","","","","","","","","",""
"null","CORRECT","","html-keyboard-response","112","864092","0.0-14.0-2.0-0.0","28428","List1B","black","woman","","","","null","","","","","","","","",""
"3337.8000000044703","<img src=""portrait/BW1.jpg""style=""height:400px;""></img>","0","html-button-response","113","867432","0.0-14.0-4.0","28428","List1B","black","woman","","true","0","","","","","","","","","",""
"null","CORRECT","","html-keyboard-response","114","868954","0.0-14.0-5.0-0.0","28428","List1B","black","woman","","","","null","","","","","","","","",""
"2345.39999999851","<img src=""portrait/WW2.jpg""style=""height:400px;""></img>","3","html-button-response","115","871301","0.0-14.0-7.0","28428","List1B","black","woman","","true","3","","","","","","","","","",""
"null","CORRECT","","html-keyboard-response","116","872808","0.0-14.0-8.0-0.0","28428","List1B","black","woman","","","","null","","","","","","","","",""
"1559.9000000059605","<img src=""portrait/BW2.jpg""style=""height:400px;""></img>","2","html-button-response","117","874369","0.0-14.0-10.0","28428","List1B","black","woman","","true","2","","","","","","","","","",""
"null","CORRECT","","html-keyboard-response","118","875883","0.0-14.0-11.0-0.0","28428","List1B","black","woman","","","","null","","","","","","","","",""
"2048.7000000029802","<img src=""portrait/WM1.jpg""style=""height:400px;""></img>","6","html-button-response","119","877933","0.0-14.0-13.0","28428","List1B","black","woman","","true","6","","","","","","","","","",""
"null","CORRECT","","html-keyboard-response","120","879456","0.0-14.0-14.0-0.0","28428","List1B","black","woman","","","","null","","","","","","","","",""
"1845","<img src=""portrait/BM1.jpg""style=""height:400px;""></img>","4","html-button-response","121","881303","0.0-14.0-16.0","28428","List1B","black","woman","","true","4","","","","","","","","","",""
"null","CORRECT","","html-keyboard-response","122","882808","0.0-14.0-17.0-0.0","28428","List1B","black","woman","","","","null","","","","","","","","",""
"2239.2000000029802","<img src=""portrait/BM2.jpg""style=""height:400px;""></img>","5","html-button-response","123","885049","0.0-14.0-19.0","28428","List1B","black","woman","","true","5","","","","","","","","","",""
"null","CORRECT","","html-keyboard-response","124","886567","0.0-14.0-20.0-0.0","28428","List1B","black","woman","","","","null","","","","","","","","",""
"1602.2999999970198","<img src=""portrait/WW1.jpg""style=""height:400px;""></img>","1","html-button-response","125","888171","0.0-14.0-22.0","28428","List1B","black","woman","","true","1","","","","","","","","","",""
"null","CORRECT","","html-keyboard-response","126","889692","0.0-14.0-23.0-0.0","28428","List1B","black","woman","","","","null","","","","","","","","",""
"2311.7000000029802","<p>You got 8 out of 8 right first time. Press Continue.</p>","0","html-button-response","127","892005","0.0-14.0-25.0","28428","List1B","black","woman","","","","","","","","","","","","",""
"null","<div style=""font-size:60px;"">+</div>","","html-keyboard-response","128","893523","0.0-15.0-0.0","28428","List1B","black","woman","","","","null","","","","","","","","",""
"null","<img src=""stim_listB/copy1.gif""style=""height:400px;""></stim_listB>","","html-keyboard-response","129","895524","0.0-15.0-1.0","28428","List1B","black","woman","","","","null","","","","","","","","",""
"null","is copying","","html-keyboard-response","130","897526","0.0-15.0-2.0","28428","List1B","black","woman","","","","null","","","","","","","","",""
"6544.10000000149","","","survey-text","131","904073","0.0-15.0-3.0","28428","List1B","black","woman","","","","","{""Q0"":""beth is copying mike""}","<img src=""stim_listB/copy1.gif""style=""height:400px;""></stim_listB>","is copying","","","","","",""
"null","<div style=""font-size:60px;"">+</div>","","html-keyboard-response","132","904574","0.0-15.0-0.1","28428","List1B","black","woman","","","","null","","","","","","","","",""
"null","<img src=""stim_listB/copy6.gif""style=""height:400px;""></stim_listB>","","html-keyboard-response","133","906592","0.0-15.0-1.1","28428","List1B","black","woman","","","","null","","","","","","","","",""
"null","is being copied by","","html-keyboard-response","134","908599","0.0-15.0-2.1","28428","List1B","black","woman","","","","null","","","","","","","","",""
"8547.5","","","survey-text","135","917149","0.0-15.0-3.1","28428","List1B","black","woman","","","","","{""Q0"":""dave is being copied by fred""}","<img src=""stim_listB/copy6.gif""style=""height:400px;""></stim_listB>","is being copied by","","","","","",""
"null","<div style=""font-size:60px;"">+</div>","","html-keyboard-response","136","917650","0.0-15.0-0.2","28428","List1B","black","woman","","","","null","","","","","","","","",""
"null","<img src=""stim_listB/oppose7.gif""style=""height:400px;""></stim_listB>","","html-keyboard-response","137","919661","0.0-15.0-1.2","28428","List1B","black","woman","","","","null","","","","","","","","",""
"null","is opposing","","html-keyboard-response","138","921667","0.0-15.0-2.2","28428","List1B","black","woman","","","","null","","","","","","","","",""
"6541","","","survey-text","139","928211","0.0-15.0-3.2","28428","List1B","black","woman","","","","","{""Q0"":""kate is opposing jane""}","<img src=""stim_listB/oppose7.gif""style=""height:400px;""></stim_listB>","is opposing","","","","","",""
"null","<div style=""font-size:60px;"">+</div>","","html-keyboard-response","140","928716","0.0-15.0-0.3","28428","List1B","black","woman","","","","null","","","","","","","","",""
"null","<img src=""stim_listB/seduce6.gif""style=""height:400px;""></stim_listB>","","html-keyboard-response","141","930733","0.0-15.0-1.3","28428","List1B","black","woman","","","","null","","","","","","","","",""
"null","is being seduced by","","html-keyboard-response","142","932739","0.0-15.0-2.3","28428","List1B","black","woman","","","","null","","","","","","","","",""
"9756.39999999851","","","survey-text","143","942497","0.0-15.0-3.3","28428","List1B","black","woman","","","","","{""Q0"":""mike is being seduced by luke""}","<img src=""stim_listB/seduce6.gif""style=""height:400px;""></stim_listB>","is being seduced by","","","","","",""
"null","<div style=""font-size:60px;"">+</div>","","html-keyboard-response","144","943006","0.0-15.0-0.4","28428","List1B","black","woman","","","","null","","","","","","","","",""
"null","<img src=""stim_listB/hug3.gif""style=""height:400px;""></stim_listB>","","html-keyboard-response","145","945022","0.0-15.0-1.4","28428","List1B","black","woman","","","","null","","","","","","","","",""
"null","is hugging","","html-keyboard-response","146","947039","0.0-15.0-2.4","28428","List1B","black","woman","","","","null","","","","","","","","",""
"6761.19999999553","","","survey-text","147","953801","0.0-15.0-3.4","28428","List1B","black","woman","","","","","{""Q0"":""ruth is hugging luke""}","<img src=""stim_listB/hug3.gif""style=""height:400px;""></stim_listB>","is hugging","","","","","",""
"null","<div style=""font-size:60px;"">+</div>","","html-keyboard-response","148","954302","0.0-15.0-0.5","28428","List1B","black","woman","","","","null","","","","","","","","",""
"null","<img src=""stim_listB/challenge1.gif""style=""height:400px;""></stim_listB>","","html-keyboard-response","149","956304","0.0-15.0-1.5","28428","List1B","black","woman","","","","null","","","","","","","","",""
"null","is challenging","","html-keyboard-response","150","958309","0.0-15.0-2.5","28428","List1B","black","woman","","","","null","","","","","","","","",""
"7261.29999999702","","","survey-text","151","965574","0.0-15.0-3.5","28428","List1B","black","woman","","","","","{""Q0"":""beth is challenging mike""}","<img src=""stim_listB/challenge1.gif""style=""height:400px;""></stim_listB>","is challenging","","","","","",""
"null","<div style=""font-size:60px;"">+</div>","","html-keyboard-response","152","966082","0.0-15.0-0.6","28428","List1B","black","woman","","","","null","","","","","","","","",""
"null","<img src=""stim_listB/challenge2.gif""style=""height:400px;""></stim_listB>","","html-keyboard-response","153","968093","0.0-15.0-1.6","28428","List1B","black","woman","","","","null","","","","","","","","",""
"null","is being challenged by","","html-keyboard-response","154","970109","0.0-15.0-2.6","28428","List1B","black","woman","","","","null","","","","","","","","",""
"9507.5","","","survey-text","155","979619","0.0-15.0-3.6","28428","List1B","black","woman","","","","","{""Q0"":""kate is being challenged by fred""}","<img src=""stim_listB/challenge2.gif""style=""height:400px;""></stim_listB>","is being challenged by","","","","","",""
"null","<div style=""font-size:60px;"">+</div>","","html-keyboard-response","156","980132","0.0-15.0-0.7","28428","List1B","black","woman","","","","null","","","","","","","","",""
"null","<img src=""stim_listB/kiss7.gif""style=""height:400px;""></stim_listB>","","html-keyboard-response","157","982147","0.0-15.0-1.7","28428","List1B","black","woman","","","","null","","","","","","","","",""
"null","is kissing","","html-keyboard-response","158","984159","0.0-15.0-2.7","28428","List1B","black","woman","","","","null","","","","","","","","",""
"6721","","","survey-text","159","990884","0.0-15.0-3.7","28428","List1B","black","woman","","","","","{""Q0"":""ruth is kissing beth""}","<img src=""stim_listB/kiss7.gif""style=""height:400px;""></stim_listB>","is kissing","","","","","",""
"null","<div style=""font-size:60px;"">+</div>","","html-keyboard-response","160","991397","0.0-15.0-0.8","28428","List1B","black","woman","","","","null","","","","","","","","",""
"null","<img src=""stim_listB/touch8.gif""style=""height:400px;""></stim_listB>","","html-keyboard-response","161","993409","0.0-15.0-1.8","28428","List1B","black","woman","","","","null","","","","","","","","",""
"null","is being touched by","","html-keyboard-response","162","995412","0.0-15.0-2.8","28428","List1B","black","woman","","","","null","","","","","","","","",""
"8126.60000000149","","","survey-text","163","1003540","0.0-15.0-3.8","28428","List1B","black","woman","","","","","{""Q0"":""ruth is being touched by beth""}","<img src=""stim_listB/touch8.gif""style=""height:400px;""></stim_listB>","is being touched by","","","","","",""
"null","<div style=""font-size:60px;"">+</div>","","html-keyboard-response","164","1004042","0.0-15.0-0.9","28428","List1B","black","woman","","","","null","","","","","","","","",""
"null","<img src=""stim_listB/hug4.gif""style=""height:400px;""></stim_listB>","","html-keyboard-response","165","1006058","0.0-15.0-1.9","28428","List1B","black","woman","","","","null","","","","","","","","",""
"null","is being hugged by","","html-keyboard-response","166","1008064","0.0-15.0-2.9","28428","List1B","black","woman","","","","null","","","","","","","","",""
"7987.79999999702","","","survey-text","167","1016056","0.0-15.0-3.9","28428","List1B","black","woman","","","","","{""Q0"":""jane is being hugged by dave""}","<img src=""stim_listB/hug4.gif""style=""height:400px;""></stim_listB>","is being hugged by","","","","","",""
"null","<div style=""font-size:60px;"">+</div>","","html-keyboard-response","168","1016558","0.0-15.0-0.10","28428","List1B","black","woman","","","","null","","","","","","","","",""
"null","<img src=""stim_listB/look1.gif""style=""height:400px;""></stim_listB>","","html-keyboard-response","169","1018575","0.0-15.0-1.10","28428","List1B","black","woman","","","","null","","","","","","","","",""
"null","is looking at","","html-keyboard-response","170","1020587","0.0-15.0-2.10","28428","List1B","black","woman","","","","null","","","","","","","","",""
"6755.10000000149","","","survey-text","171","1027344","0.0-15.0-3.10","28428","List1B","black","woman","","","","","{""Q0"":""beth is looking at fred""}","<img src=""stim_listB/look1.gif""style=""height:400px;""></stim_listB>","is looking at","","","","","",""
"null","<div style=""font-size:60px;"">+</div>","","html-keyboard-response","172","1027847","0.0-15.0-0.11","28428","List1B","black","woman","","","","null","","","","","","","","",""
"null","<img src=""stim_listB/challenge7.gif""style=""height:400px;""></stim_listB>","","html-keyboard-response","173","1029858","0.0-15.0-1.11","28428","List1B","black","woman","","","","null","","","","","","","","",""
"null","is challenging","","html-keyboard-response","174","1031868","0.0-15.0-2.11","28428","List1B","black","woman","","","","null","","","","","","","","",""
"6730.29999999702","","","survey-text","175","1038601","0.0-15.0-3.11","28428","List1B","black","woman","","","","","{""Q0"":""kate is challenging ruth""}","<img src=""stim_listB/challenge7.gif""style=""height:400px;""></stim_listB>","is challenging","","","","","",""
"null","<div style=""font-size:60px;"">+</div>","","html-keyboard-response","176","1039102","0.0-15.0-0.12","28428","List1B","black","woman","","","","null","","","","","","","","",""
"null","<img src=""stim_listB/kiss4.gif""style=""height:400px;""></stim_listB>","","html-keyboard-response","177","1041107","0.0-15.0-1.12","28428","List1B","black","woman","","","","null","","","","","","","","",""
"null","is being kissed by","","html-keyboard-response","178","1043124","0.0-15.0-2.12","28428","List1B","black","woman","","","","null","","","","","","","","",""
"8715.29999999702","","","survey-text","179","1051842","0.0-15.0-3.12","28428","List1B","black","woman","","","","","{""Q0"":""jane is being kissed by dave""}","<img src=""stim_listB/kiss4.gif""style=""height:400px;""></stim_listB>","is being kissed by","","","","","",""
"null","<div style=""font-size:60px;"">+</div>","","html-keyboard-response","180","1052353","0.0-15.0-0.13","28428","List1B","black","woman","","","","null","","","","","","","","",""
"null","<img src=""stim_listB/hug2.gif""style=""height:400px;""></stim_listB>","","html-keyboard-response","181","1054370","0.0-15.0-1.13","28428","List1B","black","woman","","","","null","","","","","","","","",""
"null","is being hugged by","","html-keyboard-response","182","1056371","0.0-15.0-2.13","28428","List1B","black","woman","","","","null","","","","","","","","",""
"8582","","","survey-text","183","1064956","0.0-15.0-3.13","28428","List1B","black","woman","","","","","{""Q0"":""kate is being hugged by mike""}","<img src=""stim_listB/hug2.gif""style=""height:400px;""></stim_listB>","is being hugged by","","","","","",""
"null","<div style=""font-size:60px;"">+</div>","","html-keyboard-response","184","1065458","0.0-15.0-0.14","28428","List1B","black","woman","","","","null","","","","","","","","",""
"null","<img src=""stim_listB/kiss2.gif""style=""height:400px;""></stim_listB>","","html-keyboard-response","185","1067466","0.0-15.0-1.14","28428","List1B","black","woman","","","","null","","","","","","","","",""
"null","is being kissed by","","html-keyboard-response","186","1069470","0.0-15.0-2.14","28428","List1B","black","woman","","","","null","","","","","","","","",""
"7818.20000000298","","","survey-text","187","1077291","0.0-15.0-3.14","28428","List1B","black","woman","","","","","{""Q0"":""kate is being kissed by mike""}","<img src=""stim_listB/kiss2.gif""style=""height:400px;""></stim_listB>","is being kissed by","","","","","",""
"null","<div style=""font-size:60px;"">+</div>","","html-keyboard-response","188","1077796","0.0-15.0-0.15","28428","List1B","black","woman","","","","null","","","","","","","","",""
"null","<img src=""stim_listB/kiss6.gif""style=""height:400px;""></stim_listB>","","html-keyboard-response","189","1079799","0.0-15.0-1.15","28428","List1B","black","woman","","","","null","","","","","","","","",""
"null","is being kissed by","","html-keyboard-response","190","1081804","0.0-15.0-2.15","28428","List1B","black","woman","","","","null","","","","","","","","",""
"7529.70000000298","","","survey-text","191","1089337","0.0-15.0-3.15","28428","List1B","black","woman","","","","","{""Q0"":""dave is being kissed by mike""}","<img src=""stim_listB/kiss6.gif""style=""height:400px;""></stim_listB>","is being kissed by","","","","","",""
"null","<div style=""font-size:60px;"">+</div>","","html-keyboard-response","192","1089848","0.0-15.0-0.16","28428","List1B","black","woman","","","","null","","","","","","","","",""
"null","<img src=""stim_listB/hug8.gif""style=""height:400px;""></stim_listB>","","html-keyboard-response","193","1091858","0.0-15.0-1.16","28428","List1B","black","woman","","","","null","","","","","","","","",""
"null","is being hugged by","","html-keyboard-response","194","1093864","0.0-15.0-2.16","28428","List1B","black","woman","","","","null","","","","","","","","",""
"8345.89999999851","","","survey-text","195","1102213","0.0-15.0-3.16","28428","List1B","black","woman","","","","","{""Q0"":""kate is being hugged by jane""}","<img src=""stim_listB/hug8.gif""style=""height:400px;""></stim_listB>","is being hugged by","","","","","",""
"null","<div style=""font-size:60px;"">+</div>","","html-keyboard-response","196","1102717","0.0-15.0-0.17","28428","List1B","black","woman","","","","null","","","","","","","","",""
"null","<img src=""stim_listB/kiss3.gif""style=""height:400px;""></stim_listB>","","html-keyboard-response","197","1104724","0.0-15.0-1.17","28428","List1B","black","woman","","","","null","","","","","","","","",""
"null","is kissing","","html-keyboard-response","198","1106740","0.0-15.0-2.17","28428","List1B","black","woman","","","","null","","","","","","","","",""
"5855.79999999702","","","survey-text","199","1112599","0.0-15.0-3.17","28428","List1B","black","woman","","","","","{""Q0"":""ruth is kissing luke""}","<img src=""stim_listB/kiss3.gif""style=""height:400px;""></stim_listB>","is kissing","","","","","",""
"null","<div style=""font-size:60px;"">+</div>","","html-keyboard-response","200","1113101","0.0-15.0-0.18","28428","List1B","black","woman","","","","null","","","","","","","","",""
"null","<img src=""stim_listB/seduce8.gif""style=""height:400px;""></stim_listB>","","html-keyboard-response","201","1115108","0.0-15.0-1.18","28428","List1B","black","woman","","","","null","","","","","","","","",""
"null","is being seduced by","","html-keyboard-response","202","1117125","0.0-15.0-2.18","28428","List1B","black","woman","","","","null","","","","","","","","",""
"9719.70000000298","","","survey-text","203","1126848","0.0-15.0-3.18","28428","List1B","black","woman","","","","","{""Q0"":""ruth is being seduced by kate""}","<img src=""stim_listB/seduce8.gif""style=""height:400px;""></stim_listB>","is being seduced by","","","","","",""
"null","<div style=""font-size:60px;"">+</div>","","html-keyboard-response","204","1127349","0.0-15.0-0.19","28428","List1B","black","woman","","","","null","","","","","","","","",""
"null","<img src=""stim_listB/hug1.gif""style=""height:400px;""></stim_listB>","","html-keyboard-response","205","1129358","0.0-15.0-1.19","28428","List1B","black","woman","","","","null","","","","","","","","",""
"null","is hugging","","html-keyboard-response","206","1131368","0.0-15.0-2.19","28428","List1B","black","woman","","","","null","","","","","","","","",""
"6189.89999999851","","","survey-text","207","1137562","0.0-15.0-3.19","28428","List1B","black","woman","","","","","{""Q0"":""beth is hugging fred""}","<img src=""stim_listB/hug1.gif""style=""height:400px;""></stim_listB>","is hugging","","","","","",""
"12214.70000000298","<img src='img/portrait_matrix_list1.jpg' style='width:900px;height:500px;''></img><p>If you have memorised all the portraits and names and are ready to start, press Continue.</p><p><strong>Please note: Your memory of these faces will be tested 4 times during this experiment.</strong></p>","0","html-button-response","208","1149778","0.0-16.0-0.0","28428","List1B","black","woman","","","","","","","","","","","","",""
"3081.5999999940395","<img src=""portrait/WW1.jpg""style=""height:400px;""></img>","1","html-button-response","209","1153866","0.0-16.0-1.0","28428","List1B","black","woman","","true","1","","","","","","","","","",""
"null","CORRECT","","html-keyboard-response","210","1155378","0.0-16.0-2.0-0.0","28428","List1B","black","woman","","","","null","","","","","","","","",""
"1565.5999999940395","<img src=""portrait/BW2.jpg""style=""height:400px;""></img>","2","html-button-response","211","1156946","0.0-16.0-4.0","28428","List1B","black","woman","","true","2","","","","","","","","","",""
"null","CORRECT","","html-keyboard-response","212","1158451","0.0-16.0-5.0-0.0","28428","List1B","black","woman","","","","null","","","","","","","","",""
"1784.2000000029802","<img src=""portrait/WW2.jpg""style=""height:400px;""></img>","3","html-button-response","213","1160237","0.0-16.0-7.0","28428","List1B","black","woman","","true","3","","","","","","","","","",""
"null","CORRECT","","html-keyboard-response","214","1161761","0.0-16.0-8.0-0.0","28428","List1B","black","woman","","","","null","","","","","","","","",""
"1711.1999999955297","<img src=""portrait/BM1.jpg""style=""height:400px;""></img>","4","html-button-response","215","1163474","0.0-16.0-10.0","28428","List1B","black","woman","","true","4","","","","","","","","","",""
"null","CORRECT","","html-keyboard-response","216","1164992","0.0-16.0-11.0-0.0","28428","List1B","black","woman","","","","null","","","","","","","","",""
"2046.2999999970198","<img src=""portrait/BW1.jpg""style=""height:400px;""></img>","0","html-button-response","217","1167040","0.0-16.0-13.0","28428","List1B","black","woman","","true","0","","","","","","","","","",""
"null","CORRECT","","html-keyboard-response","218","1168558","0.0-16.0-14.0-0.0","28428","List1B","black","woman","","","","null","","","","","","","","",""
"1528.6000000014901","<img src=""portrait/WM2.jpg""style=""height:400px;""></img>","7","html-button-response","219","1170088","0.0-16.0-16.0","28428","List1B","black","woman","","true","7","","","","","","","","","",""
"null","CORRECT","","html-keyboard-response","220","1171607","0.0-16.0-17.0-0.0","28428","List1B","black","woman","","","","null","","","","","","","","",""
"1561.6000000014901","<img src=""portrait/BM2.jpg""style=""height:400px;""></img>","5","html-button-response","221","1173170","0.0-16.0-19.0","28428","List1B","black","woman","","true","5","","","","","","","","","",""
"null","CORRECT","","html-keyboard-response","222","1174692","0.0-16.0-20.0-0.0","28428","List1B","black","woman","","","","null","","","","","","","","",""
"1018.5","<img src=""portrait/WM1.jpg""style=""height:400px;""></img>","6","html-button-response","223","1175711","0.0-16.0-22.0","28428","List1B","black","woman","","true","6","","","","","","","","","",""
"null","CORRECT","","html-keyboard-response","224","1177231","0.0-16.0-23.0-0.0","28428","List1B","black","woman","","","","null","","","","","","","","",""
"1695.7999999970198","<p>You got 8 out of 8 right first time. Press Continue.</p>","0","html-button-response","225","1178928","0.0-16.0-25.0","28428","List1B","black","woman","","","","","","","","","","","","",""
"null","<div style=""font-size:60px;"">+</div>","","html-keyboard-response","226","1180445","0.0-17.0-0.0","28428","List1B","black","woman","","","","null","","","","","","","","",""
"null","<img src=""stim_listB/hug7.gif""style=""height:400px;""></stim_listB>","","html-keyboard-response","227","1182459","0.0-17.0-1.0","28428","List1B","black","woman","","","","null","","","","","","","","",""
"null","is hugging","","html-keyboard-response","228","1184475","0.0-17.0-2.0","28428","List1B","black","woman","","","","null","","","","","","","","",""
"5350.5","","","survey-text","229","1189829","0.0-17.0-3.0","28428","List1B","black","woman","","","","","{""Q0"":""ruth is hugging beth""}","<img src=""stim_listB/hug7.gif""style=""height:400px;""></stim_listB>","is hugging","","","","","",""
"null","<div style=""font-size:60px;"">+</div>","","html-keyboard-response","230","1190344","0.0-17.0-0.1","28428","List1B","black","woman","","","","null","","","","","","","","",""
"null","<img src=""stim_listB/look5.gif""style=""height:400px;""></stim_listB>","","html-keyboard-response","231","1192357","0.0-17.0-1.1","28428","List1B","black","woman","","","","null","","","","","","","","",""
"null","is looking at","","html-keyboard-response","232","1194360","0.0-17.0-2.1","28428","List1B","black","woman","","","","null","","","","","","","","",""
"5672.89999999851","","","survey-text","233","1200036","0.0-17.0-3.1","28428","List1B","black","woman","","","","","{""Q0"":""luke is looking at fred""}","<img src=""stim_listB/look5.gif""style=""height:400px;""></stim_listB>","is looking at","","","","","",""
"null","<div style=""font-size:60px;"">+</div>","","html-keyboard-response","234","1200541","0.0-17.0-0.2","28428","List1B","black","woman","","","","null","","","","","","","","",""
"null","<img src=""stim_listB/challenge5.gif""style=""height:400px;""></stim_listB>","","html-keyboard-response","235","1202544","0.0-17.0-1.2","28428","List1B","black","woman","","","","null","","","","","","","","",""
"null","is challenging","","html-keyboard-response","236","1204551","0.0-17.0-2.2","28428","List1B","black","woman","","","","null","","","","","","","","",""
"7023.60000000149","","","survey-text","237","1211578","0.0-17.0-3.2","28428","List1B","black","woman","","","","","{""Q0"":""luke is challenging mike""}","<img src=""stim_listB/challenge5.gif""style=""height:400px;""></stim_listB>","is challenging","","","","","",""
"null","<div style=""font-size:60px;"">+</div>","","html-keyboard-response","238","1212084","0.0-17.0-0.3","28428","List1B","black","woman","","","","null","","","","","","","","",""
"null","<img src=""stim_listB/look3.gif""style=""height:400px;""></stim_listB>","","html-keyboard-response","239","1214095","0.0-17.0-1.3","28428","List1B","black","woman","","","","null","","","","","","","","",""
"null","is looking at","","html-keyboard-response","240","1216108","0.0-17.0-2.3","28428","List1B","black","woman","","","","null","","","","","","","","",""
"7159.29999999702","","","survey-text","241","1223268","0.0-17.0-3.3","28428","List1B","black","woman","","","","","{""Q0"":""ruth is looking at luke""}","<img src=""stim_listB/look3.gif""style=""height:400px;""></stim_listB>","is looking at","","","","","",""
"null","<div style=""font-size:60px;"">+</div>","","html-keyboard-response","242","1223777","0.0-17.0-0.4","28428","List1B","black","woman","","","","null","","","","","","","","",""
"null","<img src=""stim_listB/oppose5.gif""style=""height:400px;""></stim_listB>","","html-keyboard-response","243","1225791","0.0-17.0-1.4","28428","List1B","black","woman","","","","null","","","","","","","","",""
"null","is opposing","","html-keyboard-response","244","1227805","0.0-17.0-2.4","28428","List1B","black","woman","","","","null","","","","","","","","",""
"6399.39999999851","","","survey-text","245","1234208","0.0-17.0-3.4","28428","List1B","black","woman","","","","","{""Q0"":""dave is opposing mike""}","<img src=""stim_listB/oppose5.gif""style=""height:400px;""></stim_listB>","is opposing","","","","","",""
"null","<div style=""font-size:60px;"">+</div>","","html-keyboard-response","246","1234709","0.0-17.0-0.5","28428","List1B","black","woman","","","","null","","","","","","","","",""
"null","<img src=""stim_listB/copy5.gif""style=""height:400px;""></stim_listB>","","html-keyboard-response","247","1236715","0.0-17.0-1.5","28428","List1B","black","woman","","","","null","","","","","","","","",""
"null","is copying","","html-keyboard-response","248","1238730","0.0-17.0-2.5","28428","List1B","black","woman","","","","null","","","","","","","","",""
"6202.60000000149","","","survey-text","249","1244935","0.0-17.0-3.5","28428","List1B","black","woman","","","","","{""Q0"":""luke is copying mike""}","<img src=""stim_listB/copy5.gif""style=""height:400px;""></stim_listB>","is copying","","","","","",""
"null","<div style=""font-size:60px;"">+</div>","","html-keyboard-response","250","1245437","0.0-17.0-0.6","28428","List1B","black","woman","","","","null","","","","","","","","",""
"null","<img src=""stim_listB/hug5.gif""style=""height:400px;""></stim_listB>","","html-keyboard-response","251","1247445","0.0-17.0-1.6","28428","List1B","black","woman","","","","null","","","","","","","","",""
"null","is hugging","","html-keyboard-response","252","1249449","0.0-17.0-2.6","28428","List1B","black","woman","","","","null","","","","","","","","",""
"10449.39999999851","","","survey-text","253","1259902","0.0-17.0-3.6","28428","List1B","black","woman","","","","","{""Q0"":""fred is hugging luke""}","<img src=""stim_listB/hug5.gif""style=""height:400px;""></stim_listB>","is hugging","","","","","",""
"null","<div style=""font-size:60px;"">+</div>","","html-keyboard-response","254","1260415","0.0-17.0-0.7","28428","List1B","black","woman","","","","null","","","","","","","","",""
"null","<img src=""stim_listB/seduce5.gif""style=""height:400px;""></stim_listB>","","html-keyboard-response","255","1262425","0.0-17.0-1.7","28428","List1B","black","woman","","","","null","","","","","","","","",""
"null","is seducing","","html-keyboard-response","256","1264441","0.0-17.0-2.7","28428","List1B","black","woman","","","","null","","","","","","","","",""
"11028","","","survey-text","257","1275472","0.0-17.0-3.7","28428","List1B","black","woman","","","","","{""Q0"":""dave is seducing fred""}","<img src=""stim_listB/seduce5.gif""style=""height:400px;""></stim_listB>","is seducing","","","","","",""
"null","<div style=""font-size:60px;"">+</div>","","html-keyboard-response","258","1275973","0.0-17.0-0.8","28428","List1B","black","woman","","","","null","","","","","","","","",""
"null","<img src=""stim_listB/look6.gif""style=""height:400px;""></stim_listB>","","html-keyboard-response","259","1277977","0.0-17.0-1.8","28428","List1B","black","woman","","","","null","","","","","","","","",""
"null","is being looked at by","","html-keyboard-response","260","1279981","0.0-17.0-2.8","28428","List1B","black","woman","","","","null","","","","","","","","",""
"8714.80000000447","","","survey-text","261","1288698","0.0-17.0-3.8","28428","List1B","black","woman","","","","","{""Q0"":""dave is being looked at by mike""}","<img src=""stim_listB/look6.gif""style=""height:400px;""></stim_listB>","is being looked at by","","","","","",""
"null","<div style=""font-size:60px;"">+</div>","","html-keyboard-response","262","1289206","0.0-17.0-0.9","28428","List1B","black","woman","","","","null","","","","","","","","",""
"null","<img src=""stim_listB/greet2.gif""style=""height:400px;""></stim_listB>","","html-keyboard-response","263","1291214","0.0-17.0-1.9","28428","List1B","black","woman","","","","null","","","","","","","","",""
"null","is being greeted by","","html-keyboard-response","264","1293217","0.0-17.0-2.9","28428","List1B","black","woman","","","","null","","","","","","","","",""
"26496.89999999851","","","survey-text","265","1319715","0.0-17.0-3.9","28428","List1B","black","woman","","","","","{""Q0"":""kate is being greeted by fred""}","<img src=""stim_listB/greet2.gif""style=""height:400px;""></stim_listB>","is being greeted by","","","","","",""
"null","<div style=""font-size:60px;"">+</div>","","html-keyboard-response","266","1320224","0.0-17.0-0.10","28428","List1B","black","woman","","","","null","","","","","","","","",""
"null","<img src=""stim_listB/shout2.gif""style=""height:400px;""></stim_listB>","","html-keyboard-response","267","1322236","0.0-17.0-1.10","28428","List1B","black","woman","","","","null","","","","","","","","",""
"null","is being shouted at by","","html-keyboard-response","268","1324237","0.0-17.0-2.10","28428","List1B","black","woman","","","","null","","","","","","","","",""
"10747.60000000149","","","survey-text","269","1334987","0.0-17.0-3.10","28428","List1B","black","woman","","","","","{""Q0"":""kate is being shouted at by mike""}","<img src=""stim_listB/shout2.gif""style=""height:400px;""></stim_listB>","is being shouted at by","","","","","",""
"null","<div style=""font-size:60px;"">+</div>","","html-keyboard-response","270","1335498","0.0-17.0-0.11","28428","List1B","black","woman","","","","null","","","","","","","","",""
"null","<img src=""stim_listB/oppose8.gif""style=""height:400px;""></stim_listB>","","html-keyboard-response","271","1337508","0.0-17.0-1.11","28428","List1B","black","woman","","","","null","","","","","","","","",""
"null","is being opposed by","","html-keyboard-response","272","1339513","0.0-17.0-2.11","28428","List1B","black","woman","","","","null","","","","","","","","",""
"10657.19999999553","","","survey-text","273","1350173","0.0-17.0-3.11","28428","List1B","black","woman","","","","","{""Q0"":""beth is being opposed by ruth""}","<img src=""stim_listB/oppose8.gif""style=""height:400px;""></stim_listB>","is being opposed by","","","","","",""
"null","<div style=""font-size:60px;"">+</div>","","html-keyboard-response","274","1350675","0.0-17.0-0.12","28428","List1B","black","woman","","","","null","","","","","","","","",""
"null","<img src=""stim_listB/copy8.gif""style=""height:400px;""></stim_listB>","","html-keyboard-response","275","1352692","0.0-17.0-1.12","28428","List1B","black","woman","","","","null","","","","","","","","",""
"null","is being copied by","","html-keyboard-response","276","1354708","0.0-17.0-2.12","28428","List1B","black","woman","","","","null","","","","","","","","",""
"9728.60000000149","","","survey-text","277","1364439","0.0-17.0-3.12","28428","List1B","black","woman","","","","","{""Q0"":""jane is being copied by beth""}","<img src=""stim_listB/copy8.gif""style=""height:400px;""></stim_listB>","is being copied by","","","","","",""
"null","<div style=""font-size:60px;"">+</div>","","html-keyboard-response","278","1364949","0.0-17.0-0.13","28428","List1B","black","woman","","","","null","","","","","","","","",""
"null","<img src=""stim_listB/touch3.gif""style=""height:400px;""></stim_listB>","","html-keyboard-response","279","1366952","0.0-17.0-1.13","28428","List1B","black","woman","","","","null","","","","","","","","",""
"null","is touching","","html-keyboard-response","280","1368959","0.0-17.0-2.13","28428","List1B","black","woman","","","","null","","","","","","","","",""
"6487.5","","","survey-text","281","1375450","0.0-17.0-3.13","28428","List1B","black","woman","","","","","{""Q0"":""jane is touching dave""}","<img src=""stim_listB/touch3.gif""style=""height:400px;""></stim_listB>","is touching","","","","","",""
"null","<div style=""font-size:60px;"">+</div>","","html-keyboard-response","282","1375955","0.0-17.0-0.14","28428","List1B","black","woman","","","","null","","","","","","","","",""
"null","<img src=""stim_listB/oppose4.gif""style=""height:400px;""></stim_listB>","","html-keyboard-response","283","1377958","0.0-17.0-1.14","28428","List1B","black","woman","","","","null","","","","","","","","",""
"null","is being opposed by","","html-keyboard-response","284","1379965","0.0-17.0-2.14","28428","List1B","black","woman","","","","null","","","","","","","","",""
"8823.60000000149","","","survey-text","285","1388789","0.0-17.0-3.14","28428","List1B","black","woman","","","","","{""Q0"":""ruth is being opposed by luke""}","<img src=""stim_listB/oppose4.gif""style=""height:400px;""></stim_listB>","is being opposed by","","","","","",""
"null","<div style=""font-size:60px;"">+</div>","","html-keyboard-response","286","1389300","0.0-17.0-0.15","28428","List1B","black","woman","","","","null","","","","","","","","",""
"null","<img src=""stim_listB/copy4.gif""style=""height:400px;""></stim_listB>","","html-keyboard-response","287","1391308","0.0-17.0-1.15","28428","List1B","black","woman","","","","null","","","","","","","","",""
"null","is being copied by","","html-keyboard-response","288","1393324","0.0-17.0-2.15","28428","List1B","black","woman","","","","null","","","","","","","","",""
"8648.30000000447","","","survey-text","289","1401976","0.0-17.0-3.15","28428","List1B","black","woman","","","","","{""Q0"":""luke is being copied by jane""}","<img src=""stim_listB/copy4.gif""style=""height:400px;""></stim_listB>","is being copied by","","","","","",""
"null","<div style=""font-size:60px;"">+</div>","","html-keyboard-response","290","1402478","0.0-17.0-0.16","28428","List1B","black","woman","","","","null","","","","","","","","",""
"null","<img src=""stim_listB/kiss1.gif""style=""height:400px;""></stim_listB>","","html-keyboard-response","291","1404489","0.0-17.0-1.16","28428","List1B","black","woman","","","","null","","","","","","","","",""
"null","is kissing","","html-keyboard-response","292","1406492","0.0-17.0-2.16","28428","List1B","black","woman","","","","null","","","","","","","","",""
"6196.4000000059605","","","survey-text","293","1412692","0.0-17.0-3.16","28428","List1B","black","woman","","","","","{""Q0"":""beth is kissing fred""}","<img src=""stim_listB/kiss1.gif""style=""height:400px;""></stim_listB>","is kissing","","","","","",""
"null","<div style=""font-size:60px;"">+</div>","","html-keyboard-response","294","1413206","0.0-17.0-0.17","28428","List1B","black","woman","","","","null","","","","","","","","",""
"null","<img src=""stim_listB/copy3.gif""style=""height:400px;""></stim_listB>","","html-keyboard-response","295","1415210","0.0-17.0-1.17","28428","List1B","black","woman","","","","null","","","","","","","","",""
"null","is copying","","html-keyboard-response","296","1417220","0.0-17.0-2.17","28428","List1B","black","woman","","","","null","","","","","","","","",""
"6656.5","","","survey-text","297","1423878","0.0-17.0-3.17","28428","List1B","black","woman","","","","","{""Q0"":""ruth is copying dave""}","<img src=""stim_listB/copy3.gif""style=""height:400px;""></stim_listB>","is copying","","","","","",""
"null","<div style=""font-size:60px;"">+</div>","","html-keyboard-response","298","1424380","0.0-17.0-0.18","28428","List1B","black","woman","","","","null","","","","","","","","",""
"null","<img src=""stim_listB/challenge4.gif""style=""height:400px;""></stim_listB>","","html-keyboard-response","299","1426383","0.0-17.0-1.18","28428","List1B","black","woman","","","","null","","","","","","","","",""
"null","is being challenged by","","html-keyboard-response","300","1428386","0.0-17.0-2.18","28428","List1B","black","woman","","","","null","","","","","","","","",""
"9298.70000000298","","","survey-text","301","1437688","0.0-17.0-3.18","28428","List1B","black","woman","","","","","{""Q0"":""jane is being challenged by luke""}","<img src=""stim_listB/challenge4.gif""style=""height:400px;""></stim_listB>","is being challenged by","","","","","",""
"null","<div style=""font-size:60px;"">+</div>","","html-keyboard-response","302","1438190","0.0-17.0-0.19","28428","List1B","black","woman","","","","null","","","","","","","","",""
"null","<img src=""stim_listB/seduce2.gif""style=""height:400px;""></stim_listB>","","html-keyboard-response","303","1440193","0.0-17.0-1.19","28428","List1B","black","woman","","","","null","","","","","","","","",""
"null","is being seduced by","","html-keyboard-response","304","1442197","0.0-17.0-2.19","28428","List1B","black","woman","","","","null","","","","","","","","",""
"9262","","","survey-text","305","1451464","0.0-17.0-3.19","28428","List1B","black","woman","","","","","{""Q0"":""beth is being seduced by mike""}","<img src=""stim_listB/seduce2.gif""style=""height:400px;""></stim_listB>","is being seduced by","","","","","",""
"13546.89999999851","<img src='img/portrait_matrix_list1.jpg' style='width:900px;height:500px;''></img><p>If you have memorised all the portraits and names and are ready to start, press Continue.</p><p><strong>Please note: Your memory of these faces will be tested 4 times during this experiment.</strong></p>","0","html-button-response","306","1465012","0.0-18.0-0.0","28428","List1B","black","woman","","","","","","","","","","","","",""
"1641.5","<img src=""portrait/WW2.jpg""style=""height:400px;""></img>","3","html-button-response","307","1467668","0.0-18.0-1.0","28428","List1B","black","woman","","true","3","","","","","","","","","",""
"null","CORRECT","","html-keyboard-response","308","1469191","0.0-18.0-2.0-0.0","28428","List1B","black","woman","","","","null","","","","","","","","",""
"1911.7000000029802","<img src=""portrait/BM1.jpg""style=""height:400px;""></img>","4","html-button-response","309","1471104","0.0-18.0-4.0","28428","List1B","black","woman","","true","4","","","","","","","","","",""
"null","CORRECT","","html-keyboard-response","310","1472618","0.0-18.0-5.0-0.0","28428","List1B","black","woman","","","","null","","","","","","","","",""
"2336.1999999955297","<img src=""portrait/WM1.jpg""style=""height:400px;""></img>","6","html-button-response","311","1474956","0.0-18.0-7.0","28428","List1B","black","woman","","true","6","","","","","","","","","",""
"null","CORRECT","","html-keyboard-response","312","1476466","0.0-18.0-8.0-0.0","28428","List1B","black","woman","","","","null","","","","","","","","",""
"1664.3000000044703","<img src=""portrait/BW2.jpg""style=""height:400px;""></img>","2","html-button-response","313","1478132","0.0-18.0-10.0","28428","List1B","black","woman","","true","2","","","","","","","","","",""
"null","CORRECT","","html-keyboard-response","314","1479655","0.0-18.0-11.0-0.0","28428","List1B","black","woman","","","","null","","","","","","","","",""
"1604.2000000029802","<img src=""portrait/BM2.jpg""style=""height:400px;""></img>","5","html-button-response","315","1481260","0.0-18.0-13.0","28428","List1B","black","woman","","true","5","","","","","","","","","",""
"null","CORRECT","","html-keyboard-response","316","1482774","0.0-18.0-14.0-0.0","28428","List1B","black","woman","","","","null","","","","","","","","",""
"2233","<img src=""portrait/BW1.jpg""style=""height:400px;""></img>","0","html-button-response","317","1485008","0.0-18.0-16.0","28428","List1B","black","woman","","true","0","","","","","","","","","",""
"null","CORRECT","","html-keyboard-response","318","1486517","0.0-18.0-17.0-0.0","28428","List1B","black","woman","","","","null","","","","","","","","",""
"1773.6999999955297","<img src=""portrait/WM2.jpg""style=""height:400px;""></img>","7","html-button-response","319","1488292","0.0-18.0-19.0","28428","List1B","black","woman","","true","7","","","","","","","","","",""
"null","CORRECT","","html-keyboard-response","320","1489810","0.0-18.0-20.0-0.0","28428","List1B","black","woman","","","","null","","","","","","","","",""
"1580.7999999970198","<img src=""portrait/WW1.jpg""style=""height:400px;""></img>","1","html-button-response","321","1491392","0.0-18.0-22.0","28428","List1B","black","woman","","true","1","","","","","","","","","",""
"null","CORRECT","","html-keyboard-response","322","1492896","0.0-18.0-23.0-0.0","28428","List1B","black","woman","","","","null","","","","","","","","",""
"992","<p>You got 8 out of 8 right first time. Press Continue.</p>","0","html-button-response","323","1493890","0.0-18.0-25.0","28428","List1B","black","woman","","","","","","","","","","","","",""
"null","<div style=""font-size:60px;"">+</div>","","html-keyboard-response","324","1495399","0.0-19.0-0.0","28428","List1B","black","woman","","","","null","","","","","","","","",""
"null","<img src=""stim_listB/touch2.gif""style=""height:400px;""></stim_listB>","","html-keyboard-response","325","1497412","0.0-19.0-1.0","28428","List1B","black","woman","","","","null","","","","","","","","",""
"null","is being touched by","","html-keyboard-response","326","1499427","0.0-19.0-2.0","28428","List1B","black","woman","","","","null","","","","","","","","",""
"7691.5","","","survey-text","327","1507119","0.0-19.0-3.0","28428","List1B","black","woman","","","","","{""Q0"":""fred is being touched by beth""}","<img src=""stim_listB/touch2.gif""style=""height:400px;""></stim_listB>","is being touched by","","","","","",""
"null","<div style=""font-size:60px;"">+</div>","","html-keyboard-response","328","1507634","0.0-19.0-0.1","28428","List1B","black","woman","","","","null","","","","","","","","",""
"null","<img src=""stim_listB/shout6.gif""style=""height:400px;""></stim_listB>","","html-keyboard-response","329","1509641","0.0-19.0-1.1","28428","List1B","black","woman","","","","null","","","","","","","","",""
"null","is being shouted at by","","html-keyboard-response","330","1511643","0.0-19.0-2.1","28428","List1B","black","woman","","","","null","","","","","","","","",""
"8867.10000000149","","","survey-text","331","1520511","0.0-19.0-3.1","28428","List1B","black","woman","","","","","{""Q0"":""dave is being shouted at by mike""}","<img src=""stim_listB/shout6.gif""style=""height:400px;""></stim_listB>","is being shouted at by","","","","","",""
"null","<div style=""font-size:60px;"">+</div>","","html-keyboard-response","332","1521019","0.0-19.0-0.2","28428","List1B","black","woman","","","","null","","","","","","","","",""
"null","<img src=""stim_listB/challenge6.gif""style=""height:400px;""></stim_listB>","","html-keyboard-response","333","1523026","0.0-19.0-1.2","28428","List1B","black","woman","","","","null","","","","","","","","",""
"null","is being challenged by","","html-keyboard-response","334","1525038","0.0-19.0-2.2","28428","List1B","black","woman","","","","null","","","","","","","","",""
"9059","","","survey-text","335","1534099","0.0-19.0-3.2","28428","List1B","black","woman","","","","","{""Q0"":""dave is being challenged by fred""}","<img src=""stim_listB/challenge6.gif""style=""height:400px;""></stim_listB>","is being challenged by","","","","","",""
"null","<div style=""font-size:60px;"">+</div>","","html-keyboard-response","336","1534601","0.0-19.0-0.3","28428","List1B","black","woman","","","","null","","","","","","","","",""
"null","<img src=""stim_listB/hug6.gif""style=""height:400px;""></stim_listB>","","html-keyboard-response","337","1536609","0.0-19.0-1.3","28428","List1B","black","woman","","","","null","","","","","","","","",""
"null","is being hugged by","","html-keyboard-response","338","1538612","0.0-19.0-2.3","28428","List1B","black","woman","","","","null","","","","","","","","",""
"7691.89999999851","","","survey-text","339","1546305","0.0-19.0-3.3","28428","List1B","black","woman","","","","","{""Q0"":""dave is being hugged by mike""}","<img src=""stim_listB/hug6.gif""style=""height:400px;""></stim_listB>","is being hugged by","","","","","",""
"null","<div style=""font-size:60px;"">+</div>","","html-keyboard-response","340","1546809","0.0-19.0-0.4","28428","List1B","black","woman","","","","null","","","","","","","","",""
"null","<img src=""stim_listB/greet4.gif""style=""height:400px;""></stim_listB>","","html-keyboard-response","341","1548817","0.0-19.0-1.4","28428","List1B","black","woman","","","","null","","","","","","","","",""
"null","is being greeted by","","html-keyboard-response","342","1550821","0.0-19.0-2.4","28428","List1B","black","woman","","","","null","","","","","","","","",""
"8741.5","","","survey-text","343","1559566","0.0-19.0-3.4","28428","List1B","black","woman","","","","","{""Q0"":""luke is being greeted by jane""}","<img src=""stim_listB/greet4.gif""style=""height:400px;""></stim_listB>","is being greeted by","","","","","",""
"null","<div style=""font-size:60px;"">+</div>","","html-keyboard-response","344","1560076","0.0-19.0-0.5","28428","List1B","black","woman","","","","null","","","","","","","","",""
"null","<img src=""stim_listB/oppose2.gif""style=""height:400px;""></stim_listB>","","html-keyboard-response","345","1562092","0.0-19.0-1.5","28428","List1B","black","woman","","","","null","","","","","","","","",""
"null","is being opposed by","","html-keyboard-response","346","1564109","0.0-19.0-2.5","28428","List1B","black","woman","","","","null","","","","","","","","",""
"10032.19999999553","","","survey-text","347","1574142","0.0-19.0-3.5","28428","List1B","black","woman","","","","","{""Q0"":""beth is being opposed by fred""}","<img src=""stim_listB/oppose2.gif""style=""height:400px;""></stim_listB>","is being opposed by","","","","","",""
"null","<div style=""font-size:60px;"">+</div>","","html-keyboard-response","348","1574645","0.0-19.0-0.6","28428","List1B","black","woman","","","","null","","","","","","","","",""
"null","<img src=""stim_listB/greet7.gif""style=""height:400px;""></stim_listB>","","html-keyboard-response","349","1576650","0.0-19.0-1.6","28428","List1B","black","woman","","","","null","","","","","","","","",""
"null","is greeting","","html-keyboard-response","350","1578656","0.0-19.0-2.6","28428","List1B","black","woman","","","","null","","","","","","","","",""
"10413","","","survey-text","351","1589070","0.0-19.0-3.6","28428","List1B","black","woman","","","","","{""Q0"":""ruth is greeting kate""}","<img src=""stim_listB/greet7.gif""style=""height:400px;""></stim_listB>","is greeting","","","","","",""
"null","<div style=""font-size:60px;"">+</div>","","html-keyboard-response","352","1589571","0.0-19.0-0.7","28428","List1B","black","woman","","","","null","","","","","","","","",""
"null","<img src=""stim_listB/seduce7.gif""style=""height:400px;""></stim_listB>","","html-keyboard-response","353","1591588","0.0-19.0-1.7","28428","List1B","black","woman","","","","null","","","","","","","","",""
"null","is seducing","","html-keyboard-response","354","1593592","0.0-19.0-2.7","28428","List1B","black","woman","","","","null","","","","","","","","",""
"15405.69999999553","","","survey-text","355","1609000","0.0-19.0-3.7","28428","List1B","black","woman","","","","","{""Q0"":""jane is seducing beth""}","<img src=""stim_listB/seduce7.gif""style=""height:400px;""></stim_listB>","is seducing","","","","","",""
"null","<div style=""font-size:60px;"">+</div>","","html-keyboard-response","356","1609502","0.0-19.0-0.8","28428","List1B","black","woman","","","","null","","","","","","","","",""
"null","<img src=""stim_listB/shout7.gif""style=""height:400px;""></stim_listB>","","html-keyboard-response","357","1611510","0.0-19.0-1.8","28428","List1B","black","woman","","","","null","","","","","","","","",""
"null","is shouting at","","html-keyboard-response","358","1613517","0.0-19.0-2.8","28428","List1B","black","woman","","","","null","","","","","","","","",""
"7162","","","survey-text","359","1620682","0.0-19.0-3.8","28428","List1B","black","woman","","","","","{""Q0"":""beth is shouting at ruth""}","<img src=""stim_listB/shout7.gif""style=""height:400px;""></stim_listB>","is shouting at","","","","","",""
"null","<div style=""font-size:60px;"">+</div>","","html-keyboard-response","360","1621184","0.0-19.0-0.9","28428","List1B","black","woman","","","","null","","","","","","","","",""
"null","<img src=""stim_listB/oppose6.gif""style=""height:400px;""></stim_listB>","","html-keyboard-response","361","1623192","0.0-19.0-1.9","28428","List1B","black","woman","","","","null","","","","","","","","",""
"null","is being opposed by","","html-keyboard-response","362","1625208","0.0-19.0-2.9","28428","List1B","black","woman","","","","null","","","","","","","","",""
"8560.39999999851","","","survey-text","363","1633772","0.0-19.0-3.9","28428","List1B","black","woman","","","","","{""Q0"":""fred is being opposed by luke""}","<img src=""stim_listB/oppose6.gif""style=""height:400px;""></stim_listB>","is being opposed by","","","","","",""
"null","<div style=""font-size:60px;"">+</div>","","html-keyboard-response","364","1634276","0.0-19.0-0.10","28428","List1B","black","woman","","","","null","","","","","","","","",""
"null","<img src=""stim_listB/touch4.gif""style=""height:400px;""></stim_listB>","","html-keyboard-response","365","1636281","0.0-19.0-1.10","28428","List1B","black","woman","","","","null","","","","","","","","",""
"null","is being touched by","","html-keyboard-response","366","1638285","0.0-19.0-2.10","28428","List1B","black","woman","","","","null","","","","","","","","",""
"8341.5","","","survey-text","367","1646629","0.0-19.0-3.10","28428","List1B","black","woman","","","","","{""Q0"":""luke is being touched by ruth""}","<img src=""stim_listB/touch4.gif""style=""height:400px;""></stim_listB>","is being touched by","","","","","",""
"null","<div style=""font-size:60px;"">+</div>","","html-keyboard-response","368","1647133","0.0-19.0-0.11","28428","List1B","black","woman","","","","null","","","","","","","","",""
"null","<img src=""stim_listB/copy7.gif""style=""height:400px;""></stim_listB>","","html-keyboard-response","369","1649149","0.0-19.0-1.11","28428","List1B","black","woman","","","","null","","","","","","","","",""
"null","is copying","","html-keyboard-response","370","1651155","0.0-19.0-2.11","28428","List1B","black","woman","","","","null","","","","","","","","",""
"11142.79999999702","","","survey-text","371","1662299","0.0-19.0-3.11","28428","List1B","black","woman","","","","","{""Q0"":""ruth is copying kate""}","<img src=""stim_listB/copy7.gif""style=""height:400px;""></stim_listB>","is copying","","","","","",""
"null","<div style=""font-size:60px;"">+</div>","","html-keyboard-response","372","1662812","0.0-19.0-0.12","28428","List1B","black","woman","","","","null","","","","","","","","",""
"null","<img src=""stim_listB/look2.gif""style=""height:400px;""></stim_listB>","","html-keyboard-response","373","1664826","0.0-19.0-1.12","28428","List1B","black","woman","","","","null","","","","","","","","",""
"null","is being looked at by","","html-keyboard-response","374","1666839","0.0-19.0-2.12","28428","List1B","black","woman","","","","null","","","","","","","","",""
"8364.60000000149","","","survey-text","375","1675207","0.0-19.0-3.12","28428","List1B","black","woman","","","","","{""Q0"":""kate is being looked at by mike""}","<img src=""stim_listB/look2.gif""style=""height:400px;""></stim_listB>","is being looked at by","","","","","",""
"null","<div style=""font-size:60px;"">+</div>","","html-keyboard-response","376","1675715","0.0-19.0-0.13","28428","List1B","black","woman","","","","null","","","","","","","","",""
"null","<img src=""stim_listB/look7.gif""style=""height:400px;""></stim_listB>","","html-keyboard-response","377","1677725","0.0-19.0-1.13","28428","List1B","black","woman","","","","null","","","","","","","","",""
"null","is looking at","","html-keyboard-response","378","1679727","0.0-19.0-2.13","28428","List1B","black","woman","","","","null","","","","","","","","",""
"7475.70000000298","","","survey-text","379","1687206","0.0-19.0-3.13","28428","List1B","black","woman","","","","","{""Q0"":""ruth is looking at beth""}","<img src=""stim_listB/look7.gif""style=""height:400px;""></stim_listB>","is looking at","","","","","",""
"null","<div style=""font-size:60px;"">+</div>","","html-keyboard-response","380","1687711","0.0-19.0-0.14","28428","List1B","black","woman","","","","null","","","","","","","","",""
"null","<img src=""stim_listB/shout4.gif""style=""height:400px;""></stim_listB>","","html-keyboard-response","381","1689728","0.0-19.0-1.14","28428","List1B","black","woman","","","","null","","","","","","","","",""
"null","is being shouted at by","","html-keyboard-response","382","1691733","0.0-19.0-2.14","28428","List1B","black","woman","","","","null","","","","","","","","",""
"9957.60000000149","","","survey-text","383","1701692","0.0-19.0-3.14","28428","List1B","black","woman","","","","","{""Q0"":""dave is being shouted at by jane""}","<img src=""stim_listB/shout4.gif""style=""height:400px;""></stim_listB>","is being shouted at by","","","","","",""
"null","<div style=""font-size:60px;"">+</div>","","html-keyboard-response","384","1702193","0.0-19.0-0.15","28428","List1B","black","woman","","","","null","","","","","","","","",""
"null","<img src=""stim_listB/kiss8.gif""style=""height:400px;""></stim_listB>","","html-keyboard-response","385","1704209","0.0-19.0-1.15","28428","List1B","black","woman","","","","null","","","","","","","","",""
"null","is being kissed by","","html-keyboard-response","386","1706226","0.0-19.0-2.15","28428","List1B","black","woman","","","","null","","","","","","","","",""
"8001.29999999702","","","survey-text","387","1714230","0.0-19.0-3.15","28428","List1B","black","woman","","","","","{""Q0"":""kate is being kissed by jane""}","<img src=""stim_listB/kiss8.gif""style=""height:400px;""></stim_listB>","is being kissed by","","","","","",""
"null","<div style=""font-size:60px;"">+</div>","","html-keyboard-response","388","1714733","0.0-19.0-0.16","28428","List1B","black","woman","","","","null","","","","","","","","",""
"null","<img src=""stim_listB/shout1.gif""style=""height:400px;""></stim_listB>","","html-keyboard-response","389","1716741","0.0-19.0-1.16","28428","List1B","black","woman","","","","null","","","","","","","","",""
"null","is shouting at","","html-keyboard-response","390","1718756","0.0-19.0-2.16","28428","List1B","black","woman","","","","null","","","","","","","","",""
"6330.89999999851","","","survey-text","391","1725090","0.0-19.0-3.16","28428","List1B","black","woman","","","","","{""Q0"":""beth is shouting at fred""}","<img src=""stim_listB/shout1.gif""style=""height:400px;""></stim_listB>","is shouting at","","","","","",""
"null","<div style=""font-size:60px;"">+</div>","","html-keyboard-response","392","1725594","0.0-19.0-0.17","28428","List1B","black","woman","","","","null","","","","","","","","",""
"null","<img src=""stim_listB/greet1.gif""style=""height:400px;""></stim_listB>","","html-keyboard-response","393","1727609","0.0-19.0-1.17","28428","List1B","black","woman","","","","null","","","","","","","","",""
"null","is greeting","","html-keyboard-response","394","1729619","0.0-19.0-2.17","28428","List1B","black","woman","","","","null","","","","","","","","",""
"6098.20000000298","","","survey-text","395","1735718","0.0-19.0-3.17","28428","List1B","black","woman","","","","","{""Q0"":""beth is greeting mike""}","<img src=""stim_listB/greet1.gif""style=""height:400px;""></stim_listB>","is greeting","","","","","",""
"null","<div style=""font-size:60px;"">+</div>","","html-keyboard-response","396","1736225","0.0-19.0-0.18","28428","List1B","black","woman","","","","null","","","","","","","","",""
"null","<img src=""stim_listB/shout8.gif""style=""height:400px;""></stim_listB>","","html-keyboard-response","397","1738226","0.0-19.0-1.18","28428","List1B","black","woman","","","","null","","","","","","","","",""
"null","is being shouted at by","","html-keyboard-response","398","1740232","0.0-19.0-2.18","28428","List1B","black","woman","","","","null","","","","","","","","",""
"8104.10000000149","","","survey-text","399","1748338","0.0-19.0-3.18","28428","List1B","black","woman","","","","","{""Q0"":""kate is being shouted at by jane""}","<img src=""stim_listB/shout8.gif""style=""height:400px;""></stim_listB>","is being shouted at by","","","","","",""
"null","<div style=""font-size:60px;"">+</div>","","html-keyboard-response","400","1748845","0.0-19.0-0.19","28428","List1B","black","woman","","","","null","","","","","","","","",""
"null","<img src=""stim_listB/touch6.gif""style=""height:400px;""></stim_listB>","","html-keyboard-response","401","1750860","0.0-19.0-1.19","28428","List1B","black","woman","","","","null","","","","","","","","",""
"null","is being touched by","","html-keyboard-response","402","1752873","0.0-19.0-2.19","28428","List1B","black","woman","","","","null","","","","","","","","",""
"8632.10000000149","","","survey-text","403","1761508","0.0-19.0-3.19","28428","List1B","black","woman","","","","","{""Q0"":""fred is being touched by luke""}","<img src=""stim_listB/touch6.gif""style=""height:400px;""></stim_listB>","is being touched by","","","","","",""
"1838.8000000044703","<p>Thank you for completing that task.</p><p>The final part of this session is a questionnaire that will take about 4 minutes.</p><p>Press Continue.</p>","0","html-button-response","404","1763348","0.0-20.0","28428","List1B","black","woman","","","","","","","","","","","","",""
"39120.10000000149","","","survey-text","405","1803477","0.0-21.0","28428","List1B","black","woman","","","","","{""Q0"":""26"",""Q1"":""english"",""Q2"":""english"",""Q3"":""USA"",""Q4"":""American"",""Q5"":""Black"",""Q6"":""Female""}","","","demographics","","","","",""
"2721.2999999970198","<p>Have you lived in the USA for the last 5 years or more?</p>","0","html-button-response","406","1806200","0.0-22.0","28428","List1B","black","woman","","","","","","","","fiveyears","","","","",""
"2311.60000000149","<p>Move the slider to show the extent to which you agree with the following statements.</p>","0","html-button-response","407","1809516","0.0-23.0","28428","List1B","black","woman","","","","","","","","","","","","",""
"4372.79999999702","","","html-slider-response","408","1814907","0.0-24.0-0.0-0.0","28428","List1B","black","woman","","","","","","","","survey_race","90","","","I consider myself an introvert.","filler"
"3773.5999999940395","","","html-slider-response","409","1818682","0.0-24.0-0.0-0.1","28428","List1B","black","woman","","","","","","","","survey_race","71","","","I feel a bond with my race.","bond"
"3332.39999999851","","","html-slider-response","410","1822016","0.0-24.0-0.0-0.2","28428","List1B","black","woman","","","","","","","","survey_race","15","","","Being my age gives me a good feeling.","filler"
"3600.39999999851","","","html-slider-response","411","1825618","0.0-24.0-0.0-0.3","28428","List1B","black","woman","","","","","","","","survey_race","70","","","I often think about the fact that I am my age.","filler"
"4774.4000000059605","","","html-slider-response","412","1830394","0.0-24.0-0.0-0.4","28428","List1B","black","woman","","","","","","","","survey_race","82","","","People of my race have a lot in common with each other.","common"
"2882.7000000029802","","","html-slider-response","413","1833278","0.0-24.0-0.0-0.5","28428","List1B","black","woman","","","","","","","","survey_race","3","","","I consider myself an extrovert.","filler"
"2766.7999999970198","","","html-slider-response","414","1836046","0.0-24.0-0.0-0.6","28428","List1B","black","woman","","","","","","","","survey_race","6","","","I enjoy being in large groups.","filler"
"3238.39999999851","","","html-slider-response","415","1839286","0.0-24.0-0.0-0.7","28428","List1B","black","woman","","","","","","","","survey_race","21","","","My age is not an important part of who I am.","filler"
"2445.3000000044703","","","html-slider-response","416","1841732","0.0-24.0-0.0-0.8","28428","List1B","black","woman","","","","","","","","survey_race","14","","","I am glad to be the age I am.","filler"
"5832","","","html-slider-response","417","1847566","0.0-24.0-0.0-0.9","28428","List1B","black","woman","","","","","","","","survey_race","59","","","People of my race are very similar to each other.","verysimilar"
"3798","","","html-slider-response","418","1851366","0.0-24.0-0.0-0.10","28428","List1B","black","woman","","","","","","","","survey_race","0","","","The older I get, the wiser I feel.","filler"
"6826.69999999553","","","html-slider-response","419","1858194","0.0-24.0-0.0-0.11","28428","List1B","black","woman","","","","","","","","survey_race","69","","","It is pleasant to be my race.","pleasant"
"3922","","","html-slider-response","420","1862117","0.0-24.0-0.0-0.12","28428","List1B","black","woman","","","","","","","","survey_race","9","","","I feel solidarity with people the same age as me.","filler"
"3969.5","","","html-slider-response","421","1866088","0.0-24.0-0.0-0.13","28428","List1B","black","woman","","","","","","","","survey_race","60","","","Being my race is an important part of how I see myself.","important"
"3450.2999999970198","","","html-slider-response","422","1869540","0.0-24.0-0.0-0.14","28428","List1B","black","woman","","","","","","","","survey_race","84","","","I feel committed to my race.","committed"
"3466.5","","","html-slider-response","423","1873008","0.0-24.0-0.0-0.15","28428","List1B","black","woman","","","","","","","","survey_race","29","","","People my age have a lot in common with each other.","filler"
"4936.39999999851","","","html-slider-response","424","1877946","0.0-24.0-0.0-0.16","28428","List1B","black","woman","","","","","","","","survey_race","64","","","I have a lot in common with the average person of my race.","average"
"3373","","","html-slider-response","425","1881320","0.0-24.0-0.0-0.17","28428","List1B","black","woman","","","","","","","","survey_race","73","","","Being my race gives me a good feeling.","feeling"
"8422.10000000149","","","html-slider-response","426","1889744","0.0-24.0-0.0-0.18","28428","List1B","black","woman","","","","","","","","survey_race","68","","","I am similar to the average person of my race.","similar"
"2680.2999999970198","","","html-slider-response","427","1892426","0.0-24.0-0.0-0.19","28428","List1B","black","woman","","","","","","","","survey_race","27","","","I have a lot in common with people of a similar age to me.","filler"
"2352.5999999940395","","","html-slider-response","428","1894780","0.0-24.0-0.0-0.20","28428","List1B","black","woman","","","","","","","","survey_race","27","","","I am glad to be my age.","filler"
"6871.10000000149","","","html-slider-response","429","1901652","0.0-24.0-0.0-0.21","28428","List1B","black","woman","","","","","","","","survey_race","51","","","The fact that I am my race is an important part of my identity.","identity"
"3288.1999999955297","","","html-slider-response","430","1904942","0.0-24.0-0.0-0.22","28428","List1B","black","woman","","","","","","","","survey_race","86","","","I think that my race has a lot to be proud of.","proud"
"2534.2999999970198","","","html-slider-response","431","1907478","0.0-24.0-0.0-0.23","28428","List1B","black","woman","","","","","","","","survey_race","68","","","I am glad to be my race.","glad"
"3226.89999999851","","","html-slider-response","432","1910706","0.0-24.0-0.0-0.24","28428","List1B","black","woman","","","","","","","","survey_race","34","","","I often think about the fact that I am my race.","often"
"2796.7000000029802","","","html-slider-response","433","1913504","0.0-24.0-0.0-0.25","28428","List1B","black","woman","","","","","","","","survey_race","8","","","I feel a bond with people the same age as me.","filler"
"4472.5","","","html-slider-response","434","1917978","0.0-24.0-0.0-0.26","28428","List1B","black","woman","","","","","","","","survey_race","0","","","Getting older does not worry me.","filler"
"3773.0999999940395","","","html-slider-response","435","1921752","0.0-24.0-0.0-0.27","28428","List1B","black","woman","","","","","","","","survey_race","93","","","I feel solidarity with my race.","solidarity"
"6174.70000000298","","","html-slider-response","436","1927928","0.0-24.0-1.0-0.0","28428","List1B","black","woman","","","","","","","","survey_gender","28","","","Family is not more important to me than friendship.","filler"
"2310.60000000149","","","html-slider-response","437","1930240","0.0-24.0-1.0-0.1","28428","List1B","black","woman","","","","","","","","survey_gender","79","","","I would say I am an animal person.","filler"
"4190.70000000298","","","html-slider-response","438","1934432","0.0-24.0-1.0-0.2","28428","List1B","black","woman","","","","","","","","survey_gender","80","","","I have a lot in common with the average person of my gender.","average"
"4502.70000000298","","","html-slider-response","439","1938936","0.0-24.0-1.0-0.3","28428","List1B","black","woman","","","","","","","","survey_gender","63","","","It is not always easy for people to know what I am thinking.","filler"
"2756.2999999970198","","","html-slider-response","440","1941694","0.0-24.0-1.0-0.4","28428","List1B","black","woman","","","","","","","","survey_gender","80","","","I feel a bond with my gender.","bond"
"2768.6999999955297","","","html-slider-response","441","1944464","0.0-24.0-1.0-0.5","28428","List1B","black","woman","","","","","","","","survey_gender","83","","","I feel solidarity with my friends.","filler"
"3764.2999999970198","","","html-slider-response","442","1948230","0.0-24.0-1.0-0.6","28428","List1B","black","woman","","","","","","","","survey_gender","67","","","People of my gender are very similar to each other.","verysimilar"
"6676.29999999702","","","html-slider-response","443","1954908","0.0-24.0-1.0-0.7","28428","List1B","black","woman","","","","","","","","survey_gender","73","","","It is pleasant to be my gender.","pleasant"
"2712.6999999955297","","","html-slider-response","444","1957623","0.0-24.0-1.0-0.8","28428","List1B","black","woman","","","","","","","","survey_gender","74","","","My friends have a lot in common with each other.","filler"
"2934.39999999851","","","html-slider-response","445","1960558","0.0-24.0-1.0-0.9","28428","List1B","black","woman","","","","","","","","survey_gender","79","","","I consider myself a highly empathetic person.","filler"
"5370.39999999851","","","html-slider-response","446","1965930","0.0-24.0-1.0-0.10","28428","List1B","black","woman","","","","","","","","survey_gender","89","","","I feel solidarity with my gender.","solidarity"
"3326.39999999851","","","html-slider-response","447","1969258","0.0-24.0-1.0-0.11","28428","List1B","black","woman","","","","","","","","survey_gender","91","","","I am glad to have the friends that I have.","filler"
"3538.60000000149","","","html-slider-response","448","1972798","0.0-24.0-1.0-0.12","28428","List1B","black","woman","","","","","","","","survey_gender","64","","","Most of the friends in my life are very similar to me.","filler"
"2350.2999999970198","","","html-slider-response","449","1975150","0.0-24.0-1.0-0.13","28428","List1B","black","woman","","","","","","","","survey_gender","17","","","Routine is not important to me.","filler"
"3124.89999999851","","","html-slider-response","450","1978276","0.0-24.0-1.0-0.14","28428","List1B","black","woman","","","","","","","","survey_gender","96","","","Being around my friends gives me a good feeling.","filler"
"3348.1999999955297","","","html-slider-response","451","1981626","0.0-24.0-1.0-0.15","28428","List1B","black","woman","","","","","","","","survey_gender","66","","","People of my gender have a lot in common with each other.","common"
"2807.2999999970198","","","html-slider-response","452","1984435","0.0-24.0-1.0-0.16","28428","List1B","black","woman","","","","","","","","survey_gender","96","","","I think that my gender has a lot to be proud of.","proud"
"3331.6999999955297","","","html-slider-response","453","1987768","0.0-24.0-1.0-0.17","28428","List1B","black","woman","","","","","","","","survey_gender","76","","","I am similar to the average person of my gender.","similar"
"3262.7999999970198","","","html-slider-response","454","1991032","0.0-24.0-1.0-0.18","28428","List1B","black","woman","","","","","","","","survey_gender","62","","","Being my gender is an important part of how I see myself.","important"
"2092.60000000149","","","html-slider-response","455","1993126","0.0-24.0-1.0-0.19","28428","List1B","black","woman","","","","","","","","survey_gender","81","","","I am glad to be my gender.","glad"
"2519.10000000149","","","html-slider-response","456","1995646","0.0-24.0-1.0-0.20","28428","List1B","black","woman","","","","","","","","survey_gender","96","","","I feel committed to my gender.","committed"
"3807","","","html-slider-response","457","1999454","0.0-24.0-1.0-0.21","28428","List1B","black","woman","","","","","","","","survey_gender","63","","","Being my gender gives me a good feeling.","feeling"
"4634.5","","","html-slider-response","458","2004090","0.0-24.0-1.0-0.22","28428","List1B","black","woman","","","","","","","","survey_gender","58","","","The fact that I am my gender is an important part of my identity.","identity"
"2556.2999999970198","","","html-slider-response","459","2006648","0.0-24.0-1.0-0.23","28428","List1B","black","woman","","","","","","","","survey_gender","95","","","I feel a bond with my friends.","filler"
"2711.2999999970198","","","html-slider-response","460","2009360","0.0-24.0-1.0-0.24","28428","List1B","black","woman","","","","","","","","survey_gender","29","","","I often think about the fact that I am my gender.","often"
"2047","","","html-slider-response","461","2011408","0.0-24.0-1.0-0.25","28428","List1B","black","woman","","","","","","","","survey_gender","96","","","My friends understand me.","filler"
"2394.7999999970198","","","html-slider-response","462","2013804","0.0-24.0-1.0-0.26","28428","List1B","black","woman","","","","","","","","survey_gender","77","","","I have a lot in common with my friends.","filler"
"2692.7999999970198","","","html-slider-response","463","2016498","0.0-24.0-1.0-0.27","28428","List1B","black","woman","","","","","","","","survey_gender","76","","","I often think about my actions.","filler"
"3912","","","survey-text","464","2020413","0.0-25.0","28428","List1B","black","woman","","","","","{""Q0"":""5f93bc9cdda8a01a8fdba87c""}","","","worker_id","","","","",""
"25999.70000000298","","","external-html","465","2046910","0.0-26.0","28428","List1B","black","woman","debrief.html","","","","","","","","","","","",""
