rt,stimulus,button_pressed,trial_type,trial_index,time_elapsed,internal_node_id,subject,list,ppt_race,ppt_gender,url,first_guess,correct,key_press,responses,image_type,phrase_type,test_part,response,stimulus1,stimulus2,question_type,survey_item
3171.5,Welcome to the experiment. Press Continue to begin.,0,html-button-response,0,3179,0.0-0.0,28667,List2A,white,woman,,,,,,,,,,,,,
28059.8,,,external-html,1,32386,0.0-1.0,28667,List2A,white,woman,consent.html,,,,,,,,,,,,
27133.5,"<p>On the next page, you will see portraits of 8 people and their names.</p><p>Your first task is to take a few minutes to memorise the names of these people.</p><p>You will have to recall their names during the rest of the experiment, so it is</p><p>essential that you try to memorise these people and their names as best as you can.</p><br><p><strong>You will then be tested on your memory of these names and portraits.</strong></p><br><p>The experiment will start after you have completed this memory test.</p><br><p>Ready?</p>",0,html-button-response,2,59523,0.0-2.0,28667,List2A,white,woman,,,,,,,,,,,,,
123210.2,"<img src='img/portrait_matrix_list2.jpg' style='width:900px;height:500px;''></img><p>If you have memorised all the portraits and names and are ready to start, press Continue.</p><p><strong>Please note: Your memory of these faces will be tested 4 times during this experiment.</strong></p>",0,html-button-response,3,183744,0.0-3.0-0.0,28667,List2A,white,woman,,,,,,,,,,,,,
2878,"<img src=""portrait/WM1.jpg""style=""height:400px;""></img>",6,html-button-response,4,187625,0.0-3.0-1.0,28667,List2A,white,woman,,TRUE,6,,,,,,,,,,
null,CORRECT,,html-keyboard-response,5,189162,0.0-3.0-2.0-0.0,28667,List2A,white,woman,,,,null,,,,,,,,,
3565.4,"<img src=""portrait/BW1.jpg""style=""height:400px;""></img>",0,html-button-response,6,192730,0.0-3.0-4.0,28667,List2A,white,woman,,TRUE,0,,,,,,,,,,
null,CORRECT,,html-keyboard-response,7,194247,0.0-3.0-5.0-0.0,28667,List2A,white,woman,,,,null,,,,,,,,,
2036.6,"<img src=""portrait/WW2.jpg""style=""height:400px;""></img>",3,html-button-response,8,196286,0.0-3.0-7.0,28667,List2A,white,woman,,TRUE,3,,,,,,,,,,
null,CORRECT,,html-keyboard-response,9,197816,0.0-3.0-8.0-0.0,28667,List2A,white,woman,,,,null,,,,,,,,,
3812.7,"<img src=""portrait/BW2.jpg""style=""height:400px;""></img>",2,html-button-response,10,201631,0.0-3.0-10.0,28667,List2A,white,woman,,TRUE,2,,,,,,,,,,
null,CORRECT,,html-keyboard-response,11,203150,0.0-3.0-11.0-0.0,28667,List2A,white,woman,,,,null,,,,,,,,,
2208.5,"<img src=""portrait/BM1.jpg""style=""height:400px;""></img>",4,html-button-response,12,205362,0.0-3.0-13.0,28667,List2A,white,woman,,TRUE,4,,,,,,,,,,
null,CORRECT,,html-keyboard-response,13,207003,0.0-3.0-14.0-0.0,28667,List2A,white,woman,,,,null,,,,,,,,,
3360.4,"<img src=""portrait/WW1.jpg""style=""height:400px;""></img>",1,html-button-response,14,210366,0.0-3.0-16.0,28667,List2A,white,woman,,TRUE,1,,,,,,,,,,
null,CORRECT,,html-keyboard-response,15,211890,0.0-3.0-17.0-0.0,28667,List2A,white,woman,,,,null,,,,,,,,,
3313.8,"<img src=""portrait/BM2.jpg""style=""height:400px;""></img>",5,html-button-response,16,215207,0.0-3.0-19.0,28667,List2A,white,woman,,TRUE,5,,,,,,,,,,
null,CORRECT,,html-keyboard-response,17,216721,0.0-3.0-20.0-0.0,28667,List2A,white,woman,,,,null,,,,,,,,,
3482.7,"<img src=""portrait/WM2.jpg""style=""height:400px;""></img>",7,html-button-response,18,220206,0.0-3.0-22.0,28667,List2A,white,woman,,TRUE,7,,,,,,,,,,
null,CORRECT,,html-keyboard-response,19,221716,0.0-3.0-23.0-0.0,28667,List2A,white,woman,,,,null,,,,,,,,,
2348,<p>You got 8 out of 8 right first time. Press Continue.</p>,0,html-button-response,20,224068,0.0-3.0-25.0,28667,List2A,white,woman,,,,,,,,,,,,,
57242.8,"<p>In this experiment, you will view photographs of the people from the memory game interacting.</p><p>By using the <strong>exact</strong> phrase given <i>after</i> the photograph appears and recalling the correct names of the people in the photographs, form a sentence describing the interaction. You do not need to capitalise names.</p><p>Type your answer in the space provided. Please complete every sentence before moving onto the next trial.</p><p>You will only have a few seconds to memorise each given photograph and phrase before you can respond, so try your best to focus.</p><p>An example is given below. Press 'Continue' when you are ready.</p><img src='img/speaking_example.jpg' style='width:800px;height:460px;''></img>",0,html-button-response,21,282330,0.0-4.0,28667,List2A,white,woman,,,,,,,,,,,,,
2394.7,"<p>Before the experiment starts, you will watch two example trials. Press 'Continue'.</p>",0,html-button-response,22,285732,0.0-5.0,28667,List2A,white,woman,,,,,,,,,,,,,
null,<img src='img/play_eg.gif' style='height:400px;''></img>,,html-keyboard-response,23,288747,0.0-6.0,28667,List2A,white,woman,,,,null,,,,,,,,,
null,<p>is playing with</p>,,html-keyboard-response,24,290763,0.0-7.0,28667,List2A,white,woman,,,,null,,,,,,,,,
5718.8,<p><b>Answer:</b> jane is playing with ruth</p>,0,html-button-response,25,296484,0.0-8.0,28667,List2A,white,woman,,,,,,,,,,,,,
null,<img src='img/dance_eg.gif' style='height:400px;''></img>,,html-keyboard-response,26,299505,0.0-9.0,28667,List2A,white,woman,,,,null,,,,,,,,,
null,<p>is being entertained by</p>,,html-keyboard-response,27,301517,0.0-10.0,28667,List2A,white,woman,,,,null,,,,,,,,,
31908.6,<p><b>Answer:</b> fred is being entertained by mike</p>,0,html-button-response,28,333428,0.0-11.0,28667,List2A,white,woman,,,,,,,,,,,,,
19376.5,"<p>Ready to start the experiment?</p><br><p><strong>Remember to describe the picture using a full sentence,</strong></p><p><strong>that combines the names of the people with the <i>exact</i> phrase given.</strong></p><p><strong>To receive full payment you must do this correctly.</strong></p><p><strong> You do not need to capitalise names or use punctuation.</strong></p><br><p>Press 'Continue' to begin.</p>",0,html-button-response,29,353815,0.0-12.0,28667,List2A,white,woman,,,,,,,,,,,,,
null,"<div style=""font-size:60px;"">+</div>",,html-keyboard-response,30,355336,0.0-13.0-0.0,28667,List2A,white,woman,,,,null,,,,,,,,,
null,"<img src=""stim_listA/shout1.gif""style=""height:400px;""></stim_listA>",,html-keyboard-response,31,357350,0.0-13.0-1.0,28667,List2A,white,woman,,,,null,,,,,,,,,
null,is shouting at,,html-keyboard-response,32,359367,0.0-13.0-2.0,28667,List2A,white,woman,,,,null,,,,,,,,,
12471.6,,,survey-text,33,371848,0.0-13.0-3.0,28667,List2A,white,woman,,,,,"{""Q0"":""Ruth is shouting at Luke.""}","<img src=""stim_listA/shout1.gif""style=""height:400px;""></stim_listA>",is shouting at,,,,,,
null,"<div style=""font-size:60px;"">+</div>",,html-keyboard-response,34,372362,0.0-13.0-0.1,28667,List2A,white,woman,,,,null,,,,,,,,,
null,"<img src=""stim_listA/greet2.gif""style=""height:400px;""></stim_listA>",,html-keyboard-response,35,374377,0.0-13.0-1.1,28667,List2A,white,woman,,,,null,,,,,,,,,
null,is being greeted by,,html-keyboard-response,36,376378,0.0-13.0-2.1,28667,List2A,white,woman,,,,null,,,,,,,,,
9091,,,survey-text,37,385476,0.0-13.0-3.1,28667,List2A,white,woman,,,,,"{""Q0"":""Luke is being greeted by Jane.""}","<img src=""stim_listA/greet2.gif""style=""height:400px;""></stim_listA>",is being greeted by,,,,,,
null,"<div style=""font-size:60px;"">+</div>",,html-keyboard-response,38,385994,0.0-13.0-0.2,28667,List2A,white,woman,,,,null,,,,,,,,,
null,"<img src=""stim_listA/copy7.gif""style=""height:400px;""></stim_listA>",,html-keyboard-response,39,388011,0.0-13.0-1.2,28667,List2A,white,woman,,,,null,,,,,,,,,
null,is copying,,html-keyboard-response,40,390021,0.0-13.0-2.2,28667,List2A,white,woman,,,,null,,,,,,,,,
9085.9,,,survey-text,41,399114,0.0-13.0-3.2,28667,List2A,white,woman,,,,,"{""Q0"":""Jane is copying Beth.""}","<img src=""stim_listA/copy7.gif""style=""height:400px;""></stim_listA>",is copying,,,,,,
null,"<div style=""font-size:60px;"">+</div>",,html-keyboard-response,42,399624,0.0-13.0-0.3,28667,List2A,white,woman,,,,null,,,,,,,,,
null,"<img src=""stim_listA/seduce1.gif""style=""height:400px;""></stim_listA>",,html-keyboard-response,43,401642,0.0-13.0-1.3,28667,List2A,white,woman,,,,null,,,,,,,,,
null,is seducing,,html-keyboard-response,44,403644,0.0-13.0-2.3,28667,List2A,white,woman,,,,null,,,,,,,,,
8339.7,,,survey-text,45,411991,0.0-13.0-3.3,28667,List2A,white,woman,,,,,"{""Q0"":""Jane is seducing Luke.""}","<img src=""stim_listA/seduce1.gif""style=""height:400px;""></stim_listA>",is seducing,,,,,,
null,"<div style=""font-size:60px;"">+</div>",,html-keyboard-response,46,412506,0.0-13.0-0.4,28667,List2A,white,woman,,,,null,,,,,,,,,
null,"<img src=""stim_listA/copy4.gif""style=""height:400px;""></stim_listA>",,html-keyboard-response,47,414527,0.0-13.0-1.4,28667,List2A,white,woman,,,,null,,,,,,,,,
null,is being copied by,,html-keyboard-response,48,416533,0.0-13.0-2.4,28667,List2A,white,woman,,,,null,,,,,,,,,
9257.7,,,survey-text,49,425799,0.0-13.0-3.4,28667,List2A,white,woman,,,,,"{""Q0"":""Fred is being copied by Kate.""}","<img src=""stim_listA/copy4.gif""style=""height:400px;""></stim_listA>",is being copied by,,,,,,
null,"<div style=""font-size:60px;"">+</div>",,html-keyboard-response,50,426316,0.0-13.0-0.5,28667,List2A,white,woman,,,,null,,,,,,,,,
null,"<img src=""stim_listA/challenge4.gif""style=""height:400px;""></stim_listA>",,html-keyboard-response,51,428329,0.0-13.0-1.5,28667,List2A,white,woman,,,,null,,,,,,,,,
null,is being challenged by,,html-keyboard-response,52,430341,0.0-13.0-2.5,28667,List2A,white,woman,,,,null,,,,,,,,,
11240,,,survey-text,53,441589,0.0-13.0-3.5,28667,List2A,white,woman,,,,,"{""Q0"":""Kate is being challenged by Fred.""}","<img src=""stim_listA/challenge4.gif""style=""height:400px;""></stim_listA>",is being challenged by,,,,,,
null,"<div style=""font-size:60px;"">+</div>",,html-keyboard-response,54,442103,0.0-13.0-0.6,28667,List2A,white,woman,,,,null,,,,,,,,,
null,"<img src=""stim_listA/seduce7.gif""style=""height:400px;""></stim_listA>",,html-keyboard-response,55,444114,0.0-13.0-1.6,28667,List2A,white,woman,,,,null,,,,,,,,,
null,is seducing,,html-keyboard-response,56,446126,0.0-13.0-2.6,28667,List2A,white,woman,,,,null,,,,,,,,,
6212.7,,,survey-text,57,452344,0.0-13.0-3.6,28667,List2A,white,woman,,,,,"{""Q0"":""Ruth is seducing Kate.""}","<img src=""stim_listA/seduce7.gif""style=""height:400px;""></stim_listA>",is seducing,,,,,,
null,"<div style=""font-size:60px;"">+</div>",,html-keyboard-response,58,452862,0.0-13.0-0.7,28667,List2A,white,woman,,,,null,,,,,,,,,
null,"<img src=""stim_listA/shout7.gif""style=""height:400px;""></stim_listA>",,html-keyboard-response,59,454876,0.0-13.0-1.7,28667,List2A,white,woman,,,,null,,,,,,,,,
null,is shouting at,,html-keyboard-response,60,456888,0.0-13.0-2.7,28667,List2A,white,woman,,,,null,,,,,,,,,
7068.9,,,survey-text,61,463964,0.0-13.0-3.7,28667,List2A,white,woman,,,,,"{""Q0"":""Ruth is shouting at Beth.""}","<img src=""stim_listA/shout7.gif""style=""height:400px;""></stim_listA>",is shouting at,,,,,,
null,"<div style=""font-size:60px;"">+</div>",,html-keyboard-response,62,464478,0.0-13.0-0.8,28667,List2A,white,woman,,,,null,,,,,,,,,
null,"<img src=""stim_listA/oppose2.gif""style=""height:400px;""></stim_listA>",,html-keyboard-response,63,466486,0.0-13.0-1.8,28667,List2A,white,woman,,,,null,,,,,,,,,
null,is being opposed by,,html-keyboard-response,64,468497,0.0-13.0-2.8,28667,List2A,white,woman,,,,null,,,,,,,,,
7677.3,,,survey-text,65,476185,0.0-13.0-3.8,28667,List2A,white,woman,,,,,"{""Q0"":""Luke is being opposed by Ruth. ""}","<img src=""stim_listA/oppose2.gif""style=""height:400px;""></stim_listA>",is being opposed by,,,,,,
null,"<div style=""font-size:60px;"">+</div>",,html-keyboard-response,66,476691,0.0-13.0-0.9,28667,List2A,white,woman,,,,null,,,,,,,,,
null,"<img src=""stim_listA/greet6.gif""style=""height:400px;""></stim_listA>",,html-keyboard-response,67,478698,0.0-13.0-1.9,28667,List2A,white,woman,,,,null,,,,,,,,,
null,is being greeted by,,html-keyboard-response,68,480713,0.0-13.0-2.9,28667,List2A,white,woman,,,,null,,,,,,,,,
7907.4,,,survey-text,69,488631,0.0-13.0-3.9,28667,List2A,white,woman,,,,,"{""Q0"":""Luke is being greeted by Mike.""}","<img src=""stim_listA/greet6.gif""style=""height:400px;""></stim_listA>",is being greeted by,,,,,,
null,"<div style=""font-size:60px;"">+</div>",,html-keyboard-response,70,489142,0.0-13.0-0.10,28667,List2A,white,woman,,,,null,,,,,,,,,
null,"<img src=""stim_listA/touch3.gif""style=""height:400px;""></stim_listA>",,html-keyboard-response,71,491161,0.0-13.0-1.10,28667,List2A,white,woman,,,,null,,,,,,,,,
null,is touching,,html-keyboard-response,72,493179,0.0-13.0-2.10,28667,List2A,white,woman,,,,null,,,,,,,,,
5951.4,,,survey-text,73,499138,0.0-13.0-3.10,28667,List2A,white,woman,,,,,"{""Q0"":""Kate is touching Mike.""}","<img src=""stim_listA/touch3.gif""style=""height:400px;""></stim_listA>",is touching,,,,,,
null,"<div style=""font-size:60px;"">+</div>",,html-keyboard-response,74,499643,0.0-13.0-0.11,28667,List2A,white,woman,,,,null,,,,,,,,,
null,"<img src=""stim_listA/hug2.gif""style=""height:400px;""></stim_listA>",,html-keyboard-response,75,501663,0.0-13.0-1.11,28667,List2A,white,woman,,,,null,,,,,,,,,
null,is being hugged by,,html-keyboard-response,76,503669,0.0-13.0-2.11,28667,List2A,white,woman,,,,null,,,,,,,,,
7563.9,,,survey-text,77,511238,0.0-13.0-3.11,28667,List2A,white,woman,,,,,"{""Q0"":""Jane is being hugged by Dave.""}","<img src=""stim_listA/hug2.gif""style=""height:400px;""></stim_listA>",is being hugged by,,,,,,
null,"<div style=""font-size:60px;"">+</div>",,html-keyboard-response,78,511751,0.0-13.0-0.12,28667,List2A,white,woman,,,,null,,,,,,,,,
null,"<img src=""stim_listA/greet4.gif""style=""height:400px;""></stim_listA>",,html-keyboard-response,79,513769,0.0-13.0-1.12,28667,List2A,white,woman,,,,null,,,,,,,,,
null,is being greeted by,,html-keyboard-response,80,515784,0.0-13.0-2.12,28667,List2A,white,woman,,,,null,,,,,,,,,
7944.6,,,survey-text,81,523737,0.0-13.0-3.12,28667,List2A,white,woman,,,,,"{""Q0"":""Fred is being greeted by Kate.""}","<img src=""stim_listA/greet4.gif""style=""height:400px;""></stim_listA>",is being greeted by,,,,,,
null,"<div style=""font-size:60px;"">+</div>",,html-keyboard-response,82,524248,0.0-13.0-0.13,28667,List2A,white,woman,,,,null,,,,,,,,,
null,"<img src=""stim_listA/touch8.gif""style=""height:400px;""></stim_listA>",,html-keyboard-response,83,526258,0.0-13.0-1.13,28667,List2A,white,woman,,,,null,,,,,,,,,
null,is being touched by,,html-keyboard-response,84,528267,0.0-13.0-2.13,28667,List2A,white,woman,,,,null,,,,,,,,,
8296.5,,,survey-text,85,536570,0.0-13.0-3.13,28667,List2A,white,woman,,,,,"{""Q0"":""Ruth is being touched by Beth. ""}","<img src=""stim_listA/touch8.gif""style=""height:400px;""></stim_listA>",is being touched by,,,,,,
null,"<div style=""font-size:60px;"">+</div>",,html-keyboard-response,86,537087,0.0-13.0-0.14,28667,List2A,white,woman,,,,null,,,,,,,,,
null,"<img src=""stim_listA/shout2.gif""style=""height:400px;""></stim_listA>",,html-keyboard-response,87,539103,0.0-13.0-1.14,28667,List2A,white,woman,,,,null,,,,,,,,,
null,is being shouted at by,,html-keyboard-response,88,541111,0.0-13.0-2.14,28667,List2A,white,woman,,,,null,,,,,,,,,
8240.5,,,survey-text,89,549355,0.0-13.0-3.14,28667,List2A,white,woman,,,,,"{""Q0"":""Jane is being shouted at by Dave.""}","<img src=""stim_listA/shout2.gif""style=""height:400px;""></stim_listA>",is being shouted at by,,,,,,
null,"<div style=""font-size:60px;"">+</div>",,html-keyboard-response,90,549869,0.0-13.0-0.15,28667,List2A,white,woman,,,,null,,,,,,,,,
null,"<img src=""stim_listA/challenge6.gif""style=""height:400px;""></stim_listA>",,html-keyboard-response,91,551884,0.0-13.0-1.15,28667,List2A,white,woman,,,,null,,,,,,,,,
null,is being challenged by,,html-keyboard-response,92,553887,0.0-13.0-2.15,28667,List2A,white,woman,,,,null,,,,,,,,,
11046,,,survey-text,93,564940,0.0-13.0-3.15,28667,List2A,white,woman,,,,,"{""Q0"":""Mike is being challenged by Luke.""}","<img src=""stim_listA/challenge6.gif""style=""height:400px;""></stim_listA>",is being challenged by,,,,,,
null,"<div style=""font-size:60px;"">+</div>",,html-keyboard-response,94,565446,0.0-13.0-0.16,28667,List2A,white,woman,,,,null,,,,,,,,,
null,"<img src=""stim_listA/kiss4.gif""style=""height:400px;""></stim_listA>",,html-keyboard-response,95,567466,0.0-13.0-1.16,28667,List2A,white,woman,,,,null,,,,,,,,,
null,is being kissed by,,html-keyboard-response,96,569474,0.0-13.0-2.16,28667,List2A,white,woman,,,,null,,,,,,,,,
7779,,,survey-text,97,577261,0.0-13.0-3.16,28667,List2A,white,woman,,,,,"{""Q0"":""Kate is being kissed by Mike.""}","<img src=""stim_listA/kiss4.gif""style=""height:400px;""></stim_listA>",is being kissed by,,,,,,
null,"<div style=""font-size:60px;"">+</div>",,html-keyboard-response,98,577772,0.0-13.0-0.17,28667,List2A,white,woman,,,,null,,,,,,,,,
null,"<img src=""stim_listA/shout8.gif""style=""height:400px;""></stim_listA>",,html-keyboard-response,99,579786,0.0-13.0-1.17,28667,List2A,white,woman,,,,null,,,,,,,,,
null,is being shouted at by,,html-keyboard-response,100,581801,0.0-13.0-2.17,28667,List2A,white,woman,,,,null,,,,,,,,,
10705.3,,,survey-text,101,592514,0.0-13.0-3.17,28667,List2A,white,woman,,,,,"{""Q0"":""Kate is being shouted at by Jane. ""}","<img src=""stim_listA/shout8.gif""style=""height:400px;""></stim_listA>",is being shouted at by,,,,,,
null,"<div style=""font-size:60px;"">+</div>",,html-keyboard-response,102,593022,0.0-13.0-0.18,28667,List2A,white,woman,,,,null,,,,,,,,,
null,"<img src=""stim_listA/hug5.gif""style=""height:400px;""></stim_listA>",,html-keyboard-response,103,595043,0.0-13.0-1.18,28667,List2A,white,woman,,,,null,,,,,,,,,
null,is hugging,,html-keyboard-response,104,597049,0.0-13.0-2.18,28667,List2A,white,woman,,,,null,,,,,,,,,
5777.5,,,survey-text,105,602854,0.0-13.0-3.18,28667,List2A,white,woman,,,,,"{""Q0"":""Fred is hugging Luke.""}","<img src=""stim_listA/hug5.gif""style=""height:400px;""></stim_listA>",is hugging,,,,,,
null,"<div style=""font-size:60px;"">+</div>",,html-keyboard-response,106,603372,0.0-13.0-0.19,28667,List2A,white,woman,,,,null,,,,,,,,,
null,"<img src=""stim_listA/touch6.gif""style=""height:400px;""></stim_listA>",,html-keyboard-response,107,605385,0.0-13.0-1.19,28667,List2A,white,woman,,,,null,,,,,,,,,
null,is being touched by,,html-keyboard-response,108,607391,0.0-13.0-2.19,28667,List2A,white,woman,,,,null,,,,,,,,,
9863.3,,,survey-text,109,617264,0.0-13.0-3.19,28667,List2A,white,woman,,,,,"{""Q0"":""Luke is being touched by Fred.""}","<img src=""stim_listA/touch6.gif""style=""height:400px;""></stim_listA>",is being touched by,,,,,,
51971.7,"<img src='img/portrait_matrix_list2.jpg' style='width:900px;height:500px;''></img><p>If you have memorised all the portraits and names and are ready to start, press Continue.</p><p><strong>Please note: Your memory of these faces will be tested 4 times during this experiment.</strong></p>",0,html-button-response,110,669239,0.0-14.0-0.0,28667,List2A,white,woman,,,,,,,,,,,,,
8626.4,"<img src=""portrait/WW2.jpg""style=""height:400px;""></img>",3,html-button-response,111,678887,0.0-14.0-1.0,28667,List2A,white,woman,,TRUE,3,,,,,,,,,,
null,CORRECT,,html-keyboard-response,112,680415,0.0-14.0-2.0-0.0,28667,List2A,white,woman,,,,null,,,,,,,,,
2357.8,"<img src=""portrait/WW1.jpg""style=""height:400px;""></img>",1,html-button-response,113,682777,0.0-14.0-4.0,28667,List2A,white,woman,,TRUE,1,,,,,,,,,,
null,CORRECT,,html-keyboard-response,114,684303,0.0-14.0-5.0-0.0,28667,List2A,white,woman,,,,null,,,,,,,,,
2042.1,"<img src=""portrait/WM2.jpg""style=""height:400px;""></img>",7,html-button-response,115,686348,0.0-14.0-7.0,28667,List2A,white,woman,,TRUE,7,,,,,,,,,,
null,CORRECT,,html-keyboard-response,116,687866,0.0-14.0-8.0-0.0,28667,List2A,white,woman,,,,null,,,,,,,,,
1940.9,"<img src=""portrait/WM1.jpg""style=""height:400px;""></img>",6,html-button-response,117,689811,0.0-14.0-10.0,28667,List2A,white,woman,,TRUE,6,,,,,,,,,,
null,CORRECT,,html-keyboard-response,118,691330,0.0-14.0-11.0-0.0,28667,List2A,white,woman,,,,null,,,,,,,,,
1875.8,"<img src=""portrait/BW2.jpg""style=""height:400px;""></img>",2,html-button-response,119,693210,0.0-14.0-13.0,28667,List2A,white,woman,,TRUE,2,,,,,,,,,,
null,CORRECT,,html-keyboard-response,120,694732,0.0-14.0-14.0-0.0,28667,List2A,white,woman,,,,null,,,,,,,,,
1384.3,"<img src=""portrait/BM1.jpg""style=""height:400px;""></img>",4,html-button-response,121,696121,0.0-14.0-16.0,28667,List2A,white,woman,,TRUE,4,,,,,,,,,,
null,CORRECT,,html-keyboard-response,122,697653,0.0-14.0-17.0-0.0,28667,List2A,white,woman,,,,null,,,,,,,,,
1521,"<img src=""portrait/BM2.jpg""style=""height:400px;""></img>",5,html-button-response,123,699178,0.0-14.0-19.0,28667,List2A,white,woman,,TRUE,5,,,,,,,,,,
null,CORRECT,,html-keyboard-response,124,700693,0.0-14.0-20.0-0.0,28667,List2A,white,woman,,,,null,,,,,,,,,
1920,"<img src=""portrait/BW1.jpg""style=""height:400px;""></img>",0,html-button-response,125,702617,0.0-14.0-22.0,28667,List2A,white,woman,,TRUE,0,,,,,,,,,,
null,CORRECT,,html-keyboard-response,126,704139,0.0-14.0-23.0-0.0,28667,List2A,white,woman,,,,null,,,,,,,,,
15778.2,<p>You got 8 out of 8 right first time. Press Continue.</p>,0,html-button-response,127,719921,0.0-14.0-25.0,28667,List2A,white,woman,,,,,,,,,,,,,
null,"<div style=""font-size:60px;"">+</div>",,html-keyboard-response,128,721433,0.0-15.0-0.0,28667,List2A,white,woman,,,,null,,,,,,,,,
null,"<img src=""stim_listA/oppose6.gif""style=""height:400px;""></stim_listA>",,html-keyboard-response,129,723450,0.0-15.0-1.0,28667,List2A,white,woman,,,,null,,,,,,,,,
null,is being opposed by,,html-keyboard-response,130,725466,0.0-15.0-2.0,28667,List2A,white,woman,,,,null,,,,,,,,,
7882.1,,,survey-text,131,733355,0.0-15.0-3.0,28667,List2A,white,woman,,,,,"{""Q0"":""Luke is being opposed by Fred.""}","<img src=""stim_listA/oppose6.gif""style=""height:400px;""></stim_listA>",is being opposed by,,,,,,
null,"<div style=""font-size:60px;"">+</div>",,html-keyboard-response,132,733861,0.0-15.0-0.1,28667,List2A,white,woman,,,,null,,,,,,,,,
null,"<img src=""stim_listA/challenge5.gif""style=""height:400px;""></stim_listA>",,html-keyboard-response,133,735879,0.0-15.0-1.1,28667,List2A,white,woman,,,,null,,,,,,,,,
null,is challenging,,html-keyboard-response,134,737890,0.0-15.0-2.1,28667,List2A,white,woman,,,,null,,,,,,,,,
8427.2,,,survey-text,135,746324,0.0-15.0-3.1,28667,List2A,white,woman,,,,,"{""Q0"":""Fred is challenging Dave.""}","<img src=""stim_listA/challenge5.gif""style=""height:400px;""></stim_listA>",is challenging,,,,,,
null,"<div style=""font-size:60px;"">+</div>",,html-keyboard-response,136,746832,0.0-15.0-0.2,28667,List2A,white,woman,,,,null,,,,,,,,,
null,"<img src=""stim_listA/touch5.gif""style=""height:400px;""></stim_listA>",,html-keyboard-response,137,748840,0.0-15.0-1.2,28667,List2A,white,woman,,,,null,,,,,,,,,
null,is touching,,html-keyboard-response,138,750842,0.0-15.0-2.2,28667,List2A,white,woman,,,,null,,,,,,,,,
5460.4,,,survey-text,139,756310,0.0-15.0-3.2,28667,List2A,white,woman,,,,,"{""Q0"":""Dave is touching Mike.""}","<img src=""stim_listA/touch5.gif""style=""height:400px;""></stim_listA>",is touching,,,,,,
null,"<div style=""font-size:60px;"">+</div>",,html-keyboard-response,140,756813,0.0-15.0-0.3,28667,List2A,white,woman,,,,null,,,,,,,,,
null,"<img src=""stim_listA/look5.gif""style=""height:400px;""></stim_listA>",,html-keyboard-response,141,758825,0.0-15.0-1.3,28667,List2A,white,woman,,,,null,,,,,,,,,
null,is looking at,,html-keyboard-response,142,760829,0.0-15.0-2.3,28667,List2A,white,woman,,,,null,,,,,,,,,
6901,,,survey-text,143,767734,0.0-15.0-3.3,28667,List2A,white,woman,,,,,"{""Q0"":""Fred is looking at Luke.""}","<img src=""stim_listA/look5.gif""style=""height:400px;""></stim_listA>",is looking at,,,,,,
null,"<div style=""font-size:60px;"">+</div>",,html-keyboard-response,144,768242,0.0-15.0-0.4,28667,List2A,white,woman,,,,null,,,,,,,,,
null,"<img src=""stim_listA/copy6.gif""style=""height:400px;""></stim_listA>",,html-keyboard-response,145,770259,0.0-15.0-1.4,28667,List2A,white,woman,,,,null,,,,,,,,,
null,is being copied by,,html-keyboard-response,146,772276,0.0-15.0-2.4,28667,List2A,white,woman,,,,null,,,,,,,,,
8007.6,,,survey-text,147,780291,0.0-15.0-3.4,28667,List2A,white,woman,,,,,"{""Q0"":""Mike is being copied by Luke. ""}","<img src=""stim_listA/copy6.gif""style=""height:400px;""></stim_listA>",is being copied by,,,,,,
null,"<div style=""font-size:60px;"">+</div>",,html-keyboard-response,148,780808,0.0-15.0-0.5,28667,List2A,white,woman,,,,null,,,,,,,,,
null,"<img src=""stim_listA/look7.gif""style=""height:400px;""></stim_listA>",,html-keyboard-response,149,782823,0.0-15.0-1.5,28667,List2A,white,woman,,,,null,,,,,,,,,
null,is looking at,,html-keyboard-response,150,784827,0.0-15.0-2.5,28667,List2A,white,woman,,,,null,,,,,,,,,
7842,,,survey-text,151,792681,0.0-15.0-3.5,28667,List2A,white,woman,,,,,"{""Q0"":""Beth is looking at Ruth. ""}","<img src=""stim_listA/look7.gif""style=""height:400px;""></stim_listA>",is looking at,,,,,,
null,"<div style=""font-size:60px;"">+</div>",,html-keyboard-response,152,793195,0.0-15.0-0.6,28667,List2A,white,woman,,,,null,,,,,,,,,
null,"<img src=""stim_listA/hug1.gif""style=""height:400px;""></stim_listA>",,html-keyboard-response,153,795210,0.0-15.0-1.6,28667,List2A,white,woman,,,,null,,,,,,,,,
null,is hugging,,html-keyboard-response,154,797218,0.0-15.0-2.6,28667,List2A,white,woman,,,,null,,,,,,,,,
7529.3,,,survey-text,155,804755,0.0-15.0-3.6,28667,List2A,white,woman,,,,,"{""Q0"":""Ruth is hugging Luke. ""}","<img src=""stim_listA/hug1.gif""style=""height:400px;""></stim_listA>",is hugging,,,,,,
null,"<div style=""font-size:60px;"">+</div>",,html-keyboard-response,156,805275,0.0-15.0-0.7,28667,List2A,white,woman,,,,null,,,,,,,,,
null,"<img src=""stim_listA/look1.gif""style=""height:400px;""></stim_listA>",,html-keyboard-response,157,807286,0.0-15.0-1.7,28667,List2A,white,woman,,,,null,,,,,,,,,
null,is looking at,,html-keyboard-response,158,809303,0.0-15.0-2.7,28667,List2A,white,woman,,,,null,,,,,,,,,
6672,,,survey-text,159,815982,0.0-15.0-3.7,28667,List2A,white,woman,,,,,"{""Q0"":""Ruth is looking at Luke.""}","<img src=""stim_listA/look1.gif""style=""height:400px;""></stim_listA>",is looking at,,,,,,
null,"<div style=""font-size:60px;"">+</div>",,html-keyboard-response,160,816492,0.0-15.0-0.8,28667,List2A,white,woman,,,,null,,,,,,,,,
null,"<img src=""stim_listA/hug6.gif""style=""height:400px;""></stim_listA>",,html-keyboard-response,161,818512,0.0-15.0-1.8,28667,List2A,white,woman,,,,null,,,,,,,,,
null,is being hugged by,,html-keyboard-response,162,820514,0.0-15.0-2.8,28667,List2A,white,woman,,,,null,,,,,,,,,
6831.4,,,survey-text,163,827350,0.0-15.0-3.8,28667,List2A,white,woman,,,,,"{""Q0"":""Mike is being hugged by Dave.""}","<img src=""stim_listA/hug6.gif""style=""height:400px;""></stim_listA>",is being hugged by,,,,,,
null,"<div style=""font-size:60px;"">+</div>",,html-keyboard-response,164,827863,0.0-15.0-0.9,28667,List2A,white,woman,,,,null,,,,,,,,,
null,"<img src=""stim_listA/hug3.gif""style=""height:400px;""></stim_listA>",,html-keyboard-response,165,829868,0.0-15.0-1.9,28667,List2A,white,woman,,,,null,,,,,,,,,
null,is hugging,,html-keyboard-response,166,831881,0.0-15.0-2.9,28667,List2A,white,woman,,,,null,,,,,,,,,
11444.2,,,survey-text,167,843341,0.0-15.0-3.9,28667,List2A,white,woman,,,,,"{""Q0"":""Beth is hugging Fred.""}","<img src=""stim_listA/hug3.gif""style=""height:400px;""></stim_listA>",is hugging,,,,,,
null,"<div style=""font-size:60px;"">+</div>",,html-keyboard-response,168,843858,0.0-15.0-0.10,28667,List2A,white,woman,,,,null,,,,,,,,,
null,"<img src=""stim_listA/look8.gif""style=""height:400px;""></stim_listA>",,html-keyboard-response,169,845870,0.0-15.0-1.10,28667,List2A,white,woman,,,,null,,,,,,,,,
null,is being looked at by,,html-keyboard-response,170,847873,0.0-15.0-2.10,28667,List2A,white,woman,,,,null,,,,,,,,,
10643.7,,,survey-text,171,858526,0.0-15.0-3.10,28667,List2A,white,woman,,,,,"{""Q0"":""Jane is being looked at by Kate.""}","<img src=""stim_listA/look8.gif""style=""height:400px;""></stim_listA>",is being looked at by,,,,,,
null,"<div style=""font-size:60px;"">+</div>",,html-keyboard-response,172,859038,0.0-15.0-0.11,28667,List2A,white,woman,,,,null,,,,,,,,,
null,"<img src=""stim_listA/hug8.gif""style=""height:400px;""></stim_listA>",,html-keyboard-response,173,861054,0.0-15.0-1.11,28667,List2A,white,woman,,,,null,,,,,,,,,
null,is being hugged by,,html-keyboard-response,174,863058,0.0-15.0-2.11,28667,List2A,white,woman,,,,null,,,,,,,,,
12478.9,,,survey-text,175,875541,0.0-15.0-3.11,28667,List2A,white,woman,,,,,"{""Q0"":""Jane is being hugged by Kate. ""}","<img src=""stim_listA/hug8.gif""style=""height:400px;""></stim_listA>",is being hugged by,,,,,,
null,"<div style=""font-size:60px;"">+</div>",,html-keyboard-response,176,876050,0.0-15.0-0.12,28667,List2A,white,woman,,,,null,,,,,,,,,
null,"<img src=""stim_listA/greet7.gif""style=""height:400px;""></stim_listA>",,html-keyboard-response,177,878062,0.0-15.0-1.12,28667,List2A,white,woman,,,,null,,,,,,,,,
null,is greeting,,html-keyboard-response,178,880068,0.0-15.0-2.12,28667,List2A,white,woman,,,,null,,,,,,,,,
6933.9,,,survey-text,179,887009,0.0-15.0-3.12,28667,List2A,white,woman,,,,,"{""Q0"":""Jane is greeting Beth. ""}","<img src=""stim_listA/greet7.gif""style=""height:400px;""></stim_listA>",is greeting,,,,,,
null,"<div style=""font-size:60px;"">+</div>",,html-keyboard-response,180,887513,0.0-15.0-0.13,28667,List2A,white,woman,,,,null,,,,,,,,,
null,"<img src=""stim_listA/copy5.gif""style=""height:400px;""></stim_listA>",,html-keyboard-response,181,889530,0.0-15.0-1.13,28667,List2A,white,woman,,,,null,,,,,,,,,
null,is copying,,html-keyboard-response,182,891540,0.0-15.0-2.13,28667,List2A,white,woman,,,,null,,,,,,,,,
5158.2,,,survey-text,183,896706,0.0-15.0-3.13,28667,List2A,white,woman,,,,,"{""Q0"":""Dave is copying Fred.""}","<img src=""stim_listA/copy5.gif""style=""height:400px;""></stim_listA>",is copying,,,,,,
null,"<div style=""font-size:60px;"">+</div>",,html-keyboard-response,184,897212,0.0-15.0-0.14,28667,List2A,white,woman,,,,null,,,,,,,,,
null,"<img src=""stim_listA/challenge3.gif""style=""height:400px;""></stim_listA>",,html-keyboard-response,185,899230,0.0-15.0-1.14,28667,List2A,white,woman,,,,null,,,,,,,,,
null,is challenging,,html-keyboard-response,186,901232,0.0-15.0-2.14,28667,List2A,white,woman,,,,null,,,,,,,,,
7719.3,,,survey-text,187,908957,0.0-15.0-3.14,28667,List2A,white,woman,,,,,"{""Q0"":""Beth is challenging Mike. ""}","<img src=""stim_listA/challenge3.gif""style=""height:400px;""></stim_listA>",is challenging,,,,,,
null,"<div style=""font-size:60px;"">+</div>",,html-keyboard-response,188,909473,0.0-15.0-0.15,28667,List2A,white,woman,,,,null,,,,,,,,,
null,"<img src=""stim_listA/seduce2.gif""style=""height:400px;""></stim_listA>",,html-keyboard-response,189,911487,0.0-15.0-1.15,28667,List2A,white,woman,,,,null,,,,,,,,,
null,is being seduced by,,html-keyboard-response,190,913498,0.0-15.0-2.15,28667,List2A,white,woman,,,,null,,,,,,,,,
18678.8,,,survey-text,191,932184,0.0-15.0-3.15,28667,List2A,white,woman,,,,,"{""Q0"":""Dave is being seduced by Ruth. ""}","<img src=""stim_listA/seduce2.gif""style=""height:400px;""></stim_listA>",is being seduced by,,,,,,
null,"<div style=""font-size:60px;"">+</div>",,html-keyboard-response,192,932690,0.0-15.0-0.16,28667,List2A,white,woman,,,,null,,,,,,,,,
null,"<img src=""stim_listA/shout5.gif""style=""height:400px;""></stim_listA>",,html-keyboard-response,193,934703,0.0-15.0-1.16,28667,List2A,white,woman,,,,null,,,,,,,,,
null,is shouting at,,html-keyboard-response,194,936704,0.0-15.0-2.16,28667,List2A,white,woman,,,,null,,,,,,,,,
5889.1,,,survey-text,195,942597,0.0-15.0-3.16,28667,List2A,white,woman,,,,,"{""Q0"":""Fred is shouting at Luke. ""}","<img src=""stim_listA/shout5.gif""style=""height:400px;""></stim_listA>",is shouting at,,,,,,
null,"<div style=""font-size:60px;"">+</div>",,html-keyboard-response,196,943117,0.0-15.0-0.17,28667,List2A,white,woman,,,,null,,,,,,,,,
null,"<img src=""stim_listA/hug7.gif""style=""height:400px;""></stim_listA>",,html-keyboard-response,197,945131,0.0-15.0-1.17,28667,List2A,white,woman,,,,null,,,,,,,,,
null,is hugging,,html-keyboard-response,198,947137,0.0-15.0-2.17,28667,List2A,white,woman,,,,null,,,,,,,,,
6375.9,,,survey-text,199,953521,0.0-15.0-3.17,28667,List2A,white,woman,,,,,"{""Q0"":""Beth is hugging Ruth. ""}","<img src=""stim_listA/hug7.gif""style=""height:400px;""></stim_listA>",is hugging,,,,,,
null,"<div style=""font-size:60px;"">+</div>",,html-keyboard-response,200,954034,0.0-15.0-0.18,28667,List2A,white,woman,,,,null,,,,,,,,,
null,"<img src=""stim_listA/shout3.gif""style=""height:400px;""></stim_listA>",,html-keyboard-response,201,956046,0.0-15.0-1.18,28667,List2A,white,woman,,,,null,,,,,,,,,
null,is shouting at,,html-keyboard-response,202,958057,0.0-15.0-2.18,28667,List2A,white,woman,,,,null,,,,,,,,,
7206.4,,,survey-text,203,965269,0.0-15.0-3.18,28667,List2A,white,woman,,,,,"{""Q0"":""Beth is shouting at Fred. ""}","<img src=""stim_listA/shout3.gif""style=""height:400px;""></stim_listA>",is shouting at,,,,,,
null,"<div style=""font-size:60px;"">+</div>",,html-keyboard-response,204,965780,0.0-15.0-0.19,28667,List2A,white,woman,,,,null,,,,,,,,,
null,"<img src=""stim_listA/kiss7.gif""style=""height:400px;""></stim_listA>",,html-keyboard-response,205,967793,0.0-15.0-1.19,28667,List2A,white,woman,,,,null,,,,,,,,,
null,is kissing,,html-keyboard-response,206,969808,0.0-15.0-2.19,28667,List2A,white,woman,,,,null,,,,,,,,,
6736.4,,,survey-text,207,976548,0.0-15.0-3.19,28667,List2A,white,woman,,,,,"{""Q0"":""Beth is kissing Jane. ""}","<img src=""stim_listA/kiss7.gif""style=""height:400px;""></stim_listA>",is kissing,,,,,,
62974.4,"<img src='img/portrait_matrix_list2.jpg' style='width:900px;height:500px;''></img><p>If you have memorised all the portraits and names and are ready to start, press Continue.</p><p><strong>Please note: Your memory of these faces will be tested 4 times during this experiment.</strong></p>",0,html-button-response,208,1039525,0.0-16.0-0.0,28667,List2A,white,woman,,,,,,,,,,,,,
4643.7,"<img src=""portrait/WW1.jpg""style=""height:400px;""></img>",1,html-button-response,209,1045187,0.0-16.0-1.0,28667,List2A,white,woman,,TRUE,1,,,,,,,,,,
null,CORRECT,,html-keyboard-response,210,1046694,0.0-16.0-2.0-0.0,28667,List2A,white,woman,,,,null,,,,,,,,,
2022.1,"<img src=""portrait/WW2.jpg""style=""height:400px;""></img>",3,html-button-response,211,1048720,0.0-16.0-4.0,28667,List2A,white,woman,,TRUE,3,,,,,,,,,,
null,CORRECT,,html-keyboard-response,212,1050237,0.0-16.0-5.0-0.0,28667,List2A,white,woman,,,,null,,,,,,,,,
2033.5,"<img src=""portrait/WM2.jpg""style=""height:400px;""></img>",7,html-button-response,213,1052275,0.0-16.0-7.0,28667,List2A,white,woman,,TRUE,7,,,,,,,,,,
null,CORRECT,,html-keyboard-response,214,1053801,0.0-16.0-8.0-0.0,28667,List2A,white,woman,,,,null,,,,,,,,,
1450.6,"<img src=""portrait/BM2.jpg""style=""height:400px;""></img>",5,html-button-response,215,1055255,0.0-16.0-10.0,28667,List2A,white,woman,,TRUE,5,,,,,,,,,,
null,CORRECT,,html-keyboard-response,216,1056785,0.0-16.0-11.0-0.0,28667,List2A,white,woman,,,,null,,,,,,,,,
5371.2,"<img src=""portrait/BW1.jpg""style=""height:400px;""></img>",0,html-button-response,217,1062160,0.0-16.0-13.0,28667,List2A,white,woman,,TRUE,0,,,,,,,,,,
null,CORRECT,,html-keyboard-response,218,1063679,0.0-16.0-14.0-0.0,28667,List2A,white,woman,,,,null,,,,,,,,,
2165.3,"<img src=""portrait/WM1.jpg""style=""height:400px;""></img>",6,html-button-response,219,1065849,0.0-16.0-16.0,28667,List2A,white,woman,,TRUE,6,,,,,,,,,,
null,CORRECT,,html-keyboard-response,220,1067367,0.0-16.0-17.0-0.0,28667,List2A,white,woman,,,,null,,,,,,,,,
2653.3,"<img src=""portrait/BW2.jpg""style=""height:400px;""></img>",2,html-button-response,221,1070023,0.0-16.0-19.0,28667,List2A,white,woman,,TRUE,2,,,,,,,,,,
null,CORRECT,,html-keyboard-response,222,1071543,0.0-16.0-20.0-0.0,28667,List2A,white,woman,,,,null,,,,,,,,,
1805.4,"<img src=""portrait/BM1.jpg""style=""height:400px;""></img>",4,html-button-response,223,1073352,0.0-16.0-22.0,28667,List2A,white,woman,,TRUE,4,,,,,,,,,,
null,CORRECT,,html-keyboard-response,224,1074885,0.0-16.0-23.0-0.0,28667,List2A,white,woman,,,,null,,,,,,,,,
2823.8,<p>You got 8 out of 8 right first time. Press Continue.</p>,0,html-button-response,225,1077712,0.0-16.0-25.0,28667,List2A,white,woman,,,,,,,,,,,,,
null,"<div style=""font-size:60px;"">+</div>",,html-keyboard-response,226,1079228,0.0-17.0-0.0,28667,List2A,white,woman,,,,null,,,,,,,,,
null,"<img src=""stim_listA/greet5.gif""style=""height:400px;""></stim_listA>",,html-keyboard-response,227,1081236,0.0-17.0-1.0,28667,List2A,white,woman,,,,null,,,,,,,,,
null,is greeting,,html-keyboard-response,228,1083238,0.0-17.0-2.0,28667,List2A,white,woman,,,,null,,,,,,,,,
6082.6,,,survey-text,229,1089331,0.0-17.0-3.0,28667,List2A,white,woman,,,,,"{""Q0"":""Fred is greeting Dave.""}","<img src=""stim_listA/greet5.gif""style=""height:400px;""></stim_listA>",is greeting,,,,,,
null,"<div style=""font-size:60px;"">+</div>",,html-keyboard-response,230,1089844,0.0-17.0-0.1,28667,List2A,white,woman,,,,null,,,,,,,,,
null,"<img src=""stim_listA/touch2.gif""style=""height:400px;""></stim_listA>",,html-keyboard-response,231,1091860,0.0-17.0-1.1,28667,List2A,white,woman,,,,null,,,,,,,,,
null,is being touched by,,html-keyboard-response,232,1093876,0.0-17.0-2.1,28667,List2A,white,woman,,,,null,,,,,,,,,
7287.8,,,survey-text,233,1101170,0.0-17.0-3.1,28667,List2A,white,woman,,,,,"{""Q0"":""Ruth is being touched by Luke.""}","<img src=""stim_listA/touch2.gif""style=""height:400px;""></stim_listA>",is being touched by,,,,,,
null,"<div style=""font-size:60px;"">+</div>",,html-keyboard-response,234,1101676,0.0-17.0-0.2,28667,List2A,white,woman,,,,null,,,,,,,,,
null,"<img src=""stim_listA/oppose5.gif""style=""height:400px;""></stim_listA>",,html-keyboard-response,235,1103693,0.0-17.0-1.2,28667,List2A,white,woman,,,,null,,,,,,,,,
null,is opposing,,html-keyboard-response,236,1105705,0.0-17.0-2.2,28667,List2A,white,woman,,,,null,,,,,,,,,
7350.5,,,survey-text,237,1113074,0.0-17.0-3.2,28667,List2A,white,woman,,,,,"{""Q0"":""Mike is opposing Dave. ""}","<img src=""stim_listA/oppose5.gif""style=""height:400px;""></stim_listA>",is opposing,,,,,,
null,"<div style=""font-size:60px;"">+</div>",,html-keyboard-response,238,1113585,0.0-17.0-0.3,28667,List2A,white,woman,,,,null,,,,,,,,,
null,"<img src=""stim_listA/look4.gif""style=""height:400px;""></stim_listA>",,html-keyboard-response,239,1115600,0.0-17.0-1.3,28667,List2A,white,woman,,,,null,,,,,,,,,
null,is being looked at by,,html-keyboard-response,240,1117611,0.0-17.0-2.3,28667,List2A,white,woman,,,,null,,,,,,,,,
8875.5,,,survey-text,241,1126490,0.0-17.0-3.3,28667,List2A,white,woman,,,,,"{""Q0"":""kate is being looked at by Mike""}","<img src=""stim_listA/look4.gif""style=""height:400px;""></stim_listA>",is being looked at by,,,,,,
null,"<div style=""font-size:60px;"">+</div>",,html-keyboard-response,242,1126995,0.0-17.0-0.4,28667,List2A,white,woman,,,,null,,,,,,,,,
null,"<img src=""stim_listA/kiss6.gif""style=""height:400px;""></stim_listA>",,html-keyboard-response,243,1129008,0.0-17.0-1.4,28667,List2A,white,woman,,,,null,,,,,,,,,
null,is being kissed by,,html-keyboard-response,244,1131022,0.0-17.0-2.4,28667,List2A,white,woman,,,,null,,,,,,,,,
11659.1,,,survey-text,245,1142689,0.0-17.0-3.4,28667,List2A,white,woman,,,,,"{""Q0"":""Mike is being kissed by Dave.""}","<img src=""stim_listA/kiss6.gif""style=""height:400px;""></stim_listA>",is being kissed by,,,,,,
null,"<div style=""font-size:60px;"">+</div>",,html-keyboard-response,246,1143195,0.0-17.0-0.5,28667,List2A,white,woman,,,,null,,,,,,,,,
null,"<img src=""stim_listA/challenge2.gif""style=""height:400px;""></stim_listA>",,html-keyboard-response,247,1145210,0.0-17.0-1.5,28667,List2A,white,woman,,,,null,,,,,,,,,
null,is being challenged by,,html-keyboard-response,248,1147218,0.0-17.0-2.5,28667,List2A,white,woman,,,,null,,,,,,,,,
10288.7,,,survey-text,249,1157525,0.0-17.0-3.5,28667,List2A,white,woman,,,,,"{""Q0"":""Luke is being challenged by Jane. ""}","<img src=""stim_listA/challenge2.gif""style=""height:400px;""></stim_listA>",is being challenged by,,,,,,
null,"<div style=""font-size:60px;"">+</div>",,html-keyboard-response,250,1158041,0.0-17.0-0.6,28667,List2A,white,woman,,,,null,,,,,,,,,
null,"<img src=""stim_listA/touch7.gif""style=""height:400px;""></stim_listA>",,html-keyboard-response,251,1160057,0.0-17.0-1.6,28667,List2A,white,woman,,,,null,,,,,,,,,
null,is touching,,html-keyboard-response,252,1162059,0.0-17.0-2.6,28667,List2A,white,woman,,,,null,,,,,,,,,
9963.4,,,survey-text,253,1172027,0.0-17.0-3.6,28667,List2A,white,woman,,,,,"{""Q0"":""Kate is touching Jane.""}","<img src=""stim_listA/touch7.gif""style=""height:400px;""></stim_listA>",is touching,,,,,,
null,"<div style=""font-size:60px;"">+</div>",,html-keyboard-response,254,1172538,0.0-17.0-0.7,28667,List2A,white,woman,,,,null,,,,,,,,,
null,"<img src=""stim_listA/challenge8.gif""style=""height:400px;""></stim_listA>",,html-keyboard-response,255,1174554,0.0-17.0-1.7,28667,List2A,white,woman,,,,null,,,,,,,,,
null,is being challenged by,,html-keyboard-response,256,1176570,0.0-17.0-2.7,28667,List2A,white,woman,,,,null,,,,,,,,,
7244,,,survey-text,257,1183821,0.0-17.0-3.7,28667,List2A,white,woman,,,,,"{""Q0"":""Kate is being challenged by Ruth. ""}","<img src=""stim_listA/challenge8.gif""style=""height:400px;""></stim_listA>",is being challenged by,,,,,,
null,"<div style=""font-size:60px;"">+</div>",,html-keyboard-response,258,1184336,0.0-17.0-0.8,28667,List2A,white,woman,,,,null,,,,,,,,,
null,"<img src=""stim_listA/shout4.gif""style=""height:400px;""></stim_listA>",,html-keyboard-response,259,1186350,0.0-17.0-1.8,28667,List2A,white,woman,,,,null,,,,,,,,,
null,is being shouted at by,,html-keyboard-response,260,1188353,0.0-17.0-2.8,28667,List2A,white,woman,,,,null,,,,,,,,,
11272.8,,,survey-text,261,1199630,0.0-17.0-3.8,28667,List2A,white,woman,,,,,"{""Q0"":""Mike is being shouted at by Kate. ""}","<img src=""stim_listA/shout4.gif""style=""height:400px;""></stim_listA>",is being shouted at by,,,,,,
null,"<div style=""font-size:60px;"">+</div>",,html-keyboard-response,262,1200134,0.0-17.0-0.9,28667,List2A,white,woman,,,,null,,,,,,,,,
null,"<img src=""stim_listA/oppose3.gif""style=""height:400px;""></stim_listA>",,html-keyboard-response,263,1202147,0.0-17.0-1.9,28667,List2A,white,woman,,,,null,,,,,,,,,
null,is opposing,,html-keyboard-response,264,1204150,0.0-17.0-2.9,28667,List2A,white,woman,,,,null,,,,,,,,,
6518.6,,,survey-text,265,1210676,0.0-17.0-3.9,28667,List2A,white,woman,,,,,"{""Q0"":""Kate is opposing Mike.""}","<img src=""stim_listA/oppose3.gif""style=""height:400px;""></stim_listA>",is opposing,,,,,,
null,"<div style=""font-size:60px;"">+</div>",,html-keyboard-response,266,1211180,0.0-17.0-0.10,28667,List2A,white,woman,,,,null,,,,,,,,,
null,"<img src=""stim_listA/seduce5.gif""style=""height:400px;""></stim_listA>",,html-keyboard-response,267,1213194,0.0-17.0-1.10,28667,List2A,white,woman,,,,null,,,,,,,,,
null,is seducing,,html-keyboard-response,268,1215211,0.0-17.0-2.10,28667,List2A,white,woman,,,,null,,,,,,,,,
7061.4,,,survey-text,269,1222281,0.0-17.0-3.10,28667,List2A,white,woman,,,,,"{""Q0"":""Luke is seducing Mike.""}","<img src=""stim_listA/seduce5.gif""style=""height:400px;""></stim_listA>",is seducing,,,,,,
null,"<div style=""font-size:60px;"">+</div>",,html-keyboard-response,270,1222796,0.0-17.0-0.11,28667,List2A,white,woman,,,,null,,,,,,,,,
null,"<img src=""stim_listA/look2.gif""style=""height:400px;""></stim_listA>",,html-keyboard-response,271,1224816,0.0-17.0-1.11,28667,List2A,white,woman,,,,null,,,,,,,,,
null,is being looked at by,,html-keyboard-response,272,1226835,0.0-17.0-2.11,28667,List2A,white,woman,,,,null,,,,,,,,,
8202.3,,,survey-text,273,1235044,0.0-17.0-3.11,28667,List2A,white,woman,,,,,"{""Q0"":""Dave is being looked at by Jane. ""}","<img src=""stim_listA/look2.gif""style=""height:400px;""></stim_listA>",is being looked at by,,,,,,
null,"<div style=""font-size:60px;"">+</div>",,html-keyboard-response,274,1235555,0.0-17.0-0.12,28667,List2A,white,woman,,,,null,,,,,,,,,
null,"<img src=""stim_listA/look3.gif""style=""height:400px;""></stim_listA>",,html-keyboard-response,275,1237561,0.0-17.0-1.12,28667,List2A,white,woman,,,,null,,,,,,,,,
null,is looking at,,html-keyboard-response,276,1239571,0.0-17.0-2.12,28667,List2A,white,woman,,,,null,,,,,,,,,
7823.2,,,survey-text,277,1247403,0.0-17.0-3.12,28667,List2A,white,woman,,,,,"{""Q0"":""Beth is looking at Fred.""}","<img src=""stim_listA/look3.gif""style=""height:400px;""></stim_listA>",is looking at,,,,,,
null,"<div style=""font-size:60px;"">+</div>",,html-keyboard-response,278,1247919,0.0-17.0-0.13,28667,List2A,white,woman,,,,null,,,,,,,,,
null,"<img src=""stim_listA/copy1.gif""style=""height:400px;""></stim_listA>",,html-keyboard-response,279,1249933,0.0-17.0-1.13,28667,List2A,white,woman,,,,null,,,,,,,,,
null,is copying,,html-keyboard-response,280,1251935,0.0-17.0-2.13,28667,List2A,white,woman,,,,null,,,,,,,,,
6097.6,,,survey-text,281,1258042,0.0-17.0-3.13,28667,List2A,white,woman,,,,,"{""Q0"":""Dave is copying Ruth. ""}","<img src=""stim_listA/copy1.gif""style=""height:400px;""></stim_listA>",is copying,,,,,,
null,"<div style=""font-size:60px;"">+</div>",,html-keyboard-response,282,1258552,0.0-17.0-0.14,28667,List2A,white,woman,,,,null,,,,,,,,,
null,"<img src=""stim_listA/oppose8.gif""style=""height:400px;""></stim_listA>",,html-keyboard-response,283,1260566,0.0-17.0-1.14,28667,List2A,white,woman,,,,null,,,,,,,,,
null,is being opposed by,,html-keyboard-response,284,1262578,0.0-17.0-2.14,28667,List2A,white,woman,,,,null,,,,,,,,,
7127.6,,,survey-text,285,1269747,0.0-17.0-3.14,28667,List2A,white,woman,,,,,"{""Q0"":""Beth is being opposed by Ruth. ""}","<img src=""stim_listA/oppose8.gif""style=""height:400px;""></stim_listA>",is being opposed by,,,,,,
null,"<div style=""font-size:60px;"">+</div>",,html-keyboard-response,286,1270265,0.0-17.0-0.15,28667,List2A,white,woman,,,,null,,,,,,,,,
null,"<img src=""stim_listA/copy2.gif""style=""height:400px;""></stim_listA>",,html-keyboard-response,287,1272277,0.0-17.0-1.15,28667,List2A,white,woman,,,,null,,,,,,,,,
null,is being copied by,,html-keyboard-response,288,1274284,0.0-17.0-2.15,28667,List2A,white,woman,,,,null,,,,,,,,,
7579.1,,,survey-text,289,1281874,0.0-17.0-3.15,28667,List2A,white,woman,,,,,"{""Q0"":""Luke is being copied by Jane.""}","<img src=""stim_listA/copy2.gif""style=""height:400px;""></stim_listA>",is being copied by,,,,,,
null,"<div style=""font-size:60px;"">+</div>",,html-keyboard-response,290,1282379,0.0-17.0-0.16,28667,List2A,white,woman,,,,null,,,,,,,,,
null,"<img src=""stim_listA/copy3.gif""style=""height:400px;""></stim_listA>",,html-keyboard-response,291,1284392,0.0-17.0-1.16,28667,List2A,white,woman,,,,null,,,,,,,,,
null,is copying,,html-keyboard-response,292,1286406,0.0-17.0-2.16,28667,List2A,white,woman,,,,null,,,,,,,,,
6042.5,,,survey-text,293,1292456,0.0-17.0-3.16,28667,List2A,white,woman,,,,,"{""Q0"":""Mike is copying Beth. ""}","<img src=""stim_listA/copy3.gif""style=""height:400px;""></stim_listA>",is copying,,,,,,
null,"<div style=""font-size:60px;"">+</div>",,html-keyboard-response,294,1292967,0.0-17.0-0.17,28667,List2A,white,woman,,,,null,,,,,,,,,
null,"<img src=""stim_listA/seduce8.gif""style=""height:400px;""></stim_listA>",,html-keyboard-response,295,1294989,0.0-17.0-1.17,28667,List2A,white,woman,,,,null,,,,,,,,,
null,is being seduced by,,html-keyboard-response,296,1297003,0.0-17.0-2.17,28667,List2A,white,woman,,,,null,,,,,,,,,
10581.7,,,survey-text,297,1307592,0.0-17.0-3.17,28667,List2A,white,woman,,,,,"{""Q0"":""Beth is being seduced by Jane. ""}","<img src=""stim_listA/seduce8.gif""style=""height:400px;""></stim_listA>",is being seduced by,,,,,,
null,"<div style=""font-size:60px;"">+</div>",,html-keyboard-response,298,1308104,0.0-17.0-0.18,28667,List2A,white,woman,,,,null,,,,,,,,,
null,"<img src=""stim_listA/seduce6.gif""style=""height:400px;""></stim_listA>",,html-keyboard-response,299,1310109,0.0-17.0-1.18,28667,List2A,white,woman,,,,null,,,,,,,,,
null,is being seduced by,,html-keyboard-response,300,1312111,0.0-17.0-2.18,28667,List2A,white,woman,,,,null,,,,,,,,,
7890,,,survey-text,301,1320005,0.0-17.0-3.18,28667,List2A,white,woman,,,,,"{""Q0"":""Dave is being seduced by Fred.""}","<img src=""stim_listA/seduce6.gif""style=""height:400px;""></stim_listA>",is being seduced by,,,,,,
null,"<div style=""font-size:60px;"">+</div>",,html-keyboard-response,302,1320542,0.0-17.0-0.19,28667,List2A,white,woman,,,,null,,,,,,,,,
null,"<img src=""stim_listA/greet3.gif""style=""height:400px;""></stim_listA>",,html-keyboard-response,303,1322552,0.0-17.0-1.19,28667,List2A,white,woman,,,,null,,,,,,,,,
null,is greeting,,html-keyboard-response,304,1324558,0.0-17.0-2.19,28667,List2A,white,woman,,,,null,,,,,,,,,
7224.4,,,survey-text,305,1331805,0.0-17.0-3.19,28667,List2A,white,woman,,,,,"{""Q0"":""Mike is greeting Beth. ""}","<img src=""stim_listA/greet3.gif""style=""height:400px;""></stim_listA>",is greeting,,,,,,
17945.6,"<img src='img/portrait_matrix_list2.jpg' style='width:900px;height:500px;''></img><p>If you have memorised all the portraits and names and are ready to start, press Continue.</p><p><strong>Please note: Your memory of these faces will be tested 4 times during this experiment.</strong></p>",0,html-button-response,306,1349758,0.0-18.0-0.0,28667,List2A,white,woman,,,,,,,,,,,,,
2510.7,"<img src=""portrait/WW2.jpg""style=""height:400px;""></img>",3,html-button-response,307,1353288,0.0-18.0-1.0,28667,List2A,white,woman,,TRUE,3,,,,,,,,,,
null,CORRECT,,html-keyboard-response,308,1354812,0.0-18.0-2.0-0.0,28667,List2A,white,woman,,,,null,,,,,,,,,
2738.5,"<img src=""portrait/WM1.jpg""style=""height:400px;""></img>",6,html-button-response,309,1357554,0.0-18.0-4.0,28667,List2A,white,woman,,TRUE,6,,,,,,,,,,
null,CORRECT,,html-keyboard-response,310,1359085,0.0-18.0-5.0-0.0,28667,List2A,white,woman,,,,null,,,,,,,,,
14090.9,"<img src=""portrait/WM2.jpg""style=""height:400px;""></img>",7,html-button-response,311,1373182,0.0-18.0-7.0,28667,List2A,white,woman,,TRUE,7,,,,,,,,,,
null,CORRECT,,html-keyboard-response,312,1374703,0.0-18.0-8.0-0.0,28667,List2A,white,woman,,,,null,,,,,,,,,
2686.8,"<img src=""portrait/WW1.jpg""style=""height:400px;""></img>",1,html-button-response,313,1377393,0.0-18.0-10.0,28667,List2A,white,woman,,TRUE,1,,,,,,,,,,
null,CORRECT,,html-keyboard-response,314,1378904,0.0-18.0-11.0-0.0,28667,List2A,white,woman,,,,null,,,,,,,,,
1807.3,"<img src=""portrait/BW2.jpg""style=""height:400px;""></img>",2,html-button-response,315,1380715,0.0-18.0-13.0,28667,List2A,white,woman,,TRUE,2,,,,,,,,,,
null,CORRECT,,html-keyboard-response,316,1382234,0.0-18.0-14.0-0.0,28667,List2A,white,woman,,,,null,,,,,,,,,
3261.7,"<img src=""portrait/BW1.jpg""style=""height:400px;""></img>",0,html-button-response,317,1385499,0.0-18.0-16.0,28667,List2A,white,woman,,TRUE,0,,,,,,,,,,
null,CORRECT,,html-keyboard-response,318,1387008,0.0-18.0-17.0-0.0,28667,List2A,white,woman,,,,null,,,,,,,,,
39169.9,"<img src=""portrait/BM1.jpg""style=""height:400px;""></img>",4,html-button-response,319,1426183,0.0-18.0-19.0,28667,List2A,white,woman,,TRUE,4,,,,,,,,,,
null,CORRECT,,html-keyboard-response,320,1427694,0.0-18.0-20.0-0.0,28667,List2A,white,woman,,,,null,,,,,,,,,
1558,"<img src=""portrait/BM2.jpg""style=""height:400px;""></img>",5,html-button-response,321,1429256,0.0-18.0-22.0,28667,List2A,white,woman,,TRUE,5,,,,,,,,,,
null,CORRECT,,html-keyboard-response,322,1430771,0.0-18.0-23.0-0.0,28667,List2A,white,woman,,,,null,,,,,,,,,
2176.6,<p>You got 8 out of 8 right first time. Press Continue.</p>,0,html-button-response,323,1432951,0.0-18.0-25.0,28667,List2A,white,woman,,,,,,,,,,,,,
null,"<div style=""font-size:60px;"">+</div>",,html-keyboard-response,324,1434473,0.0-19.0-0.0,28667,List2A,white,woman,,,,null,,,,,,,,,
null,"<img src=""stim_listA/kiss2.gif""style=""height:400px;""></stim_listA>",,html-keyboard-response,325,1436484,0.0-19.0-1.0,28667,List2A,white,woman,,,,null,,,,,,,,,
null,is being kissed by,,html-keyboard-response,326,1438488,0.0-19.0-2.0,28667,List2A,white,woman,,,,null,,,,,,,,,
13821.7,,,survey-text,327,1452313,0.0-19.0-3.0,28667,List2A,white,woman,,,,,"{""Q0"":""Dave is being kissed by Jane.""}","<img src=""stim_listA/kiss2.gif""style=""height:400px;""></stim_listA>",is being kissed by,,,,,,
null,"<div style=""font-size:60px;"">+</div>",,html-keyboard-response,328,1452825,0.0-19.0-0.1,28667,List2A,white,woman,,,,null,,,,,,,,,
null,"<img src=""stim_listA/challenge7.gif""style=""height:400px;""></stim_listA>",,html-keyboard-response,329,1454843,0.0-19.0-1.1,28667,List2A,white,woman,,,,null,,,,,,,,,
null,is challenging,,html-keyboard-response,330,1456858,0.0-19.0-2.1,28667,List2A,white,woman,,,,null,,,,,,,,,
7899.9,,,survey-text,331,1464767,0.0-19.0-3.1,28667,List2A,white,woman,,,,,"{""Q0"":""Beth is challenging Jane. ""}","<img src=""stim_listA/challenge7.gif""style=""height:400px;""></stim_listA>",is challenging,,,,,,
null,"<div style=""font-size:60px;"">+</div>",,html-keyboard-response,332,1465283,0.0-19.0-0.2,28667,List2A,white,woman,,,,null,,,,,,,,,
null,"<img src=""stim_listA/greet8.gif""style=""height:400px;""></stim_listA>",,html-keyboard-response,333,1467303,0.0-19.0-1.2,28667,List2A,white,woman,,,,null,,,,,,,,,
null,is being greeted by,,html-keyboard-response,334,1469323,0.0-19.0-2.2,28667,List2A,white,woman,,,,null,,,,,,,,,
8650.8,,,survey-text,335,1477981,0.0-19.0-3.2,28667,List2A,white,woman,,,,,"{""Q0"":""Ruth is being greeted by Kate.""}","<img src=""stim_listA/greet8.gif""style=""height:400px;""></stim_listA>",is being greeted by,,,,,,
null,"<div style=""font-size:60px;"">+</div>",,html-keyboard-response,336,1478492,0.0-19.0-0.3,28667,List2A,white,woman,,,,null,,,,,,,,,
null,"<img src=""stim_listA/touch1.gif""style=""height:400px;""></stim_listA>",,html-keyboard-response,337,1480506,0.0-19.0-1.3,28667,List2A,white,woman,,,,null,,,,,,,,,
null,is touching,,html-keyboard-response,338,1482516,0.0-19.0-2.3,28667,List2A,white,woman,,,,null,,,,,,,,,
7497.6,,,survey-text,339,1490023,0.0-19.0-3.3,28667,List2A,white,woman,,,,,"{""Q0"":""Jane is touching Dave.""}","<img src=""stim_listA/touch1.gif""style=""height:400px;""></stim_listA>",is touching,,,,,,
null,"<div style=""font-size:60px;"">+</div>",,html-keyboard-response,340,1490529,0.0-19.0-0.4,28667,List2A,white,woman,,,,null,,,,,,,,,
null,"<img src=""stim_listA/copy8.gif""style=""height:400px;""></stim_listA>",,html-keyboard-response,341,1492548,0.0-19.0-1.4,28667,List2A,white,woman,,,,null,,,,,,,,,
null,is being copied by,,html-keyboard-response,342,1494557,0.0-19.0-2.4,28667,List2A,white,woman,,,,null,,,,,,,,,
6901.2,,,survey-text,343,1501468,0.0-19.0-3.4,28667,List2A,white,woman,,,,,"{""Q0"":""Ruth is being copied by Kate.""}","<img src=""stim_listA/copy8.gif""style=""height:400px;""></stim_listA>",is being copied by,,,,,,
null,"<div style=""font-size:60px;"">+</div>",,html-keyboard-response,344,1501984,0.0-19.0-0.5,28667,List2A,white,woman,,,,null,,,,,,,,,
null,"<img src=""stim_listA/oppose7.gif""style=""height:400px;""></stim_listA>",,html-keyboard-response,345,1504001,0.0-19.0-1.5,28667,List2A,white,woman,,,,null,,,,,,,,,
null,is opposing,,html-keyboard-response,346,1506014,0.0-19.0-2.5,28667,List2A,white,woman,,,,null,,,,,,,,,
5491.5,,,survey-text,347,1511514,0.0-19.0-3.5,28667,List2A,white,woman,,,,,"{""Q0"":""Jane is opposing Kate.""}","<img src=""stim_listA/oppose7.gif""style=""height:400px;""></stim_listA>",is opposing,,,,,,
null,"<div style=""font-size:60px;"">+</div>",,html-keyboard-response,348,1512031,0.0-19.0-0.6,28667,List2A,white,woman,,,,null,,,,,,,,,
null,"<img src=""stim_listA/look6.gif""style=""height:400px;""></stim_listA>",,html-keyboard-response,349,1514046,0.0-19.0-1.6,28667,List2A,white,woman,,,,null,,,,,,,,,
null,is being looked at by,,html-keyboard-response,350,1516052,0.0-19.0-2.6,28667,List2A,white,woman,,,,null,,,,,,,,,
11531.2,,,survey-text,351,1527592,0.0-19.0-3.6,28667,List2A,white,woman,,,,,"{""Q0"":""Dave is being looked at by Mike.""}","<img src=""stim_listA/look6.gif""style=""height:400px;""></stim_listA>",is being looked at by,,,,,,
null,"<div style=""font-size:60px;"">+</div>",,html-keyboard-response,352,1528101,0.0-19.0-0.7,28667,List2A,white,woman,,,,null,,,,,,,,,
null,"<img src=""stim_listA/seduce4.gif""style=""height:400px;""></stim_listA>",,html-keyboard-response,353,1530111,0.0-19.0-1.7,28667,List2A,white,woman,,,,null,,,,,,,,,
null,is being seduced by,,html-keyboard-response,354,1532127,0.0-19.0-2.7,28667,List2A,white,woman,,,,null,,,,,,,,,
8233.1,,,survey-text,355,1540368,0.0-19.0-3.7,28667,List2A,white,woman,,,,,"{""Q0"":""Beth is being seduced by Mike.""}","<img src=""stim_listA/seduce4.gif""style=""height:400px;""></stim_listA>",is being seduced by,,,,,,
null,"<div style=""font-size:60px;"">+</div>",,html-keyboard-response,356,1540880,0.0-19.0-0.8,28667,List2A,white,woman,,,,null,,,,,,,,,
null,"<img src=""stim_listA/hug4.gif""style=""height:400px;""></stim_listA>",,html-keyboard-response,357,1542891,0.0-19.0-1.8,28667,List2A,white,woman,,,,null,,,,,,,,,
null,is being hugged by,,html-keyboard-response,358,1544899,0.0-19.0-2.8,28667,List2A,white,woman,,,,null,,,,,,,,,
7156.7,,,survey-text,359,1552060,0.0-19.0-3.8,28667,List2A,white,woman,,,,,"{""Q0"":""Mike is being hugged by Kate.""}","<img src=""stim_listA/hug4.gif""style=""height:400px;""></stim_listA>",is being hugged by,,,,,,
null,"<div style=""font-size:60px;"">+</div>",,html-keyboard-response,360,1552567,0.0-19.0-0.9,28667,List2A,white,woman,,,,null,,,,,,,,,
null,"<img src=""stim_listA/challenge1.gif""style=""height:400px;""></stim_listA>",,html-keyboard-response,361,1554578,0.0-19.0-1.9,28667,List2A,white,woman,,,,null,,,,,,,,,
null,is challenging,,html-keyboard-response,362,1556587,0.0-19.0-2.9,28667,List2A,white,woman,,,,null,,,,,,,,,
5378.9,,,survey-text,363,1561975,0.0-19.0-3.9,28667,List2A,white,woman,,,,,"{""Q0"":""Dave is challenging Ruth. ""}","<img src=""stim_listA/challenge1.gif""style=""height:400px;""></stim_listA>",is challenging,,,,,,
null,"<div style=""font-size:60px;"">+</div>",,html-keyboard-response,364,1562492,0.0-19.0-0.10,28667,List2A,white,woman,,,,null,,,,,,,,,
null,"<img src=""stim_listA/seduce3.gif""style=""height:400px;""></stim_listA>",,html-keyboard-response,365,1564512,0.0-19.0-1.10,28667,List2A,white,woman,,,,null,,,,,,,,,
null,is seducing,,html-keyboard-response,366,1566518,0.0-19.0-2.10,28667,List2A,white,woman,,,,null,,,,,,,,,
7600.1,,,survey-text,367,1574124,0.0-19.0-3.10,28667,List2A,white,woman,,,,,"{""Q0"":""Kate is seducing Fred.""}","<img src=""stim_listA/seduce3.gif""style=""height:400px;""></stim_listA>",is seducing,,,,,,
null,"<div style=""font-size:60px;"">+</div>",,html-keyboard-response,368,1574630,0.0-19.0-0.11,28667,List2A,white,woman,,,,null,,,,,,,,,
null,"<img src=""stim_listA/oppose1.gif""style=""height:400px;""></stim_listA>",,html-keyboard-response,369,1576648,0.0-19.0-1.11,28667,List2A,white,woman,,,,null,,,,,,,,,
null,is opposing,,html-keyboard-response,370,1578651,0.0-19.0-2.11,28667,List2A,white,woman,,,,null,,,,,,,,,
5999.3,,,survey-text,371,1584656,0.0-19.0-3.11,28667,List2A,white,woman,,,,,"{""Q0"":""Jane is opposing Dave.""}","<img src=""stim_listA/oppose1.gif""style=""height:400px;""></stim_listA>",is opposing,,,,,,
null,"<div style=""font-size:60px;"">+</div>",,html-keyboard-response,372,1585168,0.0-19.0-0.12,28667,List2A,white,woman,,,,null,,,,,,,,,
null,"<img src=""stim_listA/touch4.gif""style=""height:400px;""></stim_listA>",,html-keyboard-response,373,1587179,0.0-19.0-1.12,28667,List2A,white,woman,,,,null,,,,,,,,,
null,is being touched by,,html-keyboard-response,374,1589186,0.0-19.0-2.12,28667,List2A,white,woman,,,,null,,,,,,,,,
11100.9,,,survey-text,375,1600294,0.0-19.0-3.12,28667,List2A,white,woman,,,,,"{""Q0"":""Beth is being touched by Fred.""}","<img src=""stim_listA/touch4.gif""style=""height:400px;""></stim_listA>",is being touched by,,,,,,
null,"<div style=""font-size:60px;"">+</div>",,html-keyboard-response,376,1600805,0.0-19.0-0.13,28667,List2A,white,woman,,,,null,,,,,,,,,
null,"<img src=""stim_listA/oppose4.gif""style=""height:400px;""></stim_listA>",,html-keyboard-response,377,1602811,0.0-19.0-1.13,28667,List2A,white,woman,,,,null,,,,,,,,,
null,is being opposed by,,html-keyboard-response,378,1604825,0.0-19.0-2.13,28667,List2A,white,woman,,,,null,,,,,,,,,
7674.2,,,survey-text,379,1612507,0.0-19.0-3.13,28667,List2A,white,woman,,,,,"{""Q0"":""Fred is being opposed by Beth. ""}","<img src=""stim_listA/oppose4.gif""style=""height:400px;""></stim_listA>",is being opposed by,,,,,,
null,"<div style=""font-size:60px;"">+</div>",,html-keyboard-response,380,1613018,0.0-19.0-0.14,28667,List2A,white,woman,,,,null,,,,,,,,,
null,"<img src=""stim_listA/kiss1.gif""style=""height:400px;""></stim_listA>",,html-keyboard-response,381,1615027,0.0-19.0-1.14,28667,List2A,white,woman,,,,null,,,,,,,,,
null,is kissing,,html-keyboard-response,382,1617033,0.0-19.0-2.14,28667,List2A,white,woman,,,,null,,,,,,,,,
10005.8,,,survey-text,383,1627042,0.0-19.0-3.14,28667,List2A,white,woman,,,,,"{""Q0"":""Luke is kissing Ruth. ""}","<img src=""stim_listA/kiss1.gif""style=""height:400px;""></stim_listA>",is kissing,,,,,,
null,"<div style=""font-size:60px;"">+</div>",,html-keyboard-response,384,1627545,0.0-19.0-0.15,28667,List2A,white,woman,,,,null,,,,,,,,,
null,"<img src=""stim_listA/shout6.gif""style=""height:400px;""></stim_listA>",,html-keyboard-response,385,1629556,0.0-19.0-1.15,28667,List2A,white,woman,,,,null,,,,,,,,,
null,is being shouted at by,,html-keyboard-response,386,1631570,0.0-19.0-2.15,28667,List2A,white,woman,,,,null,,,,,,,,,
8008.9,,,survey-text,387,1639587,0.0-19.0-3.15,28667,List2A,white,woman,,,,,"{""Q0"":""Mike is being shouted at by Dave.""}","<img src=""stim_listA/shout6.gif""style=""height:400px;""></stim_listA>",is being shouted at by,,,,,,
null,"<div style=""font-size:60px;"">+</div>",,html-keyboard-response,388,1640105,0.0-19.0-0.16,28667,List2A,white,woman,,,,null,,,,,,,,,
null,"<img src=""stim_listA/greet1.gif""style=""height:400px;""></stim_listA>",,html-keyboard-response,389,1642120,0.0-19.0-1.16,28667,List2A,white,woman,,,,null,,,,,,,,,
null,is greeting,,html-keyboard-response,390,1644129,0.0-19.0-2.16,28667,List2A,white,woman,,,,null,,,,,,,,,
6123.1,,,survey-text,391,1650279,0.0-19.0-3.16,28667,List2A,white,woman,,,,,"{""Q0"":""Dave is greeting Ruth. ""}","<img src=""stim_listA/greet1.gif""style=""height:400px;""></stim_listA>",is greeting,,,,,,
null,"<div style=""font-size:60px;"">+</div>",,html-keyboard-response,392,1650786,0.0-19.0-0.17,28667,List2A,white,woman,,,,null,,,,,,,,,
null,"<img src=""stim_listA/kiss8.gif""style=""height:400px;""></stim_listA>",,html-keyboard-response,393,1652795,0.0-19.0-1.17,28667,List2A,white,woman,,,,null,,,,,,,,,
null,is being kissed by,,html-keyboard-response,394,1654798,0.0-19.0-2.17,28667,List2A,white,woman,,,,null,,,,,,,,,
7304.8,,,survey-text,395,1662116,0.0-19.0-3.17,28667,List2A,white,woman,,,,,"{""Q0"":""Kate is being kissed by Jane.""}","<img src=""stim_listA/kiss8.gif""style=""height:400px;""></stim_listA>",is being kissed by,,,,,,
null,"<div style=""font-size:60px;"">+</div>",,html-keyboard-response,396,1662625,0.0-19.0-0.18,28667,List2A,white,woman,,,,null,,,,,,,,,
null,"<img src=""stim_listA/kiss3.gif""style=""height:400px;""></stim_listA>",,html-keyboard-response,397,1664636,0.0-19.0-1.18,28667,List2A,white,woman,,,,null,,,,,,,,,
null,is kissing,,html-keyboard-response,398,1666638,0.0-19.0-2.18,28667,List2A,white,woman,,,,null,,,,,,,,,
5390.7,,,survey-text,399,1672038,0.0-19.0-3.18,28667,List2A,white,woman,,,,,"{""Q0"":""Beth is kissing Fred.""}","<img src=""stim_listA/kiss3.gif""style=""height:400px;""></stim_listA>",is kissing,,,,,,
null,"<div style=""font-size:60px;"">+</div>",,html-keyboard-response,400,1672548,0.0-19.0-0.19,28667,List2A,white,woman,,,,null,,,,,,,,,
null,"<img src=""stim_listA/kiss5.gif""style=""height:400px;""></stim_listA>",,html-keyboard-response,401,1674556,0.0-19.0-1.19,28667,List2A,white,woman,,,,null,,,,,,,,,
null,is kissing,,html-keyboard-response,402,1676564,0.0-19.0-2.19,28667,List2A,white,woman,,,,null,,,,,,,,,
5171.9,,,survey-text,403,1681744,0.0-19.0-3.19,28667,List2A,white,woman,,,,,"{""Q0"":""Luke is kissing Fred.""}","<img src=""stim_listA/kiss5.gif""style=""height:400px;""></stim_listA>",is kissing,,,,,,
3773,<p>Thank you for completing that task.</p><p>The final part of this session is a questionnaire that will take about 4 minutes.</p><p>Press Continue.</p>,0,html-button-response,404,1685521,0.0-20.0,28667,List2A,white,woman,,,,,,,,,,,,,
29284.8,,,survey-text,405,1715840,0.0-21.0,28667,List2A,white,woman,,,,,"{""Q0"":""22"",""Q1"":""English"",""Q2"":""English"",""Q3"":""The United States of America"",""Q4"":""American"",""Q5"":""White"",""Q6"":""Female""}",,,demographics,,,,,
3368.6,<p>Have you lived in the USA for the last 5 years or more?</p>,0,html-button-response,406,1719221,0.0-22.0,28667,List2A,white,woman,,,,,,,,fiveyears,,,,,
2460.7,<p>Move the slider to show the extent to which you agree with the following statements.</p>,0,html-button-response,407,1722690,0.0-23.0,28667,List2A,white,woman,,,,,,,,,,,,,
7500.8,,,html-slider-response,408,1731200,0.0-24.0-0.0-0.0,28667,List2A,white,woman,,,,,,,,survey_gender,100,,,Being my gender is an important part of how I see myself.,important
6834.1,,,html-slider-response,409,1738040,0.0-24.0-0.0-0.1,28667,List2A,white,woman,,,,,,,,survey_gender,100,,,I feel solidarity with my gender.,solidarity
5756.3,,,html-slider-response,410,1743800,0.0-24.0-0.0-0.2,28667,List2A,white,woman,,,,,,,,survey_gender,91,,,People of my gender have a lot in common with each other.,common
2973.3,,,html-slider-response,411,1746779,0.0-24.0-0.0-0.3,28667,List2A,white,woman,,,,,,,,survey_gender,100,,,I feel committed to my gender.,committed
3098.2,,,html-slider-response,412,1749880,0.0-24.0-0.0-0.4,28667,List2A,white,woman,,,,,,,,survey_gender,100,,,I feel a bond with my gender.,bond
3263.7,,,html-slider-response,413,1753150,0.0-24.0-0.0-0.5,28667,List2A,white,woman,,,,,,,,survey_gender,100,,,Being my gender gives me a good feeling.,feeling
6061,,,html-slider-response,414,1759215,0.0-24.0-0.0-0.6,28667,List2A,white,woman,,,,,,,,survey_gender,84,,,I would say I am an animal person.,filler
4039,,,html-slider-response,415,1763257,0.0-24.0-0.0-0.7,28667,List2A,white,woman,,,,,,,,survey_gender,100,,,I often think about the fact that I am my gender.,often
4460.4,,,html-slider-response,416,1767724,0.0-24.0-0.0-0.8,28667,List2A,white,woman,,,,,,,,survey_gender,73,,,I am similar to the average person of my gender.,similar
3503.8,,,html-slider-response,417,1771230,0.0-24.0-0.0-0.9,28667,List2A,white,woman,,,,,,,,survey_gender,100,,,The fact that I am my gender is an important part of my identity.,identity
3040,,,html-slider-response,418,1774272,0.0-24.0-0.0-0.10,28667,List2A,white,woman,,,,,,,,survey_gender,100,,,I am glad to be my gender.,glad
5537.2,,,html-slider-response,419,1779812,0.0-24.0-0.0-0.11,28667,List2A,white,woman,,,,,,,,survey_gender,78,,,I have a lot in common with the average person of my gender.,average
3648.2,,,html-slider-response,420,1783466,0.0-24.0-0.0-0.12,28667,List2A,white,woman,,,,,,,,survey_gender,100,,,I think that my gender has a lot to be proud of.,proud
3301,,,html-slider-response,421,1786775,0.0-24.0-0.0-0.13,28667,List2A,white,woman,,,,,,,,survey_gender,91,,,I often think about my actions.,filler
2628.8,,,html-slider-response,422,1789407,0.0-24.0-0.0-0.14,28667,List2A,white,woman,,,,,,,,survey_gender,70,,,My friends understand me.,filler
4636.8,,,html-slider-response,423,1794047,0.0-24.0-0.0-0.15,28667,List2A,white,woman,,,,,,,,survey_gender,39,,,Family is not more important to me than friendship.,filler
3114,,,html-slider-response,424,1797165,0.0-24.0-0.0-0.16,28667,List2A,white,woman,,,,,,,,survey_gender,64,,,People of my gender are very similar to each other.,verysimilar
3902.4,,,html-slider-response,425,1801070,0.0-24.0-0.0-0.17,28667,List2A,white,woman,,,,,,,,survey_gender,74,,,I consider myself a highly empathetic person.,filler
5599.4,,,html-slider-response,426,1806675,0.0-24.0-0.0-0.18,28667,List2A,white,woman,,,,,,,,survey_gender,62,,,My friends have a lot in common with each other.,filler
3575.9,,,html-slider-response,427,1810254,0.0-24.0-0.0-0.19,28667,List2A,white,woman,,,,,,,,survey_gender,64,,,It is not always easy for people to know what I am thinking.,filler
3959.4,,,html-slider-response,428,1814218,0.0-24.0-0.0-0.20,28667,List2A,white,woman,,,,,,,,survey_gender,67,,,I have a lot in common with my friends.,filler
3981.5,,,html-slider-response,429,1818204,0.0-24.0-0.0-0.21,28667,List2A,white,woman,,,,,,,,survey_gender,99,,,Being around my friends gives me a good feeling.,filler
4087.3,,,html-slider-response,430,1822294,0.0-24.0-0.0-0.22,28667,List2A,white,woman,,,,,,,,survey_gender,74,,,Most of the friends in my life are very similar to me.,filler
1995.2,,,html-slider-response,431,1824295,0.0-24.0-0.0-0.23,28667,List2A,white,woman,,,,,,,,survey_gender,79,,,I am glad to have the friends that I have.,filler
2540.9,,,html-slider-response,432,1826840,0.0-24.0-0.0-0.24,28667,List2A,white,woman,,,,,,,,survey_gender,100,,,I feel solidarity with my friends.,filler
2649.6,,,html-slider-response,433,1829496,0.0-24.0-0.0-0.25,28667,List2A,white,woman,,,,,,,,survey_gender,100,,,It is pleasant to be my gender.,pleasant
4064.5,,,html-slider-response,434,1833566,0.0-24.0-0.0-0.26,28667,List2A,white,woman,,,,,,,,survey_gender,46,,,Routine is not important to me.,filler
2259.8,,,html-slider-response,435,1835831,0.0-24.0-0.0-0.27,28667,List2A,white,woman,,,,,,,,survey_gender,100,,,I feel a bond with my friends.,filler
4145.6,,,html-slider-response,436,1839980,0.0-24.0-1.0-0.0,28667,List2A,white,woman,,,,,,,,survey_race,28,,,I think that my race has a lot to be proud of.,proud
3791.1,,,html-slider-response,437,1843777,0.0-24.0-1.0-0.1,28667,List2A,white,woman,,,,,,,,survey_race,41,,,It is pleasant to be my race.,pleasant
4717.8,,,html-slider-response,438,1848500,0.0-24.0-1.0-0.2,28667,List2A,white,woman,,,,,,,,survey_race,71,,,I feel a bond with people the same age as me.,filler
5042.8,,,html-slider-response,439,1853548,0.0-24.0-1.0-0.3,28667,List2A,white,woman,,,,,,,,survey_race,62,,,I am similar to the average person of my race.,similar
3637.8,,,html-slider-response,440,1857188,0.0-24.0-1.0-0.4,28667,List2A,white,woman,,,,,,,,survey_race,0,,,The fact that I am my race is an important part of my identity.,identity
4045,,,html-slider-response,441,1861236,0.0-24.0-1.0-0.5,28667,List2A,white,woman,,,,,,,,survey_race,64,,,I enjoy being in large groups.,filler
2928.8,,,html-slider-response,442,1864168,0.0-24.0-1.0-0.6,28667,List2A,white,woman,,,,,,,,survey_race,66,,,I am glad to be my age.,filler
2487.6,,,html-slider-response,443,1866659,0.0-24.0-1.0-0.7,28667,List2A,white,woman,,,,,,,,survey_race,70,,,Being my age gives me a good feeling.,filler
4330.4,,,html-slider-response,444,1870994,0.0-24.0-1.0-0.8,28667,List2A,white,woman,,,,,,,,survey_race,59,,,I have a lot in common with the average person of my race.,average
3814.8,,,html-slider-response,445,1874812,0.0-24.0-1.0-0.9,28667,List2A,white,woman,,,,,,,,survey_race,42,,,I am glad to be my race.,glad
2816.3,,,html-slider-response,446,1877635,0.0-24.0-1.0-0.10,28667,List2A,white,woman,,,,,,,,survey_race,64,,,I am glad to be the age I am.,filler
5330.6,,,html-slider-response,447,1882970,0.0-24.0-1.0-0.11,28667,List2A,white,woman,,,,,,,,survey_race,79,,,"The older I get, the wiser I feel.",filler
3078,,,html-slider-response,448,1886050,0.0-24.0-1.0-0.12,28667,List2A,white,woman,,,,,,,,survey_race,36,,,I feel solidarity with my race.,solidarity
3831.4,,,html-slider-response,449,1889885,0.0-24.0-1.0-0.13,28667,List2A,white,woman,,,,,,,,survey_race,60,,,I often think about the fact that I am my race.,often
3128,,,html-slider-response,450,1893018,0.0-24.0-1.0-0.14,28667,List2A,white,woman,,,,,,,,survey_race,70,,,People my age have a lot in common with each other.,filler
5216.5,,,html-slider-response,451,1898238,0.0-24.0-1.0-0.15,28667,List2A,white,woman,,,,,,,,survey_race,40,,,People of my race are very similar to each other.,verysimilar
6412.4,,,html-slider-response,452,1904654,0.0-24.0-1.0-0.16,28667,List2A,white,woman,,,,,,,,survey_race,65,,,I have a lot in common with people of a similar age to me.,filler
4895.5,,,html-slider-response,453,1909561,0.0-24.0-1.0-0.17,28667,List2A,white,woman,,,,,,,,survey_race,26,,,I feel a bond with my race.,bond
3186.9,,,html-slider-response,454,1912752,0.0-24.0-1.0-0.18,28667,List2A,white,woman,,,,,,,,survey_race,0,,,I feel committed to my race.,committed
6858.3,,,html-slider-response,455,1919617,0.0-24.0-1.0-0.19,28667,List2A,white,woman,,,,,,,,survey_race,54,,,People of my race have a lot in common with each other.,common
4157.8,,,html-slider-response,456,1923781,0.0-24.0-1.0-0.20,28667,List2A,white,woman,,,,,,,,survey_race,18,,,Being my race gives me a good feeling.,feeling
4278.6,,,html-slider-response,457,1928062,0.0-24.0-1.0-0.21,28667,List2A,white,woman,,,,,,,,survey_race,69,,,I often think about the fact that I am my age.,filler
4480.1,,,html-slider-response,458,1932545,0.0-24.0-1.0-0.22,28667,List2A,white,woman,,,,,,,,survey_race,55,,,I feel solidarity with people the same age as me.,filler
3145.4,,,html-slider-response,459,1935694,0.0-24.0-1.0-0.23,28667,List2A,white,woman,,,,,,,,survey_race,38,,,My age is not an important part of who I am.,filler
3360.5,,,html-slider-response,460,1939056,0.0-24.0-1.0-0.24,28667,List2A,white,woman,,,,,,,,survey_race,39,,,I consider myself an extrovert.,filler
5594,,,html-slider-response,461,1944654,0.0-24.0-1.0-0.25,28667,List2A,white,woman,,,,,,,,survey_race,23,,,Being my race is an important part of how I see myself.,important
6623.3,,,html-slider-response,462,1951283,0.0-24.0-1.0-0.26,28667,List2A,white,woman,,,,,,,,survey_race,60,,,Getting older does not worry me.,filler
3176.3,,,html-slider-response,463,1954465,0.0-24.0-1.0-0.27,28667,List2A,white,woman,,,,,,,,survey_race,85,,,I consider myself an introvert.,filler
8211.9,,,survey-text,464,1962689,0.0-25.0,28667,List2A,white,woman,,,,,"{""Q0"":""ccc""}",,,worker_id,,,,,
29401.6,,,external-html,465,1992370,0.0-26.0,28667,List2A,white,woman,debrief.html,,,,,,,,,,,,
