"rt","stimulus","button_pressed","trial_type","trial_index","time_elapsed","internal_node_id","subject","list","ppt_race","ppt_gender","url","first_guess","correct","key_press","responses","image_type","phrase_type","test_part","response","stimulus1","stimulus2","question_type","survey_item"
"4301.200000000186","Welcome to the experiment. Press Continue to begin.","0","html-button-response","0","4305","0.0-0.0","29102","List1A","black","woman","","","","","","","","","","","","",""
"47500.799999999814","","","external-html","1","53093","0.0-1.0","29102","List1A","black","woman","consent.html","","","","","","","","","","","",""
"17745.200000000186","<p>On the next page, you will see portraits of 8 people and their names.</p><p>Your first task is to take a few minutes to memorise the names of these people.</p><p>You will have to recall their names during the rest of the experiment, so it is</p><p>essential that you try to memorise these people and their names as best as you can.</p><br><p><strong>You will then be tested on your memory of these names and portraits.</strong></p><br><p>The experiment will start after you have completed this memory test.</p><br><p>Ready?</p>","0","html-button-response","2","70844","0.0-2.0","29102","List1A","black","woman","","","","","","","","","","","","",""
"24689.799999999814","<img src='img/portrait_matrix_list1.jpg' style='width:900px;height:500px;''></img><p>If you have memorised all the portraits and names and are ready to start, press Continue.</p><p><strong>Please note: Your memory of these faces will be tested 4 times during this experiment.</strong></p>","0","html-button-response","3","96551","0.0-3.0-0.0","29102","List1A","black","woman","","","","","","","","","","","","",""
"3013","<img src=""portrait/WW2.jpg""style=""height:400px;""></img>","3","html-button-response","4","100578","0.0-3.0-1.0","29102","List1A","black","woman","","true","3","","","","","","","","","",""
"null","CORRECT","","html-keyboard-response","5","102099","0.0-3.0-2.0-0.0","29102","List1A","black","woman","","","","null","","","","","","","","",""
"2516.9000000003725","<img src=""portrait/BW1.jpg""style=""height:400px;""></img>","0","html-button-response","6","104618","0.0-3.0-4.0","29102","List1A","black","woman","","true","0","","","","","","","","","",""
"null","CORRECT","","html-keyboard-response","7","106134","0.0-3.0-5.0-0.0","29102","List1A","black","woman","","","","null","","","","","","","","",""
"2687","<img src=""portrait/WM1.jpg""style=""height:400px;""></img>","6","html-button-response","8","108822","0.0-3.0-7.0","29102","List1A","black","woman","","true","6","","","","","","","","","",""
"null","CORRECT","","html-keyboard-response","9","110346","0.0-3.0-8.0-0.0","29102","List1A","black","woman","","","","null","","","","","","","","",""
"3112.0999999996275","<img src=""portrait/BW2.jpg""style=""height:400px;""></img>","2","html-button-response","10","113460","0.0-3.0-10.0","29102","List1A","black","woman","","true","2","","","","","","","","","",""
"null","CORRECT","","html-keyboard-response","11","114974","0.0-3.0-11.0-0.0","29102","List1A","black","woman","","","","null","","","","","","","","",""
"3218.5","<img src=""portrait/WM2.jpg""style=""height:400px;""></img>","4","html-button-response","12","118194","0.0-3.0-13.0","29102","List1A","black","woman","","true","7","","","","","","","","","",""
"3472.399999999441","<img src=""portrait/WM2.jpg""style=""height:400px;""></img>","7","html-button-response","13","122680","0.0-3.0-15.0-0.0","29102","List1A","black","woman","","false","7","","","","","","","","","",""
"null","CORRECT","","html-keyboard-response","14","124210","0.0-3.0-15.0-1.0-0.0","29102","List1A","black","woman","","","","null","","","","","","","","",""
"13047.799999999814","<img src=""portrait/BM1.jpg""style=""height:400px;""></img>","4","html-button-response","15","137260","0.0-3.0-16.0","29102","List1A","black","woman","","true","4","","","","","","","","","",""
"null","CORRECT","","html-keyboard-response","16","138789","0.0-3.0-17.0-0.0","29102","List1A","black","woman","","","","null","","","","","","","","",""
"3423.7999999998137","<img src=""portrait/BM2.jpg""style=""height:400px;""></img>","5","html-button-response","17","142215","0.0-3.0-19.0","29102","List1A","black","woman","","true","5","","","","","","","","","",""
"null","CORRECT","","html-keyboard-response","18","143727","0.0-3.0-20.0-0.0","29102","List1A","black","woman","","","","null","","","","","","","","",""
"2147.5","<img src=""portrait/WW1.jpg""style=""height:400px;""></img>","1","html-button-response","19","145877","0.0-3.0-22.0","29102","List1A","black","woman","","true","1","","","","","","","","","",""
"null","CORRECT","","html-keyboard-response","20","147404","0.0-3.0-23.0-0.0","29102","List1A","black","woman","","","","null","","","","","","","","",""
"1977.7000000001863","<p>You got 7 out of 8 right first time. Press Continue.</p>","0","html-button-response","21","149384","0.0-3.0-25.0","29102","List1A","black","woman","","","","","","","","","","","","",""
"2593.4000000003725","As you did not score 100%, the memory game will repeat. Press Continue.","0","html-button-response","22","152992","0.0-3.0-26.0-0.0","29102","List1A","black","woman","","","","","","","","","","","","",""
"3636.5","<img src='img/portrait_matrix_list1.jpg' style='width:900px;height:500px;''></img><p>If you have memorised all the portraits and names and are ready to start, press Continue.</p><p><strong>Please note: Your memory of these faces will be tested 4 times during this experiment.</strong></p>","0","html-button-response","23","157638","0.0-3.1-0.1","29102","List1A","black","woman","","","","","","","","","","","","",""
"2192.7999999998137","<img src=""portrait/WW2.jpg""style=""height:400px;""></img>","3","html-button-response","24","160835","0.0-3.1-1.1","29102","List1A","black","woman","","true","3","","","","","","","","","",""
"null","CORRECT","","html-keyboard-response","25","162349","0.0-3.1-2.1-0.1","29102","List1A","black","woman","","","","null","","","","","","","","",""
"2278.5","<img src=""portrait/BW1.jpg""style=""height:400px;""></img>","0","html-button-response","26","164628","0.0-3.1-4.1","29102","List1A","black","woman","","true","0","","","","","","","","","",""
"null","CORRECT","","html-keyboard-response","27","166151","0.0-3.1-5.1-0.1","29102","List1A","black","woman","","","","null","","","","","","","","",""
"1563.7000000001863","<img src=""portrait/WM1.jpg""style=""height:400px;""></img>","6","html-button-response","28","167717","0.0-3.1-7.1","29102","List1A","black","woman","","true","6","","","","","","","","","",""
"null","CORRECT","","html-keyboard-response","29","169226","0.0-3.1-8.1-0.1","29102","List1A","black","woman","","","","null","","","","","","","","",""
"1964.5999999996275","<img src=""portrait/BW2.jpg""style=""height:400px;""></img>","2","html-button-response","30","171193","0.0-3.1-10.1","29102","List1A","black","woman","","true","2","","","","","","","","","",""
"null","CORRECT","","html-keyboard-response","31","172704","0.0-3.1-11.1-0.1","29102","List1A","black","woman","","","","null","","","","","","","","",""
"4114.899999999441","<img src=""portrait/WM2.jpg""style=""height:400px;""></img>","7","html-button-response","32","176821","0.0-3.1-13.1","29102","List1A","black","woman","","true","7","","","","","","","","","",""
"null","CORRECT","","html-keyboard-response","33","178335","0.0-3.1-14.1-0.1","29102","List1A","black","woman","","","","null","","","","","","","","",""
"2372.5","<img src=""portrait/BM1.jpg""style=""height:400px;""></img>","4","html-button-response","34","180709","0.0-3.1-16.1","29102","List1A","black","woman","","true","4","","","","","","","","","",""
"null","CORRECT","","html-keyboard-response","35","182227","0.0-3.1-17.1-0.1","29102","List1A","black","woman","","","","null","","","","","","","","",""
"1768.9000000003725","<img src=""portrait/BM2.jpg""style=""height:400px;""></img>","5","html-button-response","36","183998","0.0-3.1-19.1","29102","List1A","black","woman","","true","5","","","","","","","","","",""
"null","CORRECT","","html-keyboard-response","37","185509","0.0-3.1-20.1-0.1","29102","List1A","black","woman","","","","null","","","","","","","","",""
"2170.5","<img src=""portrait/WW1.jpg""style=""height:400px;""></img>","1","html-button-response","38","187681","0.0-3.1-22.1","29102","List1A","black","woman","","true","1","","","","","","","","","",""
"null","CORRECT","","html-keyboard-response","39","189193","0.0-3.1-23.1-0.1","29102","List1A","black","woman","","","","null","","","","","","","","",""
"2181","<p>You got 8 out of 8 right first time. Press Continue.</p>","0","html-button-response","40","191375","0.0-3.1-25.1","29102","List1A","black","woman","","","","","","","","","","","","",""
"835746.8999999994","<p>In this experiment, you will view photographs of the people from the memory game interacting.</p><p>By using the <strong>exact</strong> phrase given <i>after</i> the photograph appears and recalling the correct names of the people in the photographs, form a sentence describing the interaction. You do not need to capitalise names.</p><p>Type your answer in the space provided. Please complete every sentence before moving onto the next trial.</p><p>You will only have a few seconds to memorise each given photograph and phrase before you can respond, so try your best to focus.</p><p>An example is given below. Press 'Continue' when you are ready.</p><img src='img/speaking_example.jpg' style='width:800px;height:460px;''></img>","0","html-button-response","41","1028131","0.0-4.0","29102","List1A","black","woman","","","","","","","","","","","","",""
"2867.5999999996275","<p>Before the experiment starts, you will watch two example trials. Press 'Continue'.</p>","0","html-button-response","42","1032015","0.0-5.0","29102","List1A","black","woman","","","","","","","","","","","","",""
"null","<img src='img/play_eg.gif' style='height:400px;''></img>","","html-keyboard-response","43","1035026","0.0-6.0","29102","List1A","black","woman","","","","null","","","","","","","","",""
"null","<p>is playing with</p>","","html-keyboard-response","44","1037035","0.0-7.0","29102","List1A","black","woman","","","","null","","","","","","","","",""
"3368.7000000001863","<p><b>Answer:</b> kate is playing with beth</p>","0","html-button-response","45","1040404","0.0-8.0","29102","List1A","black","woman","","","","","","","","","","","","",""
"null","<img src='img/dance_eg.gif' style='height:400px;''></img>","","html-keyboard-response","46","1043415","0.0-9.0","29102","List1A","black","woman","","","","null","","","","","","","","",""
"null","<p>is being entertained by</p>","","html-keyboard-response","47","1045419","0.0-10.0","29102","List1A","black","woman","","","","null","","","","","","","","",""
"1591.7000000001863","<p><b>Answer:</b> luke is being entertained by dave</p>","0","html-button-response","48","1047011","0.0-11.0","29102","List1A","black","woman","","","","","","","","","","","","",""
"10498.299999999814","<p>Ready to start the experiment?</p><br><p><strong>Remember to describe the picture using a full sentence,</strong></p><p><strong>that combines the names of the people with the <i>exact</i> phrase given.</strong></p><p><strong>To receive full payment you must do this correctly.</strong></p><p><strong> You do not need to capitalise names or use punctuation.</strong></p><br><p>Press 'Continue' to begin.</p>","0","html-button-response","49","1058520","0.0-12.0","29102","List1A","black","woman","","","","","","","","","","","","",""
"null","<div style=""font-size:60px;"">+</div>","","html-keyboard-response","50","1060044","0.0-13.0-0.0","29102","List1A","black","woman","","","","null","","","","","","","","",""
"null","<img src=""stim_listA/touch8.gif""style=""height:400px;""></stim_listA>","","html-keyboard-response","51","1062054","0.0-13.0-1.0","29102","List1A","black","woman","","","","null","","","","","","","","",""
"null","is being touched by","","html-keyboard-response","52","1064062","0.0-13.0-2.0","29102","List1A","black","woman","","","","null","","","","","","","","",""
"11190.399999999441","","","survey-text","53","1075255","0.0-13.0-3.0","29102","List1A","black","woman","","","","","{""Q0"":""kate is being touched by june""}","<img src=""stim_listA/touch8.gif""style=""height:400px;""></stim_listA>","is being touched by","","","","","",""
"null","<div style=""font-size:60px;"">+</div>","","html-keyboard-response","54","1075757","0.0-13.0-0.1","29102","List1A","black","woman","","","","null","","","","","","","","",""
"null","<img src=""stim_listA/copy3.gif""style=""height:400px;""></stim_listA>","","html-keyboard-response","55","1077758","0.0-13.0-1.1","29102","List1A","black","woman","","","","null","","","","","","","","",""
"null","is copying","","html-keyboard-response","56","1079762","0.0-13.0-2.1","29102","List1A","black","woman","","","","null","","","","","","","","",""
"9957.099999999627","","","survey-text","57","1089719","0.0-13.0-3.1","29102","List1A","black","woman","","","","","{""Q0"":""june is copying dave""}","<img src=""stim_listA/copy3.gif""style=""height:400px;""></stim_listA>","is copying","","","","","",""
"null","<div style=""font-size:60px;"">+</div>","","html-keyboard-response","58","1090221","0.0-13.0-0.2","29102","List1A","black","woman","","","","null","","","","","","","","",""
"null","<img src=""stim_listA/seduce5.gif""style=""height:400px;""></stim_listA>","","html-keyboard-response","59","1092233","0.0-13.0-1.2","29102","List1A","black","woman","","","","null","","","","","","","","",""
"null","is seducing","","html-keyboard-response","60","1094245","0.0-13.0-2.2","29102","List1A","black","woman","","","","null","","","","","","","","",""
"4087.2000000001863","","","survey-text","61","1098334","0.0-13.0-3.2","29102","List1A","black","woman","","","","","{""Q0"":""mike is seducing greg""}","<img src=""stim_listA/seduce5.gif""style=""height:400px;""></stim_listA>","is seducing","","","","","",""
"null","<div style=""font-size:60px;"">+</div>","","html-keyboard-response","62","1098839","0.0-13.0-0.3","29102","List1A","black","woman","","","","null","","","","","","","","",""
"null","<img src=""stim_listA/seduce6.gif""style=""height:400px;""></stim_listA>","","html-keyboard-response","63","1100844","0.0-13.0-1.3","29102","List1A","black","woman","","","","null","","","","","","","","",""
"null","is being seduced by","","html-keyboard-response","64","1102849","0.0-13.0-2.3","29102","List1A","black","woman","","","","null","","","","","","","","",""
"7078","","","survey-text","65","1109929","0.0-13.0-3.3","29102","List1A","black","woman","","","","","{""Q0"":""dave is being seduced by greg""}","<img src=""stim_listA/seduce6.gif""style=""height:400px;""></stim_listA>","is being seduced by","","","","","",""
"null","<div style=""font-size:60px;"">+</div>","","html-keyboard-response","66","1110439","0.0-13.0-0.4","29102","List1A","black","woman","","","","null","","","","","","","","",""
"null","<img src=""stim_listA/shout5.gif""style=""height:400px;""></stim_listA>","","html-keyboard-response","67","1112453","0.0-13.0-1.4","29102","List1A","black","woman","","","","null","","","","","","","","",""
"null","is shouting at","","html-keyboard-response","68","1114460","0.0-13.0-2.4","29102","List1A","black","woman","","","","null","","","","","","","","",""
"14450.700000000186","","","survey-text","69","1128912","0.0-13.0-3.4","29102","List1A","black","woman","","","","","{""Q0"":""luke is shouting at fred""}","<img src=""stim_listA/shout5.gif""style=""height:400px;""></stim_listA>","is shouting at","","","","","",""
"null","<div style=""font-size:60px;"">+</div>","","html-keyboard-response","70","1129425","0.0-13.0-0.5","29102","List1A","black","woman","","","","null","","","","","","","","",""
"null","<img src=""stim_listA/hug4.gif""style=""height:400px;""></stim_listA>","","html-keyboard-response","71","1131433","0.0-13.0-1.5","29102","List1A","black","woman","","","","null","","","","","","","","",""
"null","is being hugged by","","html-keyboard-response","72","1133439","0.0-13.0-2.5","29102","List1A","black","woman","","","","null","","","","","","","","",""
"11981.300000000745","","","survey-text","73","1145421","0.0-13.0-3.5","29102","List1A","black","woman","","","","","{""Q0"":""jane is holding dave""}","<img src=""stim_listA/hug4.gif""style=""height:400px;""></stim_listA>","is being hugged by","","","","","",""
"null","<div style=""font-size:60px;"">+</div>","","html-keyboard-response","74","1145937","0.0-13.0-0.6","29102","List1A","black","woman","","","","null","","","","","","","","",""
"null","<img src=""stim_listA/greet3.gif""style=""height:400px;""></stim_listA>","","html-keyboard-response","75","1147952","0.0-13.0-1.6","29102","List1A","black","woman","","","","null","","","","","","","","",""
"null","is greeting","","html-keyboard-response","76","1149959","0.0-13.0-2.6","29102","List1A","black","woman","","","","null","","","","","","","","",""
"5674","","","survey-text","77","1155635","0.0-13.0-3.6","29102","List1A","black","woman","","","","","{""Q0"":""ruth is greeting dave""}","<img src=""stim_listA/greet3.gif""style=""height:400px;""></stim_listA>","is greeting","","","","","",""
"null","<div style=""font-size:60px;"">+</div>","","html-keyboard-response","78","1156146","0.0-13.0-0.7","29102","List1A","black","woman","","","","null","","","","","","","","",""
"null","<img src=""stim_listA/greet7.gif""style=""height:400px;""></stim_listA>","","html-keyboard-response","79","1158154","0.0-13.0-1.7","29102","List1A","black","woman","","","","null","","","","","","","","",""
"null","is greeting","","html-keyboard-response","80","1160160","0.0-13.0-2.7","29102","List1A","black","woman","","","","null","","","","","","","","",""
"7566.700000000186","","","survey-text","81","1167729","0.0-13.0-3.7","29102","List1A","black","woman","","","","","{""Q0"":""ruth is greeting kate""}","<img src=""stim_listA/greet7.gif""style=""height:400px;""></stim_listA>","is greeting","","","","","",""
"null","<div style=""font-size:60px;"">+</div>","","html-keyboard-response","82","1168241","0.0-13.0-0.8","29102","List1A","black","woman","","","","null","","","","","","","","",""
"null","<img src=""stim_listA/kiss4.gif""style=""height:400px;""></stim_listA>","","html-keyboard-response","83","1170251","0.0-13.0-1.8","29102","List1A","black","woman","","","","null","","","","","","","","",""
"null","is being kissed by","","html-keyboard-response","84","1172266","0.0-13.0-2.8","29102","List1A","black","woman","","","","null","","","","","","","","",""
"10910.5","","","survey-text","85","1183178","0.0-13.0-3.8","29102","List1A","black","woman","","","","","{""Q0"":""dave is being kissed by jane""}","<img src=""stim_listA/kiss4.gif""style=""height:400px;""></stim_listA>","is being kissed by","","","","","",""
"null","<div style=""font-size:60px;"">+</div>","","html-keyboard-response","86","1183679","0.0-13.0-0.9","29102","List1A","black","woman","","","","null","","","","","","","","",""
"null","<img src=""stim_listA/hug7.gif""style=""height:400px;""></stim_listA>","","html-keyboard-response","87","1185688","0.0-13.0-1.9","29102","List1A","black","woman","","","","null","","","","","","","","",""
"null","is hugging","","html-keyboard-response","88","1187697","0.0-13.0-2.9","29102","List1A","black","woman","","","","null","","","","","","","","",""
"17437.5","","","survey-text","89","1205136","0.0-13.0-3.9","29102","List1A","black","woman","","","","","{""Q0"":""ruth is being hugged by kate""}","<img src=""stim_listA/hug7.gif""style=""height:400px;""></stim_listA>","is hugging","","","","","",""
"null","<div style=""font-size:60px;"">+</div>","","html-keyboard-response","90","1205646","0.0-13.0-0.10","29102","List1A","black","woman","","","","null","","","","","","","","",""
"null","<img src=""stim_listA/oppose5.gif""style=""height:400px;""></stim_listA>","","html-keyboard-response","91","1207658","0.0-13.0-1.10","29102","List1A","black","woman","","","","null","","","","","","","","",""
"null","is opposing","","html-keyboard-response","92","1209671","0.0-13.0-2.10","29102","List1A","black","woman","","","","null","","","","","","","","",""
"7854","","","survey-text","93","1217526","0.0-13.0-3.10","29102","List1A","black","woman","","","","","{""Q0"":""mike is fighting dave""}","<img src=""stim_listA/oppose5.gif""style=""height:400px;""></stim_listA>","is opposing","","","","","",""
"null","<div style=""font-size:60px;"">+</div>","","html-keyboard-response","94","1218039","0.0-13.0-0.11","29102","List1A","black","woman","","","","null","","","","","","","","",""
"null","<img src=""stim_listA/shout1.gif""style=""height:400px;""></stim_listA>","","html-keyboard-response","95","1220052","0.0-13.0-1.11","29102","List1A","black","woman","","","","null","","","","","","","","",""
"null","is shouting at","","html-keyboard-response","96","1222064","0.0-13.0-2.11","29102","List1A","black","woman","","","","null","","","","","","","","",""
"17390.700000000186","","","survey-text","97","1239457","0.0-13.0-3.11","29102","List1A","black","woman","","","","","{""Q0"":""beth is shouting at luke""}","<img src=""stim_listA/shout1.gif""style=""height:400px;""></stim_listA>","is shouting at","","","","","",""
"null","<div style=""font-size:60px;"">+</div>","","html-keyboard-response","98","1239962","0.0-13.0-0.12","29102","List1A","black","woman","","","","null","","","","","","","","",""
"null","<img src=""stim_listA/challenge3.gif""style=""height:400px;""></stim_listA>","","html-keyboard-response","99","1241973","0.0-13.0-1.12","29102","List1A","black","woman","","","","null","","","","","","","","",""
"null","is challenging","","html-keyboard-response","100","1243984","0.0-13.0-2.12","29102","List1A","black","woman","","","","null","","","","","","","","",""
"7322.399999999441","","","survey-text","101","1251308","0.0-13.0-3.12","29102","List1A","black","woman","","","","","{""Q0"":""ruth is challenging dave""}","<img src=""stim_listA/challenge3.gif""style=""height:400px;""></stim_listA>","is challenging","","","","","",""
"null","<div style=""font-size:60px;"">+</div>","","html-keyboard-response","102","1251820","0.0-13.0-0.13","29102","List1A","black","woman","","","","null","","","","","","","","",""
"null","<img src=""stim_listA/shout8.gif""style=""height:400px;""></stim_listA>","","html-keyboard-response","103","1253829","0.0-13.0-1.13","29102","List1A","black","woman","","","","null","","","","","","","","",""
"null","is being shouted at by","","html-keyboard-response","104","1255833","0.0-13.0-2.13","29102","List1A","black","woman","","","","null","","","","","","","","",""
"15521.5","","","survey-text","105","1271355","0.0-13.0-3.13","29102","List1A","black","woman","","","","","{""Q0"":""jane is being shouted at by ruuth""}","<img src=""stim_listA/shout8.gif""style=""height:400px;""></stim_listA>","is being shouted at by","","","","","",""
"null","<div style=""font-size:60px;"">+</div>","","html-keyboard-response","106","1271870","0.0-13.0-0.14","29102","List1A","black","woman","","","","null","","","","","","","","",""
"null","<img src=""stim_listA/hug8.gif""style=""height:400px;""></stim_listA>","","html-keyboard-response","107","1273870","0.0-13.0-1.14","29102","List1A","black","woman","","","","null","","","","","","","","",""
"null","is being hugged by","","html-keyboard-response","108","1275886","0.0-13.0-2.14","29102","List1A","black","woman","","","","null","","","","","","","","",""
"8233.399999999441","","","survey-text","109","1284121","0.0-13.0-3.14","29102","List1A","black","woman","","","","","{""Q0"":""kate is being hugged by jane""}","<img src=""stim_listA/hug8.gif""style=""height:400px;""></stim_listA>","is being hugged by","","","","","",""
"null","<div style=""font-size:60px;"">+</div>","","html-keyboard-response","110","1284625","0.0-13.0-0.15","29102","List1A","black","woman","","","","null","","","","","","","","",""
"null","<img src=""stim_listA/challenge7.gif""style=""height:400px;""></stim_listA>","","html-keyboard-response","111","1286627","0.0-13.0-1.15","29102","List1A","black","woman","","","","null","","","","","","","","",""
"null","is challenging","","html-keyboard-response","112","1288641","0.0-13.0-2.15","29102","List1A","black","woman","","","","null","","","","","","","","",""
"6871","","","survey-text","113","1295513","0.0-13.0-3.15","29102","List1A","black","woman","","","","","{""Q0"":""kate is challenging ruth""}","<img src=""stim_listA/challenge7.gif""style=""height:400px;""></stim_listA>","is challenging","","","","","",""
"null","<div style=""font-size:60px;"">+</div>","","html-keyboard-response","114","1296028","0.0-13.0-0.16","29102","List1A","black","woman","","","","null","","","","","","","","",""
"null","<img src=""stim_listA/kiss8.gif""style=""height:400px;""></stim_listA>","","html-keyboard-response","115","1298035","0.0-13.0-1.16","29102","List1A","black","woman","","","","null","","","","","","","","",""
"null","is being kissed by","","html-keyboard-response","116","1300038","0.0-13.0-2.16","29102","List1A","black","woman","","","","null","","","","","","","","",""
"11929.699999999255","","","survey-text","117","1311969","0.0-13.0-3.16","29102","List1A","black","woman","","","","","{""Q0"":""jane is kissing kate""}","<img src=""stim_listA/kiss8.gif""style=""height:400px;""></stim_listA>","is being kissed by","","","","","",""
"null","<div style=""font-size:60px;"">+</div>","","html-keyboard-response","118","1312477","0.0-13.0-0.17","29102","List1A","black","woman","","","","null","","","","","","","","",""
"null","<img src=""stim_listA/look5.gif""style=""height:400px;""></stim_listA>","","html-keyboard-response","119","1314490","0.0-13.0-1.17","29102","List1A","black","woman","","","","null","","","","","","","","",""
"null","is looking at","","html-keyboard-response","120","1316498","0.0-13.0-2.17","29102","List1A","black","woman","","","","null","","","","","","","","",""
"11207.599999999627","","","survey-text","121","1327706","0.0-13.0-3.17","29102","List1A","black","woman","","","","","{""Q0"":""luke is looking at fred""}","<img src=""stim_listA/look5.gif""style=""height:400px;""></stim_listA>","is looking at","","","","","",""
"null","<div style=""font-size:60px;"">+</div>","","html-keyboard-response","122","1328210","0.0-13.0-0.18","29102","List1A","black","woman","","","","null","","","","","","","","",""
"null","<img src=""stim_listA/greet8.gif""style=""height:400px;""></stim_listA>","","html-keyboard-response","123","1330223","0.0-13.0-1.18","29102","List1A","black","woman","","","","null","","","","","","","","",""
"null","is being greeted by","","html-keyboard-response","124","1332232","0.0-13.0-2.18","29102","List1A","black","woman","","","","null","","","","","","","","",""
"11048.099999999627","","","survey-text","125","1343282","0.0-13.0-3.18","29102","List1A","black","woman","","","","","{""Q0"":""beth is looking at jane""}","<img src=""stim_listA/greet8.gif""style=""height:400px;""></stim_listA>","is being greeted by","","","","","",""
"null","<div style=""font-size:60px;"">+</div>","","html-keyboard-response","126","1343795","0.0-13.0-0.19","29102","List1A","black","woman","","","","null","","","","","","","","",""
"null","<img src=""stim_listA/copy6.gif""style=""height:400px;""></stim_listA>","","html-keyboard-response","127","1345807","0.0-13.0-1.19","29102","List1A","black","woman","","","","null","","","","","","","","",""
"null","is being copied by","","html-keyboard-response","128","1347816","0.0-13.0-2.19","29102","List1A","black","woman","","","","null","","","","","","","","",""
"15221.700000000186","","","survey-text","129","1363039","0.0-13.0-3.19","29102","List1A","black","woman","","","","","{""Q0"":""dave is being copied by mike""}","<img src=""stim_listA/copy6.gif""style=""height:400px;""></stim_listA>","is being copied by","","","","","",""
"11141.699999999255","<img src='img/portrait_matrix_list1.jpg' style='width:900px;height:500px;''></img><p>If you have memorised all the portraits and names and are ready to start, press Continue.</p><p><strong>Please note: Your memory of these faces will be tested 4 times during this experiment.</strong></p>","0","html-button-response","130","1374182","0.0-14.0-0.0","29102","List1A","black","woman","","","","","","","","","","","","",""
"3135.600000000559","<img src=""portrait/WW2.jpg""style=""height:400px;""></img>","3","html-button-response","131","1378324","0.0-14.0-1.0","29102","List1A","black","woman","","true","3","","","","","","","","","",""
"null","CORRECT","","html-keyboard-response","132","1379850","0.0-14.0-2.0-0.0","29102","List1A","black","woman","","","","null","","","","","","","","",""
"4993.9000000003725","<img src=""portrait/WM1.jpg""style=""height:400px;""></img>","6","html-button-response","133","1384845","0.0-14.0-4.0","29102","List1A","black","woman","","true","6","","","","","","","","","",""
"null","CORRECT","","html-keyboard-response","134","1386361","0.0-14.0-5.0-0.0","29102","List1A","black","woman","","","","null","","","","","","","","",""
"1605","<img src=""portrait/BM2.jpg""style=""height:400px;""></img>","5","html-button-response","135","1387967","0.0-14.0-7.0","29102","List1A","black","woman","","true","5","","","","","","","","","",""
"null","CORRECT","","html-keyboard-response","136","1389495","0.0-14.0-8.0-0.0","29102","List1A","black","woman","","","","null","","","","","","","","",""
"2763.5999999996275","<img src=""portrait/BW2.jpg""style=""height:400px;""></img>","2","html-button-response","137","1392259","0.0-14.0-10.0","29102","List1A","black","woman","","true","2","","","","","","","","","",""
"null","CORRECT","","html-keyboard-response","138","1393783","0.0-14.0-11.0-0.0","29102","List1A","black","woman","","","","null","","","","","","","","",""
"4718.700000000186","<img src=""portrait/BM1.jpg""style=""height:400px;""></img>","4","html-button-response","139","1398503","0.0-14.0-13.0","29102","List1A","black","woman","","true","4","","","","","","","","","",""
"null","CORRECT","","html-keyboard-response","140","1400033","0.0-14.0-14.0-0.0","29102","List1A","black","woman","","","","null","","","","","","","","",""
"4435.700000000186","<img src=""portrait/WW1.jpg""style=""height:400px;""></img>","1","html-button-response","141","1404469","0.0-14.0-16.0","29102","List1A","black","woman","","true","1","","","","","","","","","",""
"null","CORRECT","","html-keyboard-response","142","1405976","0.0-14.0-17.0-0.0","29102","List1A","black","woman","","","","null","","","","","","","","",""
"3288.399999999441","<img src=""portrait/WM2.jpg""style=""height:400px;""></img>","7","html-button-response","143","1409265","0.0-14.0-19.0","29102","List1A","black","woman","","true","7","","","","","","","","","",""
"null","CORRECT","","html-keyboard-response","144","1410766","0.0-14.0-20.0-0.0","29102","List1A","black","woman","","","","null","","","","","","","","",""
"4143.5","<img src=""portrait/BW1.jpg""style=""height:400px;""></img>","0","html-button-response","145","1414911","0.0-14.0-22.0","29102","List1A","black","woman","","true","0","","","","","","","","","",""
"null","CORRECT","","html-keyboard-response","146","1416442","0.0-14.0-23.0-0.0","29102","List1A","black","woman","","","","null","","","","","","","","",""
"1761.2999999998137","<p>You got 8 out of 8 right first time. Press Continue.</p>","0","html-button-response","147","1418204","0.0-14.0-25.0","29102","List1A","black","woman","","","","","","","","","","","","",""
"null","<div style=""font-size:60px;"">+</div>","","html-keyboard-response","148","1419717","0.0-15.0-0.0","29102","List1A","black","woman","","","","null","","","","","","","","",""
"null","<img src=""stim_listA/touch3.gif""style=""height:400px;""></stim_listA>","","html-keyboard-response","149","1421730","0.0-15.0-1.0","29102","List1A","black","woman","","","","null","","","","","","","","",""
"null","is touching","","html-keyboard-response","150","1423731","0.0-15.0-2.0","29102","List1A","black","woman","","","","null","","","","","","","","",""
"8129.700000000186","","","survey-text","151","1431862","0.0-15.0-3.0","29102","List1A","black","woman","","","","","{""Q0"":""dave is touching ruth""}","<img src=""stim_listA/touch3.gif""style=""height:400px;""></stim_listA>","is touching","","","","","",""
"null","<div style=""font-size:60px;"">+</div>","","html-keyboard-response","152","1432369","0.0-15.0-0.1","29102","List1A","black","woman","","","","null","","","","","","","","",""
"null","<img src=""stim_listA/shout2.gif""style=""height:400px;""></stim_listA>","","html-keyboard-response","153","1434381","0.0-15.0-1.1","29102","List1A","black","woman","","","","null","","","","","","","","",""
"null","is being shouted at by","","html-keyboard-response","154","1436390","0.0-15.0-2.1","29102","List1A","black","woman","","","","null","","","","","","","","",""
"15350.5","","","survey-text","155","1451741","0.0-15.0-3.1","29102","List1A","black","woman","","","","","{""Q0"":""kate is being shouted at by mike""}","<img src=""stim_listA/shout2.gif""style=""height:400px;""></stim_listA>","is being shouted at by","","","","","",""
"null","<div style=""font-size:60px;"">+</div>","","html-keyboard-response","156","1452248","0.0-15.0-0.2","29102","List1A","black","woman","","","","null","","","","","","","","",""
"null","<img src=""stim_listA/look2.gif""style=""height:400px;""></stim_listA>","","html-keyboard-response","157","1454260","0.0-15.0-1.2","29102","List1A","black","woman","","","","null","","","","","","","","",""
"null","is being looked at by","","html-keyboard-response","158","1456263","0.0-15.0-2.2","29102","List1A","black","woman","","","","null","","","","","","","","",""
"9837.099999999627","","","survey-text","159","1466101","0.0-15.0-3.2","29102","List1A","black","woman","","","","","{""Q0"":""kate is being looked at by mike""}","<img src=""stim_listA/look2.gif""style=""height:400px;""></stim_listA>","is being looked at by","","","","","",""
"null","<div style=""font-size:60px;"">+</div>","","html-keyboard-response","160","1466606","0.0-15.0-0.3","29102","List1A","black","woman","","","","null","","","","","","","","",""
"null","<img src=""stim_listA/copy5.gif""style=""height:400px;""></stim_listA>","","html-keyboard-response","161","1468620","0.0-15.0-1.3","29102","List1A","black","woman","","","","null","","","","","","","","",""
"null","is copying","","html-keyboard-response","162","1470625","0.0-15.0-2.3","29102","List1A","black","woman","","","","null","","","","","","","","",""
"8016.799999999814","","","survey-text","163","1478644","0.0-15.0-3.3","29102","List1A","black","woman","","","","","{""Q0"":""mike is copying luke""}","<img src=""stim_listA/copy5.gif""style=""height:400px;""></stim_listA>","is copying","","","","","",""
"null","<div style=""font-size:60px;"">+</div>","","html-keyboard-response","164","1479152","0.0-15.0-0.4","29102","List1A","black","woman","","","","null","","","","","","","","",""
"null","<img src=""stim_listA/hug3.gif""style=""height:400px;""></stim_listA>","","html-keyboard-response","165","1481158","0.0-15.0-1.4","29102","List1A","black","woman","","","","null","","","","","","","","",""
"null","is hugging","","html-keyboard-response","166","1483170","0.0-15.0-2.4","29102","List1A","black","woman","","","","null","","","","","","","","",""
"5672.4000000003725","","","survey-text","167","1488845","0.0-15.0-3.4","29102","List1A","black","woman","","","","","{""Q0"":""luke is hugging ruth""}","<img src=""stim_listA/hug3.gif""style=""height:400px;""></stim_listA>","is hugging","","","","","",""
"null","<div style=""font-size:60px;"">+</div>","","html-keyboard-response","168","1489354","0.0-15.0-0.5","29102","List1A","black","woman","","","","null","","","","","","","","",""
"null","<img src=""stim_listA/challenge4.gif""style=""height:400px;""></stim_listA>","","html-keyboard-response","169","1491361","0.0-15.0-1.5","29102","List1A","black","woman","","","","null","","","","","","","","",""
"null","is being challenged by","","html-keyboard-response","170","1493362","0.0-15.0-2.5","29102","List1A","black","woman","","","","null","","","","","","","","",""
"18436.700000000186","","","survey-text","171","1511799","0.0-15.0-3.5","29102","List1A","black","woman","","","","","{""Q0"":""luke is being challenged by jane""}","<img src=""stim_listA/challenge4.gif""style=""height:400px;""></stim_listA>","is being challenged by","","","","","",""
"null","<div style=""font-size:60px;"">+</div>","","html-keyboard-response","172","1512300","0.0-15.0-0.6","29102","List1A","black","woman","","","","null","","","","","","","","",""
"null","<img src=""stim_listA/seduce3.gif""style=""height:400px;""></stim_listA>","","html-keyboard-response","173","1514316","0.0-15.0-1.6","29102","List1A","black","woman","","","","null","","","","","","","","",""
"null","is seducing","","html-keyboard-response","174","1516318","0.0-15.0-2.6","29102","List1A","black","woman","","","","null","","","","","","","","",""
"11973","","","survey-text","175","1528293","0.0-15.0-3.6","29102","List1A","black","woman","","","","","{""Q0"":""luke is seducing jane""}","<img src=""stim_listA/seduce3.gif""style=""height:400px;""></stim_listA>","is seducing","","","","","",""
"null","<div style=""font-size:60px;"">+</div>","","html-keyboard-response","176","1528809","0.0-15.0-0.7","29102","List1A","black","woman","","","","null","","","","","","","","",""
"null","<img src=""stim_listA/touch7.gif""style=""height:400px;""></stim_listA>","","html-keyboard-response","177","1530815","0.0-15.0-1.7","29102","List1A","black","woman","","","","null","","","","","","","","",""
"null","is touching","","html-keyboard-response","178","1532825","0.0-15.0-2.7","29102","List1A","black","woman","","","","null","","","","","","","","",""
"7129.100000000559","","","survey-text","179","1539956","0.0-15.0-3.7","29102","List1A","black","woman","","","","","{""Q0"":""jane is touching kate""}","<img src=""stim_listA/touch7.gif""style=""height:400px;""></stim_listA>","is touching","","","","","",""
"null","<div style=""font-size:60px;"">+</div>","","html-keyboard-response","180","1540461","0.0-15.0-0.8","29102","List1A","black","woman","","","","null","","","","","","","","",""
"null","<img src=""stim_listA/oppose6.gif""style=""height:400px;""></stim_listA>","","html-keyboard-response","181","1542466","0.0-15.0-1.8","29102","List1A","black","woman","","","","null","","","","","","","","",""
"null","is being opposed by","","html-keyboard-response","182","1544473","0.0-15.0-2.8","29102","List1A","black","woman","","","","null","","","","","","","","",""
"10160.400000000373","","","survey-text","183","1554635","0.0-15.0-3.8","29102","List1A","black","woman","","","","","{""Q0"":""fred is being opposed by luke""}","<img src=""stim_listA/oppose6.gif""style=""height:400px;""></stim_listA>","is being opposed by","","","","","",""
"null","<div style=""font-size:60px;"">+</div>","","html-keyboard-response","184","1555141","0.0-15.0-0.9","29102","List1A","black","woman","","","","null","","","","","","","","",""
"null","<img src=""stim_listA/kiss3.gif""style=""height:400px;""></stim_listA>","","html-keyboard-response","185","1557144","0.0-15.0-1.9","29102","List1A","black","woman","","","","null","","","","","","","","",""
"null","is kissing","","html-keyboard-response","186","1559152","0.0-15.0-2.9","29102","List1A","black","woman","","","","null","","","","","","","","",""
"5343.200000000186","","","survey-text","187","1564496","0.0-15.0-3.9","29102","List1A","black","woman","","","","","{""Q0"":""ruth is kissing luke""}","<img src=""stim_listA/kiss3.gif""style=""height:400px;""></stim_listA>","is kissing","","","","","",""
"null","<div style=""font-size:60px;"">+</div>","","html-keyboard-response","188","1565008","0.0-15.0-0.10","29102","List1A","black","woman","","","","null","","","","","","","","",""
"null","<img src=""stim_listA/copy8.gif""style=""height:400px;""></stim_listA>","","html-keyboard-response","189","1567008","0.0-15.0-1.10","29102","List1A","black","woman","","","","null","","","","","","","","",""
"null","is being copied by","","html-keyboard-response","190","1569013","0.0-15.0-2.10","29102","List1A","black","woman","","","","null","","","","","","","","",""
"10083.799999999814","","","survey-text","191","1579098","0.0-15.0-3.10","29102","List1A","black","woman","","","","","{""Q0"":""jane is being copied by kate""}","<img src=""stim_listA/copy8.gif""style=""height:400px;""></stim_listA>","is being copied by","","","","","",""
"null","<div style=""font-size:60px;"">+</div>","","html-keyboard-response","192","1579612","0.0-15.0-0.11","29102","List1A","black","woman","","","","null","","","","","","","","",""
"null","<img src=""stim_listA/look7.gif""style=""height:400px;""></stim_listA>","","html-keyboard-response","193","1581615","0.0-15.0-1.11","29102","List1A","black","woman","","","","null","","","","","","","","",""
"null","is looking at","","html-keyboard-response","194","1583619","0.0-15.0-2.11","29102","List1A","black","woman","","","","null","","","","","","","","",""
"13795.099999999627","","","survey-text","195","1597416","0.0-15.0-3.11","29102","List1A","black","woman","","","","","{""Q0"":""beth is looking at jane""}","<img src=""stim_listA/look7.gif""style=""height:400px;""></stim_listA>","is looking at","","","","","",""
"null","<div style=""font-size:60px;"">+</div>","","html-keyboard-response","196","1597918","0.0-15.0-0.12","29102","List1A","black","woman","","","","null","","","","","","","","",""
"null","<img src=""stim_listA/copy7.gif""style=""height:400px;""></stim_listA>","","html-keyboard-response","197","1599928","0.0-15.0-1.12","29102","List1A","black","woman","","","","null","","","","","","","","",""
"null","is copying","","html-keyboard-response","198","1601936","0.0-15.0-2.12","29102","List1A","black","woman","","","","null","","","","","","","","",""
"7106","","","survey-text","199","1609044","0.0-15.0-3.12","29102","List1A","black","woman","","","","","{""Q0"":""ruth is copying kate""}","<img src=""stim_listA/copy7.gif""style=""height:400px;""></stim_listA>","is copying","","","","","",""
"null","<div style=""font-size:60px;"">+</div>","","html-keyboard-response","200","1609553","0.0-15.0-0.13","29102","List1A","black","woman","","","","null","","","","","","","","",""
"null","<img src=""stim_listA/hug6.gif""style=""height:400px;""></stim_listA>","","html-keyboard-response","201","1611554","0.0-15.0-1.13","29102","List1A","black","woman","","","","null","","","","","","","","",""
"null","is being hugged by","","html-keyboard-response","202","1613561","0.0-15.0-2.13","29102","List1A","black","woman","","","","null","","","","","","","","",""
"8840","","","survey-text","203","1622402","0.0-15.0-3.13","29102","List1A","black","woman","","","","","{""Q0"":""mike is being hugged by dave""}","<img src=""stim_listA/hug6.gif""style=""height:400px;""></stim_listA>","is being hugged by","","","","","",""
"null","<div style=""font-size:60px;"">+</div>","","html-keyboard-response","204","1622916","0.0-15.0-0.14","29102","List1A","black","woman","","","","null","","","","","","","","",""
"null","<img src=""stim_listA/seduce8.gif""style=""height:400px;""></stim_listA>","","html-keyboard-response","205","1624928","0.0-15.0-1.14","29102","List1A","black","woman","","","","null","","","","","","","","",""
"null","is being seduced by","","html-keyboard-response","206","1626935","0.0-15.0-2.14","29102","List1A","black","woman","","","","null","","","","","","","","",""
"9414.299999999814","","","survey-text","207","1636349","0.0-15.0-3.14","29102","List1A","black","woman","","","","","{""Q0"":""ruth is being seduced by kate""}","<img src=""stim_listA/seduce8.gif""style=""height:400px;""></stim_listA>","is being seduced by","","","","","",""
"null","<div style=""font-size:60px;"">+</div>","","html-keyboard-response","208","1636852","0.0-15.0-0.15","29102","List1A","black","woman","","","","null","","","","","","","","",""
"null","<img src=""stim_listA/hug5.gif""style=""height:400px;""></stim_listA>","","html-keyboard-response","209","1638854","0.0-15.0-1.15","29102","List1A","black","woman","","","","null","","","","","","","","",""
"null","is hugging","","html-keyboard-response","210","1640869","0.0-15.0-2.15","29102","List1A","black","woman","","","","null","","","","","","","","",""
"8213.099999999627","","","survey-text","211","1649084","0.0-15.0-3.15","29102","List1A","black","woman","","","","","{""Q0"":""fred is hugging luke""}","<img src=""stim_listA/hug5.gif""style=""height:400px;""></stim_listA>","is hugging","","","","","",""
"null","<div style=""font-size:60px;"">+</div>","","html-keyboard-response","212","1649599","0.0-15.0-0.16","29102","List1A","black","woman","","","","null","","","","","","","","",""
"null","<img src=""stim_listA/oppose7.gif""style=""height:400px;""></stim_listA>","","html-keyboard-response","213","1651601","0.0-15.0-1.16","29102","List1A","black","woman","","","","null","","","","","","","","",""
"null","is opposing","","html-keyboard-response","214","1653611","0.0-15.0-2.16","29102","List1A","black","woman","","","","null","","","","","","","","",""
"6313.100000000559","","","survey-text","215","1659926","0.0-15.0-3.16","29102","List1A","black","woman","","","","","{""Q0"":""jane is opposing kate""}","<img src=""stim_listA/oppose7.gif""style=""height:400px;""></stim_listA>","is opposing","","","","","",""
"null","<div style=""font-size:60px;"">+</div>","","html-keyboard-response","216","1660440","0.0-15.0-0.17","29102","List1A","black","woman","","","","null","","","","","","","","",""
"null","<img src=""stim_listA/look1.gif""style=""height:400px;""></stim_listA>","","html-keyboard-response","217","1662457","0.0-15.0-1.17","29102","List1A","black","woman","","","","null","","","","","","","","",""
"null","is looking at","","html-keyboard-response","218","1664466","0.0-15.0-2.17","29102","List1A","black","woman","","","","null","","","","","","","","",""
"4591.799999999814","","","survey-text","219","1669060","0.0-15.0-3.17","29102","List1A","black","woman","","","","","{""Q0"":""beth is looking fred""}","<img src=""stim_listA/look1.gif""style=""height:400px;""></stim_listA>","is looking at","","","","","",""
"null","<div style=""font-size:60px;"">+</div>","","html-keyboard-response","220","1669566","0.0-15.0-0.18","29102","List1A","black","woman","","","","null","","","","","","","","",""
"null","<img src=""stim_listA/seduce7.gif""style=""height:400px;""></stim_listA>","","html-keyboard-response","221","1671578","0.0-15.0-1.18","29102","List1A","black","woman","","","","null","","","","","","","","",""
"null","is seducing","","html-keyboard-response","222","1673584","0.0-15.0-2.18","29102","List1A","black","woman","","","","null","","","","","","","","",""
"8644.900000000373","","","survey-text","223","1682232","0.0-15.0-3.18","29102","List1A","black","woman","","","","","{""Q0"":""jane is seducing beth""}","<img src=""stim_listA/seduce7.gif""style=""height:400px;""></stim_listA>","is seducing","","","","","",""
"null","<div style=""font-size:60px;"">+</div>","","html-keyboard-response","224","1682739","0.0-15.0-0.19","29102","List1A","black","woman","","","","null","","","","","","","","",""
"null","<img src=""stim_listA/shout3.gif""style=""height:400px;""></stim_listA>","","html-keyboard-response","225","1684748","0.0-15.0-1.19","29102","List1A","black","woman","","","","null","","","","","","","","",""
"null","is shouting at","","html-keyboard-response","226","1686755","0.0-15.0-2.19","29102","List1A","black","woman","","","","null","","","","","","","","",""
"10957.700000000186","","","survey-text","227","1697712","0.0-15.0-3.19","29102","List1A","black","woman","","","","","{""Q0"":""ruth is shouting at luke""}","<img src=""stim_listA/shout3.gif""style=""height:400px;""></stim_listA>","is shouting at","","","","","",""
"4020.5","<img src='img/portrait_matrix_list1.jpg' style='width:900px;height:500px;''></img><p>If you have memorised all the portraits and names and are ready to start, press Continue.</p><p><strong>Please note: Your memory of these faces will be tested 4 times during this experiment.</strong></p>","0","html-button-response","228","1701734","0.0-16.0-0.0","29102","List1A","black","woman","","","","","","","","","","","","",""
"2855.600000000559","<img src=""portrait/WM1.jpg""style=""height:400px;""></img>","6","html-button-response","229","1705601","0.0-16.0-1.0","29102","List1A","black","woman","","true","6","","","","","","","","","",""
"null","CORRECT","","html-keyboard-response","230","1707125","0.0-16.0-2.0-0.0","29102","List1A","black","woman","","","","null","","","","","","","","",""
"3137.100000000559","<img src=""portrait/BW1.jpg""style=""height:400px;""></img>","0","html-button-response","231","1710263","0.0-16.0-4.0","29102","List1A","black","woman","","true","0","","","","","","","","","",""
"null","CORRECT","","html-keyboard-response","232","1711764","0.0-16.0-5.0-0.0","29102","List1A","black","woman","","","","null","","","","","","","","",""
"5190.100000000559","<img src=""portrait/WM2.jpg""style=""height:400px;""></img>","7","html-button-response","233","1716955","0.0-16.0-7.0","29102","List1A","black","woman","","true","7","","","","","","","","","",""
"null","CORRECT","","html-keyboard-response","234","1718463","0.0-16.0-8.0-0.0","29102","List1A","black","woman","","","","null","","","","","","","","",""
"4968.200000000186","<img src=""portrait/BM1.jpg""style=""height:400px;""></img>","4","html-button-response","235","1723432","0.0-16.0-10.0","29102","List1A","black","woman","","true","4","","","","","","","","","",""
"null","CORRECT","","html-keyboard-response","236","1724934","0.0-16.0-11.0-0.0","29102","List1A","black","woman","","","","null","","","","","","","","",""
"1804.3999999994412","<img src=""portrait/BM2.jpg""style=""height:400px;""></img>","5","html-button-response","237","1726739","0.0-16.0-13.0","29102","List1A","black","woman","","true","5","","","","","","","","","",""
"null","CORRECT","","html-keyboard-response","238","1728258","0.0-16.0-14.0-0.0","29102","List1A","black","woman","","","","null","","","","","","","","",""
"2495.7999999998137","<img src=""portrait/BW2.jpg""style=""height:400px;""></img>","2","html-button-response","239","1730754","0.0-16.0-16.0","29102","List1A","black","woman","","true","2","","","","","","","","","",""
"null","CORRECT","","html-keyboard-response","240","1732287","0.0-16.0-17.0-0.0","29102","List1A","black","woman","","","","null","","","","","","","","",""
"3398.199999999255","<img src=""portrait/WW2.jpg""style=""height:400px;""></img>","3","html-button-response","241","1735686","0.0-16.0-19.0","29102","List1A","black","woman","","true","3","","","","","","","","","",""
"null","CORRECT","","html-keyboard-response","242","1737209","0.0-16.0-20.0-0.0","29102","List1A","black","woman","","","","null","","","","","","","","",""
"1191","<img src=""portrait/WW1.jpg""style=""height:400px;""></img>","1","html-button-response","243","1738401","0.0-16.0-22.0","29102","List1A","black","woman","","true","1","","","","","","","","","",""
"null","CORRECT","","html-keyboard-response","244","1739921","0.0-16.0-23.0-0.0","29102","List1A","black","woman","","","","null","","","","","","","","",""
"1269.6000000005588","<p>You got 8 out of 8 right first time. Press Continue.</p>","0","html-button-response","245","1741192","0.0-16.0-25.0","29102","List1A","black","woman","","","","","","","","","","","","",""
"null","<div style=""font-size:60px;"">+</div>","","html-keyboard-response","246","1742717","0.0-17.0-0.0","29102","List1A","black","woman","","","","null","","","","","","","","",""
"null","<img src=""stim_listA/greet1.gif""style=""height:400px;""></stim_listA>","","html-keyboard-response","247","1744724","0.0-17.0-1.0","29102","List1A","black","woman","","","","null","","","","","","","","",""
"null","is greeting","","html-keyboard-response","248","1746731","0.0-17.0-2.0","29102","List1A","black","woman","","","","null","","","","","","","","",""
"6605.5","","","survey-text","249","1753336","0.0-17.0-3.0","29102","List1A","black","woman","","","","","{""Q0"":""mike is greeting beth""}","<img src=""stim_listA/greet1.gif""style=""height:400px;""></stim_listA>","is greeting","","","","","",""
"null","<div style=""font-size:60px;"">+</div>","","html-keyboard-response","250","1753849","0.0-17.0-0.1","29102","List1A","black","woman","","","","null","","","","","","","","",""
"null","<img src=""stim_listA/copy2.gif""style=""height:400px;""></stim_listA>","","html-keyboard-response","251","1755855","0.0-17.0-1.1","29102","List1A","black","woman","","","","null","","","","","","","","",""
"null","is being copied by","","html-keyboard-response","252","1757861","0.0-17.0-2.1","29102","List1A","black","woman","","","","null","","","","","","","","",""
"8358.700000000186","","","survey-text","253","1766222","0.0-17.0-3.1","29102","List1A","black","woman","","","","","{""Q0"":""fred is being copied by kate""}","<img src=""stim_listA/copy2.gif""style=""height:400px;""></stim_listA>","is being copied by","","","","","",""
"null","<div style=""font-size:60px;"">+</div>","","html-keyboard-response","254","1766723","0.0-17.0-0.2","29102","List1A","black","woman","","","","null","","","","","","","","",""
"null","<img src=""stim_listA/challenge2.gif""style=""height:400px;""></stim_listA>","","html-keyboard-response","255","1768725","0.0-17.0-1.2","29102","List1A","black","woman","","","","null","","","","","","","","",""
"null","is being challenged by","","html-keyboard-response","256","1770732","0.0-17.0-2.2","29102","List1A","black","woman","","","","null","","","","","","","","",""
"6727.299999999814","","","survey-text","257","1777462","0.0-17.0-3.2","29102","List1A","black","woman","","","","","{""Q0"":""fred is being challenged by kate""}","<img src=""stim_listA/challenge2.gif""style=""height:400px;""></stim_listA>","is being challenged by","","","","","",""
"null","<div style=""font-size:60px;"">+</div>","","html-keyboard-response","258","1777977","0.0-17.0-0.3","29102","List1A","black","woman","","","","null","","","","","","","","",""
"null","<img src=""stim_listA/challenge8.gif""style=""height:400px;""></stim_listA>","","html-keyboard-response","259","1779987","0.0-17.0-1.3","29102","List1A","black","woman","","","","null","","","","","","","","",""
"null","is being challenged by","","html-keyboard-response","260","1781996","0.0-17.0-2.3","29102","List1A","black","woman","","","","null","","","","","","","","",""
"9297.899999999441","","","survey-text","261","1791296","0.0-17.0-3.3","29102","List1A","black","woman","","","","","{""Q0"":""jane is being challenged by beth""}","<img src=""stim_listA/challenge8.gif""style=""height:400px;""></stim_listA>","is being challenged by","","","","","",""
"null","<div style=""font-size:60px;"">+</div>","","html-keyboard-response","262","1791809","0.0-17.0-0.4","29102","List1A","black","woman","","","","null","","","","","","","","",""
"null","<img src=""stim_listA/shout7.gif""style=""height:400px;""></stim_listA>","","html-keyboard-response","263","1793820","0.0-17.0-1.4","29102","List1A","black","woman","","","","null","","","","","","","","",""
"null","is shouting at","","html-keyboard-response","264","1795827","0.0-17.0-2.4","29102","List1A","black","woman","","","","null","","","","","","","","",""
"4824.299999999814","","","survey-text","265","1800653","0.0-17.0-3.4","29102","List1A","black","woman","","","","","{""Q0"":""beth is shouting at ruth""}","<img src=""stim_listA/shout7.gif""style=""height:400px;""></stim_listA>","is shouting at","","","","","",""
"null","<div style=""font-size:60px;"">+</div>","","html-keyboard-response","266","1801170","0.0-17.0-0.5","29102","List1A","black","woman","","","","null","","","","","","","","",""
"null","<img src=""stim_listA/kiss2.gif""style=""height:400px;""></stim_listA>","","html-keyboard-response","267","1803181","0.0-17.0-1.5","29102","List1A","black","woman","","","","null","","","","","","","","",""
"null","is being kissed by","","html-keyboard-response","268","1805191","0.0-17.0-2.5","29102","List1A","black","woman","","","","null","","","","","","","","",""
"9716.299999999814","","","survey-text","269","1814908","0.0-17.0-3.5","29102","List1A","black","woman","","","","","{""Q0"":""kate is being kissed by mike""}","<img src=""stim_listA/kiss2.gif""style=""height:400px;""></stim_listA>","is being kissed by","","","","","",""
"null","<div style=""font-size:60px;"">+</div>","","html-keyboard-response","270","1815410","0.0-17.0-0.6","29102","List1A","black","woman","","","","null","","","","","","","","",""
"null","<img src=""stim_listA/challenge5.gif""style=""height:400px;""></stim_listA>","","html-keyboard-response","271","1817423","0.0-17.0-1.6","29102","List1A","black","woman","","","","null","","","","","","","","",""
"null","is challenging","","html-keyboard-response","272","1819434","0.0-17.0-2.6","29102","List1A","black","woman","","","","null","","","","","","","","",""
"4559.700000000186","","","survey-text","273","1823995","0.0-17.0-3.6","29102","List1A","black","woman","","","","","{""Q0"":""mike is challenging luke""}","<img src=""stim_listA/challenge5.gif""style=""height:400px;""></stim_listA>","is challenging","","","","","",""
"null","<div style=""font-size:60px;"">+</div>","","html-keyboard-response","274","1824507","0.0-17.0-0.7","29102","List1A","black","woman","","","","null","","","","","","","","",""
"null","<img src=""stim_listA/look4.gif""style=""height:400px;""></stim_listA>","","html-keyboard-response","275","1826520","0.0-17.0-1.7","29102","List1A","black","woman","","","","null","","","","","","","","",""
"null","is being looked at by","","html-keyboard-response","276","1828528","0.0-17.0-2.7","29102","List1A","black","woman","","","","null","","","","","","","","",""
"9611.399999999441","","","survey-text","277","1838141","0.0-17.0-3.7","29102","List1A","black","woman","","","","","{""Q0"":""dave is being looked at by jane""}","<img src=""stim_listA/look4.gif""style=""height:400px;""></stim_listA>","is being looked at by","","","","","",""
"null","<div style=""font-size:60px;"">+</div>","","html-keyboard-response","278","1838644","0.0-17.0-0.8","29102","List1A","black","woman","","","","null","","","","","","","","",""
"null","<img src=""stim_listA/touch6.gif""style=""height:400px;""></stim_listA>","","html-keyboard-response","279","1840655","0.0-17.0-1.8","29102","List1A","black","woman","","","","null","","","","","","","","",""
"null","is being touched by","","html-keyboard-response","280","1842664","0.0-17.0-2.8","29102","List1A","black","woman","","","","null","","","","","","","","",""
"8765.799999999814","","","survey-text","281","1851431","0.0-17.0-3.8","29102","List1A","black","woman","","","","","{""Q0"":""fred is being touched by luke""}","<img src=""stim_listA/touch6.gif""style=""height:400px;""></stim_listA>","is being touched by","","","","","",""
"null","<div style=""font-size:60px;"">+</div>","","html-keyboard-response","282","1851936","0.0-17.0-0.9","29102","List1A","black","woman","","","","null","","","","","","","","",""
"null","<img src=""stim_listA/oppose1.gif""style=""height:400px;""></stim_listA>","","html-keyboard-response","283","1853946","0.0-17.0-1.9","29102","List1A","black","woman","","","","null","","","","","","","","",""
"null","is opposing","","html-keyboard-response","284","1855956","0.0-17.0-2.9","29102","List1A","black","woman","","","","null","","","","","","","","",""
"5226.9000000003725","","","survey-text","285","1861184","0.0-17.0-3.9","29102","List1A","black","woman","","","","","{""Q0"":""kate is opposing mike""}","<img src=""stim_listA/oppose1.gif""style=""height:400px;""></stim_listA>","is opposing","","","","","",""
"null","<div style=""font-size:60px;"">+</div>","","html-keyboard-response","286","1861698","0.0-17.0-0.10","29102","List1A","black","woman","","","","null","","","","","","","","",""
"null","<img src=""stim_listA/copy1.gif""style=""height:400px;""></stim_listA>","","html-keyboard-response","287","1863707","0.0-17.0-1.10","29102","List1A","black","woman","","","","null","","","","","","","","",""
"null","is copying","","html-keyboard-response","288","1865718","0.0-17.0-2.10","29102","List1A","black","woman","","","","null","","","","","","","","",""
"6550.799999999814","","","survey-text","289","1872270","0.0-17.0-3.10","29102","List1A","black","woman","","","","","{""Q0"":""beth is copying mike""}","<img src=""stim_listA/copy1.gif""style=""height:400px;""></stim_listA>","is copying","","","","","",""
"null","<div style=""font-size:60px;"">+</div>","","html-keyboard-response","290","1872782","0.0-17.0-0.11","29102","List1A","black","woman","","","","null","","","","","","","","",""
"null","<img src=""stim_listA/greet2.gif""style=""height:400px;""></stim_listA>","","html-keyboard-response","291","1874786","0.0-17.0-1.11","29102","List1A","black","woman","","","","null","","","","","","","","",""
"null","is being greeted by","","html-keyboard-response","292","1876790","0.0-17.0-2.11","29102","List1A","black","woman","","","","null","","","","","","","","",""
"6798","","","survey-text","293","1883590","0.0-17.0-3.11","29102","List1A","black","woman","","","","","{""Q0"":""fred is being greeted by kate""}","<img src=""stim_listA/greet2.gif""style=""height:400px;""></stim_listA>","is being greeted by","","","","","",""
"null","<div style=""font-size:60px;"">+</div>","","html-keyboard-response","294","1884096","0.0-17.0-0.12","29102","List1A","black","woman","","","","null","","","","","","","","",""
"null","<img src=""stim_listA/shout6.gif""style=""height:400px;""></stim_listA>","","html-keyboard-response","295","1886108","0.0-17.0-1.12","29102","List1A","black","woman","","","","null","","","","","","","","",""
"null","is being shouted at by","","html-keyboard-response","296","1888115","0.0-17.0-2.12","29102","List1A","black","woman","","","","null","","","","","","","","",""
"7273.9000000003725","","","survey-text","297","1895391","0.0-17.0-3.12","29102","List1A","black","woman","","","","","{""Q0"":""mike is being shouted at by dave""}","<img src=""stim_listA/shout6.gif""style=""height:400px;""></stim_listA>","is being shouted at by","","","","","",""
"null","<div style=""font-size:60px;"">+</div>","","html-keyboard-response","298","1895907","0.0-17.0-0.13","29102","List1A","black","woman","","","","null","","","","","","","","",""
"null","<img src=""stim_listA/shout4.gif""style=""height:400px;""></stim_listA>","","html-keyboard-response","299","1897909","0.0-17.0-1.13","29102","List1A","black","woman","","","","null","","","","","","","","",""
"null","is being shouted at by","","html-keyboard-response","300","1899919","0.0-17.0-2.13","29102","List1A","black","woman","","","","null","","","","","","","","",""
"6522.5999999996275","","","survey-text","301","1906443","0.0-17.0-3.13","29102","List1A","black","woman","","","","","{""Q0"":""jane is being shouted at by dave""}","<img src=""stim_listA/shout4.gif""style=""height:400px;""></stim_listA>","is being shouted at by","","","","","",""
"null","<div style=""font-size:60px;"">+</div>","","html-keyboard-response","302","1906948","0.0-17.0-0.14","29102","List1A","black","woman","","","","null","","","","","","","","",""
"null","<img src=""stim_listA/touch4.gif""style=""height:400px;""></stim_listA>","","html-keyboard-response","303","1908954","0.0-17.0-1.14","29102","List1A","black","woman","","","","null","","","","","","","","",""
"null","is being touched by","","html-keyboard-response","304","1910964","0.0-17.0-2.14","29102","List1A","black","woman","","","","null","","","","","","","","",""
"7724.200000000186","","","survey-text","305","1918690","0.0-17.0-3.14","29102","List1A","black","woman","","","","","{""Q0"":""ruth is being touched by luke""}","<img src=""stim_listA/touch4.gif""style=""height:400px;""></stim_listA>","is being touched by","","","","","",""
"null","<div style=""font-size:60px;"">+</div>","","html-keyboard-response","306","1919201","0.0-17.0-0.15","29102","List1A","black","woman","","","","null","","","","","","","","",""
"null","<img src=""stim_listA/kiss1.gif""style=""height:400px;""></stim_listA>","","html-keyboard-response","307","1921207","0.0-17.0-1.15","29102","List1A","black","woman","","","","null","","","","","","","","",""
"null","is kissing","","html-keyboard-response","308","1923215","0.0-17.0-2.15","29102","List1A","black","woman","","","","null","","","","","","","","",""
"3829.899999999441","","","survey-text","309","1927047","0.0-17.0-3.15","29102","List1A","black","woman","","","","","{""Q0"":""fred is kissing beth""}","<img src=""stim_listA/kiss1.gif""style=""height:400px;""></stim_listA>","is kissing","","","","","",""
"null","<div style=""font-size:60px;"">+</div>","","html-keyboard-response","310","1927561","0.0-17.0-0.16","29102","List1A","black","woman","","","","null","","","","","","","","",""
"null","<img src=""stim_listA/seduce2.gif""style=""height:400px;""></stim_listA>","","html-keyboard-response","311","1929567","0.0-17.0-1.16","29102","List1A","black","woman","","","","null","","","","","","","","",""
"null","is being seduced by","","html-keyboard-response","312","1931573","0.0-17.0-2.16","29102","List1A","black","woman","","","","null","","","","","","","","",""
"6363.299999999814","","","survey-text","313","1937937","0.0-17.0-3.16","29102","List1A","black","woman","","","","","{""Q0"":""beth is being seduced by mike""}","<img src=""stim_listA/seduce2.gif""style=""height:400px;""></stim_listA>","is being seduced by","","","","","",""
"null","<div style=""font-size:60px;"">+</div>","","html-keyboard-response","314","1938441","0.0-17.0-0.17","29102","List1A","black","woman","","","","null","","","","","","","","",""
"null","<img src=""stim_listA/hug2.gif""style=""height:400px;""></stim_listA>","","html-keyboard-response","315","1940453","0.0-17.0-1.17","29102","List1A","black","woman","","","","null","","","","","","","","",""
"null","is being hugged by","","html-keyboard-response","316","1942461","0.0-17.0-2.17","29102","List1A","black","woman","","","","null","","","","","","","","",""
"5265.299999999814","","","survey-text","317","1947728","0.0-17.0-3.17","29102","List1A","black","woman","","","","","{""Q0"":""mike is being hugged by kate""}","<img src=""stim_listA/hug2.gif""style=""height:400px;""></stim_listA>","is being hugged by","","","","","",""
"null","<div style=""font-size:60px;"">+</div>","","html-keyboard-response","318","1948241","0.0-17.0-0.18","29102","List1A","black","woman","","","","null","","","","","","","","",""
"null","<img src=""stim_listA/look6.gif""style=""height:400px;""></stim_listA>","","html-keyboard-response","319","1950250","0.0-17.0-1.18","29102","List1A","black","woman","","","","null","","","","","","","","",""
"null","is being looked at by","","html-keyboard-response","320","1952259","0.0-17.0-2.18","29102","List1A","black","woman","","","","null","","","","","","","","",""
"10854.400000000373","","","survey-text","321","1963115","0.0-17.0-3.18","29102","List1A","black","woman","","","","","{""Q0"":""dave is being looked at by mike""}","<img src=""stim_listA/look6.gif""style=""height:400px;""></stim_listA>","is being looked at by","","","","","",""
"null","<div style=""font-size:60px;"">+</div>","","html-keyboard-response","322","1963618","0.0-17.0-0.19","29102","List1A","black","woman","","","","null","","","","","","","","",""
"null","<img src=""stim_listA/kiss7.gif""style=""height:400px;""></stim_listA>","","html-keyboard-response","323","1965628","0.0-17.0-1.19","29102","List1A","black","woman","","","","null","","","","","","","","",""
"null","is kissing","","html-keyboard-response","324","1967629","0.0-17.0-2.19","29102","List1A","black","woman","","","","null","","","","","","","","",""
"5361.200000000186","","","survey-text","325","1972992","0.0-17.0-3.19","29102","List1A","black","woman","","","","","{""Q0"":""beth is kissing ruth""}","<img src=""stim_listA/kiss7.gif""style=""height:400px;""></stim_listA>","is kissing","","","","","",""
"7177.200000000186","<img src='img/portrait_matrix_list1.jpg' style='width:900px;height:500px;''></img><p>If you have memorised all the portraits and names and are ready to start, press Continue.</p><p><strong>Please note: Your memory of these faces will be tested 4 times during this experiment.</strong></p>","0","html-button-response","326","1980170","0.0-18.0-0.0","29102","List1A","black","woman","","","","","","","","","","","","",""
"3574.7999999998137","<img src=""portrait/WW1.jpg""style=""height:400px;""></img>","1","html-button-response","327","1984762","0.0-18.0-1.0","29102","List1A","black","woman","","true","1","","","","","","","","","",""
"null","CORRECT","","html-keyboard-response","328","1986286","0.0-18.0-2.0-0.0","29102","List1A","black","woman","","","","null","","","","","","","","",""
"4985.700000000186","<img src=""portrait/BM1.jpg""style=""height:400px;""></img>","4","html-button-response","329","1991272","0.0-18.0-4.0","29102","List1A","black","woman","","true","4","","","","","","","","","",""
"null","CORRECT","","html-keyboard-response","330","1992776","0.0-18.0-5.0-0.0","29102","List1A","black","woman","","","","null","","","","","","","","",""
"2903.2000000001863","<img src=""portrait/WM2.jpg""style=""height:400px;""></img>","7","html-button-response","331","1995680","0.0-18.0-7.0","29102","List1A","black","woman","","true","7","","","","","","","","","",""
"null","CORRECT","","html-keyboard-response","332","1997182","0.0-18.0-8.0-0.0","29102","List1A","black","woman","","","","null","","","","","","","","",""
"2266.2000000001863","<img src=""portrait/BW1.jpg""style=""height:400px;""></img>","0","html-button-response","333","1999449","0.0-18.0-10.0","29102","List1A","black","woman","","true","0","","","","","","","","","",""
"null","CORRECT","","html-keyboard-response","334","2000951","0.0-18.0-11.0-0.0","29102","List1A","black","woman","","","","null","","","","","","","","",""
"3189.800000000745","<img src=""portrait/WM1.jpg""style=""height:400px;""></img>","6","html-button-response","335","2004142","0.0-18.0-13.0","29102","List1A","black","woman","","true","6","","","","","","","","","",""
"null","CORRECT","","html-keyboard-response","336","2005647","0.0-18.0-14.0-0.0","29102","List1A","black","woman","","","","null","","","","","","","","",""
"1381.2000000001863","<img src=""portrait/BM2.jpg""style=""height:400px;""></img>","5","html-button-response","337","2007029","0.0-18.0-16.0","29102","List1A","black","woman","","true","5","","","","","","","","","",""
"null","CORRECT","","html-keyboard-response","338","2008534","0.0-18.0-17.0-0.0","29102","List1A","black","woman","","","","null","","","","","","","","",""
"4112.9000000003725","<img src=""portrait/WW2.jpg""style=""height:400px;""></img>","3","html-button-response","339","2012648","0.0-18.0-19.0","29102","List1A","black","woman","","true","3","","","","","","","","","",""
"null","CORRECT","","html-keyboard-response","340","2014171","0.0-18.0-20.0-0.0","29102","List1A","black","woman","","","","null","","","","","","","","",""
"1811.7000000001863","<img src=""portrait/BW2.jpg""style=""height:400px;""></img>","2","html-button-response","341","2015984","0.0-18.0-22.0","29102","List1A","black","woman","","true","2","","","","","","","","","",""
"null","CORRECT","","html-keyboard-response","342","2017516","0.0-18.0-23.0-0.0","29102","List1A","black","woman","","","","null","","","","","","","","",""
"10874.700000000186","<p>You got 8 out of 8 right first time. Press Continue.</p>","0","html-button-response","343","2028391","0.0-18.0-25.0","29102","List1A","black","woman","","","","","","","","","","","","",""
"null","<div style=""font-size:60px;"">+</div>","","html-keyboard-response","344","2029915","0.0-19.0-0.0","29102","List1A","black","woman","","","","null","","","","","","","","",""
"null","<img src=""stim_listA/seduce1.gif""style=""height:400px;""></stim_listA>","","html-keyboard-response","345","2031930","0.0-19.0-1.0","29102","List1A","black","woman","","","","null","","","","","","","","",""
"null","is seducing","","html-keyboard-response","346","2033940","0.0-19.0-2.0","29102","List1A","black","woman","","","","null","","","","","","","","",""
"7550.399999999441","","","survey-text","347","2041493","0.0-19.0-3.0","29102","List1A","black","woman","","","","","{""Q0"":""fred is seducing kate""}","<img src=""stim_listA/seduce1.gif""style=""height:400px;""></stim_listA>","is seducing","","","","","",""
"null","<div style=""font-size:60px;"">+</div>","","html-keyboard-response","348","2042004","0.0-19.0-0.1","29102","List1A","black","woman","","","","null","","","","","","","","",""
"null","<img src=""stim_listA/seduce4.gif""style=""height:400px;""></stim_listA>","","html-keyboard-response","349","2044015","0.0-19.0-1.1","29102","List1A","black","woman","","","","null","","","","","","","","",""
"null","is being seduced by","","html-keyboard-response","350","2046028","0.0-19.0-2.1","29102","List1A","black","woman","","","","null","","","","","","","","",""
"6981.799999999814","","","survey-text","351","2053010","0.0-19.0-3.1","29102","List1A","black","woman","","","","","{""Q0"":""dave is being seduced by ruth""}","<img src=""stim_listA/seduce4.gif""style=""height:400px;""></stim_listA>","is being seduced by","","","","","",""
"null","<div style=""font-size:60px;"">+</div>","","html-keyboard-response","352","2053517","0.0-19.0-0.2","29102","List1A","black","woman","","","","null","","","","","","","","",""
"null","<img src=""stim_listA/oppose2.gif""style=""height:400px;""></stim_listA>","","html-keyboard-response","353","2055526","0.0-19.0-1.2","29102","List1A","black","woman","","","","null","","","","","","","","",""
"null","is being opposed by","","html-keyboard-response","354","2057538","0.0-19.0-2.2","29102","List1A","black","woman","","","","null","","","","","","","","",""
"9103.199999999255","","","survey-text","355","2066644","0.0-19.0-3.2","29102","List1A","black","woman","","","","","{""Q0"":""beth is being opposed by fred""}","<img src=""stim_listA/oppose2.gif""style=""height:400px;""></stim_listA>","is being opposed by","","","","","",""
"null","<div style=""font-size:60px;"">+</div>","","html-keyboard-response","356","2067148","0.0-19.0-0.3","29102","List1A","black","woman","","","","null","","","","","","","","",""
"null","<img src=""stim_listA/greet5.gif""style=""height:400px;""></stim_listA>","","html-keyboard-response","357","2069156","0.0-19.0-1.3","29102","List1A","black","woman","","","","null","","","","","","","","",""
"null","is greeting","","html-keyboard-response","358","2071160","0.0-19.0-2.3","29102","List1A","black","woman","","","","null","","","","","","","","",""
"6244","","","survey-text","359","2077406","0.0-19.0-3.3","29102","List1A","black","woman","","","","","{""Q0"":""luke is greeting mike""}","<img src=""stim_listA/greet5.gif""style=""height:400px;""></stim_listA>","is greeting","","","","","",""
"null","<div style=""font-size:60px;"">+</div>","","html-keyboard-response","360","2077908","0.0-19.0-0.4","29102","List1A","black","woman","","","","null","","","","","","","","",""
"null","<img src=""stim_listA/hug1.gif""style=""height:400px;""></stim_listA>","","html-keyboard-response","361","2079915","0.0-19.0-1.4","29102","List1A","black","woman","","","","null","","","","","","","","",""
"null","is hugging","","html-keyboard-response","362","2081925","0.0-19.0-2.4","29102","List1A","black","woman","","","","null","","","","","","","","",""
"4868.700000000186","","","survey-text","363","2086795","0.0-19.0-3.4","29102","List1A","black","woman","","","","","{""Q0"":""beth is hugging fred""}","<img src=""stim_listA/hug1.gif""style=""height:400px;""></stim_listA>","is hugging","","","","","",""
"null","<div style=""font-size:60px;"">+</div>","","html-keyboard-response","364","2087305","0.0-19.0-0.5","29102","List1A","black","woman","","","","null","","","","","","","","",""
"null","<img src=""stim_listA/kiss6.gif""style=""height:400px;""></stim_listA>","","html-keyboard-response","365","2089317","0.0-19.0-1.5","29102","List1A","black","woman","","","","null","","","","","","","","",""
"null","is being kissed by","","html-keyboard-response","366","2091330","0.0-19.0-2.5","29102","List1A","black","woman","","","","null","","","","","","","","",""
"7561.700000000186","","","survey-text","367","2098893","0.0-19.0-3.5","29102","List1A","black","woman","","","","","{""Q0"":""dave is being kissed by mike""}","<img src=""stim_listA/kiss6.gif""style=""height:400px;""></stim_listA>","is being kissed by","","","","","",""
"null","<div style=""font-size:60px;"">+</div>","","html-keyboard-response","368","2099407","0.0-19.0-0.6","29102","List1A","black","woman","","","","null","","","","","","","","",""
"null","<img src=""stim_listA/challenge1.gif""style=""height:400px;""></stim_listA>","","html-keyboard-response","369","2101420","0.0-19.0-1.6","29102","List1A","black","woman","","","","null","","","","","","","","",""
"null","is challenging","","html-keyboard-response","370","2103427","0.0-19.0-2.6","29102","List1A","black","woman","","","","null","","","","","","","","",""
"11422.5","","","survey-text","371","2114850","0.0-19.0-3.6","29102","List1A","black","woman","","","","","{""Q0"":""mike is challenging beth""}","<img src=""stim_listA/challenge1.gif""style=""height:400px;""></stim_listA>","is challenging","","","","","",""
"null","<div style=""font-size:60px;"">+</div>","","html-keyboard-response","372","2115356","0.0-19.0-0.7","29102","List1A","black","woman","","","","null","","","","","","","","",""
"null","<img src=""stim_listA/oppose8.gif""style=""height:400px;""></stim_listA>","","html-keyboard-response","373","2117364","0.0-19.0-1.7","29102","List1A","black","woman","","","","null","","","","","","","","",""
"null","is being opposed by","","html-keyboard-response","374","2119376","0.0-19.0-2.7","29102","List1A","black","woman","","","","null","","","","","","","","",""
"5373.4000000003725","","","survey-text","375","2124751","0.0-19.0-3.7","29102","List1A","black","woman","","","","","{""Q0"":""ruth is being opposed by beth""}","<img src=""stim_listA/oppose8.gif""style=""height:400px;""></stim_listA>","is being opposed by","","","","","",""
"null","<div style=""font-size:60px;"">+</div>","","html-keyboard-response","376","2125265","0.0-19.0-0.8","29102","List1A","black","woman","","","","null","","","","","","","","",""
"null","<img src=""stim_listA/look8.gif""style=""height:400px;""></stim_listA>","","html-keyboard-response","377","2127272","0.0-19.0-1.8","29102","List1A","black","woman","","","","null","","","","","","","","",""
"null","is being looked at by","","html-keyboard-response","378","2129286","0.0-19.0-2.8","29102","List1A","black","woman","","","","null","","","","","","","","",""
"10937.899999999441","","","survey-text","379","2140225","0.0-19.0-3.8","29102","List1A","black","woman","","","","","{""Q0"":""jane is being looked at by kate""}","<img src=""stim_listA/look8.gif""style=""height:400px;""></stim_listA>","is being looked at by","","","","","",""
"null","<div style=""font-size:60px;"">+</div>","","html-keyboard-response","380","2140738","0.0-19.0-0.9","29102","List1A","black","woman","","","","null","","","","","","","","",""
"null","<img src=""stim_listA/touch5.gif""style=""height:400px;""></stim_listA>","","html-keyboard-response","381","2142747","0.0-19.0-1.9","29102","List1A","black","woman","","","","null","","","","","","","","",""
"null","is touching","","html-keyboard-response","382","2144754","0.0-19.0-2.9","29102","List1A","black","woman","","","","null","","","","","","","","",""
"5238.5","","","survey-text","383","2149994","0.0-19.0-3.9","29102","List1A","black","woman","","","","","{""Q0"":""dave is touching mike""}","<img src=""stim_listA/touch5.gif""style=""height:400px;""></stim_listA>","is touching","","","","","",""
"null","<div style=""font-size:60px;"">+</div>","","html-keyboard-response","384","2150509","0.0-19.0-0.10","29102","List1A","black","woman","","","","null","","","","","","","","",""
"null","<img src=""stim_listA/oppose4.gif""style=""height:400px;""></stim_listA>","","html-keyboard-response","385","2152511","0.0-19.0-1.10","29102","List1A","black","woman","","","","null","","","","","","","","",""
"null","is being opposed by","","html-keyboard-response","386","2154518","0.0-19.0-2.10","29102","List1A","black","woman","","","","null","","","","","","","","",""
"8274.900000000373","","","survey-text","387","2162795","0.0-19.0-3.10","29102","List1A","black","woman","","","","","{""Q0"":""luke is being opposed by ruth""}","<img src=""stim_listA/oppose4.gif""style=""height:400px;""></stim_listA>","is being opposed by","","","","","",""
"null","<div style=""font-size:60px;"">+</div>","","html-keyboard-response","388","2163301","0.0-19.0-0.11","29102","List1A","black","woman","","","","null","","","","","","","","",""
"null","<img src=""stim_listA/greet6.gif""style=""height:400px;""></stim_listA>","","html-keyboard-response","389","2165311","0.0-19.0-1.11","29102","List1A","black","woman","","","","null","","","","","","","","",""
"null","is being greeted by","","html-keyboard-response","390","2167324","0.0-19.0-2.11","29102","List1A","black","woman","","","","null","","","","","","","","",""
"11825.299999999814","","","survey-text","391","2179150","0.0-19.0-3.11","29102","List1A","black","woman","","","","","{""Q0"":""dave is being greeted by fred""}","<img src=""stim_listA/greet6.gif""style=""height:400px;""></stim_listA>","is being greeted by","","","","","",""
"null","<div style=""font-size:60px;"">+</div>","","html-keyboard-response","392","2179654","0.0-19.0-0.12","29102","List1A","black","woman","","","","null","","","","","","","","",""
"null","<img src=""stim_listA/greet4.gif""style=""height:400px;""></stim_listA>","","html-keyboard-response","393","2181664","0.0-19.0-1.12","29102","List1A","black","woman","","","","null","","","","","","","","",""
"null","is being greeted by","","html-keyboard-response","394","2183672","0.0-19.0-2.12","29102","List1A","black","woman","","","","null","","","","","","","","",""
"8205.5","","","survey-text","395","2191880","0.0-19.0-3.12","29102","List1A","black","woman","","","","","{""Q0"":""jane is being greeted by luke""}","<img src=""stim_listA/greet4.gif""style=""height:400px;""></stim_listA>","is being greeted by","","","","","",""
"null","<div style=""font-size:60px;"">+</div>","","html-keyboard-response","396","2192386","0.0-19.0-0.13","29102","List1A","black","woman","","","","null","","","","","","","","",""
"null","<img src=""stim_listA/touch2.gif""style=""height:400px;""></stim_listA>","","html-keyboard-response","397","2194397","0.0-19.0-1.13","29102","List1A","black","woman","","","","null","","","","","","","","",""
"null","is being touched by","","html-keyboard-response","398","2196404","0.0-19.0-2.13","29102","List1A","black","woman","","","","null","","","","","","","","",""
"7077.600000000559","","","survey-text","399","2203484","0.0-19.0-3.13","29102","List1A","black","woman","","","","","{""Q0"":""fred is being touched by beth""}","<img src=""stim_listA/touch2.gif""style=""height:400px;""></stim_listA>","is being touched by","","","","","",""
"null","<div style=""font-size:60px;"">+</div>","","html-keyboard-response","400","2203987","0.0-19.0-0.14","29102","List1A","black","woman","","","","null","","","","","","","","",""
"null","<img src=""stim_listA/challenge6.gif""style=""height:400px;""></stim_listA>","","html-keyboard-response","401","2205998","0.0-19.0-1.14","29102","List1A","black","woman","","","","null","","","","","","","","",""
"null","is being challenged by","","html-keyboard-response","402","2208010","0.0-19.0-2.14","29102","List1A","black","woman","","","","null","","","","","","","","",""
"11334","","","survey-text","403","2219346","0.0-19.0-3.14","29102","List1A","black","woman","","","","","{""Q0"":""dave is being challenged by fred""}","<img src=""stim_listA/challenge6.gif""style=""height:400px;""></stim_listA>","is being challenged by","","","","","",""
"null","<div style=""font-size:60px;"">+</div>","","html-keyboard-response","404","2219858","0.0-19.0-0.15","29102","List1A","black","woman","","","","null","","","","","","","","",""
"null","<img src=""stim_listA/touch1.gif""style=""height:400px;""></stim_listA>","","html-keyboard-response","405","2221859","0.0-19.0-1.15","29102","List1A","black","woman","","","","null","","","","","","","","",""
"null","is touching","","html-keyboard-response","406","2223869","0.0-19.0-2.15","29102","List1A","black","woman","","","","null","","","","","","","","",""
"4471.700000000186","","","survey-text","407","2228343","0.0-19.0-3.15","29102","List1A","black","woman","","","","","{""Q0"":""mike is touching kate""}","<img src=""stim_listA/touch1.gif""style=""height:400px;""></stim_listA>","is touching","","","","","",""
"null","<div style=""font-size:60px;"">+</div>","","html-keyboard-response","408","2228846","0.0-19.0-0.16","29102","List1A","black","woman","","","","null","","","","","","","","",""
"null","<img src=""stim_listA/kiss5.gif""style=""height:400px;""></stim_listA>","","html-keyboard-response","409","2230848","0.0-19.0-1.16","29102","List1A","black","woman","","","","null","","","","","","","","",""
"null","is kissing","","html-keyboard-response","410","2232850","0.0-19.0-2.16","29102","List1A","black","woman","","","","null","","","","","","","","",""
"5885.9000000003725","","","survey-text","411","2238737","0.0-19.0-3.16","29102","List1A","black","woman","","","","","{""Q0"":""fred is kissing luke""}","<img src=""stim_listA/kiss5.gif""style=""height:400px;""></stim_listA>","is kissing","","","","","",""
"null","<div style=""font-size:60px;"">+</div>","","html-keyboard-response","412","2239239","0.0-19.0-0.17","29102","List1A","black","woman","","","","null","","","","","","","","",""
"null","<img src=""stim_listA/oppose3.gif""style=""height:400px;""></stim_listA>","","html-keyboard-response","413","2241248","0.0-19.0-1.17","29102","List1A","black","woman","","","","null","","","","","","","","",""
"null","is opposing","","html-keyboard-response","414","2243254","0.0-19.0-2.17","29102","List1A","black","woman","","","","null","","","","","","","","",""
"3879.899999999441","","","survey-text","415","2247136","0.0-19.0-3.17","29102","List1A","black","woman","","","","","{""Q0"":""jane is opposing dave""}","<img src=""stim_listA/oppose3.gif""style=""height:400px;""></stim_listA>","is opposing","","","","","",""
"null","<div style=""font-size:60px;"">+</div>","","html-keyboard-response","416","2247642","0.0-19.0-0.18","29102","List1A","black","woman","","","","null","","","","","","","","",""
"null","<img src=""stim_listA/copy4.gif""style=""height:400px;""></stim_listA>","","html-keyboard-response","417","2249658","0.0-19.0-1.18","29102","List1A","black","woman","","","","null","","","","","","","","",""
"null","is being copied by","","html-keyboard-response","418","2251671","0.0-19.0-2.18","29102","List1A","black","woman","","","","null","","","","","","","","",""
"5065.5","","","survey-text","419","2256739","0.0-19.0-3.18","29102","List1A","black","woman","","","","","{""Q0"":""jane is being copied by luke""}","<img src=""stim_listA/copy4.gif""style=""height:400px;""></stim_listA>","is being copied by","","","","","",""
"null","<div style=""font-size:60px;"">+</div>","","html-keyboard-response","420","2257245","0.0-19.0-0.19","29102","List1A","black","woman","","","","null","","","","","","","","",""
"null","<img src=""stim_listA/look3.gif""style=""height:400px;""></stim_listA>","","html-keyboard-response","421","2259249","0.0-19.0-1.19","29102","List1A","black","woman","","","","null","","","","","","","","",""
"null","is looking at","","html-keyboard-response","422","2261255","0.0-19.0-2.19","29102","List1A","black","woman","","","","null","","","","","","","","",""
"5268","","","survey-text","423","2266525","0.0-19.0-3.19","29102","List1A","black","woman","","","","","{""Q0"":""ruth is looking at luke""}","<img src=""stim_listA/look3.gif""style=""height:400px;""></stim_listA>","is looking at","","","","","",""
"4578.700000000186","<p>Thank you for completing that task.</p><p>The final part of this session is a questionnaire that will take about 4 minutes.</p><p>Press Continue.</p>","0","html-button-response","424","2271104","0.0-20.0","29102","List1A","black","woman","","","","","","","","","","","","",""
"46508.5","","","survey-text","425","2318619","0.0-21.0","29102","List1A","black","woman","","","","","{""Q0"":""21"",""Q1"":""Jamaican"",""Q2"":""English"",""Q3"":""United States"",""Q4"":""American"",""Q5"":""African American"",""Q6"":""Female""}","","","demographics","","","","",""
"2722.7999999998137","<p>Have you lived in the USA for the last 5 years or more?</p>","0","html-button-response","426","2321343","0.0-22.0","29102","List1A","black","woman","","","","","","","","fiveyears","","","","",""
"4520","<p>Move the slider to show the extent to which you agree with the following statements.</p>","0","html-button-response","427","2326879","0.0-23.0","29102","List1A","black","woman","","","","","","","","","","","","",""
"3458.0999999996275","","","html-slider-response","428","2331355","0.0-24.0-0.0-0.0","29102","List1A","black","woman","","","","","","","","survey_race","100","","","I am glad to be my age.","filler"
"6018","","","html-slider-response","429","2337374","0.0-24.0-0.0-0.1","29102","List1A","black","woman","","","","","","","","survey_race","38","","","Being my race is an important part of how I see myself.","important"
"3048.600000000559","","","html-slider-response","430","2340424","0.0-24.0-0.0-0.2","29102","List1A","black","woman","","","","","","","","survey_race","72","","","My age is not an important part of who I am.","filler"
"2612.2999999998137","","","html-slider-response","431","2343038","0.0-24.0-0.0-0.3","29102","List1A","black","woman","","","","","","","","survey_race","89","","","Being my race gives me a good feeling.","feeling"
"4055.5","","","html-slider-response","432","2347095","0.0-24.0-0.0-0.4","29102","List1A","black","woman","","","","","","","","survey_race","60","","","Getting older does not worry me.","filler"
"8581.5","","","html-slider-response","433","2355676","0.0-24.0-0.0-0.5","29102","List1A","black","woman","","","","","","","","survey_race","100","","","I often think about the fact that I am my age.","filler"
"4972.100000000559","","","html-slider-response","434","2360649","0.0-24.0-0.0-0.6","29102","List1A","black","woman","","","","","","","","survey_race","84","","","I have a lot in common with the average person of my race.","average"
"3933.300000000745","","","html-slider-response","435","2364584","0.0-24.0-0.0-0.7","29102","List1A","black","woman","","","","","","","","survey_race","100","","","I consider myself an introvert.","filler"
"5325.0999999996275","","","html-slider-response","436","2369910","0.0-24.0-0.0-0.8","29102","List1A","black","woman","","","","","","","","survey_race","79","","","It is pleasant to be my race.","pleasant"
"3869.7000000001863","","","html-slider-response","437","2373781","0.0-24.0-0.0-0.9","29102","List1A","black","woman","","","","","","","","survey_race","31","","","The older I get, the wiser I feel.","filler"
"4756.700000000186","","","html-slider-response","438","2378539","0.0-24.0-0.0-0.10","29102","List1A","black","woman","","","","","","","","survey_race","36","","","People of my race are very similar to each other.","verysimilar"
"6830.700000000186","","","html-slider-response","439","2385371","0.0-24.0-0.0-0.11","29102","List1A","black","woman","","","","","","","","survey_race","70","","","I feel committed to my race.","committed"
"4094.9000000003725","","","html-slider-response","440","2389468","0.0-24.0-0.0-0.12","29102","List1A","black","woman","","","","","","","","survey_race","100","","","I am glad to be my race.","glad"
"5514.899999999441","","","html-slider-response","441","2394985","0.0-24.0-0.0-0.13","29102","List1A","black","woman","","","","","","","","survey_race","99","","","Being my age gives me a good feeling.","filler"
"6081.600000000559","","","html-slider-response","442","2401067","0.0-24.0-0.0-0.14","29102","List1A","black","woman","","","","","","","","survey_race","63","","","I feel a bond with people the same age as me.","filler"
"6043.299999999814","","","html-slider-response","443","2407112","0.0-24.0-0.0-0.15","29102","List1A","black","woman","","","","","","","","survey_race","54","","","People my age have a lot in common with each other.","filler"
"5795.300000000745","","","html-slider-response","444","2412908","0.0-24.0-0.0-0.16","29102","List1A","black","woman","","","","","","","","survey_race","57","","","I feel solidarity with my race.","solidarity"
"10371.899999999441","","","html-slider-response","445","2423281","0.0-24.0-0.0-0.17","29102","List1A","black","woman","","","","","","","","survey_race","54","","","People of my race have a lot in common with each other.","common"
"3761.7000000001863","","","html-slider-response","446","2427044","0.0-24.0-0.0-0.18","29102","List1A","black","woman","","","","","","","","survey_race","81","","","I think that my race has a lot to be proud of.","proud"
"3485.399999999441","","","html-slider-response","447","2430530","0.0-24.0-0.0-0.19","29102","List1A","black","woman","","","","","","","","survey_race","53","","","I am similar to the average person of my race.","similar"
"4130","","","html-slider-response","448","2434661","0.0-24.0-0.0-0.20","29102","List1A","black","woman","","","","","","","","survey_race","67","","","I feel a bond with my race.","bond"
"6134","","","html-slider-response","449","2440797","0.0-24.0-0.0-0.21","29102","List1A","black","woman","","","","","","","","survey_race","100","","","The fact that I am my race is an important part of my identity.","identity"
"4523.600000000559","","","html-slider-response","450","2445321","0.0-24.0-0.0-0.22","29102","List1A","black","woman","","","","","","","","survey_race","45","","","I consider myself an extrovert.","filler"
"4581.100000000559","","","html-slider-response","451","2449903","0.0-24.0-0.0-0.23","29102","List1A","black","woman","","","","","","","","survey_race","83","","","I am glad to be the age I am.","filler"
"4086.5","","","html-slider-response","452","2453991","0.0-24.0-0.0-0.24","29102","List1A","black","woman","","","","","","","","survey_race","81","","","I enjoy being in large groups.","filler"
"7741.899999999441","","","html-slider-response","453","2461734","0.0-24.0-0.0-0.25","29102","List1A","black","woman","","","","","","","","survey_race","77","","","I have a lot in common with people of a similar age to me.","filler"
"12698.100000000559","","","html-slider-response","454","2474434","0.0-24.0-0.0-0.26","29102","List1A","black","woman","","","","","","","","survey_race","98","","","I often think about the fact that I am my race.","often"
"7450.100000000559","","","html-slider-response","455","2481884","0.0-24.0-0.0-0.27","29102","List1A","black","woman","","","","","","","","survey_race","75","","","I feel solidarity with people the same age as me.","filler"
"9499.099999999627","","","html-slider-response","456","2491384","0.0-24.0-1.0-0.0","29102","List1A","black","woman","","","","","","","","survey_gender","89","","","People of my gender have a lot in common with each other.","common"
"10958.299999999814","","","html-slider-response","457","2502344","0.0-24.0-1.0-0.1","29102","List1A","black","woman","","","","","","","","survey_gender","81","","","I often think about my actions.","filler"
"6681","","","html-slider-response","458","2509026","0.0-24.0-1.0-0.2","29102","List1A","black","woman","","","","","","","","survey_gender","74","","","I have a lot in common with my friends.","filler"
"3983.2999999998137","","","html-slider-response","459","2513011","0.0-24.0-1.0-0.3","29102","List1A","black","woman","","","","","","","","survey_gender","100","","","I consider myself a highly empathetic person.","filler"
"12715.099999999627","","","html-slider-response","460","2525727","0.0-24.0-1.0-0.4","29102","List1A","black","woman","","","","","","","","survey_gender","69","","","My friends have a lot in common with each other.","filler"
"3790.100000000559","","","html-slider-response","461","2529518","0.0-24.0-1.0-0.5","29102","List1A","black","woman","","","","","","","","survey_gender","92","","","I would say I am an animal person.","filler"
"2571.7000000001863","","","html-slider-response","462","2532091","0.0-24.0-1.0-0.6","29102","List1A","black","woman","","","","","","","","survey_gender","99","","","I am glad to be my gender.","glad"
"9120.799999999814","","","html-slider-response","463","2541212","0.0-24.0-1.0-0.7","29102","List1A","black","woman","","","","","","","","survey_gender","96","","","Being my gender is an important part of how I see myself.","important"
"16483.099999999627","","","html-slider-response","464","2557696","0.0-24.0-1.0-0.8","29102","List1A","black","woman","","","","","","","","survey_gender","100","","","The fact that I am my gender is an important part of my identity.","identity"
"3747.5999999996275","","","html-slider-response","465","2561445","0.0-24.0-1.0-0.9","29102","List1A","black","woman","","","","","","","","survey_gender","100","","","Being my gender gives me a good feeling.","feeling"
"4649.299999999814","","","html-slider-response","466","2566096","0.0-24.0-1.0-0.10","29102","List1A","black","woman","","","","","","","","survey_gender","76","","","My friends understand me.","filler"
"7157.9000000003725","","","html-slider-response","467","2573256","0.0-24.0-1.0-0.11","29102","List1A","black","woman","","","","","","","","survey_gender","100","","","I am glad to have the friends that I have.","filler"
"5784","","","html-slider-response","468","2579041","0.0-24.0-1.0-0.12","29102","List1A","black","woman","","","","","","","","survey_gender","85","","","It is not always easy for people to know what I am thinking.","filler"
"9306.700000000186","","","html-slider-response","469","2588349","0.0-24.0-1.0-0.13","29102","List1A","black","woman","","","","","","","","survey_gender","49","","","Family is not more important to me than friendship.","filler"
"3334.2999999998137","","","html-slider-response","470","2591684","0.0-24.0-1.0-0.14","29102","List1A","black","woman","","","","","","","","survey_gender","74","","","People of my gender are very similar to each other.","verysimilar"
"7426.5999999996275","","","html-slider-response","471","2599112","0.0-24.0-1.0-0.15","29102","List1A","black","woman","","","","","","","","survey_gender","100","","","I think that my gender has a lot to be proud of.","proud"
"3304.2999999998137","","","html-slider-response","472","2602416","0.0-24.0-1.0-0.16","29102","List1A","black","woman","","","","","","","","survey_gender","98","","","I feel committed to my gender.","committed"
"4301.5","","","html-slider-response","473","2606719","0.0-24.0-1.0-0.17","29102","List1A","black","woman","","","","","","","","survey_gender","69","","","I have a lot in common with the average person of my gender.","average"
"4798.5","","","html-slider-response","474","2611519","0.0-24.0-1.0-0.18","29102","List1A","black","woman","","","","","","","","survey_gender","91","","","I feel a bond with my gender.","bond"
