"rt","stimulus","button_pressed","trial_type","trial_index","time_elapsed","internal_node_id","subject","list","ppt_race","ppt_gender","url","first_guess","correct","key_press","responses","image_type","phrase_type","test_part","response","stimulus1","stimulus2","question_type","survey_item"
"115789.19999885559","Welcome to the experiment. Press Continue to begin.","0","html-button-response","0","115801","0.0-0.0","29226","List1A","white","woman","","","","","","","","","","","","",""
"103757.30000114441","","","external-html","1","221256","0.0-1.0","29226","List1A","white","woman","consent.html","","","","","","","","","","","",""
"19944.20000076294","<p>On the next page, you will see portraits of 8 people and their names.</p><p>Your first task is to take a few minutes to memorise the names of these people.</p><p>You will have to recall their names during the rest of the experiment, so it is</p><p>essential that you try to memorise these people and their names as best as you can.</p><br><p><strong>You will then be tested on your memory of these names and portraits.</strong></p><br><p>The experiment will start after you have completed this memory test.</p><br><p>Ready?</p>","0","html-button-response","2","241206","0.0-2.0","29226","List1A","white","woman","","","","","","","","","","","","",""
"79822.5","<img src='img/portrait_matrix_list1.jpg' style='width:900px;height:500px;''></img><p>If you have memorised all the portraits and names and are ready to start, press Continue.</p><p><strong>Please note: Your memory of these faces will be tested 4 times during this experiment.</strong></p>","0","html-button-response","3","322030","0.0-3.0-0.0","29226","List1A","white","woman","","","","","","","","","","","","",""
"3783.3999996185303","<img src=""portrait/BM1.jpg""style=""height:400px;""></img>","4","html-button-response","4","326837","0.0-3.0-1.0","29226","List1A","white","woman","","true","4","","","","","","","","","",""
"null","CORRECT","","html-keyboard-response","5","328366","0.0-3.0-2.0-0.0","29226","List1A","white","woman","","","","null","","","","","","","","",""
"3800.300001144409","<img src=""portrait/BM2.jpg""style=""height:400px;""></img>","5","html-button-response","6","332170","0.0-3.0-4.0","29226","List1A","white","woman","","true","5","","","","","","","","","",""
"null","CORRECT","","html-keyboard-response","7","333690","0.0-3.0-5.0-0.0","29226","List1A","white","woman","","","","null","","","","","","","","",""
"5342.5","<img src=""portrait/WW1.jpg""style=""height:400px;""></img>","3","html-button-response","8","339038","0.0-3.0-7.0","29226","List1A","white","woman","","true","1","","","","","","","","","",""
"2744.199998855591","<img src=""portrait/WW1.jpg""style=""height:400px;""></img>","1","html-button-response","9","342792","0.0-3.0-9.0-0.0","29226","List1A","white","woman","","false","1","","","","","","","","","",""
"null","CORRECT","","html-keyboard-response","10","344316","0.0-3.0-9.0-1.0-0.0","29226","List1A","white","woman","","","","null","","","","","","","","",""
"5500.200000762939","<img src=""portrait/BW1.jpg""style=""height:400px;""></img>","1","html-button-response","11","349821","0.0-3.0-10.0","29226","List1A","white","woman","","true","0","","","","","","","","","",""
"2966.699998855591","<img src=""portrait/BW1.jpg""style=""height:400px;""></img>","0","html-button-response","12","353812","0.0-3.0-12.0-0.0","29226","List1A","white","woman","","false","0","","","","","","","","","",""
"null","CORRECT","","html-keyboard-response","13","355336","0.0-3.0-12.0-1.0-0.0","29226","List1A","white","woman","","","","null","","","","","","","","",""
"4013.3999996185303","<img src=""portrait/WM2.jpg""style=""height:400px;""></img>","7","html-button-response","14","359353","0.0-3.0-13.0","29226","List1A","white","woman","","true","7","","","","","","","","","",""
"null","CORRECT","","html-keyboard-response","15","360870","0.0-3.0-14.0-0.0","29226","List1A","white","woman","","","","null","","","","","","","","",""
"2848","<img src=""portrait/WW2.jpg""style=""height:400px;""></img>","3","html-button-response","16","363723","0.0-3.0-16.0","29226","List1A","white","woman","","true","3","","","","","","","","","",""
"null","CORRECT","","html-keyboard-response","17","365250","0.0-3.0-17.0-0.0","29226","List1A","white","woman","","","","null","","","","","","","","",""
"3538.1000003814697","<img src=""portrait/WM1.jpg""style=""height:400px;""></img>","6","html-button-response","18","368791","0.0-3.0-19.0","29226","List1A","white","woman","","true","6","","","","","","","","","",""
"null","CORRECT","","html-keyboard-response","19","370319","0.0-3.0-20.0-0.0","29226","List1A","white","woman","","","","null","","","","","","","","",""
"2598.699998855591","<img src=""portrait/BW2.jpg""style=""height:400px;""></img>","2","html-button-response","20","372921","0.0-3.0-22.0","29226","List1A","white","woman","","true","2","","","","","","","","","",""
"null","CORRECT","","html-keyboard-response","21","374449","0.0-3.0-23.0-0.0","29226","List1A","white","woman","","","","null","","","","","","","","",""
"2112.5","<p>You got 6 out of 8 right first time. Press Continue.</p>","0","html-button-response","22","376575","0.0-3.0-25.0","29226","List1A","white","woman","","","","","","","","","","","","",""
"2353.7999992370605","As you did not score 100%, the memory game will repeat. Press Continue.","0","html-button-response","23","379935","0.0-3.0-26.0-0.0","29226","List1A","white","woman","","","","","","","","","","","","",""
"34057.70000076294","<img src='img/portrait_matrix_list1.jpg' style='width:900px;height:500px;''></img><p>If you have memorised all the portraits and names and are ready to start, press Continue.</p><p><strong>Please note: Your memory of these faces will be tested 4 times during this experiment.</strong></p>","0","html-button-response","24","415006","0.0-3.1-0.1","29226","List1A","white","woman","","","","","","","","","","","","",""
"1738.6000003814697","<img src=""portrait/BM1.jpg""style=""height:400px;""></img>","4","html-button-response","25","417751","0.0-3.1-1.1","29226","List1A","white","woman","","true","4","","","","","","","","","",""
"null","CORRECT","","html-keyboard-response","26","419280","0.0-3.1-2.1-0.1","29226","List1A","white","woman","","","","null","","","","","","","","",""
"2689.6000003814697","<img src=""portrait/BM2.jpg""style=""height:400px;""></img>","5","html-button-response","27","421975","0.0-3.1-4.1","29226","List1A","white","woman","","true","5","","","","","","","","","",""
"null","CORRECT","","html-keyboard-response","28","423499","0.0-3.1-5.1-0.1","29226","List1A","white","woman","","","","null","","","","","","","","",""
"4279.10000038147","<img src=""portrait/WW1.jpg""style=""height:400px;""></img>","1","html-button-response","29","427782","0.0-3.1-7.1","29226","List1A","white","woman","","true","1","","","","","","","","","",""
"null","CORRECT","","html-keyboard-response","30","429310","0.0-3.1-8.1-0.1","29226","List1A","white","woman","","","","null","","","","","","","","",""
"4138","<img src=""portrait/BW1.jpg""style=""height:400px;""></img>","0","html-button-response","31","433456","0.0-3.1-10.1","29226","List1A","white","woman","","true","0","","","","","","","","","",""
"null","CORRECT","","html-keyboard-response","32","434974","0.0-3.1-11.1-0.1","29226","List1A","white","woman","","","","null","","","","","","","","",""
"1754.7999992370605","<img src=""portrait/WM2.jpg""style=""height:400px;""></img>","7","html-button-response","33","436734","0.0-3.1-13.1","29226","List1A","white","woman","","true","7","","","","","","","","","",""
"null","CORRECT","","html-keyboard-response","34","438258","0.0-3.1-14.1-0.1","29226","List1A","white","woman","","","","null","","","","","","","","",""
"1423.7000007629395","<img src=""portrait/WW2.jpg""style=""height:400px;""></img>","3","html-button-response","35","439689","0.0-3.1-16.1","29226","List1A","white","woman","","true","3","","","","","","","","","",""
"null","CORRECT","","html-keyboard-response","36","441216","0.0-3.1-17.1-0.1","29226","List1A","white","woman","","","","null","","","","","","","","",""
"2471.5","<img src=""portrait/WM1.jpg""style=""height:400px;""></img>","6","html-button-response","37","443691","0.0-3.1-19.1","29226","List1A","white","woman","","true","6","","","","","","","","","",""
"null","CORRECT","","html-keyboard-response","38","445243","0.0-3.1-20.1-0.1","29226","List1A","white","woman","","","","null","","","","","","","","",""
"1579.2000007629395","<img src=""portrait/BW2.jpg""style=""height:400px;""></img>","2","html-button-response","39","446826","0.0-3.1-22.1","29226","List1A","white","woman","","true","2","","","","","","","","","",""
"null","CORRECT","","html-keyboard-response","40","448351","0.0-3.1-23.1-0.1","29226","List1A","white","woman","","","","null","","","","","","","","",""
"1504.7000007629395","<p>You got 8 out of 8 right first time. Press Continue.</p>","0","html-button-response","41","449861","0.0-3.1-25.1","29226","List1A","white","woman","","","","","","","","","","","","",""
"65213.60000038147","<p>In this experiment, you will view photographs of the people from the memory game interacting.</p><p>By using the <strong>exact</strong> phrase given <i>after</i> the photograph appears and recalling the correct names of the people in the photographs, form a sentence describing the interaction. You do not need to capitalise names.</p><p>Type your answer in the space provided. Please complete every sentence before moving onto the next trial.</p><p>You will only have a few seconds to memorise each given photograph and phrase before you can respond, so try your best to focus.</p><p>An example is given below. Press 'Continue' when you are ready.</p><img src='img/speaking_example.jpg' style='width:800px;height:460px;''></img>","0","html-button-response","42","516091","0.0-4.0","29226","List1A","white","woman","","","","","","","","","","","","",""
"2254.7999992370605","<p>Before the experiment starts, you will watch two example trials. Press 'Continue'.</p>","0","html-button-response","43","519356","0.0-5.0","29226","List1A","white","woman","","","","","","","","","","","","",""
"null","<img src='img/play_eg.gif' style='height:400px;''></img>","","html-keyboard-response","44","522364","0.0-6.0","29226","List1A","white","woman","","","","null","","","","","","","","",""
"null","<p>is playing with</p>","","html-keyboard-response","45","524367","0.0-7.0","29226","List1A","white","woman","","","","null","","","","","","","","",""
"3570.099998474121","<p><b>Answer:</b> kate is playing with beth</p>","0","html-button-response","46","527940","0.0-8.0","29226","List1A","white","woman","","","","","","","","","","","","",""
"null","<img src='img/dance_eg.gif' style='height:400px;''></img>","","html-keyboard-response","47","530965","0.0-9.0","29226","List1A","white","woman","","","","null","","","","","","","","",""
"null","<p>is being entertained by</p>","","html-keyboard-response","48","532976","0.0-10.0","29226","List1A","white","woman","","","","null","","","","","","","","",""
"1630.6999988555908","<p><b>Answer:</b> luke is being entertained by dave</p>","0","html-button-response","49","534609","0.0-11.0","29226","List1A","white","woman","","","","","","","","","","","","",""
"5389.400001525879","<p>Ready to start the experiment?</p><br><p><strong>Remember to describe the picture using a full sentence,</strong></p><p><strong>that combines the names of the people with the <i>exact</i> phrase given.</strong></p><p><strong>To receive full payment you must do this correctly.</strong></p><p><strong> You do not need to capitalise names or use punctuation.</strong></p><br><p>Press 'Continue' to begin.</p>","0","html-button-response","50","541005","0.0-12.0","29226","List1A","white","woman","","","","","","","","","","","","",""
"null","<div style=""font-size:60px;"">+</div>","","html-keyboard-response","51","542522","0.0-13.0-0.0","29226","List1A","white","woman","","","","null","","","","","","","","",""
"null","<img src=""stim_listA/kiss8.gif""style=""height:400px;""></stim_listA>","","html-keyboard-response","52","544545","0.0-13.0-1.0","29226","List1A","white","woman","","","","null","","","","","","","","",""
"null","is being kissed by","","html-keyboard-response","53","546555","0.0-13.0-2.0","29226","List1A","white","woman","","","","null","","","","","","","","",""
"18618.39999961853","","","survey-text","54","565215","0.0-13.0-3.0","29226","List1A","white","woman","","","","","{""Q0"":""jane is being kissed by kate.""}","<img src=""stim_listA/kiss8.gif""style=""height:400px;""></stim_listA>","is being kissed by","","","","","",""
"null","<div style=""font-size:60px;"">+</div>","","html-keyboard-response","55","565730","0.0-13.0-0.1","29226","List1A","white","woman","","","","null","","","","","","","","",""
"null","<img src=""stim_listA/copy7.gif""style=""height:400px;""></stim_listA>","","html-keyboard-response","56","567747","0.0-13.0-1.1","29226","List1A","white","woman","","","","null","","","","","","","","",""
"null","is copying","","html-keyboard-response","57","569758","0.0-13.0-2.1","29226","List1A","white","woman","","","","null","","","","","","","","",""
"17267.10000038147","","","survey-text","58","587040","0.0-13.0-3.1","29226","List1A","white","woman","","","","","{""Q0"":""kate is begging jane.""}","<img src=""stim_listA/copy7.gif""style=""height:400px;""></stim_listA>","is copying","","","","","",""
"null","<div style=""font-size:60px;"">+</div>","","html-keyboard-response","59","587548","0.0-13.0-0.2","29226","List1A","white","woman","","","","null","","","","","","","","",""
"null","<img src=""stim_listA/greet3.gif""style=""height:400px;""></stim_listA>","","html-keyboard-response","60","589576","0.0-13.0-1.2","29226","List1A","white","woman","","","","null","","","","","","","","",""
"null","is greeting","","html-keyboard-response","61","591590","0.0-13.0-2.2","29226","List1A","white","woman","","","","null","","","","","","","","",""
"14338.79999923706","","","survey-text","62","605955","0.0-13.0-3.2","29226","List1A","white","woman","","","","","{""Q0"":""ruth is telling dave to stop. ""}","<img src=""stim_listA/greet3.gif""style=""height:400px;""></stim_listA>","is greeting","","","","","",""
"null","<div style=""font-size:60px;"">+</div>","","html-keyboard-response","63","606462","0.0-13.0-0.3","29226","List1A","white","woman","","","","null","","","","","","","","",""
"null","<img src=""stim_listA/touch8.gif""style=""height:400px;""></stim_listA>","","html-keyboard-response","64","608479","0.0-13.0-1.3","29226","List1A","white","woman","","","","null","","","","","","","","",""
"null","is being touched by","","html-keyboard-response","65","610489","0.0-13.0-2.3","29226","List1A","white","woman","","","","null","","","","","","","","",""
"9001.30000114441","","","survey-text","66","619513","0.0-13.0-3.3","29226","List1A","white","woman","","","","","{""Q0"":""ruth is being touched by beth.""}","<img src=""stim_listA/touch8.gif""style=""height:400px;""></stim_listA>","is being touched by","","","","","",""
"null","<div style=""font-size:60px;"">+</div>","","html-keyboard-response","67","620029","0.0-13.0-0.4","29226","List1A","white","woman","","","","null","","","","","","","","",""
"null","<img src=""stim_listA/shout6.gif""style=""height:400px;""></stim_listA>","","html-keyboard-response","68","622047","0.0-13.0-1.4","29226","List1A","white","woman","","","","null","","","","","","","","",""
"null","is being shouted at by","","html-keyboard-response","69","624064","0.0-13.0-2.4","29226","List1A","white","woman","","","","null","","","","","","","","",""
"11630.39999961853","","","survey-text","70","635703","0.0-13.0-3.4","29226","List1A","white","woman","","","","","{""Q0"":""mike is being shouted by dave.""}","<img src=""stim_listA/shout6.gif""style=""height:400px;""></stim_listA>","is being shouted at by","","","","","",""
"null","<div style=""font-size:60px;"">+</div>","","html-keyboard-response","71","636218","0.0-13.0-0.5","29226","List1A","white","woman","","","","null","","","","","","","","",""
"null","<img src=""stim_listA/challenge8.gif""style=""height:400px;""></stim_listA>","","html-keyboard-response","72","638224","0.0-13.0-1.5","29226","List1A","white","woman","","","","null","","","","","","","","",""
"null","is being challenged by","","html-keyboard-response","73","640235","0.0-13.0-2.5","29226","List1A","white","woman","","","","null","","","","","","","","",""
"10374.80000114441","","","survey-text","74","650621","0.0-13.0-3.5","29226","List1A","white","woman","","","","","{""Q0"":""jane is being challenged by beth.""}","<img src=""stim_listA/challenge8.gif""style=""height:400px;""></stim_listA>","is being challenged by","","","","","",""
"null","<div style=""font-size:60px;"">+</div>","","html-keyboard-response","75","651124","0.0-13.0-0.6","29226","List1A","white","woman","","","","null","","","","","","","","",""
"null","<img src=""stim_listA/touch1.gif""style=""height:400px;""></stim_listA>","","html-keyboard-response","76","653133","0.0-13.0-1.6","29226","List1A","white","woman","","","","null","","","","","","","","",""
"null","is touching","","html-keyboard-response","77","655136","0.0-13.0-2.6","29226","List1A","white","woman","","","","null","","","","","","","","",""
"7533.200000762939","","","survey-text","78","662684","0.0-13.0-3.6","29226","List1A","white","woman","","","","","{""Q0"":""mike is touching kate.""}","<img src=""stim_listA/touch1.gif""style=""height:400px;""></stim_listA>","is touching","","","","","",""
"null","<div style=""font-size:60px;"">+</div>","","html-keyboard-response","79","663193","0.0-13.0-0.7","29226","List1A","white","woman","","","","null","","","","","","","","",""
"null","<img src=""stim_listA/shout7.gif""style=""height:400px;""></stim_listA>","","html-keyboard-response","80","665200","0.0-13.0-1.7","29226","List1A","white","woman","","","","null","","","","","","","","",""
"null","is shouting at","","html-keyboard-response","81","667219","0.0-13.0-2.7","29226","List1A","white","woman","","","","null","","","","","","","","",""
"9326.79999923706","","","survey-text","82","676578","0.0-13.0-3.7","29226","List1A","white","woman","","","","","{""Q0"":""beth is shouting at ruth.""}","<img src=""stim_listA/shout7.gif""style=""height:400px;""></stim_listA>","is shouting at","","","","","",""
"null","<div style=""font-size:60px;"">+</div>","","html-keyboard-response","83","677091","0.0-13.0-0.8","29226","List1A","white","woman","","","","null","","","","","","","","",""
"null","<img src=""stim_listA/greet1.gif""style=""height:400px;""></stim_listA>","","html-keyboard-response","84","679102","0.0-13.0-1.8","29226","List1A","white","woman","","","","null","","","","","","","","",""
"null","is greeting","","html-keyboard-response","85","681116","0.0-13.0-2.8","29226","List1A","white","woman","","","","null","","","","","","","","",""
"8595.70000076294","","","survey-text","86","689730","0.0-13.0-3.8","29226","List1A","white","woman","","","","","{""Q0"":""mike is greeting beth.""}","<img src=""stim_listA/greet1.gif""style=""height:400px;""></stim_listA>","is greeting","","","","","",""
"null","<div style=""font-size:60px;"">+</div>","","html-keyboard-response","87","690239","0.0-13.0-0.9","29226","List1A","white","woman","","","","null","","","","","","","","",""
"null","<img src=""stim_listA/look1.gif""style=""height:400px;""></stim_listA>","","html-keyboard-response","88","692256","0.0-13.0-1.9","29226","List1A","white","woman","","","","null","","","","","","","","",""
"null","is looking at","","html-keyboard-response","89","694269","0.0-13.0-2.9","29226","List1A","white","woman","","","","null","","","","","","","","",""
"8996","","","survey-text","90","703284","0.0-13.0-3.9","29226","List1A","white","woman","","","","","{""Q0"":""fred is looking at beth.""}","<img src=""stim_listA/look1.gif""style=""height:400px;""></stim_listA>","is looking at","","","","","",""
"null","<div style=""font-size:60px;"">+</div>","","html-keyboard-response","91","703792","0.0-13.0-0.10","29226","List1A","white","woman","","","","null","","","","","","","","",""
"null","<img src=""stim_listA/oppose1.gif""style=""height:400px;""></stim_listA>","","html-keyboard-response","92","705805","0.0-13.0-1.10","29226","List1A","white","woman","","","","null","","","","","","","","",""
"null","is opposing","","html-keyboard-response","93","707809","0.0-13.0-2.10","29226","List1A","white","woman","","","","null","","","","","","","","",""
"17005.19999885559","","","survey-text","94","724834","0.0-13.0-3.10","29226","List1A","white","woman","","","","","{""Q0"":""mike is opposing kate. ""}","<img src=""stim_listA/oppose1.gif""style=""height:400px;""></stim_listA>","is opposing","","","","","",""
"null","<div style=""font-size:60px;"">+</div>","","html-keyboard-response","95","725340","0.0-13.0-0.11","29226","List1A","white","woman","","","","null","","","","","","","","",""
"null","<img src=""stim_listA/oppose3.gif""style=""height:400px;""></stim_listA>","","html-keyboard-response","96","727359","0.0-13.0-1.11","29226","List1A","white","woman","","","","null","","","","","","","","",""
"null","is opposing","","html-keyboard-response","97","729370","0.0-13.0-2.11","29226","List1A","white","woman","","","","null","","","","","","","","",""
"12562.20000076294","","","survey-text","98","741974","0.0-13.0-3.11","29226","List1A","white","woman","","","","","{""Q0"":""Dave is opposing jane.""}","<img src=""stim_listA/oppose3.gif""style=""height:400px;""></stim_listA>","is opposing","","","","","",""
"null","<div style=""font-size:60px;"">+</div>","","html-keyboard-response","99","742490","0.0-13.0-0.12","29226","List1A","white","woman","","","","null","","","","","","","","",""
"null","<img src=""stim_listA/hug8.gif""style=""height:400px;""></stim_listA>","","html-keyboard-response","100","744497","0.0-13.0-1.12","29226","List1A","white","woman","","","","null","","","","","","","","",""
"null","is being hugged by","","html-keyboard-response","101","746513","0.0-13.0-2.12","29226","List1A","white","woman","","","","null","","","","","","","","",""
"12851.099998474121","","","survey-text","102","759395","0.0-13.0-3.12","29226","List1A","white","woman","","","","","{""Q0"":""Jane is being hugged by kate.""}","<img src=""stim_listA/hug8.gif""style=""height:400px;""></stim_listA>","is being hugged by","","","","","",""
"null","<div style=""font-size:60px;"">+</div>","","html-keyboard-response","103","759908","0.0-13.0-0.13","29226","List1A","white","woman","","","","null","","","","","","","","",""
"null","<img src=""stim_listA/challenge1.gif""style=""height:400px;""></stim_listA>","","html-keyboard-response","104","761916","0.0-13.0-1.13","29226","List1A","white","woman","","","","null","","","","","","","","",""
"null","is challenging","","html-keyboard-response","105","763923","0.0-13.0-2.13","29226","List1A","white","woman","","","","null","","","","","","","","",""
"12208.39999961853","","","survey-text","106","776173","0.0-13.0-3.13","29226","List1A","white","woman","","","","","{""Q0"":""Beth is challenging Mike.""}","<img src=""stim_listA/challenge1.gif""style=""height:400px;""></stim_listA>","is challenging","","","","","",""
"null","<div style=""font-size:60px;"">+</div>","","html-keyboard-response","107","776678","0.0-13.0-0.14","29226","List1A","white","woman","","","","null","","","","","","","","",""
"null","<img src=""stim_listA/challenge4.gif""style=""height:400px;""></stim_listA>","","html-keyboard-response","108","778693","0.0-13.0-1.14","29226","List1A","white","woman","","","","null","","","","","","","","",""
"null","is being challenged by","","html-keyboard-response","109","780708","0.0-13.0-2.14","29226","List1A","white","woman","","","","null","","","","","","","","",""
"14667.30000114441","","","survey-text","110","795390","0.0-13.0-3.14","29226","List1A","white","woman","","","","","{""Q0"":""Luke is being challenged by Jane.""}","<img src=""stim_listA/challenge4.gif""style=""height:400px;""></stim_listA>","is being challenged by","","","","","",""
"null","<div style=""font-size:60px;"">+</div>","","html-keyboard-response","111","795908","0.0-13.0-0.15","29226","List1A","white","woman","","","","null","","","","","","","","",""
"null","<img src=""stim_listA/oppose6.gif""style=""height:400px;""></stim_listA>","","html-keyboard-response","112","797917","0.0-13.0-1.15","29226","List1A","white","woman","","","","null","","","","","","","","",""
"null","is being opposed by","","html-keyboard-response","113","799928","0.0-13.0-2.15","29226","List1A","white","woman","","","","null","","","","","","","","",""
"13846.60000038147","","","survey-text","114","813813","0.0-13.0-3.15","29226","List1A","white","woman","","","","","{""Q0"":""Fred is being opposed by Luke. ""}","<img src=""stim_listA/oppose6.gif""style=""height:400px;""></stim_listA>","is being opposed by","","","","","",""
"null","<div style=""font-size:60px;"">+</div>","","html-keyboard-response","115","814324","0.0-13.0-0.16","29226","List1A","white","woman","","","","null","","","","","","","","",""
"null","<img src=""stim_listA/greet8.gif""style=""height:400px;""></stim_listA>","","html-keyboard-response","116","816330","0.0-13.0-1.16","29226","List1A","white","woman","","","","null","","","","","","","","",""
"null","is being greeted by","","html-keyboard-response","117","818345","0.0-13.0-2.16","29226","List1A","white","woman","","","","null","","","","","","","","",""
"8655.5","","","survey-text","118","827041","0.0-13.0-3.16","29226","List1A","white","woman","","","","","{""Q0"":""Jane is being greeted by Beth. ""}","<img src=""stim_listA/greet8.gif""style=""height:400px;""></stim_listA>","is being greeted by","","","","","",""
"null","<div style=""font-size:60px;"">+</div>","","html-keyboard-response","119","827553","0.0-13.0-0.17","29226","List1A","white","woman","","","","null","","","","","","","","",""
"null","<img src=""stim_listA/look7.gif""style=""height:400px;""></stim_listA>","","html-keyboard-response","120","829561","0.0-13.0-1.17","29226","List1A","white","woman","","","","null","","","","","","","","",""
"null","is looking at","","html-keyboard-response","121","831566","0.0-13.0-2.17","29226","List1A","white","woman","","","","null","","","","","","","","",""
"9480.70000076294","","","survey-text","122","841061","0.0-13.0-3.17","29226","List1A","white","woman","","","","","{""Q0"":""Ruth is looking at Beth. ""}","<img src=""stim_listA/look7.gif""style=""height:400px;""></stim_listA>","is looking at","","","","","",""
"null","<div style=""font-size:60px;"">+</div>","","html-keyboard-response","123","841567","0.0-13.0-0.18","29226","List1A","white","woman","","","","null","","","","","","","","",""
"null","<img src=""stim_listA/oppose2.gif""style=""height:400px;""></stim_listA>","","html-keyboard-response","124","843580","0.0-13.0-1.18","29226","List1A","white","woman","","","","null","","","","","","","","",""
"null","is being opposed by","","html-keyboard-response","125","845592","0.0-13.0-2.18","29226","List1A","white","woman","","","","null","","","","","","","","",""
"9161.29999923706","","","survey-text","126","854771","0.0-13.0-3.18","29226","List1A","white","woman","","","","","{""Q0"":""Fred is opposed by Beth. ""}","<img src=""stim_listA/oppose2.gif""style=""height:400px;""></stim_listA>","is being opposed by","","","","","",""
"null","<div style=""font-size:60px;"">+</div>","","html-keyboard-response","127","855277","0.0-13.0-0.19","29226","List1A","white","woman","","","","null","","","","","","","","",""
"null","<img src=""stim_listA/oppose5.gif""style=""height:400px;""></stim_listA>","","html-keyboard-response","128","857294","0.0-13.0-1.19","29226","List1A","white","woman","","","","null","","","","","","","","",""
"null","is opposing","","html-keyboard-response","129","859306","0.0-13.0-2.19","29226","List1A","white","woman","","","","null","","","","","","","","",""
"8850.89999961853","","","survey-text","130","868199","0.0-13.0-3.19","29226","List1A","white","woman","","","","","{""Q0"":""Mike is opposing Dave. ""}","<img src=""stim_listA/oppose5.gif""style=""height:400px;""></stim_listA>","is opposing","","","","","",""
"8275.80000114441","<img src='img/portrait_matrix_list1.jpg' style='width:900px;height:500px;''></img><p>If you have memorised all the portraits and names and are ready to start, press Continue.</p><p><strong>Please note: Your memory of these faces will be tested 4 times during this experiment.</strong></p>","0","html-button-response","131","876479","0.0-14.0-0.0","29226","List1A","white","woman","","","","","","","","","","","","",""
"3533.5","<img src=""portrait/WW1.jpg""style=""height:400px;""></img>","1","html-button-response","132","881029","0.0-14.0-1.0","29226","List1A","white","woman","","true","1","","","","","","","","","",""
"null","CORRECT","","html-keyboard-response","133","882563","0.0-14.0-2.0-0.0","29226","List1A","white","woman","","","","null","","","","","","","","",""
"2411.8999996185303","<img src=""portrait/WM1.jpg""style=""height:400px;""></img>","6","html-button-response","134","884979","0.0-14.0-4.0","29226","List1A","white","woman","","true","6","","","","","","","","","",""
"null","CORRECT","","html-keyboard-response","135","886507","0.0-14.0-5.0-0.0","29226","List1A","white","woman","","","","null","","","","","","","","",""
"2736.8999996185303","<img src=""portrait/BM2.jpg""style=""height:400px;""></img>","5","html-button-response","136","889249","0.0-14.0-7.0","29226","List1A","white","woman","","true","5","","","","","","","","","",""
"null","CORRECT","","html-keyboard-response","137","890779","0.0-14.0-8.0-0.0","29226","List1A","white","woman","","","","null","","","","","","","","",""
"2058.1000003814697","<img src=""portrait/BW2.jpg""style=""height:400px;""></img>","2","html-button-response","138","892841","0.0-14.0-10.0","29226","List1A","white","woman","","true","2","","","","","","","","","",""
"null","CORRECT","","html-keyboard-response","139","894359","0.0-14.0-11.0-0.0","29226","List1A","white","woman","","","","null","","","","","","","","",""
"1979.3999996185303","<img src=""portrait/WM2.jpg""style=""height:400px;""></img>","7","html-button-response","140","896343","0.0-14.0-13.0","29226","List1A","white","woman","","true","7","","","","","","","","","",""
"null","CORRECT","","html-keyboard-response","141","897860","0.0-14.0-14.0-0.0","29226","List1A","white","woman","","","","null","","","","","","","","",""
"2068.2999992370605","<img src=""portrait/BW1.jpg""style=""height:400px;""></img>","0","html-button-response","142","899932","0.0-14.0-16.0","29226","List1A","white","woman","","true","0","","","","","","","","","",""
"null","CORRECT","","html-keyboard-response","143","901472","0.0-14.0-17.0-0.0","29226","List1A","white","woman","","","","null","","","","","","","","",""
"2062.3999996185303","<img src=""portrait/WW2.jpg""style=""height:400px;""></img>","3","html-button-response","144","903540","0.0-14.0-19.0","29226","List1A","white","woman","","true","3","","","","","","","","","",""
"null","CORRECT","","html-keyboard-response","145","905064","0.0-14.0-20.0-0.0","29226","List1A","white","woman","","","","null","","","","","","","","",""
"1881.3000011444092","<img src=""portrait/BM1.jpg""style=""height:400px;""></img>","4","html-button-response","146","906949","0.0-14.0-22.0","29226","List1A","white","woman","","true","4","","","","","","","","","",""
"null","CORRECT","","html-keyboard-response","147","908467","0.0-14.0-23.0-0.0","29226","List1A","white","woman","","","","null","","","","","","","","",""
"1591.8999996185303","<p>You got 8 out of 8 right first time. Press Continue.</p>","0","html-button-response","148","910061","0.0-14.0-25.0","29226","List1A","white","woman","","","","","","","","","","","","",""
"null","<div style=""font-size:60px;"">+</div>","","html-keyboard-response","149","911575","0.0-15.0-0.0","29226","List1A","white","woman","","","","null","","","","","","","","",""
"null","<img src=""stim_listA/oppose4.gif""style=""height:400px;""></stim_listA>","","html-keyboard-response","150","913592","0.0-15.0-1.0","29226","List1A","white","woman","","","","null","","","","","","","","",""
"null","is being opposed by","","html-keyboard-response","151","915596","0.0-15.0-2.0","29226","List1A","white","woman","","","","null","","","","","","","","",""
"13243","","","survey-text","152","928862","0.0-15.0-3.0","29226","List1A","white","woman","","","","","{""Q0"":""Luke is being opposed by Ruth.""}","<img src=""stim_listA/oppose4.gif""style=""height:400px;""></stim_listA>","is being opposed by","","","","","",""
"null","<div style=""font-size:60px;"">+</div>","","html-keyboard-response","153","929379","0.0-15.0-0.1","29226","List1A","white","woman","","","","null","","","","","","","","",""
"null","<img src=""stim_listA/shout1.gif""style=""height:400px;""></stim_listA>","","html-keyboard-response","154","931389","0.0-15.0-1.1","29226","List1A","white","woman","","","","null","","","","","","","","",""
"null","is shouting at","","html-keyboard-response","155","933392","0.0-15.0-2.1","29226","List1A","white","woman","","","","null","","","","","","","","",""
"10103.89999961853","","","survey-text","156","943538","0.0-15.0-3.1","29226","List1A","white","woman","","","","","{""Q0"":""Fred is shouting at Beth. ""}","<img src=""stim_listA/shout1.gif""style=""height:400px;""></stim_listA>","is shouting at","","","","","",""
"null","<div style=""font-size:60px;"">+</div>","","html-keyboard-response","157","944045","0.0-15.0-0.2","29226","List1A","white","woman","","","","null","","","","","","","","",""
"null","<img src=""stim_listA/hug4.gif""style=""height:400px;""></stim_listA>","","html-keyboard-response","158","946055","0.0-15.0-1.2","29226","List1A","white","woman","","","","null","","","","","","","","",""
"null","is being hugged by","","html-keyboard-response","159","948070","0.0-15.0-2.2","29226","List1A","white","woman","","","","null","","","","","","","","",""
"10029.80000114441","","","survey-text","160","958114","0.0-15.0-3.2","29226","List1A","white","woman","","","","","{""Q0"":""Jane is being hugged by dave.""}","<img src=""stim_listA/hug4.gif""style=""height:400px;""></stim_listA>","is being hugged by","","","","","",""
"null","<div style=""font-size:60px;"">+</div>","","html-keyboard-response","161","958620","0.0-15.0-0.3","29226","List1A","white","woman","","","","null","","","","","","","","",""
"null","<img src=""stim_listA/look3.gif""style=""height:400px;""></stim_listA>","","html-keyboard-response","162","960627","0.0-15.0-1.3","29226","List1A","white","woman","","","","null","","","","","","","","",""
"null","is looking at","","html-keyboard-response","163","962636","0.0-15.0-2.3","29226","List1A","white","woman","","","","null","","","","","","","","",""
"9239","","","survey-text","164","971894","0.0-15.0-3.3","29226","List1A","white","woman","","","","","{""Q0"":""Luke is looking at Ruth. ""}","<img src=""stim_listA/look3.gif""style=""height:400px;""></stim_listA>","is looking at","","","","","",""
"null","<div style=""font-size:60px;"">+</div>","","html-keyboard-response","165","972411","0.0-15.0-0.4","29226","List1A","white","woman","","","","null","","","","","","","","",""
"null","<img src=""stim_listA/seduce2.gif""style=""height:400px;""></stim_listA>","","html-keyboard-response","166","974426","0.0-15.0-1.4","29226","List1A","white","woman","","","","null","","","","","","","","",""
"null","is being seduced by","","html-keyboard-response","167","976432","0.0-15.0-2.4","29226","List1A","white","woman","","","","null","","","","","","","","",""
"11598.5","","","survey-text","168","988072","0.0-15.0-3.4","29226","List1A","white","woman","","","","","{""Q0"":""Beth is being seduced by Mike. ""}","<img src=""stim_listA/seduce2.gif""style=""height:400px;""></stim_listA>","is being seduced by","","","","","",""
"null","<div style=""font-size:60px;"">+</div>","","html-keyboard-response","169","988590","0.0-15.0-0.5","29226","List1A","white","woman","","","","null","","","","","","","","",""
"null","<img src=""stim_listA/kiss2.gif""style=""height:400px;""></stim_listA>","","html-keyboard-response","170","990605","0.0-15.0-1.5","29226","List1A","white","woman","","","","null","","","","","","","","",""
"null","is being kissed by","","html-keyboard-response","171","992621","0.0-15.0-2.5","29226","List1A","white","woman","","","","null","","","","","","","","",""
"9835.29999923706","","","survey-text","172","1002497","0.0-15.0-3.5","29226","List1A","white","woman","","","","","{""Q0"":""Mike is being kissed by Kate. ""}","<img src=""stim_listA/kiss2.gif""style=""height:400px;""></stim_listA>","is being kissed by","","","","","",""
"null","<div style=""font-size:60px;"">+</div>","","html-keyboard-response","173","1003011","0.0-15.0-0.6","29226","List1A","white","woman","","","","null","","","","","","","","",""
"null","<img src=""stim_listA/oppose7.gif""style=""height:400px;""></stim_listA>","","html-keyboard-response","174","1005022","0.0-15.0-1.6","29226","List1A","white","woman","","","","null","","","","","","","","",""
"null","is opposing","","html-keyboard-response","175","1007029","0.0-15.0-2.6","29226","List1A","white","woman","","","","null","","","","","","","","",""
"11119.5","","","survey-text","176","1018179","0.0-15.0-3.6","29226","List1A","white","woman","","","","","{""Q0"":""Kate is opposing Jane. ""}","<img src=""stim_listA/oppose7.gif""style=""height:400px;""></stim_listA>","is opposing","","","","","",""
"null","<div style=""font-size:60px;"">+</div>","","html-keyboard-response","177","1018697","0.0-15.0-0.7","29226","List1A","white","woman","","","","null","","","","","","","","",""
"null","<img src=""stim_listA/kiss1.gif""style=""height:400px;""></stim_listA>","","html-keyboard-response","178","1020721","0.0-15.0-1.7","29226","List1A","white","woman","","","","null","","","","","","","","",""
"null","is kissing","","html-keyboard-response","179","1022742","0.0-15.0-2.7","29226","List1A","white","woman","","","","null","","","","","","","","",""
"8103","","","survey-text","180","1030892","0.0-15.0-3.7","29226","List1A","white","woman","","","","","{""Q0"":""Fred is kissing Beth.""}","<img src=""stim_listA/kiss1.gif""style=""height:400px;""></stim_listA>","is kissing","","","","","",""
"null","<div style=""font-size:60px;"">+</div>","","html-keyboard-response","181","1031400","0.0-15.0-0.8","29226","List1A","white","woman","","","","null","","","","","","","","",""
"null","<img src=""stim_listA/hug6.gif""style=""height:400px;""></stim_listA>","","html-keyboard-response","182","1033411","0.0-15.0-1.8","29226","List1A","white","woman","","","","null","","","","","","","","",""
"null","is being hugged by","","html-keyboard-response","183","1035429","0.0-15.0-2.8","29226","List1A","white","woman","","","","null","","","","","","","","",""
"10743.900001525879","","","survey-text","184","1046192","0.0-15.0-3.8","29226","List1A","white","woman","","","","","{""Q0"":""Mike is being hugged by Dave.""}","<img src=""stim_listA/hug6.gif""style=""height:400px;""></stim_listA>","is being hugged by","","","","","",""
"null","<div style=""font-size:60px;"">+</div>","","html-keyboard-response","185","1046706","0.0-15.0-0.9","29226","List1A","white","woman","","","","null","","","","","","","","",""
"null","<img src=""stim_listA/copy4.gif""style=""height:400px;""></stim_listA>","","html-keyboard-response","186","1048711","0.0-15.0-1.9","29226","List1A","white","woman","","","","null","","","","","","","","",""
"null","is being copied by","","html-keyboard-response","187","1050715","0.0-15.0-2.9","29226","List1A","white","woman","","","","null","","","","","","","","",""
"9874.10000038147","","","survey-text","188","1060606","0.0-15.0-3.9","29226","List1A","white","woman","","","","","{""Q0"":""Jane is being copied by Luke.""}","<img src=""stim_listA/copy4.gif""style=""height:400px;""></stim_listA>","is being copied by","","","","","",""
"null","<div style=""font-size:60px;"">+</div>","","html-keyboard-response","189","1061120","0.0-15.0-0.10","29226","List1A","white","woman","","","","null","","","","","","","","",""
"null","<img src=""stim_listA/look4.gif""style=""height:400px;""></stim_listA>","","html-keyboard-response","190","1063138","0.0-15.0-1.10","29226","List1A","white","woman","","","","null","","","","","","","","",""
"null","is being looked at by","","html-keyboard-response","191","1065141","0.0-15.0-2.10","29226","List1A","white","woman","","","","null","","","","","","","","",""
"9273.70000076294","","","survey-text","192","1074452","0.0-15.0-3.10","29226","List1A","white","woman","","","","","{""Q0"":""Jane is being looked at by Dave. ""}","<img src=""stim_listA/look4.gif""style=""height:400px;""></stim_listA>","is being looked at by","","","","","",""
"null","<div style=""font-size:60px;"">+</div>","","html-keyboard-response","193","1074962","0.0-15.0-0.11","29226","List1A","white","woman","","","","null","","","","","","","","",""
"null","<img src=""stim_listA/greet6.gif""style=""height:400px;""></stim_listA>","","html-keyboard-response","194","1076972","0.0-15.0-1.11","29226","List1A","white","woman","","","","null","","","","","","","","",""
"null","is being greeted by","","html-keyboard-response","195","1078990","0.0-15.0-2.11","29226","List1A","white","woman","","","","null","","","","","","","","",""
"10252.39999961853","","","survey-text","196","1089261","0.0-15.0-3.11","29226","List1A","white","woman","","","","","{""Q0"":""Fred is being greeted by Dave. ""}","<img src=""stim_listA/greet6.gif""style=""height:400px;""></stim_listA>","is being greeted by","","","","","",""
"null","<div style=""font-size:60px;"">+</div>","","html-keyboard-response","197","1089772","0.0-15.0-0.12","29226","List1A","white","woman","","","","null","","","","","","","","",""
"null","<img src=""stim_listA/touch5.gif""style=""height:400px;""></stim_listA>","","html-keyboard-response","198","1091791","0.0-15.0-1.12","29226","List1A","white","woman","","","","null","","","","","","","","",""
"null","is touching","","html-keyboard-response","199","1093811","0.0-15.0-2.12","29226","List1A","white","woman","","","","null","","","","","","","","",""
"9052.29999923706","","","survey-text","200","1102893","0.0-15.0-3.12","29226","List1A","white","woman","","","","","{""Q0"":""Mike is touching Dave. ""}","<img src=""stim_listA/touch5.gif""style=""height:400px;""></stim_listA>","is touching","","","","","",""
"null","<div style=""font-size:60px;"">+</div>","","html-keyboard-response","201","1103397","0.0-15.0-0.13","29226","List1A","white","woman","","","","null","","","","","","","","",""
"null","<img src=""stim_listA/copy2.gif""style=""height:400px;""></stim_listA>","","html-keyboard-response","202","1105413","0.0-15.0-1.13","29226","List1A","white","woman","","","","null","","","","","","","","",""
"null","is being copied by","","html-keyboard-response","203","1107426","0.0-15.0-2.13","29226","List1A","white","woman","","","","null","","","","","","","","",""
"8351.60000038147","","","survey-text","204","1115793","0.0-15.0-3.13","29226","List1A","white","woman","","","","","{""Q0"":""Fred is being copied by Kate. ""}","<img src=""stim_listA/copy2.gif""style=""height:400px;""></stim_listA>","is being copied by","","","","","",""
"null","<div style=""font-size:60px;"">+</div>","","html-keyboard-response","205","1116307","0.0-15.0-0.14","29226","List1A","white","woman","","","","null","","","","","","","","",""
"null","<img src=""stim_listA/copy3.gif""style=""height:400px;""></stim_listA>","","html-keyboard-response","206","1118311","0.0-15.0-1.14","29226","List1A","white","woman","","","","null","","","","","","","","",""
"null","is copying","","html-keyboard-response","207","1120317","0.0-15.0-2.14","29226","List1A","white","woman","","","","null","","","","","","","","",""
"11194.69999885559","","","survey-text","208","1131573","0.0-15.0-3.14","29226","List1A","white","woman","","","","","{""Q0"":""Ruth is copying Dave. ""}","<img src=""stim_listA/copy3.gif""style=""height:400px;""></stim_listA>","is copying","","","","","",""
"null","<div style=""font-size:60px;"">+</div>","","html-keyboard-response","209","1132077","0.0-15.0-0.15","29226","List1A","white","woman","","","","null","","","","","","","","",""
"null","<img src=""stim_listA/oppose8.gif""style=""height:400px;""></stim_listA>","","html-keyboard-response","210","1134083","0.0-15.0-1.15","29226","List1A","white","woman","","","","null","","","","","","","","",""
"null","is being opposed by","","html-keyboard-response","211","1136096","0.0-15.0-2.15","29226","List1A","white","woman","","","","null","","","","","","","","",""
"14791.10000038147","","","survey-text","212","1150905","0.0-15.0-3.15","29226","List1A","white","woman","","","","","{""Q0"":""Ruth is being opposed by Beth. ""}","<img src=""stim_listA/oppose8.gif""style=""height:400px;""></stim_listA>","is being opposed by","","","","","",""
"null","<div style=""font-size:60px;"">+</div>","","html-keyboard-response","213","1151415","0.0-15.0-0.16","29226","List1A","white","woman","","","","null","","","","","","","","",""
"null","<img src=""stim_listA/touch6.gif""style=""height:400px;""></stim_listA>","","html-keyboard-response","214","1153428","0.0-15.0-1.16","29226","List1A","white","woman","","","","null","","","","","","","","",""
"null","is being touched by","","html-keyboard-response","215","1155434","0.0-15.0-2.16","29226","List1A","white","woman","","","","null","","","","","","","","",""
"16878.89999961853","","","survey-text","216","1172349","0.0-15.0-3.16","29226","List1A","white","woman","","","","","{""Q0"":""Luke is being touched by Dave. ""}","<img src=""stim_listA/touch6.gif""style=""height:400px;""></stim_listA>","is being touched by","","","","","",""
"null","<div style=""font-size:60px;"">+</div>","","html-keyboard-response","217","1172853","0.0-15.0-0.17","29226","List1A","white","woman","","","","null","","","","","","","","",""
"null","<img src=""stim_listA/challenge2.gif""style=""height:400px;""></stim_listA>","","html-keyboard-response","218","1174871","0.0-15.0-1.17","29226","List1A","white","woman","","","","null","","","","","","","","",""
"null","is being challenged by","","html-keyboard-response","219","1176883","0.0-15.0-2.17","29226","List1A","white","woman","","","","null","","","","","","","","",""
"22281.10000038147","","","survey-text","220","1199182","0.0-15.0-3.17","29226","List1A","white","woman","","","","","{""Q0"":""Fred is being copied by Kate.""}","<img src=""stim_listA/challenge2.gif""style=""height:400px;""></stim_listA>","is being challenged by","","","","","",""
"null","<div style=""font-size:60px;"">+</div>","","html-keyboard-response","221","1199693","0.0-15.0-0.18","29226","List1A","white","woman","","","","null","","","","","","","","",""
"null","<img src=""stim_listA/hug2.gif""style=""height:400px;""></stim_listA>","","html-keyboard-response","222","1201707","0.0-15.0-1.18","29226","List1A","white","woman","","","","null","","","","","","","","",""
"null","is being hugged by","","html-keyboard-response","223","1203715","0.0-15.0-2.18","29226","List1A","white","woman","","","","null","","","","","","","","",""
"13771.10000038147","","","survey-text","224","1217508","0.0-15.0-3.18","29226","List1A","white","woman","","","","","{""Q0"":""Kate is being hugged by Mike.""}","<img src=""stim_listA/hug2.gif""style=""height:400px;""></stim_listA>","is being hugged by","","","","","",""
"null","<div style=""font-size:60px;"">+</div>","","html-keyboard-response","225","1218024","0.0-15.0-0.19","29226","List1A","white","woman","","","","null","","","","","","","","",""
"null","<img src=""stim_listA/copy5.gif""style=""height:400px;""></stim_listA>","","html-keyboard-response","226","1220036","0.0-15.0-1.19","29226","List1A","white","woman","","","","null","","","","","","","","",""
"null","is copying","","html-keyboard-response","227","1222039","0.0-15.0-2.19","29226","List1A","white","woman","","","","null","","","","","","","","",""
"14279.20000076294","","","survey-text","228","1236376","0.0-15.0-3.19","29226","List1A","white","woman","","","","","{""Q0"":""i didn't pay attention.""}","<img src=""stim_listA/copy5.gif""style=""height:400px;""></stim_listA>","is copying","","","","","",""
"174428.39999961853","<img src='img/portrait_matrix_list1.jpg' style='width:900px;height:500px;''></img><p>If you have memorised all the portraits and names and are ready to start, press Continue.</p><p><strong>Please note: Your memory of these faces will be tested 4 times during this experiment.</strong></p>","0","html-button-response","229","1410812","0.0-16.0-0.0","29226","List1A","white","woman","","","","","","","","","","","","",""
"2728.900001525879","<img src=""portrait/WM2.jpg""style=""height:400px;""></img>","7","html-button-response","230","1414553","0.0-16.0-1.0","29226","List1A","white","woman","","true","7","","","","","","","","","",""
"null","CORRECT","","html-keyboard-response","231","1416080","0.0-16.0-2.0-0.0","29226","List1A","white","woman","","","","null","","","","","","","","",""
"1775.2999992370605","<img src=""portrait/BM2.jpg""style=""height:400px;""></img>","5","html-button-response","232","1417858","0.0-16.0-4.0","29226","List1A","white","woman","","true","5","","","","","","","","","",""
"null","CORRECT","","html-keyboard-response","233","1419375","0.0-16.0-5.0-0.0","29226","List1A","white","woman","","","","null","","","","","","","","",""
"1426.7000007629395","<img src=""portrait/BM1.jpg""style=""height:400px;""></img>","4","html-button-response","234","1420807","0.0-16.0-7.0","29226","List1A","white","woman","","true","4","","","","","","","","","",""
"null","CORRECT","","html-keyboard-response","235","1422340","0.0-16.0-8.0-0.0","29226","List1A","white","woman","","","","null","","","","","","","","",""
"1504.5","<img src=""portrait/WW2.jpg""style=""height:400px;""></img>","3","html-button-response","236","1423849","0.0-16.0-10.0","29226","List1A","white","woman","","true","3","","","","","","","","","",""
"null","CORRECT","","html-keyboard-response","237","1425372","0.0-16.0-11.0-0.0","29226","List1A","white","woman","","","","null","","","","","","","","",""
"1934.7000007629395","<img src=""portrait/BW1.jpg""style=""height:400px;""></img>","0","html-button-response","238","1427312","0.0-16.0-13.0","29226","List1A","white","woman","","true","0","","","","","","","","","",""
"null","CORRECT","","html-keyboard-response","239","1428848","0.0-16.0-14.0-0.0","29226","List1A","white","woman","","","","null","","","","","","","","",""
"1586.8999996185303","<img src=""portrait/BW2.jpg""style=""height:400px;""></img>","2","html-button-response","240","1430440","0.0-16.0-16.0","29226","List1A","white","woman","","true","2","","","","","","","","","",""
"null","CORRECT","","html-keyboard-response","241","1431956","0.0-16.0-17.0-0.0","29226","List1A","white","woman","","","","null","","","","","","","","",""
"1460.3999996185303","<img src=""portrait/WW1.jpg""style=""height:400px;""></img>","1","html-button-response","242","1433420","0.0-16.0-19.0","29226","List1A","white","woman","","true","1","","","","","","","","","",""
"null","CORRECT","","html-keyboard-response","243","1434931","0.0-16.0-20.0-0.0","29226","List1A","white","woman","","","","null","","","","","","","","",""
"2324.199998855591","<img src=""portrait/WM1.jpg""style=""height:400px;""></img>","6","html-button-response","244","1437260","0.0-16.0-22.0","29226","List1A","white","woman","","true","6","","","","","","","","","",""
"null","CORRECT","","html-keyboard-response","245","1438792","0.0-16.0-23.0-0.0","29226","List1A","white","woman","","","","null","","","","","","","","",""
"1336","<p>You got 8 out of 8 right first time. Press Continue.</p>","0","html-button-response","246","1440132","0.0-16.0-25.0","29226","List1A","white","woman","","","","","","","","","","","","",""
"null","<div style=""font-size:60px;"">+</div>","","html-keyboard-response","247","1441655","0.0-17.0-0.0","29226","List1A","white","woman","","","","null","","","","","","","","",""
"null","<img src=""stim_listA/greet7.gif""style=""height:400px;""></stim_listA>","","html-keyboard-response","248","1443659","0.0-17.0-1.0","29226","List1A","white","woman","","","","null","","","","","","","","",""
"null","is greeting","","html-keyboard-response","249","1445663","0.0-17.0-2.0","29226","List1A","white","woman","","","","null","","","","","","","","",""
"10254.5","","","survey-text","250","1455938","0.0-17.0-3.0","29226","List1A","white","woman","","","","","{""Q0"":""Ruth is greeting Kate. ""}","<img src=""stim_listA/greet7.gif""style=""height:400px;""></stim_listA>","is greeting","","","","","",""
"null","<div style=""font-size:60px;"">+</div>","","html-keyboard-response","251","1456451","0.0-17.0-0.1","29226","List1A","white","woman","","","","null","","","","","","","","",""
"null","<img src=""stim_listA/kiss5.gif""style=""height:400px;""></stim_listA>","","html-keyboard-response","252","1458470","0.0-17.0-1.1","29226","List1A","white","woman","","","","null","","","","","","","","",""
"null","is kissing","","html-keyboard-response","253","1460484","0.0-17.0-2.1","29226","List1A","white","woman","","","","null","","","","","","","","",""
"9466.30000114441","","","survey-text","254","1469965","0.0-17.0-3.1","29226","List1A","white","woman","","","","","{""Q0"":""Fred is kissing Luke. ""}","<img src=""stim_listA/kiss5.gif""style=""height:400px;""></stim_listA>","is kissing","","","","","",""
"null","<div style=""font-size:60px;"">+</div>","","html-keyboard-response","255","1470479","0.0-17.0-0.2","29226","List1A","white","woman","","","","null","","","","","","","","",""
"null","<img src=""stim_listA/touch4.gif""style=""height:400px;""></stim_listA>","","html-keyboard-response","256","1472497","0.0-17.0-1.2","29226","List1A","white","woman","","","","null","","","","","","","","",""
"null","is being touched by","","html-keyboard-response","257","1474504","0.0-17.0-2.2","29226","List1A","white","woman","","","","null","","","","","","","","",""
"10929.89999961853","","","survey-text","258","1485453","0.0-17.0-3.2","29226","List1A","white","woman","","","","","{""Q0"":""Ruth is being touched by Luke. ""}","<img src=""stim_listA/touch4.gif""style=""height:400px;""></stim_listA>","is being touched by","","","","","",""
"null","<div style=""font-size:60px;"">+</div>","","html-keyboard-response","259","1485971","0.0-17.0-0.3","29226","List1A","white","woman","","","","null","","","","","","","","",""
"null","<img src=""stim_listA/hug3.gif""style=""height:400px;""></stim_listA>","","html-keyboard-response","260","1487982","0.0-17.0-1.3","29226","List1A","white","woman","","","","null","","","","","","","","",""
"null","is hugging","","html-keyboard-response","261","1489993","0.0-17.0-2.3","29226","List1A","white","woman","","","","null","","","","","","","","",""
"7767.800001144409","","","survey-text","262","1497791","0.0-17.0-3.3","29226","List1A","white","woman","","","","","{""Q0"":""Ruth is hugging Luke. ""}","<img src=""stim_listA/hug3.gif""style=""height:400px;""></stim_listA>","is hugging","","","","","",""
"null","<div style=""font-size:60px;"">+</div>","","html-keyboard-response","263","1498305","0.0-17.0-0.4","29226","List1A","white","woman","","","","null","","","","","","","","",""
"null","<img src=""stim_listA/hug5.gif""style=""height:400px;""></stim_listA>","","html-keyboard-response","264","1500322","0.0-17.0-1.4","29226","List1A","white","woman","","","","null","","","","","","","","",""
"null","is hugging","","html-keyboard-response","265","1502325","0.0-17.0-2.4","29226","List1A","white","woman","","","","null","","","","","","","","",""
"11592.69999885559","","","survey-text","266","1513951","0.0-17.0-3.4","29226","List1A","white","woman","","","","","{""Q0"":""Fred is hugging Luke. ""}","<img src=""stim_listA/hug5.gif""style=""height:400px;""></stim_listA>","is hugging","","","","","",""
"null","<div style=""font-size:60px;"">+</div>","","html-keyboard-response","267","1514471","0.0-17.0-0.5","29226","List1A","white","woman","","","","null","","","","","","","","",""
"null","<img src=""stim_listA/copy1.gif""style=""height:400px;""></stim_listA>","","html-keyboard-response","268","1516479","0.0-17.0-1.5","29226","List1A","white","woman","","","","null","","","","","","","","",""
"null","is copying","","html-keyboard-response","269","1518489","0.0-17.0-2.5","29226","List1A","white","woman","","","","null","","","","","","","","",""
"9562.5","","","survey-text","270","1528067","0.0-17.0-3.5","29226","List1A","white","woman","","","","","{""Q0"":""Beth is copying Mike. ""}","<img src=""stim_listA/copy1.gif""style=""height:400px;""></stim_listA>","is copying","","","","","",""
"null","<div style=""font-size:60px;"">+</div>","","html-keyboard-response","271","1528573","0.0-17.0-0.6","29226","List1A","white","woman","","","","null","","","","","","","","",""
"null","<img src=""stim_listA/seduce8.gif""style=""height:400px;""></stim_listA>","","html-keyboard-response","272","1530583","0.0-17.0-1.6","29226","List1A","white","woman","","","","null","","","","","","","","",""
"null","is being seduced by","","html-keyboard-response","273","1532599","0.0-17.0-2.6","29226","List1A","white","woman","","","","null","","","","","","","","",""
"10267.69999885559","","","survey-text","274","1542889","0.0-17.0-3.6","29226","List1A","white","woman","","","","","{""Q0"":""Ruth is being seduced by Kate. ""}","<img src=""stim_listA/seduce8.gif""style=""height:400px;""></stim_listA>","is being seduced by","","","","","",""
"null","<div style=""font-size:60px;"">+</div>","","html-keyboard-response","275","1543402","0.0-17.0-0.7","29226","List1A","white","woman","","","","null","","","","","","","","",""
"null","<img src=""stim_listA/challenge6.gif""style=""height:400px;""></stim_listA>","","html-keyboard-response","276","1545427","0.0-17.0-1.7","29226","List1A","white","woman","","","","null","","","","","","","","",""
"null","is being challenged by","","html-keyboard-response","277","1547442","0.0-17.0-2.7","29226","List1A","white","woman","","","","null","","","","","","","","",""
"12877","","","survey-text","278","1560335","0.0-17.0-3.7","29226","List1A","white","woman","","","","","{""Q0"":""Dave is being challenged by Fred. ""}","<img src=""stim_listA/challenge6.gif""style=""height:400px;""></stim_listA>","is being challenged by","","","","","",""
"null","<div style=""font-size:60px;"">+</div>","","html-keyboard-response","279","1560852","0.0-17.0-0.8","29226","List1A","white","woman","","","","null","","","","","","","","",""
"null","<img src=""stim_listA/look5.gif""style=""height:400px;""></stim_listA>","","html-keyboard-response","280","1562868","0.0-17.0-1.8","29226","List1A","white","woman","","","","null","","","","","","","","",""
"null","is looking at","","html-keyboard-response","281","1564872","0.0-17.0-2.8","29226","List1A","white","woman","","","","null","","","","","","","","",""
"11644.39999961853","","","survey-text","282","1576557","0.0-17.0-3.8","29226","List1A","white","woman","","","","","{""Q0"":""Fred is looking at Luke. ""}","<img src=""stim_listA/look5.gif""style=""height:400px;""></stim_listA>","is looking at","","","","","",""
"null","<div style=""font-size:60px;"">+</div>","","html-keyboard-response","283","1577069","0.0-17.0-0.9","29226","List1A","white","woman","","","","null","","","","","","","","",""
"null","<img src=""stim_listA/copy8.gif""style=""height:400px;""></stim_listA>","","html-keyboard-response","284","1579088","0.0-17.0-1.9","29226","List1A","white","woman","","","","null","","","","","","","","",""
"null","is being copied by","","html-keyboard-response","285","1581091","0.0-17.0-2.9","29226","List1A","white","woman","","","","null","","","","","","","","",""
"11508.70000076294","","","survey-text","286","1592615","0.0-17.0-3.9","29226","List1A","white","woman","","","","","{""Q0"":""Jane is being copied by Beth. ""}","<img src=""stim_listA/copy8.gif""style=""height:400px;""></stim_listA>","is being copied by","","","","","",""
"null","<div style=""font-size:60px;"">+</div>","","html-keyboard-response","287","1593124","0.0-17.0-0.10","29226","List1A","white","woman","","","","null","","","","","","","","",""
"null","<img src=""stim_listA/shout2.gif""style=""height:400px;""></stim_listA>","","html-keyboard-response","288","1595139","0.0-17.0-1.10","29226","List1A","white","woman","","","","null","","","","","","","","",""
"null","is being shouted at by","","html-keyboard-response","289","1597154","0.0-17.0-2.10","29226","List1A","white","woman","","","","null","","","","","","","","",""
"12564.10000038147","","","survey-text","290","1609737","0.0-17.0-3.10","29226","List1A","white","woman","","","","","{""Q0"":""Kate is being shouted at by Mike. ""}","<img src=""stim_listA/shout2.gif""style=""height:400px;""></stim_listA>","is being shouted at by","","","","","",""
"null","<div style=""font-size:60px;"">+</div>","","html-keyboard-response","291","1610244","0.0-17.0-0.11","29226","List1A","white","woman","","","","null","","","","","","","","",""
"null","<img src=""stim_listA/kiss7.gif""style=""height:400px;""></stim_listA>","","html-keyboard-response","292","1612255","0.0-17.0-1.11","29226","List1A","white","woman","","","","null","","","","","","","","",""
"null","is kissing","","html-keyboard-response","293","1614266","0.0-17.0-2.11","29226","List1A","white","woman","","","","null","","","","","","","","",""
"8692.10000038147","","","survey-text","294","1622973","0.0-17.0-3.11","29226","List1A","white","woman","","","","","{""Q0"":""Ruth is kissing Beth. ""}","<img src=""stim_listA/kiss7.gif""style=""height:400px;""></stim_listA>","is kissing","","","","","",""
"null","<div style=""font-size:60px;"">+</div>","","html-keyboard-response","295","1623489","0.0-17.0-0.12","29226","List1A","white","woman","","","","null","","","","","","","","",""
"null","<img src=""stim_listA/seduce1.gif""style=""height:400px;""></stim_listA>","","html-keyboard-response","296","1625494","0.0-17.0-1.12","29226","List1A","white","woman","","","","null","","","","","","","","",""
"null","is seducing","","html-keyboard-response","297","1627499","0.0-17.0-2.12","29226","List1A","white","woman","","","","null","","","","","","","","",""
"9144.89999961853","","","survey-text","298","1636659","0.0-17.0-3.12","29226","List1A","white","woman","","","","","{""Q0"":""Kate is seducing Fred. ""}","<img src=""stim_listA/seduce1.gif""style=""height:400px;""></stim_listA>","is seducing","","","","","",""
"null","<div style=""font-size:60px;"">+</div>","","html-keyboard-response","299","1637170","0.0-17.0-0.13","29226","List1A","white","woman","","","","null","","","","","","","","",""
"null","<img src=""stim_listA/seduce4.gif""style=""height:400px;""></stim_listA>","","html-keyboard-response","300","1639178","0.0-17.0-1.13","29226","List1A","white","woman","","","","null","","","","","","","","",""
"null","is being seduced by","","html-keyboard-response","301","1641190","0.0-17.0-2.13","29226","List1A","white","woman","","","","null","","","","","","","","",""
"17881.89999961853","","","survey-text","302","1659110","0.0-17.0-3.13","29226","List1A","white","woman","","","","","{""Q0"":""Dave is being seduced by Ruth. ""}","<img src=""stim_listA/seduce4.gif""style=""height:400px;""></stim_listA>","is being seduced by","","","","","",""
"null","<div style=""font-size:60px;"">+</div>","","html-keyboard-response","303","1659617","0.0-17.0-0.14","29226","List1A","white","woman","","","","null","","","","","","","","",""
"null","<img src=""stim_listA/challenge7.gif""style=""height:400px;""></stim_listA>","","html-keyboard-response","304","1661627","0.0-17.0-1.14","29226","List1A","white","woman","","","","null","","","","","","","","",""
"null","is challenging","","html-keyboard-response","305","1663630","0.0-17.0-2.14","29226","List1A","white","woman","","","","null","","","","","","","","",""
"10423.30000114441","","","survey-text","306","1674068","0.0-17.0-3.14","29226","List1A","white","woman","","","","","{""Q0"":""Ruth is challenging Kate. ""}","<img src=""stim_listA/challenge7.gif""style=""height:400px;""></stim_listA>","is challenging","","","","","",""
"null","<div style=""font-size:60px;"">+</div>","","html-keyboard-response","307","1674577","0.0-17.0-0.15","29226","List1A","white","woman","","","","null","","","","","","","","",""
"null","<img src=""stim_listA/greet2.gif""style=""height:400px;""></stim_listA>","","html-keyboard-response","308","1676592","0.0-17.0-1.15","29226","List1A","white","woman","","","","null","","","","","","","","",""
"null","is being greeted by","","html-keyboard-response","309","1678617","0.0-17.0-2.15","29226","List1A","white","woman","","","","null","","","","","","","","",""
"12559.19999885559","","","survey-text","310","1691191","0.0-17.0-3.15","29226","List1A","white","woman","","","","","{""Q0"":""Kate is being greeted by Fred. ""}","<img src=""stim_listA/greet2.gif""style=""height:400px;""></stim_listA>","is being greeted by","","","","","",""
"null","<div style=""font-size:60px;"">+</div>","","html-keyboard-response","311","1691709","0.0-17.0-0.16","29226","List1A","white","woman","","","","null","","","","","","","","",""
"null","<img src=""stim_listA/touch7.gif""style=""height:400px;""></stim_listA>","","html-keyboard-response","312","1693719","0.0-17.0-1.16","29226","List1A","white","woman","","","","null","","","","","","","","",""
"null","is touching","","html-keyboard-response","313","1695735","0.0-17.0-2.16","29226","List1A","white","woman","","","","null","","","","","","","","",""
"7116","","","survey-text","314","1702866","0.0-17.0-3.16","29226","List1A","white","woman","","","","","{""Q0"":""Jane is touching Kate. ""}","<img src=""stim_listA/touch7.gif""style=""height:400px;""></stim_listA>","is touching","","","","","",""
"null","<div style=""font-size:60px;"">+</div>","","html-keyboard-response","315","1703386","0.0-17.0-0.17","29226","List1A","white","woman","","","","null","","","","","","","","",""
"null","<img src=""stim_listA/hug7.gif""style=""height:400px;""></stim_listA>","","html-keyboard-response","316","1705403","0.0-17.0-1.17","29226","List1A","white","woman","","","","null","","","","","","","","",""
"null","is hugging","","html-keyboard-response","317","1707407","0.0-17.0-2.17","29226","List1A","white","woman","","","","null","","","","","","","","",""
"6254.39999961853","","","survey-text","318","1713677","0.0-17.0-3.17","29226","List1A","white","woman","","","","","{""Q0"":""Beth is hugging Ruth. ""}","<img src=""stim_listA/hug7.gif""style=""height:400px;""></stim_listA>","is hugging","","","","","",""
"null","<div style=""font-size:60px;"">+</div>","","html-keyboard-response","319","1714187","0.0-17.0-0.18","29226","List1A","white","woman","","","","null","","","","","","","","",""
"null","<img src=""stim_listA/shout3.gif""style=""height:400px;""></stim_listA>","","html-keyboard-response","320","1716193","0.0-17.0-1.18","29226","List1A","white","woman","","","","null","","","","","","","","",""
"null","is shouting at","","html-keyboard-response","321","1718197","0.0-17.0-2.18","29226","List1A","white","woman","","","","null","","","","","","","","",""
"9760.70000076294","","","survey-text","322","1727972","0.0-17.0-3.18","29226","List1A","white","woman","","","","","{""Q0"":""Luke is shouting at Ruth. ""}","<img src=""stim_listA/shout3.gif""style=""height:400px;""></stim_listA>","is shouting at","","","","","",""
"null","<div style=""font-size:60px;"">+</div>","","html-keyboard-response","323","1728485","0.0-17.0-0.19","29226","List1A","white","woman","","","","null","","","","","","","","",""
"null","<img src=""stim_listA/seduce6.gif""style=""height:400px;""></stim_listA>","","html-keyboard-response","324","1730503","0.0-17.0-1.19","29226","List1A","white","woman","","","","null","","","","","","","","",""
"null","is being seduced by","","html-keyboard-response","325","1732507","0.0-17.0-2.19","29226","List1A","white","woman","","","","null","","","","","","","","",""
"13150.70000076294","","","survey-text","326","1745673","0.0-17.0-3.19","29226","List1A","white","woman","","","","","{""Q0"":""Luke is being seduced by Mike. ""}","<img src=""stim_listA/seduce6.gif""style=""height:400px;""></stim_listA>","is being seduced by","","","","","",""
"9866.20000076294","<img src='img/portrait_matrix_list1.jpg' style='width:900px;height:500px;''></img><p>If you have memorised all the portraits and names and are ready to start, press Continue.</p><p><strong>Please note: Your memory of these faces will be tested 4 times during this experiment.</strong></p>","0","html-button-response","327","1755541","0.0-18.0-0.0","29226","List1A","white","woman","","","","","","","","","","","","",""
"2076.2999992370605","<img src=""portrait/BW2.jpg""style=""height:400px;""></img>","2","html-button-response","328","1758641","0.0-18.0-1.0","29226","List1A","white","woman","","true","2","","","","","","","","","",""
"null","CORRECT","","html-keyboard-response","329","1760170","0.0-18.0-2.0-0.0","29226","List1A","white","woman","","","","null","","","","","","","","",""
"2188","<img src=""portrait/BM2.jpg""style=""height:400px;""></img>","5","html-button-response","330","1762363","0.0-18.0-4.0","29226","List1A","white","woman","","true","5","","","","","","","","","",""
"null","CORRECT","","html-keyboard-response","331","1763889","0.0-18.0-5.0-0.0","29226","List1A","white","woman","","","","null","","","","","","","","",""
"2328.3999996185303","<img src=""portrait/WW1.jpg""style=""height:400px;""></img>","1","html-button-response","332","1766220","0.0-18.0-7.0","29226","List1A","white","woman","","true","1","","","","","","","","","",""
"null","CORRECT","","html-keyboard-response","333","1767748","0.0-18.0-8.0-0.0","29226","List1A","white","woman","","","","null","","","","","","","","",""
"1568.6999988555908","<img src=""portrait/BW1.jpg""style=""height:400px;""></img>","0","html-button-response","334","1769320","0.0-18.0-10.0","29226","List1A","white","woman","","true","0","","","","","","","","","",""
"null","CORRECT","","html-keyboard-response","335","1770849","0.0-18.0-11.0-0.0","29226","List1A","white","woman","","","","null","","","","","","","","",""
"2045.3999996185303","<img src=""portrait/WM2.jpg""style=""height:400px;""></img>","7","html-button-response","336","1772898","0.0-18.0-13.0","29226","List1A","white","woman","","true","7","","","","","","","","","",""
"null","CORRECT","","html-keyboard-response","337","1774416","0.0-18.0-14.0-0.0","29226","List1A","white","woman","","","","null","","","","","","","","",""
"1744.6999988555908","<img src=""portrait/WM1.jpg""style=""height:400px;""></img>","6","html-button-response","338","1776164","0.0-18.0-16.0","29226","List1A","white","woman","","true","6","","","","","","","","","",""
"null","CORRECT","","html-keyboard-response","339","1777688","0.0-18.0-17.0-0.0","29226","List1A","white","woman","","","","null","","","","","","","","",""
"1531.2000007629395","<img src=""portrait/BM1.jpg""style=""height:400px;""></img>","4","html-button-response","340","1779222","0.0-18.0-19.0","29226","List1A","white","woman","","true","4","","","","","","","","","",""
"null","CORRECT","","html-keyboard-response","341","1780751","0.0-18.0-20.0-0.0","29226","List1A","white","woman","","","","null","","","","","","","","",""
"1865.6000003814697","<img src=""portrait/WW2.jpg""style=""height:400px;""></img>","3","html-button-response","342","1782620","0.0-18.0-22.0","29226","List1A","white","woman","","true","3","","","","","","","","","",""
"null","CORRECT","","html-keyboard-response","343","1784167","0.0-18.0-23.0-0.0","29226","List1A","white","woman","","","","null","","","","","","","","",""
"1840.5","<p>You got 8 out of 8 right first time. Press Continue.</p>","0","html-button-response","344","1786010","0.0-18.0-25.0","29226","List1A","white","woman","","","","","","","","","","","","",""
"null","<div style=""font-size:60px;"">+</div>","","html-keyboard-response","345","1787537","0.0-19.0-0.0","29226","List1A","white","woman","","","","null","","","","","","","","",""
"null","<img src=""stim_listA/kiss6.gif""style=""height:400px;""></stim_listA>","","html-keyboard-response","346","1789556","0.0-19.0-1.0","29226","List1A","white","woman","","","","null","","","","","","","","",""
"null","is being kissed by","","html-keyboard-response","347","1791567","0.0-19.0-2.0","29226","List1A","white","woman","","","","null","","","","","","","","",""
"8283.80000114441","","","survey-text","348","1799873","0.0-19.0-3.0","29226","List1A","white","woman","","","","","{""Q0"":""Dave is being kissed by Mike. ""}","<img src=""stim_listA/kiss6.gif""style=""height:400px;""></stim_listA>","is being kissed by","","","","","",""
"null","<div style=""font-size:60px;"">+</div>","","html-keyboard-response","349","1800392","0.0-19.0-0.1","29226","List1A","white","woman","","","","null","","","","","","","","",""
"null","<img src=""stim_listA/touch3.gif""style=""height:400px;""></stim_listA>","","html-keyboard-response","350","1802405","0.0-19.0-1.1","29226","List1A","white","woman","","","","null","","","","","","","","",""
"null","is touching","","html-keyboard-response","351","1804418","0.0-19.0-2.1","29226","List1A","white","woman","","","","null","","","","","","","","",""
"8900.39999961853","","","survey-text","352","1813336","0.0-19.0-3.1","29226","List1A","white","woman","","","","","{""Q0"":""Jane is touching Dave. ""}","<img src=""stim_listA/touch3.gif""style=""height:400px;""></stim_listA>","is touching","","","","","",""
"null","<div style=""font-size:60px;"">+</div>","","html-keyboard-response","353","1813851","0.0-19.0-0.2","29226","List1A","white","woman","","","","null","","","","","","","","",""
"null","<img src=""stim_listA/look2.gif""style=""height:400px;""></stim_listA>","","html-keyboard-response","354","1815859","0.0-19.0-1.2","29226","List1A","white","woman","","","","null","","","","","","","","",""
"null","is being looked at by","","html-keyboard-response","355","1817870","0.0-19.0-2.2","29226","List1A","white","woman","","","","null","","","","","","","","",""
"10332.60000038147","","","survey-text","356","1828213","0.0-19.0-3.2","29226","List1A","white","woman","","","","","{""Q0"":""Kate is being looked at by Mike.""}","<img src=""stim_listA/look2.gif""style=""height:400px;""></stim_listA>","is being looked at by","","","","","",""
"null","<div style=""font-size:60px;"">+</div>","","html-keyboard-response","357","1828723","0.0-19.0-0.3","29226","List1A","white","woman","","","","null","","","","","","","","",""
"null","<img src=""stim_listA/challenge5.gif""style=""height:400px;""></stim_listA>","","html-keyboard-response","358","1830742","0.0-19.0-1.3","29226","List1A","white","woman","","","","null","","","","","","","","",""
"null","is challenging","","html-keyboard-response","359","1832760","0.0-19.0-2.3","29226","List1A","white","woman","","","","null","","","","","","","","",""
"9413.5","","","survey-text","360","1842190","0.0-19.0-3.3","29226","List1A","white","woman","","","","","{""Q0"":""Mike is challenging Luke.""}","<img src=""stim_listA/challenge5.gif""style=""height:400px;""></stim_listA>","is challenging","","","","","",""
"null","<div style=""font-size:60px;"">+</div>","","html-keyboard-response","361","1842704","0.0-19.0-0.4","29226","List1A","white","woman","","","","null","","","","","","","","",""
"null","<img src=""stim_listA/shout5.gif""style=""height:400px;""></stim_listA>","","html-keyboard-response","362","1844709","0.0-19.0-1.4","29226","List1A","white","woman","","","","null","","","","","","","","",""
"null","is shouting at","","html-keyboard-response","363","1846725","0.0-19.0-2.4","29226","List1A","white","woman","","","","null","","","","","","","","",""
"9784.89999961853","","","survey-text","364","1856529","0.0-19.0-3.4","29226","List1A","white","woman","","","","","{""Q0"":""Fred is shouting at Luke. ""}","<img src=""stim_listA/shout5.gif""style=""height:400px;""></stim_listA>","is shouting at","","","","","",""
"null","<div style=""font-size:60px;"">+</div>","","html-keyboard-response","365","1857039","0.0-19.0-0.5","29226","List1A","white","woman","","","","null","","","","","","","","",""
"null","<img src=""stim_listA/shout4.gif""style=""height:400px;""></stim_listA>","","html-keyboard-response","366","1859070","0.0-19.0-1.5","29226","List1A","white","woman","","","","null","","","","","","","","",""
"null","is being shouted at by","","html-keyboard-response","367","1861088","0.0-19.0-2.5","29226","List1A","white","woman","","","","null","","","","","","","","",""
"8379.5","","","survey-text","368","1869488","0.0-19.0-3.5","29226","List1A","white","woman","","","","","{""Q0"":""Jane is being shouted at by Dave. ""}","<img src=""stim_listA/shout4.gif""style=""height:400px;""></stim_listA>","is being shouted at by","","","","","",""
"null","<div style=""font-size:60px;"">+</div>","","html-keyboard-response","369","1870007","0.0-19.0-0.6","29226","List1A","white","woman","","","","null","","","","","","","","",""
"null","<img src=""stim_listA/touch2.gif""style=""height:400px;""></stim_listA>","","html-keyboard-response","370","1872024","0.0-19.0-1.6","29226","List1A","white","woman","","","","null","","","","","","","","",""
"null","is being touched by","","html-keyboard-response","371","1874028","0.0-19.0-2.6","29226","List1A","white","woman","","","","null","","","","","","","","",""
"11464.89999961853","","","survey-text","372","1885515","0.0-19.0-3.6","29226","List1A","white","woman","","","","","{""Q0"":""Fred is being touched by Beth. ""}","<img src=""stim_listA/touch2.gif""style=""height:400px;""></stim_listA>","is being touched by","","","","","",""
"null","<div style=""font-size:60px;"">+</div>","","html-keyboard-response","373","1886027","0.0-19.0-0.7","29226","List1A","white","woman","","","","null","","","","","","","","",""
"null","<img src=""stim_listA/hug1.gif""style=""height:400px;""></stim_listA>","","html-keyboard-response","374","1888041","0.0-19.0-1.7","29226","List1A","white","woman","","","","null","","","","","","","","",""
"null","is hugging","","html-keyboard-response","375","1890055","0.0-19.0-2.7","29226","List1A","white","woman","","","","null","","","","","","","","",""
"7588.5","","","survey-text","376","1897658","0.0-19.0-3.7","29226","List1A","white","woman","","","","","{""Q0"":""Beth is hugging Fred. ""}","<img src=""stim_listA/hug1.gif""style=""height:400px;""></stim_listA>","is hugging","","","","","",""
"null","<div style=""font-size:60px;"">+</div>","","html-keyboard-response","377","1898172","0.0-19.0-0.8","29226","List1A","white","woman","","","","null","","","","","","","","",""
"null","<img src=""stim_listA/seduce5.gif""style=""height:400px;""></stim_listA>","","html-keyboard-response","378","1900180","0.0-19.0-1.8","29226","List1A","white","woman","","","","null","","","","","","","","",""
"null","is seducing","","html-keyboard-response","379","1902188","0.0-19.0-2.8","29226","List1A","white","woman","","","","null","","","","","","","","",""
"9721.10000038147","","","survey-text","380","1911943","0.0-19.0-3.8","29226","List1A","white","woman","","","","","{""Q0"":""Fred is seducing Dave. ""}","<img src=""stim_listA/seduce5.gif""style=""height:400px;""></stim_listA>","is seducing","","","","","",""
"null","<div style=""font-size:60px;"">+</div>","","html-keyboard-response","381","1912448","0.0-19.0-0.9","29226","List1A","white","woman","","","","null","","","","","","","","",""
"null","<img src=""stim_listA/look6.gif""style=""height:400px;""></stim_listA>","","html-keyboard-response","382","1914459","0.0-19.0-1.9","29226","List1A","white","woman","","","","null","","","","","","","","",""
"null","is being looked at by","","html-keyboard-response","383","1916462","0.0-19.0-2.9","29226","List1A","white","woman","","","","null","","","","","","","","",""
"9221.39999961853","","","survey-text","384","1925699","0.0-19.0-3.9","29226","List1A","white","woman","","","","","{""Q0"":""Mike is being looked at by Dave. ""}","<img src=""stim_listA/look6.gif""style=""height:400px;""></stim_listA>","is being looked at by","","","","","",""
"null","<div style=""font-size:60px;"">+</div>","","html-keyboard-response","385","1926208","0.0-19.0-0.10","29226","List1A","white","woman","","","","null","","","","","","","","",""
"null","<img src=""stim_listA/seduce7.gif""style=""height:400px;""></stim_listA>","","html-keyboard-response","386","1928222","0.0-19.0-1.10","29226","List1A","white","woman","","","","null","","","","","","","","",""
"null","is seducing","","html-keyboard-response","387","1930246","0.0-19.0-2.10","29226","List1A","white","woman","","","","null","","","","","","","","",""
"7147.800001144409","","","survey-text","388","1937412","0.0-19.0-3.10","29226","List1A","white","woman","","","","","{""Q0"":""Beth is seducing Jane. ""}","<img src=""stim_listA/seduce7.gif""style=""height:400px;""></stim_listA>","is seducing","","","","","",""
"null","<div style=""font-size:60px;"">+</div>","","html-keyboard-response","389","1937930","0.0-19.0-0.11","29226","List1A","white","woman","","","","null","","","","","","","","",""
"null","<img src=""stim_listA/kiss4.gif""style=""height:400px;""></stim_listA>","","html-keyboard-response","390","1939939","0.0-19.0-1.11","29226","List1A","white","woman","","","","null","","","","","","","","",""
"null","is being kissed by","","html-keyboard-response","391","1941957","0.0-19.0-2.11","29226","List1A","white","woman","","","","null","","","","","","","","",""
"11096.599998474121","","","survey-text","392","1953075","0.0-19.0-3.11","29226","List1A","white","woman","","","","","{""Q0"":""Dave is being kissed by Jane. ""}","<img src=""stim_listA/kiss4.gif""style=""height:400px;""></stim_listA>","is being kissed by","","","","","",""
"null","<div style=""font-size:60px;"">+</div>","","html-keyboard-response","393","1953589","0.0-19.0-0.12","29226","List1A","white","woman","","","","null","","","","","","","","",""
"null","<img src=""stim_listA/look8.gif""style=""height:400px;""></stim_listA>","","html-keyboard-response","394","1955604","0.0-19.0-1.12","29226","List1A","white","woman","","","","null","","","","","","","","",""
"null","is being looked at by","","html-keyboard-response","395","1957614","0.0-19.0-2.12","29226","List1A","white","woman","","","","null","","","","","","","","",""
"9586.29999923706","","","survey-text","396","1967215","0.0-19.0-3.12","29226","List1A","white","woman","","","","","{""Q0"":""Kate is being looked at by Jane. ""}","<img src=""stim_listA/look8.gif""style=""height:400px;""></stim_listA>","is being looked at by","","","","","",""
"null","<div style=""font-size:60px;"">+</div>","","html-keyboard-response","397","1967725","0.0-19.0-0.13","29226","List1A","white","woman","","","","null","","","","","","","","",""
"null","<img src=""stim_listA/kiss3.gif""style=""height:400px;""></stim_listA>","","html-keyboard-response","398","1969743","0.0-19.0-1.13","29226","List1A","white","woman","","","","null","","","","","","","","",""
"null","is kissing","","html-keyboard-response","399","1971758","0.0-19.0-2.13","29226","List1A","white","woman","","","","null","","","","","","","","",""
"9174.79999923706","","","survey-text","400","1980948","0.0-19.0-3.13","29226","List1A","white","woman","","","","","{""Q0"":""Luke is kissing Ruth.""}","<img src=""stim_listA/kiss3.gif""style=""height:400px;""></stim_listA>","is kissing","","","","","",""
"null","<div style=""font-size:60px;"">+</div>","","html-keyboard-response","401","1981453","0.0-19.0-0.14","29226","List1A","white","woman","","","","null","","","","","","","","",""
"null","<img src=""stim_listA/seduce3.gif""style=""height:400px;""></stim_listA>","","html-keyboard-response","402","1983460","0.0-19.0-1.14","29226","List1A","white","woman","","","","null","","","","","","","","",""
"null","is seducing","","html-keyboard-response","403","1985472","0.0-19.0-2.14","29226","List1A","white","woman","","","","null","","","","","","","","",""
"7637.799999237061","","","survey-text","404","1993126","0.0-19.0-3.14","29226","List1A","white","woman","","","","","{""Q0"":""Jane is seducing Luke. ""}","<img src=""stim_listA/seduce3.gif""style=""height:400px;""></stim_listA>","is seducing","","","","","",""
"null","<div style=""font-size:60px;"">+</div>","","html-keyboard-response","405","1993635","0.0-19.0-0.15","29226","List1A","white","woman","","","","null","","","","","","","","",""
"null","<img src=""stim_listA/greet4.gif""style=""height:400px;""></stim_listA>","","html-keyboard-response","406","1995640","0.0-19.0-1.15","29226","List1A","white","woman","","","","null","","","","","","","","",""
"null","is being greeted by","","html-keyboard-response","407","1997657","0.0-19.0-2.15","29226","List1A","white","woman","","","","null","","","","","","","","",""
"9738.29999923706","","","survey-text","408","2007414","0.0-19.0-3.15","29226","List1A","white","woman","","","","","{""Q0"":""Jane is being greeted by Luke. ""}","<img src=""stim_listA/greet4.gif""style=""height:400px;""></stim_listA>","is being greeted by","","","","","",""
"null","<div style=""font-size:60px;"">+</div>","","html-keyboard-response","409","2007921","0.0-19.0-0.16","29226","List1A","white","woman","","","","null","","","","","","","","",""
"null","<img src=""stim_listA/challenge3.gif""style=""height:400px;""></stim_listA>","","html-keyboard-response","410","2009935","0.0-19.0-1.16","29226","List1A","white","woman","","","","null","","","","","","","","",""
"null","is challenging","","html-keyboard-response","411","2011949","0.0-19.0-2.16","29226","List1A","white","woman","","","","null","","","","","","","","",""
"12949.10000038147","","","survey-text","412","2024913","0.0-19.0-3.16","29226","List1A","white","woman","","","","","{""Q0"":""Ruth is challenging Dave. ""}","<img src=""stim_listA/challenge3.gif""style=""height:400px;""></stim_listA>","is challenging","","","","","",""
"null","<div style=""font-size:60px;"">+</div>","","html-keyboard-response","413","2025423","0.0-19.0-0.17","29226","List1A","white","woman","","","","null","","","","","","","","",""
"null","<img src=""stim_listA/greet5.gif""style=""height:400px;""></stim_listA>","","html-keyboard-response","414","2027435","0.0-19.0-1.17","29226","List1A","white","woman","","","","null","","","","","","","","",""
"null","is greeting","","html-keyboard-response","415","2029449","0.0-19.0-2.17","29226","List1A","white","woman","","","","null","","","","","","","","",""
"9302.70000076294","","","survey-text","416","2038792","0.0-19.0-3.17","29226","List1A","white","woman","","","","","{""Q0"":""Mike is greeting Luke. ""}","<img src=""stim_listA/greet5.gif""style=""height:400px;""></stim_listA>","is greeting","","","","","",""
"null","<div style=""font-size:60px;"">+</div>","","html-keyboard-response","417","2039314","0.0-19.0-0.18","29226","List1A","white","woman","","","","null","","","","","","","","",""
"null","<img src=""stim_listA/copy6.gif""style=""height:400px;""></stim_listA>","","html-keyboard-response","418","2041320","0.0-19.0-1.18","29226","List1A","white","woman","","","","null","","","","","","","","",""
"null","is being copied by","","html-keyboard-response","419","2043330","0.0-19.0-2.18","29226","List1A","white","woman","","","","null","","","","","","","","",""
"9559.79999923706","","","survey-text","420","2052935","0.0-19.0-3.18","29226","List1A","white","woman","","","","","{""Q0"":""Fred is being copied by Dave. ""}","<img src=""stim_listA/copy6.gif""style=""height:400px;""></stim_listA>","is being copied by","","","","","",""
"null","<div style=""font-size:60px;"">+</div>","","html-keyboard-response","421","2053446","0.0-19.0-0.19","29226","List1A","white","woman","","","","null","","","","","","","","",""
"null","<img src=""stim_listA/shout8.gif""style=""height:400px;""></stim_listA>","","html-keyboard-response","422","2055455","0.0-19.0-1.19","29226","List1A","white","woman","","","","null","","","","","","","","",""
"null","is being shouted at by","","html-keyboard-response","423","2057471","0.0-19.0-2.19","29226","List1A","white","woman","","","","null","","","","","","","","",""
"12210.39999961853","","","survey-text","424","2069718","0.0-19.0-3.19","29226","List1A","white","woman","","","","","{""Q0"":""Kate is being shouted at by Jane.""}","<img src=""stim_listA/shout8.gif""style=""height:400px;""></stim_listA>","is being shouted at by","","","","","",""
"3154.599998474121","<p>Thank you for completing that task.</p><p>The final part of this session is a questionnaire that will take about 4 minutes.</p><p>Press Continue.</p>","0","html-button-response","425","2072876","0.0-20.0","29226","List1A","white","woman","","","","","","","","","","","","",""
"74458.89999961853","","","survey-text","426","2148370","0.0-21.0","29226","List1A","white","woman","","","","","{""Q0"":""22"",""Q1"":""english"",""Q2"":""english"",""Q3"":""United States"",""Q4"":""Caucasian "",""Q5"":""white "",""Q6"":""Female""}","","","demographics","","","","",""
"2960.699998855591","<p>Have you lived in the USA for the last 5 years or more?</p>","0","html-button-response","427","2151339","0.0-22.0","29226","List1A","white","woman","","","","","","","","fiveyears","","","","",""
"4581.60000038147","<p>Move the slider to show the extent to which you agree with the following statements.</p>","0","html-button-response","428","2156940","0.0-23.0","29226","List1A","white","woman","","","","","","","","","","","","",""
"5830.699998855591","","","html-slider-response","429","2163785","0.0-24.0-0.0-0.0","29226","List1A","white","woman","","","","","","","","survey_race","100","","","I feel a bond with people the same age as me.","filler"
"4863.199998855591","","","html-slider-response","430","2168654","0.0-24.0-0.0-0.1","29226","List1A","white","woman","","","","","","","","survey_race","28","","","I consider myself an extrovert.","filler"
"4014.1000003814697","","","html-slider-response","431","2172674","0.0-24.0-0.0-0.2","29226","List1A","white","woman","","","","","","","","survey_race","16","","","I have a lot in common with the average person of my race.","average"
"3810.3999996185303","","","html-slider-response","432","2176496","0.0-24.0-0.0-0.3","29226","List1A","white","woman","","","","","","","","survey_race","57","","","I feel solidarity with people the same age as me.","filler"
"6909.60000038147","","","html-slider-response","433","2183415","0.0-24.0-0.0-0.4","29226","List1A","white","woman","","","","","","","","survey_race","80","","","My age is not an important part of who I am.","filler"
"7511.89999961853","","","html-slider-response","434","2190933","0.0-24.0-0.0-0.5","29226","List1A","white","woman","","","","","","","","survey_race","58","","","I often think about the fact that I am my age.","filler"
"6401","","","html-slider-response","435","2197339","0.0-24.0-0.0-0.6","29226","List1A","white","woman","","","","","","","","survey_race","21","","","People of my race are very similar to each other.","verysimilar"
"3940.400001525879","","","html-slider-response","436","2201285","0.0-24.0-0.0-0.7","29226","List1A","white","woman","","","","","","","","survey_race","65","","","The older I get, the wiser I feel.","filler"
"5247.300001144409","","","html-slider-response","437","2206538","0.0-24.0-0.0-0.8","29226","List1A","white","woman","","","","","","","","survey_race","16","","","It is pleasant to be my race.","pleasant"
"3647.6000003814697","","","html-slider-response","438","2210191","0.0-24.0-0.0-0.9","29226","List1A","white","woman","","","","","","","","survey_race","64","","","I have a lot in common with people of a similar age to me.","filler"
"3118.599998474121","","","html-slider-response","439","2213318","0.0-24.0-0.0-0.10","29226","List1A","white","woman","","","","","","","","survey_race","61","","","Getting older does not worry me.","filler"
"3710","","","html-slider-response","440","2217033","0.0-24.0-0.0-0.11","29226","List1A","white","woman","","","","","","","","survey_race","8","","","I think that my race has a lot to be proud of.","proud"
"3801.7999992370605","","","html-slider-response","441","2220841","0.0-24.0-0.0-0.12","29226","List1A","white","woman","","","","","","","","survey_race","1","","","I feel committed to my race.","committed"
"3349.5","","","html-slider-response","442","2224200","0.0-24.0-0.0-0.13","29226","List1A","white","woman","","","","","","","","survey_race","55","","","Being my age gives me a good feeling.","filler"
"3113.2000007629395","","","html-slider-response","443","2227318","0.0-24.0-0.0-0.14","29226","List1A","white","woman","","","","","","","","survey_race","65","","","I consider myself an introvert.","filler"
"4125.299999237061","","","html-slider-response","444","2231451","0.0-24.0-0.0-0.15","29226","List1A","white","woman","","","","","","","","survey_race","54","","","I am similar to the average person of my race.","similar"
"7643.10000038147","","","html-slider-response","445","2239100","0.0-24.0-0.0-0.16","29226","List1A","white","woman","","","","","","","","survey_race","20","","","People of my race have a lot in common with each other.","common"
"7142.799999237061","","","html-slider-response","446","2246251","0.0-24.0-0.0-0.17","29226","List1A","white","woman","","","","","","","","survey_race","9","","","I feel a bond with my race.","bond"
"3237.8999996185303","","","html-slider-response","447","2249493","0.0-24.0-0.0-0.18","29226","List1A","white","woman","","","","","","","","survey_race","57","","","People my age have a lot in common with each other.","filler"
"13402","","","html-slider-response","448","2262900","0.0-24.0-0.0-0.19","29226","List1A","white","woman","","","","","","","","survey_race","9","","","I enjoy being in large groups.","filler"
"3939.1000003814697","","","html-slider-response","449","2266845","0.0-24.0-0.0-0.20","29226","List1A","white","woman","","","","","","","","survey_race","9","","","I feel solidarity with my race.","solidarity"
"2460.900001525879","","","html-slider-response","450","2269310","0.0-24.0-0.0-0.21","29226","List1A","white","woman","","","","","","","","survey_race","53","","","I am glad to be the age I am.","filler"
"4094.800001144409","","","html-slider-response","451","2273410","0.0-24.0-0.0-0.22","29226","List1A","white","woman","","","","","","","","survey_race","11","","","The fact that I am my race is an important part of my identity.","identity"
"3416","","","html-slider-response","452","2276830","0.0-24.0-0.0-0.23","29226","List1A","white","woman","","","","","","","","survey_race","5","","","I am glad to be my race.","glad"
"3800.7000007629395","","","html-slider-response","453","2280637","0.0-24.0-0.0-0.24","29226","List1A","white","woman","","","","","","","","survey_race","10","","","Being my race gives me a good feeling.","feeling"
"2307","","","html-slider-response","454","2282950","0.0-24.0-0.0-0.25","29226","List1A","white","woman","","","","","","","","survey_race","55","","","I am glad to be my age.","filler"
"23015.40000152588","","","html-slider-response","455","2305970","0.0-24.0-0.0-0.26","29226","List1A","white","woman","","","","","","","","survey_race","7","","","Being my race is an important part of how I see myself.","important"
"22932.59999847412","","","html-slider-response","456","2328908","0.0-24.0-0.0-0.27","29226","List1A","white","woman","","","","","","","","survey_race","4","","","I often think about the fact that I am my race.","often"
"3733.1000003814697","","","html-slider-response","457","2332646","0.0-24.0-1.0-0.0","29226","List1A","white","woman","","","","","","","","survey_gender","78","","","I feel solidarity with my gender.","solidarity"
"5249.89999961853","","","html-slider-response","458","2337902","0.0-24.0-1.0-0.1","29226","List1A","white","woman","","","","","","","","survey_gender","71","","","I feel a bond with my gender.","bond"
"8041","","","html-slider-response","459","2345949","0.0-24.0-1.0-0.2","29226","List1A","white","woman","","","","","","","","survey_gender","36","","","People of my gender are very similar to each other.","verysimilar"
"6037","","","html-slider-response","460","2351993","0.0-24.0-1.0-0.3","29226","List1A","white","woman","","","","","","","","survey_gender","51","","","I am glad to be my gender.","glad"
"16823.60000038147","","","html-slider-response","461","2368824","0.0-24.0-1.0-0.4","29226","List1A","white","woman","","","","","","","","survey_gender","48","","","I am similar to the average person of my gender.","similar"
"10268.60000038147","","","html-slider-response","462","2379098","0.0-24.0-1.0-0.5","29226","List1A","white","woman","","","","","","","","survey_gender","37","","","Being my gender is an important part of how I see myself.","important"
"8494","","","html-slider-response","463","2387600","0.0-24.0-1.0-0.6","29226","List1A","white","woman","","","","","","","","survey_gender","67","","","I consider myself a highly empathetic person.","filler"
"7570.799999237061","","","html-slider-response","464","2395179","0.0-24.0-1.0-0.7","29226","List1A","white","woman","","","","","","","","survey_gender","48","","","The fact that I am my gender is an important part of my identity.","identity"
"3533.2999992370605","","","html-slider-response","465","2398721","0.0-24.0-1.0-0.8","29226","List1A","white","woman","","","","","","","","survey_gender","54","","","I often think about my actions.","filler"
"3794.1000003814697","","","html-slider-response","466","2402520","0.0-24.0-1.0-0.9","29226","List1A","white","woman","","","","","","","","survey_gender","51","","","I am glad to have the friends that I have.","filler"
"3429.300001144409","","","html-slider-response","467","2405954","0.0-24.0-1.0-0.10","29226","List1A","white","woman","","","","","","","","survey_gender","48","","","I feel a bond with my friends.","filler"
"3434.2999992370605","","","html-slider-response","468","2409394","0.0-24.0-1.0-0.11","29226","List1A","white","woman","","","","","","","","survey_gender","47","","","I have a lot in common with the average person of my gender.","average"
"15294","","","html-slider-response","469","2424693","0.0-24.0-1.0-0.12","29226","List1A","white","woman","","","","","","","","survey_gender","48","","","Family is not more important to me than friendship.","filler"
"4758.199998855591","","","html-slider-response","470","2429455","0.0-24.0-1.0-0.13","29226","List1A","white","woman","","","","","","","","survey_gender","38","","","People of my gender have a lot in common with each other.","common"
"3094.199998855591","","","html-slider-response","471","2432554","0.0-24.0-1.0-0.14","29226","List1A","white","woman","","","","","","","","survey_gender","100","","","I would say I am an animal person.","filler"
"4073.1000003814697","","","html-slider-response","472","2436633","0.0-24.0-1.0-0.15","29226","List1A","white","woman","","","","","","","","survey_gender","99","","","I think that my gender has a lot to be proud of.","proud"
"3187.8999996185303","","","html-slider-response","473","2439827","0.0-24.0-1.0-0.16","29226","List1A","white","woman","","","","","","","","survey_gender","41","","","Routine is not important to me.","filler"
"3189.599998474121","","","html-slider-response","474","2443022","0.0-24.0-1.0-0.17","29226","List1A","white","woman","","","","","","","","survey_gender","28","","","My friends understand me.","filler"
