"rt","stimulus","button_pressed","trial_type","trial_index","time_elapsed","internal_node_id","subject","list","ppt_race","ppt_gender","url","first_guess","correct","key_press","responses","image_type","phrase_type","test_part","response","stimulus1","stimulus2","question_type","survey_item"
"143464.90000009537","Welcome to the experiment. Press Continue to begin.","0","html-button-response","0","143470","0.0-0.0","29970","List2A","white","woman","","","","","","","","","","","","",""
"34573.5","","","external-html","1","179500","0.0-1.0","29970","List2A","white","woman","consent.html","","","","","","","","","","","",""
"16480.5","<p>On the next page, you will see portraits of 8 people and their names.</p><p>Your first task is to take a few minutes to memorise the names of these people.</p><p>You will have to recall their names during the rest of the experiment, so it is</p><p>essential that you try to memorise these people and their names as best as you can.</p><br><p><strong>You will then be tested on your memory of these names and portraits.</strong></p><br><p>The experiment will start after you have completed this memory test.</p><br><p>Ready?</p>","0","html-button-response","2","195982","0.0-2.0","29970","List2A","white","woman","","","","","","","","","","","","",""
"44656.299999952316","<img src='img/portrait_matrix_list2.jpg' style='width:900px;height:500px;''></img><p>If you have memorised all the portraits and names and are ready to start, press Continue.</p><p><strong>Please note: Your memory of these faces will be tested 4 times during this experiment.</strong></p>","0","html-button-response","3","241642","0.0-3.0-0.0","29970","List2A","white","woman","","","","","","","","","","","","",""
"2912.7000000476837","<img src=""portrait/BW2.jpg""style=""height:400px;""></img>","0","html-button-response","4","245558","0.0-3.0-1.0","29970","List2A","white","woman","","true","2","","","","","","","","","",""
"3887.2000000476837","<img src=""portrait/BW2.jpg""style=""height:400px;""></img>","2","html-button-response","5","250450","0.0-3.0-3.0-0.0","29970","List2A","white","woman","","false","2","","","","","","","","","",""
"null","CORRECT","","html-keyboard-response","6","251961","0.0-3.0-3.0-1.0-0.0","29970","List2A","white","woman","","","","null","","","","","","","","",""
"2055","<img src=""portrait/WW2.jpg""style=""height:400px;""></img>","3","html-button-response","7","254018","0.0-3.0-4.0","29970","List2A","white","woman","","true","3","","","","","","","","","",""
"null","CORRECT","","html-keyboard-response","8","255526","0.0-3.0-5.0-0.0","29970","List2A","white","woman","","","","null","","","","","","","","",""
"2577.1999999284744","<img src=""portrait/WM1.jpg""style=""height:400px;""></img>","6","html-button-response","9","258105","0.0-3.0-7.0","29970","List2A","white","woman","","true","6","","","","","","","","","",""
"null","CORRECT","","html-keyboard-response","10","259610","0.0-3.0-8.0-0.0","29970","List2A","white","woman","","","","null","","","","","","","","",""
"5019.700000047684","<img src=""portrait/BW1.jpg""style=""height:400px;""></img>","0","html-button-response","11","264631","0.0-3.0-10.0","29970","List2A","white","woman","","true","0","","","","","","","","","",""
"null","CORRECT","","html-keyboard-response","12","266134","0.0-3.0-11.0-0.0","29970","List2A","white","woman","","","","null","","","","","","","","",""
"15465.299999952316","<img src=""portrait/WW1.jpg""style=""height:400px;""></img>","1","html-button-response","13","281601","0.0-3.0-13.0","29970","List2A","white","woman","","true","1","","","","","","","","","",""
"null","CORRECT","","html-keyboard-response","14","283104","0.0-3.0-14.0-0.0","29970","List2A","white","woman","","","","null","","","","","","","","",""
"4052.100000023842","<img src=""portrait/BM1.jpg""style=""height:400px;""></img>","4","html-button-response","15","287157","0.0-3.0-16.0","29970","List2A","white","woman","","true","4","","","","","","","","","",""
"null","CORRECT","","html-keyboard-response","16","288664","0.0-3.0-17.0-0.0","29970","List2A","white","woman","","","","null","","","","","","","","",""
"2786.600000023842","<img src=""portrait/WM2.jpg""style=""height:400px;""></img>","7","html-button-response","17","291452","0.0-3.0-19.0","29970","List2A","white","woman","","true","7","","","","","","","","","",""
"null","CORRECT","","html-keyboard-response","18","292959","0.0-3.0-20.0-0.0","29970","List2A","white","woman","","","","null","","","","","","","","",""
"1948","<img src=""portrait/BM2.jpg""style=""height:400px;""></img>","5","html-button-response","19","294908","0.0-3.0-22.0","29970","List2A","white","woman","","true","5","","","","","","","","","",""
"null","CORRECT","","html-keyboard-response","20","296420","0.0-3.0-23.0-0.0","29970","List2A","white","woman","","","","null","","","","","","","","",""
"1834.7999999523163","<p>You got 7 out of 8 right first time. Press Continue.</p>","0","html-button-response","21","298257","0.0-3.0-25.0","29970","List2A","white","woman","","","","","","","","","","","","",""
"2544.7999999523163","As you did not score 100%, the memory game will repeat. Press Continue.","0","html-button-response","22","301803","0.0-3.0-26.0-0.0","29970","List2A","white","woman","","","","","","","","","","","","",""
"18909","<img src='img/portrait_matrix_list2.jpg' style='width:900px;height:500px;''></img><p>If you have memorised all the portraits and names and are ready to start, press Continue.</p><p><strong>Please note: Your memory of these faces will be tested 4 times during this experiment.</strong></p>","0","html-button-response","23","321720","0.0-3.1-0.1","29970","List2A","white","woman","","","","","","","","","","","","",""
"2022.2000000476837","<img src=""portrait/BW2.jpg""style=""height:400px;""></img>","2","html-button-response","24","324746","0.0-3.1-1.1","29970","List2A","white","woman","","true","2","","","","","","","","","",""
"null","CORRECT","","html-keyboard-response","25","326255","0.0-3.1-2.1-0.1","29970","List2A","white","woman","","","","null","","","","","","","","",""
"1455.8999999761581","<img src=""portrait/WW2.jpg""style=""height:400px;""></img>","3","html-button-response","26","327712","0.0-3.1-4.1","29970","List2A","white","woman","","true","3","","","","","","","","","",""
"null","CORRECT","","html-keyboard-response","27","329224","0.0-3.1-5.1-0.1","29970","List2A","white","woman","","","","null","","","","","","","","",""
"1914.7999999523163","<img src=""portrait/WM1.jpg""style=""height:400px;""></img>","6","html-button-response","28","331141","0.0-3.1-7.1","29970","List2A","white","woman","","true","6","","","","","","","","","",""
"null","CORRECT","","html-keyboard-response","29","332644","0.0-3.1-8.1-0.1","29970","List2A","white","woman","","","","null","","","","","","","","",""
"3940.1999999284744","<img src=""portrait/BW1.jpg""style=""height:400px;""></img>","0","html-button-response","30","336586","0.0-3.1-10.1","29970","List2A","white","woman","","true","0","","","","","","","","","",""
"null","CORRECT","","html-keyboard-response","31","338091","0.0-3.1-11.1-0.1","29970","List2A","white","woman","","","","null","","","","","","","","",""
"2001","<img src=""portrait/WW1.jpg""style=""height:400px;""></img>","1","html-button-response","32","340094","0.0-3.1-13.1","29970","List2A","white","woman","","true","1","","","","","","","","","",""
"null","CORRECT","","html-keyboard-response","33","341599","0.0-3.1-14.1-0.1","29970","List2A","white","woman","","","","null","","","","","","","","",""
"1857.5999999046326","<img src=""portrait/BM1.jpg""style=""height:400px;""></img>","4","html-button-response","34","343458","0.0-3.1-16.1","29970","List2A","white","woman","","true","4","","","","","","","","","",""
"null","CORRECT","","html-keyboard-response","35","344967","0.0-3.1-17.1-0.1","29970","List2A","white","woman","","","","null","","","","","","","","",""
"1610.2000000476837","<img src=""portrait/WM2.jpg""style=""height:400px;""></img>","7","html-button-response","36","346579","0.0-3.1-19.1","29970","List2A","white","woman","","true","7","","","","","","","","","",""
"null","CORRECT","","html-keyboard-response","37","348082","0.0-3.1-20.1-0.1","29970","List2A","white","woman","","","","null","","","","","","","","",""
"1434.3000000715256","<img src=""portrait/BM2.jpg""style=""height:400px;""></img>","5","html-button-response","38","349518","0.0-3.1-22.1","29970","List2A","white","woman","","true","5","","","","","","","","","",""
"null","CORRECT","","html-keyboard-response","39","351025","0.0-3.1-23.1-0.1","29970","List2A","white","woman","","","","null","","","","","","","","",""
"1248.8999999761581","<p>You got 8 out of 8 right first time. Press Continue.</p>","0","html-button-response","40","352275","0.0-3.1-25.1","29970","List2A","white","woman","","","","","","","","","","","","",""
"36675.5","<p>In this experiment, you will view photographs of the people from the memory game interacting.</p><p>By using the <strong>exact</strong> phrase given <i>after</i> the photograph appears and recalling the correct names of the people in the photographs, form a sentence describing the interaction. You do not need to capitalise names.</p><p>Type your answer in the space provided. Please complete every sentence before moving onto the next trial.</p><p>You will only have a few seconds to memorise each given photograph and phrase before you can respond, so try your best to focus.</p><p>An example is given below. Press 'Continue' when you are ready.</p><img src='img/speaking_example.jpg' style='width:800px;height:460px;''></img>","0","html-button-response","41","389957","0.0-4.0","29970","List2A","white","woman","","","","","","","","","","","","",""
"2559.100000023842","<p>Before the experiment starts, you will watch two example trials. Press 'Continue'.</p>","0","html-button-response","42","393518","0.0-5.0","29970","List2A","white","woman","","","","","","","","","","","","",""
"null","<img src='img/play_eg.gif' style='height:400px;''></img>","","html-keyboard-response","43","396522","0.0-6.0","29970","List2A","white","woman","","","","null","","","","","","","","",""
"null","<p>is playing with</p>","","html-keyboard-response","44","398525","0.0-7.0","29970","List2A","white","woman","","","","null","","","","","","","","",""
"2012.8000000715256","<p><b>Answer:</b> jane is playing with ruth</p>","0","html-button-response","45","400539","0.0-8.0","29970","List2A","white","woman","","","","","","","","","","","","",""
"null","<img src='img/dance_eg.gif' style='height:400px;''></img>","","html-keyboard-response","46","403541","0.0-9.0","29970","List2A","white","woman","","","","null","","","","","","","","",""
"null","<p>is being entertained by</p>","","html-keyboard-response","47","405543","0.0-10.0","29970","List2A","white","woman","","","","null","","","","","","","","",""
"2728.5","<p><b>Answer:</b> fred is being entertained by mike</p>","0","html-button-response","48","408273","0.0-11.0","29970","List2A","white","woman","","","","","","","","","","","","",""
"7201.300000071526","<p>Ready to start the experiment?</p><br><p><strong>Remember to describe the picture using a full sentence,</strong></p><p><strong>that combines the names of the people with the <i>exact</i> phrase given.</strong></p><p><strong>To receive full payment you must do this correctly.</strong></p><p><strong> You do not need to capitalise names or use punctuation.</strong></p><br><p>Press 'Continue' to begin.</p>","0","html-button-response","49","416476","0.0-12.0","29970","List2A","white","woman","","","","","","","","","","","","",""
"null","<div style=""font-size:60px;"">+</div>","","html-keyboard-response","50","417982","0.0-13.0-0.0","29970","List2A","white","woman","","","","null","","","","","","","","",""
"null","<img src=""stim_listA/touch6.gif""style=""height:400px;""></stim_listA>","","html-keyboard-response","51","419988","0.0-13.0-1.0","29970","List2A","white","woman","","","","null","","","","","","","","",""
"null","is being touched by","","html-keyboard-response","52","421989","0.0-13.0-2.0","29970","List2A","white","woman","","","","null","","","","","","","","",""
"3191.1999999284744","","","survey-text","53","425187","0.0-13.0-3.0","29970","List2A","white","woman","","","","","{""Q0"":""fred""}","<img src=""stim_listA/touch6.gif""style=""height:400px;""></stim_listA>","is being touched by","","","","","",""
"null","<div style=""font-size:60px;"">+</div>","","html-keyboard-response","54","425688","0.0-13.0-0.1","29970","List2A","white","woman","","","","null","","","","","","","","",""
"null","<img src=""stim_listA/greet1.gif""style=""height:400px;""></stim_listA>","","html-keyboard-response","55","427694","0.0-13.0-1.1","29970","List2A","white","woman","","","","null","","","","","","","","",""
"null","is greeting","","html-keyboard-response","56","429697","0.0-13.0-2.1","29970","List2A","white","woman","","","","null","","","","","","","","",""
"15092.899999976158","","","survey-text","57","444793","0.0-13.0-3.1","29970","List2A","white","woman","","","","","{""Q0"":""dave is being greeted by ruth""}","<img src=""stim_listA/greet1.gif""style=""height:400px;""></stim_listA>","is greeting","","","","","",""
"null","<div style=""font-size:60px;"">+</div>","","html-keyboard-response","58","445294","0.0-13.0-0.2","29970","List2A","white","woman","","","","null","","","","","","","","",""
"null","<img src=""stim_listA/hug6.gif""style=""height:400px;""></stim_listA>","","html-keyboard-response","59","447298","0.0-13.0-1.2","29970","List2A","white","woman","","","","null","","","","","","","","",""
"null","is being hugged by","","html-keyboard-response","60","449303","0.0-13.0-2.2","29970","List2A","white","woman","","","","null","","","","","","","","",""
"12179.800000071526","","","survey-text","61","461487","0.0-13.0-3.2","29970","List2A","white","woman","","","","","{""Q0"":""mike is being hugged by dave""}","<img src=""stim_listA/hug6.gif""style=""height:400px;""></stim_listA>","is being hugged by","","","","","",""
"null","<div style=""font-size:60px;"">+</div>","","html-keyboard-response","62","461988","0.0-13.0-0.3","29970","List2A","white","woman","","","","null","","","","","","","","",""
"null","<img src=""stim_listA/hug5.gif""style=""height:400px;""></stim_listA>","","html-keyboard-response","63","463994","0.0-13.0-1.3","29970","List2A","white","woman","","","","null","","","","","","","","",""
"null","is hugging","","html-keyboard-response","64","465998","0.0-13.0-2.3","29970","List2A","white","woman","","","","null","","","","","","","","",""
"5161.100000023842","","","survey-text","65","471162","0.0-13.0-3.3","29970","List2A","white","woman","","","","","{""Q0"":""luke is hugging fred""}","<img src=""stim_listA/hug5.gif""style=""height:400px;""></stim_listA>","is hugging","","","","","",""
"null","<div style=""font-size:60px;"">+</div>","","html-keyboard-response","66","471663","0.0-13.0-0.4","29970","List2A","white","woman","","","","null","","","","","","","","",""
"null","<img src=""stim_listA/copy2.gif""style=""height:400px;""></stim_listA>","","html-keyboard-response","67","473668","0.0-13.0-1.4","29970","List2A","white","woman","","","","null","","","","","","","","",""
"null","is being copied by","","html-keyboard-response","68","475672","0.0-13.0-2.4","29970","List2A","white","woman","","","","null","","","","","","","","",""
"13723.699999928474","","","survey-text","69","489398","0.0-13.0-3.4","29970","List2A","white","woman","","","","","{""Q0"":""ruth is being copied by dave""}","<img src=""stim_listA/copy2.gif""style=""height:400px;""></stim_listA>","is being copied by","","","","","",""
"null","<div style=""font-size:60px;"">+</div>","","html-keyboard-response","70","489903","0.0-13.0-0.5","29970","List2A","white","woman","","","","null","","","","","","","","",""
"null","<img src=""stim_listA/greet7.gif""style=""height:400px;""></stim_listA>","","html-keyboard-response","71","491907","0.0-13.0-1.5","29970","List2A","white","woman","","","","null","","","","","","","","",""
"null","is greeting","","html-keyboard-response","72","493908","0.0-13.0-2.5","29970","List2A","white","woman","","","","null","","","","","","","","",""
"8505.100000023842","","","survey-text","73","502416","0.0-13.0-3.5","29970","List2A","white","woman","","","","","{""Q0"":""beth is being greeted by jane""}","<img src=""stim_listA/greet7.gif""style=""height:400px;""></stim_listA>","is greeting","","","","","",""
"null","<div style=""font-size:60px;"">+</div>","","html-keyboard-response","74","502920","0.0-13.0-0.6","29970","List2A","white","woman","","","","null","","","","","","","","",""
"null","<img src=""stim_listA/look8.gif""style=""height:400px;""></stim_listA>","","html-keyboard-response","75","504923","0.0-13.0-1.6","29970","List2A","white","woman","","","","null","","","","","","","","",""
"null","is being looked at by","","html-keyboard-response","76","506926","0.0-13.0-2.6","29970","List2A","white","woman","","","","null","","","","","","","","",""
"10497.399999976158","","","survey-text","77","517426","0.0-13.0-3.6","29970","List2A","white","woman","","","","","{""Q0"":""kate is being looked at by jane""}","<img src=""stim_listA/look8.gif""style=""height:400px;""></stim_listA>","is being looked at by","","","","","",""
"null","<div style=""font-size:60px;"">+</div>","","html-keyboard-response","78","517928","0.0-13.0-0.7","29970","List2A","white","woman","","","","null","","","","","","","","",""
"null","<img src=""stim_listA/challenge7.gif""style=""height:400px;""></stim_listA>","","html-keyboard-response","79","519930","0.0-13.0-1.7","29970","List2A","white","woman","","","","null","","","","","","","","",""
"null","is challenging","","html-keyboard-response","80","521932","0.0-13.0-2.7","29970","List2A","white","woman","","","","null","","","","","","","","",""
"7731.600000023842","","","survey-text","81","529665","0.0-13.0-3.7","29970","List2A","white","woman","","","","","{""Q0"":""beth is being challenged by ruth""}","<img src=""stim_listA/challenge7.gif""style=""height:400px;""></stim_listA>","is challenging","","","","","",""
"null","<div style=""font-size:60px;"">+</div>","","html-keyboard-response","82","530168","0.0-13.0-0.8","29970","List2A","white","woman","","","","null","","","","","","","","",""
"null","<img src=""stim_listA/kiss6.gif""style=""height:400px;""></stim_listA>","","html-keyboard-response","83","532170","0.0-13.0-1.8","29970","List2A","white","woman","","","","null","","","","","","","","",""
"null","is being kissed by","","html-keyboard-response","84","534171","0.0-13.0-2.8","29970","List2A","white","woman","","","","null","","","","","","","","",""
"5899.5","","","survey-text","85","540072","0.0-13.0-3.8","29970","List2A","white","woman","","","","","{""Q0"":""dave is being kissed by mike""}","<img src=""stim_listA/kiss6.gif""style=""height:400px;""></stim_listA>","is being kissed by","","","","","",""
"null","<div style=""font-size:60px;"">+</div>","","html-keyboard-response","86","540574","0.0-13.0-0.9","29970","List2A","white","woman","","","","null","","","","","","","","",""
"null","<img src=""stim_listA/oppose4.gif""style=""height:400px;""></stim_listA>","","html-keyboard-response","87","542580","0.0-13.0-1.9","29970","List2A","white","woman","","","","null","","","","","","","","",""
"null","is being opposed by","","html-keyboard-response","88","544582","0.0-13.0-2.9","29970","List2A","white","woman","","","","null","","","","","","","","",""
"6848.899999976158","","","survey-text","89","551433","0.0-13.0-3.9","29970","List2A","white","woman","","","","","{""Q0"":""fred is being opposed by beth""}","<img src=""stim_listA/oppose4.gif""style=""height:400px;""></stim_listA>","is being opposed by","","","","","",""
"null","<div style=""font-size:60px;"">+</div>","","html-keyboard-response","90","551937","0.0-13.0-0.10","29970","List2A","white","woman","","","","null","","","","","","","","",""
"null","<img src=""stim_listA/greet6.gif""style=""height:400px;""></stim_listA>","","html-keyboard-response","91","553940","0.0-13.0-1.10","29970","List2A","white","woman","","","","null","","","","","","","","",""
"null","is being greeted by","","html-keyboard-response","92","555941","0.0-13.0-2.10","29970","List2A","white","woman","","","","null","","","","","","","","",""
"6404.199999928474","","","survey-text","93","562348","0.0-13.0-3.10","29970","List2A","white","woman","","","","","{""Q0"":""mike is being greeted by luke""}","<img src=""stim_listA/greet6.gif""style=""height:400px;""></stim_listA>","is being greeted by","","","","","",""
"null","<div style=""font-size:60px;"">+</div>","","html-keyboard-response","94","562849","0.0-13.0-0.11","29970","List2A","white","woman","","","","null","","","","","","","","",""
"null","<img src=""stim_listA/greet8.gif""style=""height:400px;""></stim_listA>","","html-keyboard-response","95","564854","0.0-13.0-1.11","29970","List2A","white","woman","","","","null","","","","","","","","",""
"null","is being greeted by","","html-keyboard-response","96","566859","0.0-13.0-2.11","29970","List2A","white","woman","","","","null","","","","","","","","",""
"6780","","","survey-text","97","573641","0.0-13.0-3.11","29970","List2A","white","woman","","","","","{""Q0"":""kate is being greeted by ruth""}","<img src=""stim_listA/greet8.gif""style=""height:400px;""></stim_listA>","is being greeted by","","","","","",""
"null","<div style=""font-size:60px;"">+</div>","","html-keyboard-response","98","574146","0.0-13.0-0.12","29970","List2A","white","woman","","","","null","","","","","","","","",""
"null","<img src=""stim_listA/shout1.gif""style=""height:400px;""></stim_listA>","","html-keyboard-response","99","576152","0.0-13.0-1.12","29970","List2A","white","woman","","","","null","","","","","","","","",""
"null","is shouting at","","html-keyboard-response","100","578154","0.0-13.0-2.12","29970","List2A","white","woman","","","","null","","","","","","","","",""
"5636.700000047684","","","survey-text","101","583793","0.0-13.0-3.12","29970","List2A","white","woman","","","","","{""Q0"":""ruth is shouting at luke""}","<img src=""stim_listA/shout1.gif""style=""height:400px;""></stim_listA>","is shouting at","","","","","",""
"null","<div style=""font-size:60px;"">+</div>","","html-keyboard-response","102","584294","0.0-13.0-0.13","29970","List2A","white","woman","","","","null","","","","","","","","",""
"null","<img src=""stim_listA/greet4.gif""style=""height:400px;""></stim_listA>","","html-keyboard-response","103","586298","0.0-13.0-1.13","29970","List2A","white","woman","","","","null","","","","","","","","",""
"null","is being greeted by","","html-keyboard-response","104","588302","0.0-13.0-2.13","29970","List2A","white","woman","","","","null","","","","","","","","",""
"6728.5","","","survey-text","105","595033","0.0-13.0-3.13","29970","List2A","white","woman","","","","","{""Q0"":""kate is being greeted by fred""}","<img src=""stim_listA/greet4.gif""style=""height:400px;""></stim_listA>","is being greeted by","","","","","",""
"null","<div style=""font-size:60px;"">+</div>","","html-keyboard-response","106","595535","0.0-13.0-0.14","29970","List2A","white","woman","","","","null","","","","","","","","",""
"null","<img src=""stim_listA/seduce4.gif""style=""height:400px;""></stim_listA>","","html-keyboard-response","107","597540","0.0-13.0-1.14","29970","List2A","white","woman","","","","null","","","","","","","","",""
"null","is being seduced by","","html-keyboard-response","108","599542","0.0-13.0-2.14","29970","List2A","white","woman","","","","null","","","","","","","","",""
"7080.600000023842","","","survey-text","109","606625","0.0-13.0-3.14","29970","List2A","white","woman","","","","","{""Q0"":""mike is being seduced by beth""}","<img src=""stim_listA/seduce4.gif""style=""height:400px;""></stim_listA>","is being seduced by","","","","","",""
"null","<div style=""font-size:60px;"">+</div>","","html-keyboard-response","110","607127","0.0-13.0-0.15","29970","List2A","white","woman","","","","null","","","","","","","","",""
"null","<img src=""stim_listA/oppose2.gif""style=""height:400px;""></stim_listA>","","html-keyboard-response","111","609134","0.0-13.0-1.15","29970","List2A","white","woman","","","","null","","","","","","","","",""
"null","is being opposed by","","html-keyboard-response","112","611140","0.0-13.0-2.15","29970","List2A","white","woman","","","","null","","","","","","","","",""
"6512.600000023842","","","survey-text","113","617655","0.0-13.0-3.15","29970","List2A","white","woman","","","","","{""Q0"":""luke is being opposed by ruth""}","<img src=""stim_listA/oppose2.gif""style=""height:400px;""></stim_listA>","is being opposed by","","","","","",""
"null","<div style=""font-size:60px;"">+</div>","","html-keyboard-response","114","618159","0.0-13.0-0.16","29970","List2A","white","woman","","","","null","","","","","","","","",""
"null","<img src=""stim_listA/touch4.gif""style=""height:400px;""></stim_listA>","","html-keyboard-response","115","620162","0.0-13.0-1.16","29970","List2A","white","woman","","","","null","","","","","","","","",""
"null","is being touched by","","html-keyboard-response","116","622164","0.0-13.0-2.16","29970","List2A","white","woman","","","","null","","","","","","","","",""
"5982","","","survey-text","117","628149","0.0-13.0-3.16","29970","List2A","white","woman","","","","","{""Q0"":""beth is being touched by fred""}","<img src=""stim_listA/touch4.gif""style=""height:400px;""></stim_listA>","is being touched by","","","","","",""
"null","<div style=""font-size:60px;"">+</div>","","html-keyboard-response","118","628653","0.0-13.0-0.17","29970","List2A","white","woman","","","","null","","","","","","","","",""
"null","<img src=""stim_listA/seduce3.gif""style=""height:400px;""></stim_listA>","","html-keyboard-response","119","630655","0.0-13.0-1.17","29970","List2A","white","woman","","","","null","","","","","","","","",""
"null","is seducing","","html-keyboard-response","120","632659","0.0-13.0-2.17","29970","List2A","white","woman","","","","null","","","","","","","","",""
"7106.900000095367","","","survey-text","121","639768","0.0-13.0-3.17","29970","List2A","white","woman","","","","","{""Q0"":""kate is seducing fred""}","<img src=""stim_listA/seduce3.gif""style=""height:400px;""></stim_listA>","is seducing","","","","","",""
"null","<div style=""font-size:60px;"">+</div>","","html-keyboard-response","122","640270","0.0-13.0-0.18","29970","List2A","white","woman","","","","null","","","","","","","","",""
"null","<img src=""stim_listA/hug3.gif""style=""height:400px;""></stim_listA>","","html-keyboard-response","123","642275","0.0-13.0-1.18","29970","List2A","white","woman","","","","null","","","","","","","","",""
"null","is hugging","","html-keyboard-response","124","644280","0.0-13.0-2.18","29970","List2A","white","woman","","","","null","","","","","","","","",""
"4360.300000071526","","","survey-text","125","648643","0.0-13.0-3.18","29970","List2A","white","woman","","","","","{""Q0"":""fred is hugging beth""}","<img src=""stim_listA/hug3.gif""style=""height:400px;""></stim_listA>","is hugging","","","","","",""
"null","<div style=""font-size:60px;"">+</div>","","html-keyboard-response","126","649144","0.0-13.0-0.19","29970","List2A","white","woman","","","","null","","","","","","","","",""
"null","<img src=""stim_listA/hug8.gif""style=""height:400px;""></stim_listA>","","html-keyboard-response","127","651149","0.0-13.0-1.19","29970","List2A","white","woman","","","","null","","","","","","","","",""
"null","is being hugged by","","html-keyboard-response","128","653152","0.0-13.0-2.19","29970","List2A","white","woman","","","","null","","","","","","","","",""
"9970.5","","","survey-text","129","663125","0.0-13.0-3.19","29970","List2A","white","woman","","","","","{""Q0"":""kate is hugged by jane""}","<img src=""stim_listA/hug8.gif""style=""height:400px;""></stim_listA>","is being hugged by","","","","","",""
"8468.200000047684","<img src='img/portrait_matrix_list2.jpg' style='width:900px;height:500px;''></img><p>If you have memorised all the portraits and names and are ready to start, press Continue.</p><p><strong>Please note: Your memory of these faces will be tested 4 times during this experiment.</strong></p>","0","html-button-response","130","671595","0.0-14.0-0.0","29970","List2A","white","woman","","","","","","","","","","","","",""
"1672.1999999284744","<img src=""portrait/WW2.jpg""style=""height:400px;""></img>","3","html-button-response","131","674271","0.0-14.0-1.0","29970","List2A","white","woman","","true","3","","","","","","","","","",""
"null","CORRECT","","html-keyboard-response","132","675779","0.0-14.0-2.0-0.0","29970","List2A","white","woman","","","","null","","","","","","","","",""
"1936","<img src=""portrait/WW1.jpg""style=""height:400px;""></img>","1","html-button-response","133","677716","0.0-14.0-4.0","29970","List2A","white","woman","","true","1","","","","","","","","","",""
"null","CORRECT","","html-keyboard-response","134","679227","0.0-14.0-5.0-0.0","29970","List2A","white","woman","","","","null","","","","","","","","",""
"2356.600000023842","<img src=""portrait/WM1.jpg""style=""height:400px;""></img>","6","html-button-response","135","681585","0.0-14.0-7.0","29970","List2A","white","woman","","true","6","","","","","","","","","",""
"null","CORRECT","","html-keyboard-response","136","683090","0.0-14.0-8.0-0.0","29970","List2A","white","woman","","","","null","","","","","","","","",""
"1321.8000000715256","<img src=""portrait/WM2.jpg""style=""height:400px;""></img>","7","html-button-response","137","684414","0.0-14.0-10.0","29970","List2A","white","woman","","true","7","","","","","","","","","",""
"null","CORRECT","","html-keyboard-response","138","685920","0.0-14.0-11.0-0.0","29970","List2A","white","woman","","","","null","","","","","","","","",""
"2462.100000023842","<img src=""portrait/BW2.jpg""style=""height:400px;""></img>","2","html-button-response","139","688384","0.0-14.0-13.0","29970","List2A","white","woman","","true","2","","","","","","","","","",""
"null","CORRECT","","html-keyboard-response","140","689893","0.0-14.0-14.0-0.0","29970","List2A","white","woman","","","","null","","","","","","","","",""
"2271","<img src=""portrait/BM2.jpg""style=""height:400px;""></img>","5","html-button-response","141","692165","0.0-14.0-16.0","29970","List2A","white","woman","","true","5","","","","","","","","","",""
"null","CORRECT","","html-keyboard-response","142","693671","0.0-14.0-17.0-0.0","29970","List2A","white","woman","","","","null","","","","","","","","",""
"2409.7000000476837","<img src=""portrait/BW1.jpg""style=""height:400px;""></img>","0","html-button-response","143","696082","0.0-14.0-19.0","29970","List2A","white","woman","","true","0","","","","","","","","","",""
"null","CORRECT","","html-keyboard-response","144","697584","0.0-14.0-20.0-0.0","29970","List2A","white","woman","","","","null","","","","","","","","",""
"2521.2999999523163","<img src=""portrait/BM1.jpg""style=""height:400px;""></img>","4","html-button-response","145","700106","0.0-14.0-22.0","29970","List2A","white","woman","","true","4","","","","","","","","","",""
"null","CORRECT","","html-keyboard-response","146","701610","0.0-14.0-23.0-0.0","29970","List2A","white","woman","","","","null","","","","","","","","",""
"1520.2999999523163","<p>You got 8 out of 8 right first time. Press Continue.</p>","0","html-button-response","147","703131","0.0-14.0-25.0","29970","List2A","white","woman","","","","","","","","","","","","",""
"null","<div style=""font-size:60px;"">+</div>","","html-keyboard-response","148","704641","0.0-15.0-0.0","29970","List2A","white","woman","","","","null","","","","","","","","",""
"null","<img src=""stim_listA/shout8.gif""style=""height:400px;""></stim_listA>","","html-keyboard-response","149","706647","0.0-15.0-1.0","29970","List2A","white","woman","","","","null","","","","","","","","",""
"null","is being shouted at by","","html-keyboard-response","150","708653","0.0-15.0-2.0","29970","List2A","white","woman","","","","null","","","","","","","","",""
"11632.200000047684","","","survey-text","151","720288","0.0-15.0-3.0","29970","List2A","white","woman","","","","","{""Q0"":""jane is being shouted at by kate""}","<img src=""stim_listA/shout8.gif""style=""height:400px;""></stim_listA>","is being shouted at by","","","","","",""
"null","<div style=""font-size:60px;"">+</div>","","html-keyboard-response","152","720789","0.0-15.0-0.1","29970","List2A","white","woman","","","","null","","","","","","","","",""
"null","<img src=""stim_listA/greet5.gif""style=""height:400px;""></stim_listA>","","html-keyboard-response","153","722792","0.0-15.0-1.1","29970","List2A","white","woman","","","","null","","","","","","","","",""
"null","is greeting","","html-keyboard-response","154","724794","0.0-15.0-2.1","29970","List2A","white","woman","","","","null","","","","","","","","",""
"7091.599999904633","","","survey-text","155","731888","0.0-15.0-3.1","29970","List2A","white","woman","","","","","{""Q0"":""fred is greeting dave""}","<img src=""stim_listA/greet5.gif""style=""height:400px;""></stim_listA>","is greeting","","","","","",""
"null","<div style=""font-size:60px;"">+</div>","","html-keyboard-response","156","732392","0.0-15.0-0.2","29970","List2A","white","woman","","","","null","","","","","","","","",""
"null","<img src=""stim_listA/challenge6.gif""style=""height:400px;""></stim_listA>","","html-keyboard-response","157","734399","0.0-15.0-1.2","29970","List2A","white","woman","","","","null","","","","","","","","",""
"null","is being challenged by","","html-keyboard-response","158","736403","0.0-15.0-2.2","29970","List2A","white","woman","","","","null","","","","","","","","",""
"8538.799999952316","","","survey-text","159","744945","0.0-15.0-3.2","29970","List2A","white","woman","","","","","{""Q0"":""mike is being challenged by luke""}","<img src=""stim_listA/challenge6.gif""style=""height:400px;""></stim_listA>","is being challenged by","","","","","",""
"null","<div style=""font-size:60px;"">+</div>","","html-keyboard-response","160","745447","0.0-15.0-0.3","29970","List2A","white","woman","","","","null","","","","","","","","",""
"null","<img src=""stim_listA/copy6.gif""style=""height:400px;""></stim_listA>","","html-keyboard-response","161","747453","0.0-15.0-1.3","29970","List2A","white","woman","","","","null","","","","","","","","",""
"null","is being copied by","","html-keyboard-response","162","749458","0.0-15.0-2.3","29970","List2A","white","woman","","","","null","","","","","","","","",""
"6992.199999928474","","","survey-text","163","756452","0.0-15.0-3.3","29970","List2A","white","woman","","","","","{""Q0"":""luke is being copied by mike""}","<img src=""stim_listA/copy6.gif""style=""height:400px;""></stim_listA>","is being copied by","","","","","",""
"null","<div style=""font-size:60px;"">+</div>","","html-keyboard-response","164","756954","0.0-15.0-0.4","29970","List2A","white","woman","","","","null","","","","","","","","",""
"null","<img src=""stim_listA/oppose6.gif""style=""height:400px;""></stim_listA>","","html-keyboard-response","165","758958","0.0-15.0-1.4","29970","List2A","white","woman","","","","null","","","","","","","","",""
"null","is being opposed by","","html-keyboard-response","166","760960","0.0-15.0-2.4","29970","List2A","white","woman","","","","null","","","","","","","","",""
"7288.399999976158","","","survey-text","167","768251","0.0-15.0-3.4","29970","List2A","white","woman","","","","","{""Q0"":""fred is being opposed by luke""}","<img src=""stim_listA/oppose6.gif""style=""height:400px;""></stim_listA>","is being opposed by","","","","","",""
"null","<div style=""font-size:60px;"">+</div>","","html-keyboard-response","168","768755","0.0-15.0-0.5","29970","List2A","white","woman","","","","null","","","","","","","","",""
"null","<img src=""stim_listA/challenge5.gif""style=""height:400px;""></stim_listA>","","html-keyboard-response","169","770759","0.0-15.0-1.5","29970","List2A","white","woman","","","","null","","","","","","","","",""
"null","is challenging","","html-keyboard-response","170","772760","0.0-15.0-2.5","29970","List2A","white","woman","","","","null","","","","","","","","",""
"5464.200000047684","","","survey-text","171","778227","0.0-15.0-3.5","29970","List2A","white","woman","","","","","{""Q0"":""dave is challenging fred""}","<img src=""stim_listA/challenge5.gif""style=""height:400px;""></stim_listA>","is challenging","","","","","",""
"null","<div style=""font-size:60px;"">+</div>","","html-keyboard-response","172","778729","0.0-15.0-0.6","29970","List2A","white","woman","","","","null","","","","","","","","",""
"null","<img src=""stim_listA/oppose7.gif""style=""height:400px;""></stim_listA>","","html-keyboard-response","173","780733","0.0-15.0-1.6","29970","List2A","white","woman","","","","null","","","","","","","","",""
"null","is opposing","","html-keyboard-response","174","782738","0.0-15.0-2.6","29970","List2A","white","woman","","","","null","","","","","","","","",""
"5533","","","survey-text","175","788273","0.0-15.0-3.6","29970","List2A","white","woman","","","","","{""Q0"":""jane is opposing kate""}","<img src=""stim_listA/oppose7.gif""style=""height:400px;""></stim_listA>","is opposing","","","","","",""
"null","<div style=""font-size:60px;"">+</div>","","html-keyboard-response","176","788775","0.0-15.0-0.7","29970","List2A","white","woman","","","","null","","","","","","","","",""
"null","<img src=""stim_listA/kiss8.gif""style=""height:400px;""></stim_listA>","","html-keyboard-response","177","790779","0.0-15.0-1.7","29970","List2A","white","woman","","","","null","","","","","","","","",""
"null","is being kissed by","","html-keyboard-response","178","792781","0.0-15.0-2.7","29970","List2A","white","woman","","","","null","","","","","","","","",""
"6762.5","","","survey-text","179","799546","0.0-15.0-3.7","29970","List2A","white","woman","","","","","{""Q0"":""jane is being kissed by kate""}","<img src=""stim_listA/kiss8.gif""style=""height:400px;""></stim_listA>","is being kissed by","","","","","",""
"null","<div style=""font-size:60px;"">+</div>","","html-keyboard-response","180","800048","0.0-15.0-0.8","29970","List2A","white","woman","","","","null","","","","","","","","",""
"null","<img src=""stim_listA/copy1.gif""style=""height:400px;""></stim_listA>","","html-keyboard-response","181","802053","0.0-15.0-1.8","29970","List2A","white","woman","","","","null","","","","","","","","",""
"null","is copying","","html-keyboard-response","182","804058","0.0-15.0-2.8","29970","List2A","white","woman","","","","null","","","","","","","","",""
"5022.700000047684","","","survey-text","183","809083","0.0-15.0-3.8","29970","List2A","white","woman","","","","","{""Q0"":""dave is copying ruth""}","<img src=""stim_listA/copy1.gif""style=""height:400px;""></stim_listA>","is copying","","","","","",""
"null","<div style=""font-size:60px;"">+</div>","","html-keyboard-response","184","809585","0.0-15.0-0.9","29970","List2A","white","woman","","","","null","","","","","","","","",""
"null","<img src=""stim_listA/touch1.gif""style=""height:400px;""></stim_listA>","","html-keyboard-response","185","811592","0.0-15.0-1.9","29970","List2A","white","woman","","","","null","","","","","","","","",""
"null","is touching","","html-keyboard-response","186","813597","0.0-15.0-2.9","29970","List2A","white","woman","","","","null","","","","","","","","",""
"7684.700000047684","","","survey-text","187","821284","0.0-15.0-3.9","29970","List2A","white","woman","","","","","{""Q0"":""dave is touching jane""}","<img src=""stim_listA/touch1.gif""style=""height:400px;""></stim_listA>","is touching","","","","","",""
"null","<div style=""font-size:60px;"">+</div>","","html-keyboard-response","188","821786","0.0-15.0-0.10","29970","List2A","white","woman","","","","null","","","","","","","","",""
"null","<img src=""stim_listA/look3.gif""style=""height:400px;""></stim_listA>","","html-keyboard-response","189","823792","0.0-15.0-1.10","29970","List2A","white","woman","","","","null","","","","","","","","",""
"null","is looking at","","html-keyboard-response","190","825797","0.0-15.0-2.10","29970","List2A","white","woman","","","","null","","","","","","","","",""
"4850.600000023842","","","survey-text","191","830650","0.0-15.0-3.10","29970","List2A","white","woman","","","","","{""Q0"":""beth is looking at fred""}","<img src=""stim_listA/look3.gif""style=""height:400px;""></stim_listA>","is looking at","","","","","",""
"null","<div style=""font-size:60px;"">+</div>","","html-keyboard-response","192","831152","0.0-15.0-0.11","29970","List2A","white","woman","","","","null","","","","","","","","",""
"null","<img src=""stim_listA/challenge4.gif""style=""height:400px;""></stim_listA>","","html-keyboard-response","193","833155","0.0-15.0-1.11","29970","List2A","white","woman","","","","null","","","","","","","","",""
"null","is being challenged by","","html-keyboard-response","194","835162","0.0-15.0-2.11","29970","List2A","white","woman","","","","null","","","","","","","","",""
"7045.799999952316","","","survey-text","195","842210","0.0-15.0-3.11","29970","List2A","white","woman","","","","","{""Q0"":""kate is being challenged by fred""}","<img src=""stim_listA/challenge4.gif""style=""height:400px;""></stim_listA>","is being challenged by","","","","","",""
"null","<div style=""font-size:60px;"">+</div>","","html-keyboard-response","196","842713","0.0-15.0-0.12","29970","List2A","white","woman","","","","null","","","","","","","","",""
"null","<img src=""stim_listA/shout5.gif""style=""height:400px;""></stim_listA>","","html-keyboard-response","197","844715","0.0-15.0-1.12","29970","List2A","white","woman","","","","null","","","","","","","","",""
"null","is shouting at","","html-keyboard-response","198","846716","0.0-15.0-2.12","29970","List2A","white","woman","","","","null","","","","","","","","",""
"5827.899999976158","","","survey-text","199","852546","0.0-15.0-3.12","29970","List2A","white","woman","","","","","{""Q0"":""luke is shouting at fred""}","<img src=""stim_listA/shout5.gif""style=""height:400px;""></stim_listA>","is shouting at","","","","","",""
"null","<div style=""font-size:60px;"">+</div>","","html-keyboard-response","200","853048","0.0-15.0-0.13","29970","List2A","white","woman","","","","null","","","","","","","","",""
"null","<img src=""stim_listA/look1.gif""style=""height:400px;""></stim_listA>","","html-keyboard-response","201","855051","0.0-15.0-1.13","29970","List2A","white","woman","","","","null","","","","","","","","",""
"null","is looking at","","html-keyboard-response","202","857053","0.0-15.0-2.13","29970","List2A","white","woman","","","","null","","","","","","","","",""
"5356.300000071526","","","survey-text","203","862411","0.0-15.0-3.13","29970","List2A","white","woman","","","","","{""Q0"":""luke is looking at ruth""}","<img src=""stim_listA/look1.gif""style=""height:400px;""></stim_listA>","is looking at","","","","","",""
"null","<div style=""font-size:60px;"">+</div>","","html-keyboard-response","204","862912","0.0-15.0-0.14","29970","List2A","white","woman","","","","null","","","","","","","","",""
"null","<img src=""stim_listA/look6.gif""style=""height:400px;""></stim_listA>","","html-keyboard-response","205","864916","0.0-15.0-1.14","29970","List2A","white","woman","","","","null","","","","","","","","",""
"null","is being looked at by","","html-keyboard-response","206","866921","0.0-15.0-2.14","29970","List2A","white","woman","","","","null","","","","","","","","",""
"8222.399999976158","","","survey-text","207","875146","0.0-15.0-3.14","29970","List2A","white","woman","","","","","{""Q0"":""mike is being looked at by dave""}","<img src=""stim_listA/look6.gif""style=""height:400px;""></stim_listA>","is being looked at by","","","","","",""
"null","<div style=""font-size:60px;"">+</div>","","html-keyboard-response","208","875648","0.0-15.0-0.15","29970","List2A","white","woman","","","","null","","","","","","","","",""
"null","<img src=""stim_listA/seduce2.gif""style=""height:400px;""></stim_listA>","","html-keyboard-response","209","877651","0.0-15.0-1.15","29970","List2A","white","woman","","","","null","","","","","","","","",""
"null","is being seduced by","","html-keyboard-response","210","879656","0.0-15.0-2.15","29970","List2A","white","woman","","","","null","","","","","","","","",""
"6788","","","survey-text","211","886447","0.0-15.0-3.15","29970","List2A","white","woman","","","","","{""Q0"":""dave is being seduced by ruth""}","<img src=""stim_listA/seduce2.gif""style=""height:400px;""></stim_listA>","is being seduced by","","","","","",""
"null","<div style=""font-size:60px;"">+</div>","","html-keyboard-response","212","886948","0.0-15.0-0.16","29970","List2A","white","woman","","","","null","","","","","","","","",""
"null","<img src=""stim_listA/touch5.gif""style=""height:400px;""></stim_listA>","","html-keyboard-response","213","888955","0.0-15.0-1.16","29970","List2A","white","woman","","","","null","","","","","","","","",""
"null","is touching","","html-keyboard-response","214","890957","0.0-15.0-2.16","29970","List2A","white","woman","","","","null","","","","","","","","",""
"4660.300000071526","","","survey-text","215","895620","0.0-15.0-3.16","29970","List2A","white","woman","","","","","{""Q0"":""dave is touching mike""}","<img src=""stim_listA/touch5.gif""style=""height:400px;""></stim_listA>","is touching","","","","","",""
"null","<div style=""font-size:60px;"">+</div>","","html-keyboard-response","216","896121","0.0-15.0-0.17","29970","List2A","white","woman","","","","null","","","","","","","","",""
"null","<img src=""stim_listA/copy5.gif""style=""height:400px;""></stim_listA>","","html-keyboard-response","217","898123","0.0-15.0-1.17","29970","List2A","white","woman","","","","null","","","","","","","","",""
"null","is copying","","html-keyboard-response","218","900126","0.0-15.0-2.17","29970","List2A","white","woman","","","","null","","","","","","","","",""
"5077.100000023842","","","survey-text","219","905206","0.0-15.0-3.17","29970","List2A","white","woman","","","","","{""Q0"":""dave is copying fred""}","<img src=""stim_listA/copy5.gif""style=""height:400px;""></stim_listA>","is copying","","","","","",""
"null","<div style=""font-size:60px;"">+</div>","","html-keyboard-response","220","905709","0.0-15.0-0.18","29970","List2A","white","woman","","","","null","","","","","","","","",""
"null","<img src=""stim_listA/copy3.gif""style=""height:400px;""></stim_listA>","","html-keyboard-response","221","907712","0.0-15.0-1.18","29970","List2A","white","woman","","","","null","","","","","","","","",""
"null","is copying","","html-keyboard-response","222","909713","0.0-15.0-2.18","29970","List2A","white","woman","","","","null","","","","","","","","",""
"4492.199999928474","","","survey-text","223","914207","0.0-15.0-3.18","29970","List2A","white","woman","","","","","{""Q0"":""mike is copying beth""}","<img src=""stim_listA/copy3.gif""style=""height:400px;""></stim_listA>","is copying","","","","","",""
"null","<div style=""font-size:60px;"">+</div>","","html-keyboard-response","224","914708","0.0-15.0-0.19","29970","List2A","white","woman","","","","null","","","","","","","","",""
"null","<img src=""stim_listA/shout7.gif""style=""height:400px;""></stim_listA>","","html-keyboard-response","225","916711","0.0-15.0-1.19","29970","List2A","white","woman","","","","null","","","","","","","","",""
"null","is shouting at","","html-keyboard-response","226","918717","0.0-15.0-2.19","29970","List2A","white","woman","","","","null","","","","","","","","",""
"5598.300000071526","","","survey-text","227","924318","0.0-15.0-3.19","29970","List2A","white","woman","","","","","{""Q0"":""beth is shouting at ruth""}","<img src=""stim_listA/shout7.gif""style=""height:400px;""></stim_listA>","is shouting at","","","","","",""
"3629.7000000476837","<img src='img/portrait_matrix_list2.jpg' style='width:900px;height:500px;''></img><p>If you have memorised all the portraits and names and are ready to start, press Continue.</p><p><strong>Please note: Your memory of these faces will be tested 4 times during this experiment.</strong></p>","0","html-button-response","228","927949","0.0-16.0-0.0","29970","List2A","white","woman","","","","","","","","","","","","",""
"3132.600000023842","<img src=""portrait/WM2.jpg""style=""height:400px;""></img>","7","html-button-response","229","932084","0.0-16.0-1.0","29970","List2A","white","woman","","true","7","","","","","","","","","",""
"null","CORRECT","","html-keyboard-response","230","933588","0.0-16.0-2.0-0.0","29970","List2A","white","woman","","","","null","","","","","","","","",""
"1305.2999999523163","<img src=""portrait/BM2.jpg""style=""height:400px;""></img>","5","html-button-response","231","934895","0.0-16.0-4.0","29970","List2A","white","woman","","true","5","","","","","","","","","",""
"null","CORRECT","","html-keyboard-response","232","936404","0.0-16.0-5.0-0.0","29970","List2A","white","woman","","","","null","","","","","","","","",""
"1281.8999999761581","<img src=""portrait/BM1.jpg""style=""height:400px;""></img>","4","html-button-response","233","937687","0.0-16.0-7.0","29970","List2A","white","woman","","true","4","","","","","","","","","",""
"null","CORRECT","","html-keyboard-response","234","939191","0.0-16.0-8.0-0.0","29970","List2A","white","woman","","","","null","","","","","","","","",""
"1431","<img src=""portrait/WW2.jpg""style=""height:400px;""></img>","3","html-button-response","235","940623","0.0-16.0-10.0","29970","List2A","white","woman","","true","3","","","","","","","","","",""
"null","CORRECT","","html-keyboard-response","236","942127","0.0-16.0-11.0-0.0","29970","List2A","white","woman","","","","null","","","","","","","","",""
"3275.4000000953674","<img src=""portrait/BW2.jpg""style=""height:400px;""></img>","2","html-button-response","237","945404","0.0-16.0-13.0","29970","List2A","white","woman","","true","2","","","","","","","","","",""
"null","CORRECT","","html-keyboard-response","238","946907","0.0-16.0-14.0-0.0","29970","List2A","white","woman","","","","null","","","","","","","","",""
"1773.5","<img src=""portrait/BW1.jpg""style=""height:400px;""></img>","0","html-button-response","239","948682","0.0-16.0-16.0","29970","List2A","white","woman","","true","0","","","","","","","","","",""
"null","CORRECT","","html-keyboard-response","240","950189","0.0-16.0-17.0-0.0","29970","List2A","white","woman","","","","null","","","","","","","","",""
"3477.7999999523163","<img src=""portrait/WW1.jpg""style=""height:400px;""></img>","1","html-button-response","241","953668","0.0-16.0-19.0","29970","List2A","white","woman","","true","1","","","","","","","","","",""
"null","CORRECT","","html-keyboard-response","242","955174","0.0-16.0-20.0-0.0","29970","List2A","white","woman","","","","null","","","","","","","","",""
"2014.7000000476837","<img src=""portrait/WM1.jpg""style=""height:400px;""></img>","6","html-button-response","243","957190","0.0-16.0-22.0","29970","List2A","white","woman","","true","6","","","","","","","","","",""
"null","CORRECT","","html-keyboard-response","244","958698","0.0-16.0-23.0-0.0","29970","List2A","white","woman","","","","null","","","","","","","","",""
"1226","<p>You got 8 out of 8 right first time. Press Continue.</p>","0","html-button-response","245","959925","0.0-16.0-25.0","29970","List2A","white","woman","","","","","","","","","","","","",""
"null","<div style=""font-size:60px;"">+</div>","","html-keyboard-response","246","961431","0.0-17.0-0.0","29970","List2A","white","woman","","","","null","","","","","","","","",""
"null","<img src=""stim_listA/look2.gif""style=""height:400px;""></stim_listA>","","html-keyboard-response","247","963437","0.0-17.0-1.0","29970","List2A","white","woman","","","","null","","","","","","","","",""
"null","is being looked at by","","html-keyboard-response","248","965439","0.0-17.0-2.0","29970","List2A","white","woman","","","","null","","","","","","","","",""
"6933.300000071526","","","survey-text","249","972376","0.0-17.0-3.0","29970","List2A","white","woman","","","","","{""Q0"":""jane is being looked at by dave""}","<img src=""stim_listA/look2.gif""style=""height:400px;""></stim_listA>","is being looked at by","","","","","",""
"null","<div style=""font-size:60px;"">+</div>","","html-keyboard-response","250","972880","0.0-17.0-0.1","29970","List2A","white","woman","","","","null","","","","","","","","",""
"null","<img src=""stim_listA/kiss7.gif""style=""height:400px;""></stim_listA>","","html-keyboard-response","251","974882","0.0-17.0-1.1","29970","List2A","white","woman","","","","null","","","","","","","","",""
"null","is kissing","","html-keyboard-response","252","976887","0.0-17.0-2.1","29970","List2A","white","woman","","","","null","","","","","","","","",""
"4010.7000000476837","","","survey-text","253","980900","0.0-17.0-3.1","29970","List2A","white","woman","","","","","{""Q0"":""beth is kissing ruth""}","<img src=""stim_listA/kiss7.gif""style=""height:400px;""></stim_listA>","is kissing","","","","","",""
"null","<div style=""font-size:60px;"">+</div>","","html-keyboard-response","254","981401","0.0-17.0-0.2","29970","List2A","white","woman","","","","null","","","","","","","","",""
"null","<img src=""stim_listA/kiss2.gif""style=""height:400px;""></stim_listA>","","html-keyboard-response","255","983406","0.0-17.0-1.2","29970","List2A","white","woman","","","","null","","","","","","","","",""
"null","is being kissed by","","html-keyboard-response","256","985410","0.0-17.0-2.2","29970","List2A","white","woman","","","","null","","","","","","","","",""
"7640.300000071526","","","survey-text","257","993052","0.0-17.0-3.2","29970","List2A","white","woman","","","","","{""Q0"":""jane is being kissed by dave""}","<img src=""stim_listA/kiss2.gif""style=""height:400px;""></stim_listA>","is being kissed by","","","","","",""
"null","<div style=""font-size:60px;"">+</div>","","html-keyboard-response","258","993556","0.0-17.0-0.3","29970","List2A","white","woman","","","","null","","","","","","","","",""
"null","<img src=""stim_listA/oppose3.gif""style=""height:400px;""></stim_listA>","","html-keyboard-response","259","995560","0.0-17.0-1.3","29970","List2A","white","woman","","","","null","","","","","","","","",""
"null","is opposing","","html-keyboard-response","260","997561","0.0-17.0-2.3","29970","List2A","white","woman","","","","null","","","","","","","","",""
"8315.699999928474","","","survey-text","261","1005879","0.0-17.0-3.3","29970","List2A","white","woman","","","","","{""Q0"":""kate is opposing mike""}","<img src=""stim_listA/oppose3.gif""style=""height:400px;""></stim_listA>","is opposing","","","","","",""
"null","<div style=""font-size:60px;"">+</div>","","html-keyboard-response","262","1006380","0.0-17.0-0.4","29970","List2A","white","woman","","","","null","","","","","","","","",""
"null","<img src=""stim_listA/hug1.gif""style=""height:400px;""></stim_listA>","","html-keyboard-response","263","1008387","0.0-17.0-1.4","29970","List2A","white","woman","","","","null","","","","","","","","",""
"null","is hugging","","html-keyboard-response","264","1010389","0.0-17.0-2.4","29970","List2A","white","woman","","","","null","","","","","","","","",""
"4641.299999952316","","","survey-text","265","1015033","0.0-17.0-3.4","29970","List2A","white","woman","","","","","{""Q0"":""ruth is hugging luke""}","<img src=""stim_listA/hug1.gif""style=""height:400px;""></stim_listA>","is hugging","","","","","",""
"null","<div style=""font-size:60px;"">+</div>","","html-keyboard-response","266","1015536","0.0-17.0-0.5","29970","List2A","white","woman","","","","null","","","","","","","","",""
"null","<img src=""stim_listA/greet3.gif""style=""height:400px;""></stim_listA>","","html-keyboard-response","267","1017542","0.0-17.0-1.5","29970","List2A","white","woman","","","","null","","","","","","","","",""
"null","is greeting","","html-keyboard-response","268","1019546","0.0-17.0-2.5","29970","List2A","white","woman","","","","null","","","","","","","","",""
"4375.300000071526","","","survey-text","269","1023924","0.0-17.0-3.5","29970","List2A","white","woman","","","","","{""Q0"":""beth is greeting mike""}","<img src=""stim_listA/greet3.gif""style=""height:400px;""></stim_listA>","is greeting","","","","","",""
"null","<div style=""font-size:60px;"">+</div>","","html-keyboard-response","270","1024425","0.0-17.0-0.6","29970","List2A","white","woman","","","","null","","","","","","","","",""
"null","<img src=""stim_listA/challenge1.gif""style=""height:400px;""></stim_listA>","","html-keyboard-response","271","1026429","0.0-17.0-1.6","29970","List2A","white","woman","","","","null","","","","","","","","",""
"null","is challenging","","html-keyboard-response","272","1028431","0.0-17.0-2.6","29970","List2A","white","woman","","","","null","","","","","","","","",""
"4696.199999928474","","","survey-text","273","1033130","0.0-17.0-3.6","29970","List2A","white","woman","","","","","{""Q0"":""dave is challenging ruth""}","<img src=""stim_listA/challenge1.gif""style=""height:400px;""></stim_listA>","is challenging","","","","","",""
"null","<div style=""font-size:60px;"">+</div>","","html-keyboard-response","274","1033632","0.0-17.0-0.7","29970","List2A","white","woman","","","","null","","","","","","","","",""
"null","<img src=""stim_listA/kiss1.gif""style=""height:400px;""></stim_listA>","","html-keyboard-response","275","1035639","0.0-17.0-1.7","29970","List2A","white","woman","","","","null","","","","","","","","",""
"null","is kissing","","html-keyboard-response","276","1037641","0.0-17.0-2.7","29970","List2A","white","woman","","","","null","","","","","","","","",""
"5936.100000023842","","","survey-text","277","1043579","0.0-17.0-3.7","29970","List2A","white","woman","","","","","{""Q0"":""luke is kissing ruth""}","<img src=""stim_listA/kiss1.gif""style=""height:400px;""></stim_listA>","is kissing","","","","","",""
"null","<div style=""font-size:60px;"">+</div>","","html-keyboard-response","278","1044081","0.0-17.0-0.8","29970","List2A","white","woman","","","","null","","","","","","","","",""
"null","<img src=""stim_listA/shout6.gif""style=""height:400px;""></stim_listA>","","html-keyboard-response","279","1046088","0.0-17.0-1.8","29970","List2A","white","woman","","","","null","","","","","","","","",""
"null","is being shouted at by","","html-keyboard-response","280","1048089","0.0-17.0-2.8","29970","List2A","white","woman","","","","null","","","","","","","","",""
"8848.699999928474","","","survey-text","281","1056940","0.0-17.0-3.8","29970","List2A","white","woman","","","","","{""Q0"":""mike is being shouted at by dave""}","<img src=""stim_listA/shout6.gif""style=""height:400px;""></stim_listA>","is being shouted at by","","","","","",""
"null","<div style=""font-size:60px;"">+</div>","","html-keyboard-response","282","1057442","0.0-17.0-0.9","29970","List2A","white","woman","","","","null","","","","","","","","",""
"null","<img src=""stim_listA/kiss5.gif""style=""height:400px;""></stim_listA>","","html-keyboard-response","283","1059446","0.0-17.0-1.9","29970","List2A","white","woman","","","","null","","","","","","","","",""
"null","is kissing","","html-keyboard-response","284","1061452","0.0-17.0-2.9","29970","List2A","white","woman","","","","null","","","","","","","","",""
"5751.600000023842","","","survey-text","285","1067206","0.0-17.0-3.9","29970","List2A","white","woman","","","","","{""Q0"":""fred is kissing luke""}","<img src=""stim_listA/kiss5.gif""style=""height:400px;""></stim_listA>","is kissing","","","","","",""
"null","<div style=""font-size:60px;"">+</div>","","html-keyboard-response","286","1067711","0.0-17.0-0.10","29970","List2A","white","woman","","","","null","","","","","","","","",""
"null","<img src=""stim_listA/look4.gif""style=""height:400px;""></stim_listA>","","html-keyboard-response","287","1069714","0.0-17.0-1.10","29970","List2A","white","woman","","","","null","","","","","","","","",""
"null","is being looked at by","","html-keyboard-response","288","1071720","0.0-17.0-2.10","29970","List2A","white","woman","","","","null","","","","","","","","",""
"6768.899999976158","","","survey-text","289","1078491","0.0-17.0-3.10","29970","List2A","white","woman","","","","","{""Q0"":""kate is being looked at by mike""}","<img src=""stim_listA/look4.gif""style=""height:400px;""></stim_listA>","is being looked at by","","","","","",""
"null","<div style=""font-size:60px;"">+</div>","","html-keyboard-response","290","1078993","0.0-17.0-0.11","29970","List2A","white","woman","","","","null","","","","","","","","",""
"null","<img src=""stim_listA/kiss4.gif""style=""height:400px;""></stim_listA>","","html-keyboard-response","291","1080996","0.0-17.0-1.11","29970","List2A","white","woman","","","","null","","","","","","","","",""
"null","is being kissed by","","html-keyboard-response","292","1083002","0.0-17.0-2.11","29970","List2A","white","woman","","","","null","","","","","","","","",""
"4794.700000047684","","","survey-text","293","1087799","0.0-17.0-3.11","29970","List2A","white","woman","","","","","{""Q0"":""kate is being kissed by mike""}","<img src=""stim_listA/kiss4.gif""style=""height:400px;""></stim_listA>","is being kissed by","","","","","",""
"null","<div style=""font-size:60px;"">+</div>","","html-keyboard-response","294","1088304","0.0-17.0-0.12","29970","List2A","white","woman","","","","null","","","","","","","","",""
"null","<img src=""stim_listA/copy4.gif""style=""height:400px;""></stim_listA>","","html-keyboard-response","295","1090310","0.0-17.0-1.12","29970","List2A","white","woman","","","","null","","","","","","","","",""
"null","is being copied by","","html-keyboard-response","296","1092316","0.0-17.0-2.12","29970","List2A","white","woman","","","","null","","","","","","","","",""
"5964.599999904633","","","survey-text","297","1098283","0.0-17.0-3.12","29970","List2A","white","woman","","","","","{""Q0"":""kate is being copied by fred""}","<img src=""stim_listA/copy4.gif""style=""height:400px;""></stim_listA>","is being copied by","","","","","",""
"null","<div style=""font-size:60px;"">+</div>","","html-keyboard-response","298","1098784","0.0-17.0-0.13","29970","List2A","white","woman","","","","null","","","","","","","","",""
"null","<img src=""stim_listA/touch8.gif""style=""height:400px;""></stim_listA>","","html-keyboard-response","299","1100787","0.0-17.0-1.13","29970","List2A","white","woman","","","","null","","","","","","","","",""
"null","is being touched by","","html-keyboard-response","300","1102789","0.0-17.0-2.13","29970","List2A","white","woman","","","","null","","","","","","","","",""
"6556.399999976158","","","survey-text","301","1109348","0.0-17.0-3.13","29970","List2A","white","woman","","","","","{""Q0"":""beth is being touched by ruth""}","<img src=""stim_listA/touch8.gif""style=""height:400px;""></stim_listA>","is being touched by","","","","","",""
"null","<div style=""font-size:60px;"">+</div>","","html-keyboard-response","302","1109852","0.0-17.0-0.14","29970","List2A","white","woman","","","","null","","","","","","","","",""
"null","<img src=""stim_listA/look7.gif""style=""height:400px;""></stim_listA>","","html-keyboard-response","303","1111858","0.0-17.0-1.14","29970","List2A","white","woman","","","","null","","","","","","","","",""
"null","is looking at","","html-keyboard-response","304","1113861","0.0-17.0-2.14","29970","List2A","white","woman","","","","null","","","","","","","","",""
"6144.300000071526","","","survey-text","305","1120008","0.0-17.0-3.14","29970","List2A","white","woman","","","","","{""Q0"":""beth is looking at ruth""}","<img src=""stim_listA/look7.gif""style=""height:400px;""></stim_listA>","is looking at","","","","","",""
"null","<div style=""font-size:60px;"">+</div>","","html-keyboard-response","306","1120512","0.0-17.0-0.15","29970","List2A","white","woman","","","","null","","","","","","","","",""
"null","<img src=""stim_listA/touch7.gif""style=""height:400px;""></stim_listA>","","html-keyboard-response","307","1122514","0.0-17.0-1.15","29970","List2A","white","woman","","","","null","","","","","","","","",""
"null","is touching","","html-keyboard-response","308","1124515","0.0-17.0-2.15","29970","List2A","white","woman","","","","null","","","","","","","","",""
"4796.200000047684","","","survey-text","309","1129314","0.0-17.0-3.15","29970","List2A","white","woman","","","","","{""Q0"":""jane is touching kate""}","<img src=""stim_listA/touch7.gif""style=""height:400px;""></stim_listA>","is touching","","","","","",""
"null","<div style=""font-size:60px;"">+</div>","","html-keyboard-response","310","1129817","0.0-17.0-0.16","29970","List2A","white","woman","","","","null","","","","","","","","",""
"null","<img src=""stim_listA/seduce1.gif""style=""height:400px;""></stim_listA>","","html-keyboard-response","311","1131822","0.0-17.0-1.16","29970","List2A","white","woman","","","","null","","","","","","","","",""
"null","is seducing","","html-keyboard-response","312","1133828","0.0-17.0-2.16","29970","List2A","white","woman","","","","null","","","","","","","","",""
"4694.800000071526","","","survey-text","313","1138525","0.0-17.0-3.16","29970","List2A","white","woman","","","","","{""Q0"":""jane is seducing luke""}","<img src=""stim_listA/seduce1.gif""style=""height:400px;""></stim_listA>","is seducing","","","","","",""
"null","<div style=""font-size:60px;"">+</div>","","html-keyboard-response","314","1139028","0.0-17.0-0.17","29970","List2A","white","woman","","","","null","","","","","","","","",""
"null","<img src=""stim_listA/hug2.gif""style=""height:400px;""></stim_listA>","","html-keyboard-response","315","1141030","0.0-17.0-1.17","29970","List2A","white","woman","","","","null","","","","","","","","",""
"null","is being hugged by","","html-keyboard-response","316","1143031","0.0-17.0-2.17","29970","List2A","white","woman","","","","null","","","","","","","","",""
"6132.400000095367","","","survey-text","317","1149165","0.0-17.0-3.17","29970","List2A","white","woman","","","","","{""Q0"":""jane is being hugged by dave""}","<img src=""stim_listA/hug2.gif""style=""height:400px;""></stim_listA>","is being hugged by","","","","","",""
"null","<div style=""font-size:60px;"">+</div>","","html-keyboard-response","318","1149669","0.0-17.0-0.18","29970","List2A","white","woman","","","","null","","","","","","","","",""
"null","<img src=""stim_listA/greet2.gif""style=""height:400px;""></stim_listA>","","html-keyboard-response","319","1151672","0.0-17.0-1.18","29970","List2A","white","woman","","","","null","","","","","","","","",""
"null","is being greeted by","","html-keyboard-response","320","1153674","0.0-17.0-2.18","29970","List2A","white","woman","","","","null","","","","","","","","",""
"8606.200000047684","","","survey-text","321","1162283","0.0-17.0-3.18","29970","List2A","white","woman","","","","","{""Q0"":""jane is being greeted by luke""}","<img src=""stim_listA/greet2.gif""style=""height:400px;""></stim_listA>","is being greeted by","","","","","",""
"null","<div style=""font-size:60px;"">+</div>","","html-keyboard-response","322","1162784","0.0-17.0-0.19","29970","List2A","white","woman","","","","null","","","","","","","","",""
"null","<img src=""stim_listA/shout2.gif""style=""height:400px;""></stim_listA>","","html-keyboard-response","323","1164787","0.0-17.0-1.19","29970","List2A","white","woman","","","","null","","","","","","","","",""
"null","is being shouted at by","","html-keyboard-response","324","1166792","0.0-17.0-2.19","29970","List2A","white","woman","","","","null","","","","","","","","",""
"7896.700000047684","","","survey-text","325","1174691","0.0-17.0-3.19","29970","List2A","white","woman","","","","","{""Q0"":""jane is being shouted at by dave""}","<img src=""stim_listA/shout2.gif""style=""height:400px;""></stim_listA>","is being shouted at by","","","","","",""
"2335.600000023842","<img src='img/portrait_matrix_list2.jpg' style='width:900px;height:500px;''></img><p>If you have memorised all the portraits and names and are ready to start, press Continue.</p><p><strong>Please note: Your memory of these faces will be tested 4 times during this experiment.</strong></p>","0","html-button-response","326","1177028","0.0-18.0-0.0","29970","List2A","white","woman","","","","","","","","","","","","",""
"1889.5","<img src=""portrait/WM1.jpg""style=""height:400px;""></img>","6","html-button-response","327","1179923","0.0-18.0-1.0","29970","List2A","white","woman","","true","6","","","","","","","","","",""
"null","CORRECT","","html-keyboard-response","328","1181432","0.0-18.0-2.0-0.0","29970","List2A","white","woman","","","","null","","","","","","","","",""
"1845.2999999523163","<img src=""portrait/WW2.jpg""style=""height:400px;""></img>","3","html-button-response","329","1183279","0.0-18.0-4.0","29970","List2A","white","woman","","true","3","","","","","","","","","",""
"null","CORRECT","","html-keyboard-response","330","1184784","0.0-18.0-5.0-0.0","29970","List2A","white","woman","","","","null","","","","","","","","",""
"1903.7999999523163","<img src=""portrait/WM2.jpg""style=""height:400px;""></img>","7","html-button-response","331","1186689","0.0-18.0-7.0","29970","List2A","white","woman","","true","7","","","","","","","","","",""
"null","CORRECT","","html-keyboard-response","332","1188193","0.0-18.0-8.0-0.0","29970","List2A","white","woman","","","","null","","","","","","","","",""
"1906.1999999284744","<img src=""portrait/WW1.jpg""style=""height:400px;""></img>","1","html-button-response","333","1190101","0.0-18.0-10.0","29970","List2A","white","woman","","true","1","","","","","","","","","",""
"null","CORRECT","","html-keyboard-response","334","1191608","0.0-18.0-11.0-0.0","29970","List2A","white","woman","","","","null","","","","","","","","",""
"2454.100000023842","<img src=""portrait/BW2.jpg""style=""height:400px;""></img>","2","html-button-response","335","1194064","0.0-18.0-13.0","29970","List2A","white","woman","","true","2","","","","","","","","","",""
"null","CORRECT","","html-keyboard-response","336","1195569","0.0-18.0-14.0-0.0","29970","List2A","white","woman","","","","null","","","","","","","","",""
"1619.4000000953674","<img src=""portrait/BM2.jpg""style=""height:400px;""></img>","5","html-button-response","337","1197191","0.0-18.0-16.0","29970","List2A","white","woman","","true","5","","","","","","","","","",""
"null","CORRECT","","html-keyboard-response","338","1198700","0.0-18.0-17.0-0.0","29970","List2A","white","woman","","","","null","","","","","","","","",""
"2775.0999999046326","<img src=""portrait/BW1.jpg""style=""height:400px;""></img>","0","html-button-response","339","1201477","0.0-18.0-19.0","29970","List2A","white","woman","","true","0","","","","","","","","","",""
"null","CORRECT","","html-keyboard-response","340","1202981","0.0-18.0-20.0-0.0","29970","List2A","white","woman","","","","null","","","","","","","","",""
"1297.5","<img src=""portrait/BM1.jpg""style=""height:400px;""></img>","4","html-button-response","341","1204281","0.0-18.0-22.0","29970","List2A","white","woman","","true","4","","","","","","","","","",""
"null","CORRECT","","html-keyboard-response","342","1205789","0.0-18.0-23.0-0.0","29970","List2A","white","woman","","","","null","","","","","","","","",""
"1118.5","<p>You got 8 out of 8 right first time. Press Continue.</p>","0","html-button-response","343","1206908","0.0-18.0-25.0","29970","List2A","white","woman","","","","","","","","","","","","",""
"null","<div style=""font-size:60px;"">+</div>","","html-keyboard-response","344","1208418","0.0-19.0-0.0","29970","List2A","white","woman","","","","null","","","","","","","","",""
"null","<img src=""stim_listA/hug4.gif""style=""height:400px;""></stim_listA>","","html-keyboard-response","345","1210422","0.0-19.0-1.0","29970","List2A","white","woman","","","","null","","","","","","","","",""
"null","is being hugged by","","html-keyboard-response","346","1212426","0.0-19.0-2.0","29970","List2A","white","woman","","","","null","","","","","","","","",""
"5961.300000071526","","","survey-text","347","1218389","0.0-19.0-3.0","29970","List2A","white","woman","","","","","{""Q0"":""mike is being hugged by kate""}","<img src=""stim_listA/hug4.gif""style=""height:400px;""></stim_listA>","is being hugged by","","","","","",""
"null","<div style=""font-size:60px;"">+</div>","","html-keyboard-response","348","1218893","0.0-19.0-0.1","29970","List2A","white","woman","","","","null","","","","","","","","",""
"null","<img src=""stim_listA/hug7.gif""style=""height:400px;""></stim_listA>","","html-keyboard-response","349","1220900","0.0-19.0-1.1","29970","List2A","white","woman","","","","null","","","","","","","","",""
"null","is hugging","","html-keyboard-response","350","1222901","0.0-19.0-2.1","29970","List2A","white","woman","","","","null","","","","","","","","",""
"5526.099999904633","","","survey-text","351","1228431","0.0-19.0-3.1","29970","List2A","white","woman","","","","","{""Q0"":""ruth is hugging beth""}","<img src=""stim_listA/hug7.gif""style=""height:400px;""></stim_listA>","is hugging","","","","","",""
"null","<div style=""font-size:60px;"">+</div>","","html-keyboard-response","352","1228932","0.0-19.0-0.2","29970","List2A","white","woman","","","","null","","","","","","","","",""
"null","<img src=""stim_listA/copy7.gif""style=""height:400px;""></stim_listA>","","html-keyboard-response","353","1230935","0.0-19.0-1.2","29970","List2A","white","woman","","","","null","","","","","","","","",""
"null","is copying","","html-keyboard-response","354","1232936","0.0-19.0-2.2","29970","List2A","white","woman","","","","null","","","","","","","","",""
"4778.899999976158","","","survey-text","355","1237717","0.0-19.0-3.2","29970","List2A","white","woman","","","","","{""Q0"":""beth is copying jane""}","<img src=""stim_listA/copy7.gif""style=""height:400px;""></stim_listA>","is copying","","","","","",""
"null","<div style=""font-size:60px;"">+</div>","","html-keyboard-response","356","1238219","0.0-19.0-0.3","29970","List2A","white","woman","","","","null","","","","","","","","",""
"null","<img src=""stim_listA/copy8.gif""style=""height:400px;""></stim_listA>","","html-keyboard-response","357","1240225","0.0-19.0-1.3","29970","List2A","white","woman","","","","null","","","","","","","","",""
"null","is being copied by","","html-keyboard-response","358","1242230","0.0-19.0-2.3","29970","List2A","white","woman","","","","null","","","","","","","","",""
"7041","","","survey-text","359","1249274","0.0-19.0-3.3","29970","List2A","white","woman","","","","","{""Q0"":""kate is being copied by ruth""}","<img src=""stim_listA/copy8.gif""style=""height:400px;""></stim_listA>","is being copied by","","","","","",""
"null","<div style=""font-size:60px;"">+</div>","","html-keyboard-response","360","1249778","0.0-19.0-0.4","29970","List2A","white","woman","","","","null","","","","","","","","",""
"null","<img src=""stim_listA/seduce6.gif""style=""height:400px;""></stim_listA>","","html-keyboard-response","361","1251782","0.0-19.0-1.4","29970","List2A","white","woman","","","","null","","","","","","","","",""
"null","is being seduced by","","html-keyboard-response","362","1253788","0.0-19.0-2.4","29970","List2A","white","woman","","","","null","","","","","","","","",""
"5898.5","","","survey-text","363","1259688","0.0-19.0-3.4","29970","List2A","white","woman","","","","","{""Q0"":""fred is being seduced by dave""}","<img src=""stim_listA/seduce6.gif""style=""height:400px;""></stim_listA>","is being seduced by","","","","","",""
"null","<div style=""font-size:60px;"">+</div>","","html-keyboard-response","364","1260190","0.0-19.0-0.5","29970","List2A","white","woman","","","","null","","","","","","","","",""
"null","<img src=""stim_listA/challenge8.gif""style=""height:400px;""></stim_listA>","","html-keyboard-response","365","1262195","0.0-19.0-1.5","29970","List2A","white","woman","","","","null","","","","","","","","",""
"null","is being challenged by","","html-keyboard-response","366","1264196","0.0-19.0-2.5","29970","List2A","white","woman","","","","null","","","","","","","","",""
"7739.800000071526","","","survey-text","367","1271938","0.0-19.0-3.5","29970","List2A","white","woman","","","","","{""Q0"":""kate is being challenged by ruth""}","<img src=""stim_listA/challenge8.gif""style=""height:400px;""></stim_listA>","is being challenged by","","","","","",""
"null","<div style=""font-size:60px;"">+</div>","","html-keyboard-response","368","1272442","0.0-19.0-0.6","29970","List2A","white","woman","","","","null","","","","","","","","",""
"null","<img src=""stim_listA/challenge3.gif""style=""height:400px;""></stim_listA>","","html-keyboard-response","369","1274448","0.0-19.0-1.6","29970","List2A","white","woman","","","","null","","","","","","","","",""
"null","is challenging","","html-keyboard-response","370","1276449","0.0-19.0-2.6","29970","List2A","white","woman","","","","null","","","","","","","","",""
"4511.799999952316","","","survey-text","371","1280963","0.0-19.0-3.6","29970","List2A","white","woman","","","","","{""Q0"":""beth is challenging mike""}","<img src=""stim_listA/challenge3.gif""style=""height:400px;""></stim_listA>","is challenging","","","","","",""
"null","<div style=""font-size:60px;"">+</div>","","html-keyboard-response","372","1281465","0.0-19.0-0.7","29970","List2A","white","woman","","","","null","","","","","","","","",""
"null","<img src=""stim_listA/look5.gif""style=""height:400px;""></stim_listA>","","html-keyboard-response","373","1283467","0.0-19.0-1.7","29970","List2A","white","woman","","","","null","","","","","","","","",""
"null","is looking at","","html-keyboard-response","374","1285469","0.0-19.0-2.7","29970","List2A","white","woman","","","","null","","","","","","","","",""
"4555.299999952316","","","survey-text","375","1290026","0.0-19.0-3.7","29970","List2A","white","woman","","","","","{""Q0"":""fred is looking at luke""}","<img src=""stim_listA/look5.gif""style=""height:400px;""></stim_listA>","is looking at","","","","","",""
"null","<div style=""font-size:60px;"">+</div>","","html-keyboard-response","376","1290527","0.0-19.0-0.8","29970","List2A","white","woman","","","","null","","","","","","","","",""
"null","<img src=""stim_listA/seduce8.gif""style=""height:400px;""></stim_listA>","","html-keyboard-response","377","1292532","0.0-19.0-1.8","29970","List2A","white","woman","","","","null","","","","","","","","",""
"null","is being seduced by","","html-keyboard-response","378","1294537","0.0-19.0-2.8","29970","List2A","white","woman","","","","null","","","","","","","","",""
"16048.699999928474","","","survey-text","379","1310589","0.0-19.0-3.8","29970","List2A","white","woman","","","","","{""Q0"":""ruth is being seduced by jane""}","<img src=""stim_listA/seduce8.gif""style=""height:400px;""></stim_listA>","is being seduced by","","","","","",""
"null","<div style=""font-size:60px;"">+</div>","","html-keyboard-response","380","1311091","0.0-19.0-0.9","29970","List2A","white","woman","","","","null","","","","","","","","",""
"null","<img src=""stim_listA/touch3.gif""style=""height:400px;""></stim_listA>","","html-keyboard-response","381","1313094","0.0-19.0-1.9","29970","List2A","white","woman","","","","null","","","","","","","","",""
"null","is touching","","html-keyboard-response","382","1315095","0.0-19.0-2.9","29970","List2A","white","woman","","","","null","","","","","","","","",""
"5575.100000023842","","","survey-text","383","1320672","0.0-19.0-3.9","29970","List2A","white","woman","","","","","{""Q0"":""kate is touching mike""}","<img src=""stim_listA/touch3.gif""style=""height:400px;""></stim_listA>","is touching","","","","","",""
"null","<div style=""font-size:60px;"">+</div>","","html-keyboard-response","384","1321177","0.0-19.0-0.10","29970","List2A","white","woman","","","","null","","","","","","","","",""
"null","<img src=""stim_listA/touch2.gif""style=""height:400px;""></stim_listA>","","html-keyboard-response","385","1323182","0.0-19.0-1.10","29970","List2A","white","woman","","","","null","","","","","","","","",""
"null","is being touched by","","html-keyboard-response","386","1325184","0.0-19.0-2.10","29970","List2A","white","woman","","","","null","","","","","","","","",""
"9171.100000023842","","","survey-text","387","1334359","0.0-19.0-3.10","29970","List2A","white","woman","","","","","{""Q0"":""ruth is being touched by luke""}","<img src=""stim_listA/touch2.gif""style=""height:400px;""></stim_listA>","is being touched by","","","","","",""
"null","<div style=""font-size:60px;"">+</div>","","html-keyboard-response","388","1334861","0.0-19.0-0.11","29970","List2A","white","woman","","","","null","","","","","","","","",""
"null","<img src=""stim_listA/oppose8.gif""style=""height:400px;""></stim_listA>","","html-keyboard-response","389","1336867","0.0-19.0-1.11","29970","List2A","white","woman","","","","null","","","","","","","","",""
"null","is being opposed by","","html-keyboard-response","390","1338871","0.0-19.0-2.11","29970","List2A","white","woman","","","","null","","","","","","","","",""
"6515.100000023842","","","survey-text","391","1345389","0.0-19.0-3.11","29970","List2A","white","woman","","","","","{""Q0"":""ruth is being opposed by beth""}","<img src=""stim_listA/oppose8.gif""style=""height:400px;""></stim_listA>","is being opposed by","","","","","",""
"null","<div style=""font-size:60px;"">+</div>","","html-keyboard-response","392","1345890","0.0-19.0-0.12","29970","List2A","white","woman","","","","null","","","","","","","","",""
"null","<img src=""stim_listA/shout3.gif""style=""height:400px;""></stim_listA>","","html-keyboard-response","393","1347892","0.0-19.0-1.12","29970","List2A","white","woman","","","","null","","","","","","","","",""
"null","is shouting at","","html-keyboard-response","394","1349894","0.0-19.0-2.12","29970","List2A","white","woman","","","","null","","","","","","","","",""
"4636.5","","","survey-text","395","1354533","0.0-19.0-3.12","29970","List2A","white","woman","","","","","{""Q0"":""beth is shouting at fred""}","<img src=""stim_listA/shout3.gif""style=""height:400px;""></stim_listA>","is shouting at","","","","","",""
"null","<div style=""font-size:60px;"">+</div>","","html-keyboard-response","396","1355035","0.0-19.0-0.13","29970","List2A","white","woman","","","","null","","","","","","","","",""
"null","<img src=""stim_listA/seduce7.gif""style=""height:400px;""></stim_listA>","","html-keyboard-response","397","1357041","0.0-19.0-1.13","29970","List2A","white","woman","","","","null","","","","","","","","",""
"null","is seducing","","html-keyboard-response","398","1359044","0.0-19.0-2.13","29970","List2A","white","woman","","","","null","","","","","","","","",""
"4817.600000023842","","","survey-text","399","1363864","0.0-19.0-3.13","29970","List2A","white","woman","","","","","{""Q0"":""ruth is seducing kate""}","<img src=""stim_listA/seduce7.gif""style=""height:400px;""></stim_listA>","is seducing","","","","","",""
"null","<div style=""font-size:60px;"">+</div>","","html-keyboard-response","400","1364367","0.0-19.0-0.14","29970","List2A","white","woman","","","","null","","","","","","","","",""
"null","<img src=""stim_listA/oppose5.gif""style=""height:400px;""></stim_listA>","","html-keyboard-response","401","1366370","0.0-19.0-1.14","29970","List2A","white","woman","","","","null","","","","","","","","",""
"null","is opposing","","html-keyboard-response","402","1368374","0.0-19.0-2.14","29970","List2A","white","woman","","","","null","","","","","","","","",""
"7514","","","survey-text","403","1375890","0.0-19.0-3.14","29970","List2A","white","woman","","","","","{""Q0"":""mike is opposing dave""}","<img src=""stim_listA/oppose5.gif""style=""height:400px;""></stim_listA>","is opposing","","","","","",""
"null","<div style=""font-size:60px;"">+</div>","","html-keyboard-response","404","1376394","0.0-19.0-0.15","29970","List2A","white","woman","","","","null","","","","","","","","",""
"null","<img src=""stim_listA/oppose1.gif""style=""height:400px;""></stim_listA>","","html-keyboard-response","405","1378398","0.0-19.0-1.15","29970","List2A","white","woman","","","","null","","","","","","","","",""
"null","is opposing","","html-keyboard-response","406","1380400","0.0-19.0-2.15","29970","List2A","white","woman","","","","null","","","","","","","","",""
"4694.899999976158","","","survey-text","407","1385097","0.0-19.0-3.15","29970","List2A","white","woman","","","","","{""Q0"":""dave is opposing jane""}","<img src=""stim_listA/oppose1.gif""style=""height:400px;""></stim_listA>","is opposing","","","","","",""
"null","<div style=""font-size:60px;"">+</div>","","html-keyboard-response","408","1385598","0.0-19.0-0.16","29970","List2A","white","woman","","","","null","","","","","","","","",""
"null","<img src=""stim_listA/seduce5.gif""style=""height:400px;""></stim_listA>","","html-keyboard-response","409","1387605","0.0-19.0-1.16","29970","List2A","white","woman","","","","null","","","","","","","","",""
"null","is seducing","","html-keyboard-response","410","1389611","0.0-19.0-2.16","29970","List2A","white","woman","","","","null","","","","","","","","",""
"5084.299999952316","","","survey-text","411","1394699","0.0-19.0-3.16","29970","List2A","white","woman","","","","","{""Q0"":""luke is seducing mike""}","<img src=""stim_listA/seduce5.gif""style=""height:400px;""></stim_listA>","is seducing","","","","","",""
"null","<div style=""font-size:60px;"">+</div>","","html-keyboard-response","412","1395203","0.0-19.0-0.17","29970","List2A","white","woman","","","","null","","","","","","","","",""
"null","<img src=""stim_listA/challenge2.gif""style=""height:400px;""></stim_listA>","","html-keyboard-response","413","1397210","0.0-19.0-1.17","29970","List2A","white","woman","","","","null","","","","","","","","",""
"null","is being challenged by","","html-keyboard-response","414","1399215","0.0-19.0-2.17","29970","List2A","white","woman","","","","null","","","","","","","","",""
"6550.800000071526","","","survey-text","415","1405768","0.0-19.0-3.17","29970","List2A","white","woman","","","","","{""Q0"":""jane is being challenged by luke""}","<img src=""stim_listA/challenge2.gif""style=""height:400px;""></stim_listA>","is being challenged by","","","","","",""
"null","<div style=""font-size:60px;"">+</div>","","html-keyboard-response","416","1406270","0.0-19.0-0.18","29970","List2A","white","woman","","","","null","","","","","","","","",""
"null","<img src=""stim_listA/shout4.gif""style=""height:400px;""></stim_listA>","","html-keyboard-response","417","1408273","0.0-19.0-1.18","29970","List2A","white","woman","","","","null","","","","","","","","",""
"null","is being shouted at by","","html-keyboard-response","418","1410278","0.0-19.0-2.18","29970","List2A","white","woman","","","","null","","","","","","","","",""
"7793.399999976158","","","survey-text","419","1418074","0.0-19.0-3.18","29970","List2A","white","woman","","","","","{""Q0"":""kate is being shouted at by mike""}","<img src=""stim_listA/shout4.gif""style=""height:400px;""></stim_listA>","is being shouted at by","","","","","",""
"null","<div style=""font-size:60px;"">+</div>","","html-keyboard-response","420","1418575","0.0-19.0-0.19","29970","List2A","white","woman","","","","null","","","","","","","","",""
"null","<img src=""stim_listA/kiss3.gif""style=""height:400px;""></stim_listA>","","html-keyboard-response","421","1420581","0.0-19.0-1.19","29970","List2A","white","woman","","","","null","","","","","","","","",""
"null","is kissing","","html-keyboard-response","422","1422586","0.0-19.0-2.19","29970","List2A","white","woman","","","","null","","","","","","","","",""
"4325.900000095367","","","survey-text","423","1426914","0.0-19.0-3.19","29970","List2A","white","woman","","","","","{""Q0"":""beth is kissing fred""}","<img src=""stim_listA/kiss3.gif""style=""height:400px;""></stim_listA>","is kissing","","","","","",""
"2266.1999999284744","<p>Thank you for completing that task.</p><p>The final part of this session is a questionnaire that will take about 4 minutes.</p><p>Press Continue.</p>","0","html-button-response","424","1429183","0.0-20.0","29970","List2A","white","woman","","","","","","","","","","","","",""
"30878.700000047684","","","survey-text","425","1461069","0.0-21.0","29970","List2A","white","woman","","","","","{""Q0"":""21"",""Q1"":""English"",""Q2"":""English"",""Q3"":""United States"",""Q4"":""American"",""Q5"":""White"",""Q6"":""Female""}","","","demographics","","","","",""
"1950.8999999761581","<p>Have you lived in the USA for the last 5 years or more?</p>","0","html-button-response","426","1463022","0.0-22.0","29970","List2A","white","woman","","","","","","","","fiveyears","","","","",""
"2209.600000023842","<p>Move the slider to show the extent to which you agree with the following statements.</p>","0","html-button-response","427","1466235","0.0-23.0","29970","List2A","white","woman","","","","","","","","","","","","",""
"6562.299999952316","","","html-slider-response","428","1473805","0.0-24.0-0.0-0.0","29970","List2A","white","woman","","","","","","","","survey_race","55","","","I have a lot in common with the average person of my race.","average"
"3227.2999999523163","","","html-slider-response","429","1477034","0.0-24.0-0.0-0.1","29970","List2A","white","woman","","","","","","","","survey_race","60","","","I feel solidarity with my race.","solidarity"
"3826.0999999046326","","","html-slider-response","430","1480862","0.0-24.0-0.0-0.2","29970","List2A","white","woman","","","","","","","","survey_race","61","","","People of my race have a lot in common with each other.","common"
"8306.600000023842","","","html-slider-response","431","1489170","0.0-24.0-0.0-0.3","29970","List2A","white","woman","","","","","","","","survey_race","61","","","I often think about the fact that I am my age.","filler"
"6219.399999976158","","","html-slider-response","432","1495392","0.0-24.0-0.0-0.4","29970","List2A","white","woman","","","","","","","","survey_race","62","","","I often think about the fact that I am my race.","often"
"6652.200000047684","","","html-slider-response","433","1502046","0.0-24.0-0.0-0.5","29970","List2A","white","woman","","","","","","","","survey_race","67","","","The older I get, the wiser I feel.","filler"
"6682.899999976158","","","html-slider-response","434","1508730","0.0-24.0-0.0-0.6","29970","List2A","white","woman","","","","","","","","survey_race","28","","","I consider myself an introvert.","filler"
"4258.200000047684","","","html-slider-response","435","1512990","0.0-24.0-0.0-0.7","29970","List2A","white","woman","","","","","","","","survey_race","61","","","Getting older does not worry me.","filler"
"3872","","","html-slider-response","436","1516864","0.0-24.0-0.0-0.8","29970","List2A","white","woman","","","","","","","","survey_race","70","","","I enjoy being in large groups.","filler"
"3140.5999999046326","","","html-slider-response","437","1520007","0.0-24.0-0.0-0.9","29970","List2A","white","woman","","","","","","","","survey_race","67","","","People of my race are very similar to each other.","verysimilar"
"3880.5","","","html-slider-response","438","1523889","0.0-24.0-0.0-0.10","29970","List2A","white","woman","","","","","","","","survey_race","30","","","I think that my race has a lot to be proud of.","proud"
"5629","","","html-slider-response","439","1529520","0.0-24.0-0.0-0.11","29970","List2A","white","woman","","","","","","","","survey_race","64","","","I have a lot in common with people of a similar age to me.","filler"
"4226.699999928474","","","html-slider-response","440","1533748","0.0-24.0-0.0-0.12","29970","List2A","white","woman","","","","","","","","survey_race","28","","","My age is not an important part of who I am.","filler"
"6605.399999976158","","","html-slider-response","441","1540355","0.0-24.0-0.0-0.13","29970","List2A","white","woman","","","","","","","","survey_race","76","","","I feel a bond with people the same age as me.","filler"
"5369.700000047684","","","html-slider-response","442","1545727","0.0-24.0-0.0-0.14","29970","List2A","white","woman","","","","","","","","survey_race","72","","","Being my race gives me a good feeling.","feeling"
"7754.799999952316","","","html-slider-response","443","1553483","0.0-24.0-0.0-0.15","29970","List2A","white","woman","","","","","","","","survey_race","65","","","The fact that I am my race is an important part of my identity.","identity"
"3171.7000000476837","","","html-slider-response","444","1556657","0.0-24.0-0.0-0.16","29970","List2A","white","woman","","","","","","","","survey_race","72","","","I feel solidarity with people the same age as me.","filler"
"2728","","","html-slider-response","445","1559386","0.0-24.0-0.0-0.17","29970","List2A","white","woman","","","","","","","","survey_race","64","","","I am similar to the average person of my race.","similar"
"2810.100000023842","","","html-slider-response","446","1562198","0.0-24.0-0.0-0.18","29970","List2A","white","woman","","","","","","","","survey_race","68","","","I am glad to be my age.","filler"
"2809.899999976158","","","html-slider-response","447","1565009","0.0-24.0-0.0-0.19","29970","List2A","white","woman","","","","","","","","survey_race","68","","","People my age have a lot in common with each other.","filler"
"3077.7999999523163","","","html-slider-response","448","1568088","0.0-24.0-0.0-0.20","29970","List2A","white","woman","","","","","","","","survey_race","72","","","I feel committed to my race.","committed"
"3447.9000000953674","","","html-slider-response","449","1571538","0.0-24.0-0.0-0.21","29970","List2A","white","woman","","","","","","","","survey_race","90","","","I consider myself an extrovert.","filler"
"4046.100000023842","","","html-slider-response","450","1575586","0.0-24.0-0.0-0.22","29970","List2A","white","woman","","","","","","","","survey_race","67","","","It is pleasant to be my race.","pleasant"
"3251.100000023842","","","html-slider-response","451","1578839","0.0-24.0-0.0-0.23","29970","List2A","white","woman","","","","","","","","survey_race","72","","","I am glad to be my race.","glad"
"3180.3000000715256","","","html-slider-response","452","1582020","0.0-24.0-0.0-0.24","29970","List2A","white","woman","","","","","","","","survey_race","72","","","Being my age gives me a good feeling.","filler"
"4503.600000023842","","","html-slider-response","453","1586526","0.0-24.0-0.0-0.25","29970","List2A","white","woman","","","","","","","","survey_race","70","","","Being my race is an important part of how I see myself.","important"
"2881.2999999523163","","","html-slider-response","454","1589408","0.0-24.0-0.0-0.26","29970","List2A","white","woman","","","","","","","","survey_race","70","","","I am glad to be the age I am.","filler"
"2676.8000000715256","","","html-slider-response","455","1592086","0.0-24.0-0.0-0.27","29970","List2A","white","woman","","","","","","","","survey_race","69","","","I feel a bond with my race.","bond"
"2668.1999999284744","","","html-slider-response","456","1594756","0.0-24.0-1.0-0.0","29970","List2A","white","woman","","","","","","","","survey_gender","70","","","I am similar to the average person of my gender.","similar"
"2527","","","html-slider-response","457","1597284","0.0-24.0-1.0-0.1","29970","List2A","white","woman","","","","","","","","survey_gender","71","","","I feel a bond with my gender.","bond"
"4338.5","","","html-slider-response","458","1601624","0.0-24.0-1.0-0.2","29970","List2A","white","woman","","","","","","","","survey_gender","79","","","Most of the friends in my life are very similar to me.","filler"
"3794.7000000476837","","","html-slider-response","459","1605421","0.0-24.0-1.0-0.3","29970","List2A","white","woman","","","","","","","","survey_gender","20","","","Routine is not important to me.","filler"
"2888.7999999523163","","","html-slider-response","460","1608311","0.0-24.0-1.0-0.4","29970","List2A","white","woman","","","","","","","","survey_gender","73","","","I have a lot in common with the average person of my gender.","average"
"5109.5","","","html-slider-response","461","1613422","0.0-24.0-1.0-0.5","29970","List2A","white","woman","","","","","","","","survey_gender","85","","","The fact that I am my gender is an important part of my identity.","identity"
"4762.899999976158","","","html-slider-response","462","1618187","0.0-24.0-1.0-0.6","29970","List2A","white","woman","","","","","","","","survey_gender","24","","","It is not always easy for people to know what I am thinking.","filler"
"2707.2999999523163","","","html-slider-response","463","1620896","0.0-24.0-1.0-0.7","29970","List2A","white","woman","","","","","","","","survey_gender","83","","","I am glad to be my gender.","glad"
"3586.399999976158","","","html-slider-response","464","1624483","0.0-24.0-1.0-0.8","29970","List2A","white","woman","","","","","","","","survey_gender","85","","","I think that my gender has a lot to be proud of.","proud"
"3936.2999999523163","","","html-slider-response","465","1628421","0.0-24.0-1.0-0.9","29970","List2A","white","woman","","","","","","","","survey_gender","81","","","I feel a bond with my friends.","filler"
"3447.5","","","html-slider-response","466","1631870","0.0-24.0-1.0-0.10","29970","List2A","white","woman","","","","","","","","survey_gender","80","","","Being my gender is an important part of how I see myself.","important"
"3393.2999999523163","","","html-slider-response","467","1635265","0.0-24.0-1.0-0.11","29970","List2A","white","woman","","","","","","","","survey_gender","83","","","My friends have a lot in common with each other.","filler"
"3944.600000023842","","","html-slider-response","468","1639211","0.0-24.0-1.0-0.12","29970","List2A","white","woman","","","","","","","","survey_gender","84","","","People of my gender have a lot in common with each other.","common"
"2786","","","html-slider-response","469","1641999","0.0-24.0-1.0-0.13","29970","List2A","white","woman","","","","","","","","survey_gender","82","","","My friends understand me.","filler"
"3227.3000000715256","","","html-slider-response","470","1645228","0.0-24.0-1.0-0.14","29970","List2A","white","woman","","","","","","","","survey_gender","84","","","I would say I am an animal person.","filler"
"2967.3000000715256","","","html-slider-response","471","1648196","0.0-24.0-1.0-0.15","29970","List2A","white","woman","","","","","","","","survey_gender","84","","","I feel solidarity with my friends.","filler"
"3629.3000000715256","","","html-slider-response","472","1651828","0.0-24.0-1.0-0.16","29970","List2A","white","woman","","","","","","","","survey_gender","89","","","I often think about the fact that I am my gender.","often"
"6791","","","html-slider-response","473","1658620","0.0-24.0-1.0-0.17","29970","List2A","white","woman","","","","","","","","survey_gender","93","","","I feel committed to my gender.","committed"
"3889.5","","","html-slider-response","474","1662511","0.0-24.0-1.0-0.18","29970","List2A","white","woman","","","","","","","","survey_gender","90","","","Being my gender gives me a good feeling.","feeling"
"6968.299999952316","","","html-slider-response","475","1669481","0.0-24.0-1.0-0.19","29970","List2A","white","woman","","","","","","","","survey_gender","80","","","I have a lot in common with my friends.","filler"
