rt,stimulus,button_pressed,trial_type,trial_index,time_elapsed,internal_node_id,subject,list,ppt_race,ppt_gender,url,first_guess,correct,key_press,responses,image_type,phrase_type,test_part,response,stimulus1,stimulus2,question_type,survey_item
8104.7,Welcome to the experiment. Press Continue to begin.,0,html-button-response,0,8111,0.0-0.0,30806,List1A,white,man,,,,,,,,,,,,,
98782.7,,,external-html,1,115330,0.0-1.0,30806,List1A,white,man,consent.html,,,,,,,,,,,,
74012.9,"<p>On the next page, you will see portraits of 8 people and their names.</p><p>Your first task is to take a few minutes to memorise the names of these people.</p><p>You will have to recall their names during the rest of the experiment, so it is</p><p>essential that you try to memorise these people and their names as best as you can.</p><br><p><strong>You will then be tested on your memory of these names and portraits.</strong></p><br><p>The experiment will start after you have completed this memory test.</p><br><p>Ready?</p>",0,html-button-response,2,189350,0.0-2.0,30806,List1A,white,man,,,,,,,,,,,,,
81566.3,"<img src='img/portrait_matrix_list1.jpg' style='width:900px;height:500px;''></img><p>If you have memorised all the portraits and names and are ready to start, press Continue.</p><p><strong>Please note: Your memory of these faces will be tested 4 times during this experiment.</strong></p>",0,html-button-response,3,271923,0.0-3.0-0.0,30806,List1A,white,man,,,,,,,,,,,,,
15509.3,"<img src=""portrait/BM1.jpg""style=""height:400px;""></img>",4,html-button-response,4,288438,0.0-3.0-1.0,30806,List1A,white,man,,TRUE,4,,,,,,,,,,
null,CORRECT,,html-keyboard-response,5,289948,0.0-3.0-2.0-0.0,30806,List1A,white,man,,,,null,,,,,,,,,
8878.7,"<img src=""portrait/BM2.jpg""style=""height:400px;""></img>",5,html-button-response,6,298834,0.0-3.0-4.0,30806,List1A,white,man,,TRUE,5,,,,,,,,,,
null,CORRECT,,html-keyboard-response,7,300338,0.0-3.0-5.0-0.0,30806,List1A,white,man,,,,null,,,,,,,,,
8279.5,"<img src=""portrait/BW2.jpg""style=""height:400px;""></img>",2,html-button-response,8,308622,0.0-3.0-7.0,30806,List1A,white,man,,TRUE,2,,,,,,,,,,
null,CORRECT,,html-keyboard-response,9,310126,0.0-3.0-8.0-0.0,30806,List1A,white,man,,,,null,,,,,,,,,
5158,"<img src=""portrait/WW2.jpg""style=""height:400px;""></img>",3,html-button-response,10,315288,0.0-3.0-10.0,30806,List1A,white,man,,TRUE,3,,,,,,,,,,
null,CORRECT,,html-keyboard-response,11,316791,0.0-3.0-11.0-0.0,30806,List1A,white,man,,,,null,,,,,,,,,
7507.2,"<img src=""portrait/WM2.jpg""style=""height:400px;""></img>",7,html-button-response,12,324302,0.0-3.0-13.0,30806,List1A,white,man,,TRUE,7,,,,,,,,,,
null,CORRECT,,html-keyboard-response,13,325806,0.0-3.0-14.0-0.0,30806,List1A,white,man,,,,null,,,,,,,,,
7626.2,"<img src=""portrait/BW1.jpg""style=""height:400px;""></img>",0,html-button-response,14,333436,0.0-3.0-16.0,30806,List1A,white,man,,TRUE,0,,,,,,,,,,
null,CORRECT,,html-keyboard-response,15,334939,0.0-3.0-17.0-0.0,30806,List1A,white,man,,,,null,,,,,,,,,
9274.1,"<img src=""portrait/WM1.jpg""style=""height:400px;""></img>",6,html-button-response,16,344217,0.0-3.0-19.0,30806,List1A,white,man,,TRUE,6,,,,,,,,,,
null,CORRECT,,html-keyboard-response,17,345721,0.0-3.0-20.0-0.0,30806,List1A,white,man,,,,null,,,,,,,,,
7446,"<img src=""portrait/WW1.jpg""style=""height:400px;""></img>",1,html-button-response,18,353170,0.0-3.0-22.0,30806,List1A,white,man,,TRUE,1,,,,,,,,,,
null,CORRECT,,html-keyboard-response,19,354674,0.0-3.0-23.0-0.0,30806,List1A,white,man,,,,null,,,,,,,,,
3415,<p>You got 8 out of 8 right first time. Press Continue.</p>,0,html-button-response,20,358093,0.0-3.0-25.0,30806,List1A,white,man,,,,,,,,,,,,,
79169.9,"<p>In this experiment, you will view photographs of the people from the memory game interacting.</p><p>By using the <strong>exact</strong> phrase given <i>after</i> the photograph appears and recalling the correct names of the people in the photographs, form a sentence describing the interaction. You do not need to capitalise names.</p><p>Type your answer in the space provided. Please complete every sentence before moving onto the next trial.</p><p>You will only have a few seconds to memorise each given photograph and phrase before you can respond, so try your best to focus.</p><p>An example is given below. Press 'Continue' when you are ready.</p><img src='img/speaking_example.jpg' style='width:800px;height:460px;''></img>",0,html-button-response,21,438276,0.0-4.0,30806,List1A,white,man,,,,,,,,,,,,,
4583.3,"<p>Before the experiment starts, you will watch two example trials. Press 'Continue'.</p>",0,html-button-response,22,443863,0.0-5.0,30806,List1A,white,man,,,,,,,,,,,,,
null,<img src='img/play_eg.gif' style='height:400px;''></img>,,html-keyboard-response,23,446867,0.0-6.0,30806,List1A,white,man,,,,null,,,,,,,,,
null,<p>is playing with</p>,,html-keyboard-response,24,448869,0.0-7.0,30806,List1A,white,man,,,,null,,,,,,,,,
17956.3,<p><b>Answer:</b> kate is playing with beth</p>,0,html-button-response,25,466827,0.0-8.0,30806,List1A,white,man,,,,,,,,,,,,,
null,<img src='img/dance_eg.gif' style='height:400px;''></img>,,html-keyboard-response,26,469830,0.0-9.0,30806,List1A,white,man,,,,null,,,,,,,,,
null,<p>is being entertained by</p>,,html-keyboard-response,27,471832,0.0-10.0,30806,List1A,white,man,,,,null,,,,,,,,,
12305.7,<p><b>Answer:</b> luke is being entertained by dave</p>,0,html-button-response,28,484140,0.0-11.0,30806,List1A,white,man,,,,,,,,,,,,,
33091,"<p>Ready to start the experiment?</p><br><p><strong>Remember to describe the picture using a full sentence,</strong></p><p><strong>that combines the names of the people with the <i>exact</i> phrase given.</strong></p><p><strong>To receive full payment you must do this correctly.</strong></p><p><strong> You do not need to capitalise names or use punctuation.</strong></p><br><p>Press 'Continue' to begin.</p>",0,html-button-response,29,518235,0.0-12.0,30806,List1A,white,man,,,,,,,,,,,,,
null,"<div style=""font-size:60px;"">+</div>",,html-keyboard-response,30,519738,0.0-13.0-0.0,30806,List1A,white,man,,,,null,,,,,,,,,
null,"<img src=""stim_listA/hug1.gif""style=""height:400px;""></stim_listA>",,html-keyboard-response,31,521742,0.0-13.0-1.0,30806,List1A,white,man,,,,null,,,,,,,,,
null,is hugging,,html-keyboard-response,32,523744,0.0-13.0-2.0,30806,List1A,white,man,,,,null,,,,,,,,,
201946.9,,,survey-text,33,725704,0.0-13.0-3.0,30806,List1A,white,man,,,,,"{""Q0"":""Fred is hugging Beth""}","<img src=""stim_listA/hug1.gif""style=""height:400px;""></stim_listA>",is hugging,,,,,,
null,"<div style=""font-size:60px;"">+</div>",,html-keyboard-response,34,726209,0.0-13.0-0.1,30806,List1A,white,man,,,,null,,,,,,,,,
null,"<img src=""stim_listA/hug8.gif""style=""height:400px;""></stim_listA>",,html-keyboard-response,35,728212,0.0-13.0-1.1,30806,List1A,white,man,,,,null,,,,,,,,,
null,is being hugged by,,html-keyboard-response,36,730214,0.0-13.0-2.1,30806,List1A,white,man,,,,null,,,,,,,,,
69433.8,,,survey-text,37,799656,0.0-13.0-3.1,30806,List1A,white,man,,,,,"{""Q0"":""Kate is being hugged by Jane""}","<img src=""stim_listA/hug8.gif""style=""height:400px;""></stim_listA>",is being hugged by,,,,,,
null,"<div style=""font-size:60px;"">+</div>",,html-keyboard-response,38,800158,0.0-13.0-0.2,30806,List1A,white,man,,,,null,,,,,,,,,
null,"<img src=""stim_listA/seduce7.gif""style=""height:400px;""></stim_listA>",,html-keyboard-response,39,802165,0.0-13.0-1.2,30806,List1A,white,man,,,,null,,,,,,,,,
null,is seducing,,html-keyboard-response,40,804167,0.0-13.0-2.2,30806,List1A,white,man,,,,null,,,,,,,,,
40085.1,,,survey-text,41,844257,0.0-13.0-3.2,30806,List1A,white,man,,,,,"{""Q0"":""Kate is seducing beth""}","<img src=""stim_listA/seduce7.gif""style=""height:400px;""></stim_listA>",is seducing,,,,,,
null,"<div style=""font-size:60px;"">+</div>",,html-keyboard-response,42,844761,0.0-13.0-0.3,30806,List1A,white,man,,,,null,,,,,,,,,
null,"<img src=""stim_listA/kiss1.gif""style=""height:400px;""></stim_listA>",,html-keyboard-response,43,846765,0.0-13.0-1.3,30806,List1A,white,man,,,,null,,,,,,,,,
null,is kissing,,html-keyboard-response,44,848767,0.0-13.0-2.3,30806,List1A,white,man,,,,null,,,,,,,,,
42139.2,,,survey-text,45,890913,0.0-13.0-3.3,30806,List1A,white,man,,,,,"{""Q0"":""fred is kissing beth""}","<img src=""stim_listA/kiss1.gif""style=""height:400px;""></stim_listA>",is kissing,,,,,,
null,"<div style=""font-size:60px;"">+</div>",,html-keyboard-response,46,891417,0.0-13.0-0.4,30806,List1A,white,man,,,,null,,,,,,,,,
null,"<img src=""stim_listA/look4.gif""style=""height:400px;""></stim_listA>",,html-keyboard-response,47,893421,0.0-13.0-1.4,30806,List1A,white,man,,,,null,,,,,,,,,
null,is being looked at by,,html-keyboard-response,48,895423,0.0-13.0-2.4,30806,List1A,white,man,,,,null,,,,,,,,,
98109.7,,,survey-text,49,993542,0.0-13.0-3.4,30806,List1A,white,man,,,,,"{""Q0"":""  Jane is being looked at by dave""}","<img src=""stim_listA/look4.gif""style=""height:400px;""></stim_listA>",is being looked at by,,,,,,
null,"<div style=""font-size:60px;"">+</div>",,html-keyboard-response,50,994045,0.0-13.0-0.5,30806,List1A,white,man,,,,null,,,,,,,,,
null,"<img src=""stim_listA/oppose2.gif""style=""height:400px;""></stim_listA>",,html-keyboard-response,51,996049,0.0-13.0-1.5,30806,List1A,white,man,,,,null,,,,,,,,,
null,is being opposed by,,html-keyboard-response,52,998051,0.0-13.0-2.5,30806,List1A,white,man,,,,null,,,,,,,,,
59093.3,,,survey-text,53,1057152,0.0-13.0-3.5,30806,List1A,white,man,,,,,"{""Q0"":""   Beth is being opposed by Fred""}","<img src=""stim_listA/oppose2.gif""style=""height:400px;""></stim_listA>",is being opposed by,,,,,,
null,"<div style=""font-size:60px;"">+</div>",,html-keyboard-response,54,1057654,0.0-13.0-0.6,30806,List1A,white,man,,,,null,,,,,,,,,
null,"<img src=""stim_listA/seduce2.gif""style=""height:400px;""></stim_listA>",,html-keyboard-response,55,1059658,0.0-13.0-1.6,30806,List1A,white,man,,,,null,,,,,,,,,
null,is being seduced by,,html-keyboard-response,56,1061660,0.0-13.0-2.6,30806,List1A,white,man,,,,null,,,,,,,,,
157263.4,,,survey-text,57,1218933,0.0-13.0-3.6,30806,List1A,white,man,,,,,"{""Q0"":""Beth is being looked at by Mike""}","<img src=""stim_listA/seduce2.gif""style=""height:400px;""></stim_listA>",is being seduced by,,,,,,
null,"<div style=""font-size:60px;"">+</div>",,html-keyboard-response,58,1219435,0.0-13.0-0.7,30806,List1A,white,man,,,,null,,,,,,,,,
null,"<img src=""stim_listA/hug3.gif""style=""height:400px;""></stim_listA>",,html-keyboard-response,59,1221439,0.0-13.0-1.7,30806,List1A,white,man,,,,null,,,,,,,,,
null,is hugging,,html-keyboard-response,60,1223443,0.0-13.0-2.7,30806,List1A,white,man,,,,null,,,,,,,,,
59102.8,,,survey-text,61,1282551,0.0-13.0-3.7,30806,List1A,white,man,,,,,"{""Q0"":"" Luke is hugging Ruth""}","<img src=""stim_listA/hug3.gif""style=""height:400px;""></stim_listA>",is hugging,,,,,,
null,"<div style=""font-size:60px;"">+</div>",,html-keyboard-response,62,1283055,0.0-13.0-0.8,30806,List1A,white,man,,,,null,,,,,,,,,
null,"<img src=""stim_listA/seduce5.gif""style=""height:400px;""></stim_listA>",,html-keyboard-response,63,1285061,0.0-13.0-1.8,30806,List1A,white,man,,,,null,,,,,,,,,
null,is seducing,,html-keyboard-response,64,1287063,0.0-13.0-2.8,30806,List1A,white,man,,,,null,,,,,,,,,
70696.8,,,survey-text,65,1357767,0.0-13.0-3.8,30806,List1A,white,man,,,,,"{""Q0"":""  Fred is seducing Dave""}","<img src=""stim_listA/seduce5.gif""style=""height:400px;""></stim_listA>",is seducing,,,,,,
null,"<div style=""font-size:60px;"">+</div>",,html-keyboard-response,66,1358270,0.0-13.0-0.9,30806,List1A,white,man,,,,null,,,,,,,,,
null,"<img src=""stim_listA/oppose8.gif""style=""height:400px;""></stim_listA>",,html-keyboard-response,67,1360275,0.0-13.0-1.9,30806,List1A,white,man,,,,null,,,,,,,,,
null,is being opposed by,,html-keyboard-response,68,1362281,0.0-13.0-2.9,30806,List1A,white,man,,,,null,,,,,,,,,
79042.1,,,survey-text,69,1441331,0.0-13.0-3.9,30806,List1A,white,man,,,,,"{""Q0"":""   Ruth is being opposed by Beth""}","<img src=""stim_listA/oppose8.gif""style=""height:400px;""></stim_listA>",is being opposed by,,,,,,
null,"<div style=""font-size:60px;"">+</div>",,html-keyboard-response,70,1441834,0.0-13.0-0.10,30806,List1A,white,man,,,,null,,,,,,,,,
null,"<img src=""stim_listA/greet1.gif""style=""height:400px;""></stim_listA>",,html-keyboard-response,71,1443838,0.0-13.0-1.10,30806,List1A,white,man,,,,null,,,,,,,,,
null,is greeting,,html-keyboard-response,72,1445840,0.0-13.0-2.10,30806,List1A,white,man,,,,null,,,,,,,,,
56656.8,,,survey-text,73,1502504,0.0-13.0-3.10,30806,List1A,white,man,,,,,"{""Q0"":""   Mike is greeting Beth""}","<img src=""stim_listA/greet1.gif""style=""height:400px;""></stim_listA>",is greeting,,,,,,
null,"<div style=""font-size:60px;"">+</div>",,html-keyboard-response,74,1503006,0.0-13.0-0.11,30806,List1A,white,man,,,,null,,,,,,,,,
null,"<img src=""stim_listA/greet7.gif""style=""height:400px;""></stim_listA>",,html-keyboard-response,75,1505011,0.0-13.0-1.11,30806,List1A,white,man,,,,null,,,,,,,,,
null,is greeting,,html-keyboard-response,76,1507013,0.0-13.0-2.11,30806,List1A,white,man,,,,null,,,,,,,,,
52492.8,,,survey-text,77,1559512,0.0-13.0-3.11,30806,List1A,white,man,,,,,"{""Q0"":"" Kate is greeting Ruth""}","<img src=""stim_listA/greet7.gif""style=""height:400px;""></stim_listA>",is greeting,,,,,,
null,"<div style=""font-size:60px;"">+</div>",,html-keyboard-response,78,1560015,0.0-13.0-0.12,30806,List1A,white,man,,,,null,,,,,,,,,
null,"<img src=""stim_listA/touch1.gif""style=""height:400px;""></stim_listA>",,html-keyboard-response,79,1562019,0.0-13.0-1.12,30806,List1A,white,man,,,,null,,,,,,,,,
null,is touching,,html-keyboard-response,80,1564021,0.0-13.0-2.12,30806,List1A,white,man,,,,null,,,,,,,,,
49504,,,survey-text,81,1613532,0.0-13.0-3.12,30806,List1A,white,man,,,,,"{""Q0"":"" Kate is touching Mike""}","<img src=""stim_listA/touch1.gif""style=""height:400px;""></stim_listA>",is touching,,,,,,
null,"<div style=""font-size:60px;"">+</div>",,html-keyboard-response,82,1614035,0.0-13.0-0.13,30806,List1A,white,man,,,,null,,,,,,,,,
null,"<img src=""stim_listA/shout6.gif""style=""height:400px;""></stim_listA>",,html-keyboard-response,83,1616039,0.0-13.0-1.13,30806,List1A,white,man,,,,null,,,,,,,,,
null,is being shouted at by,,html-keyboard-response,84,1618041,0.0-13.0-2.13,30806,List1A,white,man,,,,null,,,,,,,,,
69857.3,,,survey-text,85,1687905,0.0-13.0-3.13,30806,List1A,white,man,,,,,"{""Q0"":""  Dave is being shouted at by Mike""}","<img src=""stim_listA/shout6.gif""style=""height:400px;""></stim_listA>",is being shouted at by,,,,,,
null,"<div style=""font-size:60px;"">+</div>",,html-keyboard-response,86,1688408,0.0-13.0-0.14,30806,List1A,white,man,,,,null,,,,,,,,,
null,"<img src=""stim_listA/oppose5.gif""style=""height:400px;""></stim_listA>",,html-keyboard-response,87,1690412,0.0-13.0-1.14,30806,List1A,white,man,,,,null,,,,,,,,,
null,is opposing,,html-keyboard-response,88,1692414,0.0-13.0-2.14,30806,List1A,white,man,,,,null,,,,,,,,,
48391.7,,,survey-text,89,1740812,0.0-13.0-3.14,30806,List1A,white,man,,,,,"{""Q0"":""  Mike is opposing Dave""}","<img src=""stim_listA/oppose5.gif""style=""height:400px;""></stim_listA>",is opposing,,,,,,
null,"<div style=""font-size:60px;"">+</div>",,html-keyboard-response,90,1741315,0.0-13.0-0.15,30806,List1A,white,man,,,,null,,,,,,,,,
null,"<img src=""stim_listA/touch4.gif""style=""height:400px;""></stim_listA>",,html-keyboard-response,91,1743319,0.0-13.0-1.15,30806,List1A,white,man,,,,null,,,,,,,,,
null,is being touched by,,html-keyboard-response,92,1745321,0.0-13.0-2.15,30806,List1A,white,man,,,,null,,,,,,,,,
33629.2,,,survey-text,93,1778958,0.0-13.0-3.15,30806,List1A,white,man,,,,,"{""Q0"":"" Ruth is being touched by Luke""}","<img src=""stim_listA/touch4.gif""style=""height:400px;""></stim_listA>",is being touched by,,,,,,
null,"<div style=""font-size:60px;"">+</div>",,html-keyboard-response,94,1779461,0.0-13.0-0.16,30806,List1A,white,man,,,,null,,,,,,,,,
null,"<img src=""stim_listA/touch7.gif""style=""height:400px;""></stim_listA>",,html-keyboard-response,95,1781465,0.0-13.0-1.16,30806,List1A,white,man,,,,null,,,,,,,,,
null,is touching,,html-keyboard-response,96,1783467,0.0-13.0-2.16,30806,List1A,white,man,,,,null,,,,,,,,,
75681.9,,,survey-text,97,1859156,0.0-13.0-3.16,30806,List1A,white,man,,,,,"{""Q0"":"" Kate is touching jane""}","<img src=""stim_listA/touch7.gif""style=""height:400px;""></stim_listA>",is touching,,,,,,
null,"<div style=""font-size:60px;"">+</div>",,html-keyboard-response,98,1859658,0.0-13.0-0.17,30806,List1A,white,man,,,,null,,,,,,,,,
null,"<img src=""stim_listA/shout7.gif""style=""height:400px;""></stim_listA>",,html-keyboard-response,99,1861662,0.0-13.0-1.17,30806,List1A,white,man,,,,null,,,,,,,,,
null,is shouting at,,html-keyboard-response,100,1863664,0.0-13.0-2.17,30806,List1A,white,man,,,,null,,,,,,,,,
53016.3,,,survey-text,101,1916687,0.0-13.0-3.17,30806,List1A,white,man,,,,,"{""Q0"":""  Beth is shouting at Ruth""}","<img src=""stim_listA/shout7.gif""style=""height:400px;""></stim_listA>",is shouting at,,,,,,
null,"<div style=""font-size:60px;"">+</div>",,html-keyboard-response,102,1917190,0.0-13.0-0.18,30806,List1A,white,man,,,,null,,,,,,,,,
null,"<img src=""stim_listA/oppose7.gif""style=""height:400px;""></stim_listA>",,html-keyboard-response,103,1919194,0.0-13.0-1.18,30806,List1A,white,man,,,,null,,,,,,,,,
null,is opposing,,html-keyboard-response,104,1921196,0.0-13.0-2.18,30806,List1A,white,man,,,,null,,,,,,,,,
75319.2,,,survey-text,105,1996522,0.0-13.0-3.18,30806,List1A,white,man,,,,,"{""Q0"":""   Kate is opposing Jane""}","<img src=""stim_listA/oppose7.gif""style=""height:400px;""></stim_listA>",is opposing,,,,,,
null,"<div style=""font-size:60px;"">+</div>",,html-keyboard-response,106,1997025,0.0-13.0-0.19,30806,List1A,white,man,,,,null,,,,,,,,,
null,"<img src=""stim_listA/look3.gif""style=""height:400px;""></stim_listA>",,html-keyboard-response,107,1999029,0.0-13.0-1.19,30806,List1A,white,man,,,,null,,,,,,,,,
null,is looking at,,html-keyboard-response,108,2001031,0.0-13.0-2.19,30806,List1A,white,man,,,,null,,,,,,,,,
51225.5,,,survey-text,109,2052263,0.0-13.0-3.19,30806,List1A,white,man,,,,,"{""Q0"":""  Luke is looking at Ruth""}","<img src=""stim_listA/look3.gif""style=""height:400px;""></stim_listA>",is looking at,,,,,,
22384.2,"<img src='img/portrait_matrix_list1.jpg' style='width:900px;height:500px;''></img><p>If you have memorised all the portraits and names and are ready to start, press Continue.</p><p><strong>Please note: Your memory of these faces will be tested 4 times during this experiment.</strong></p>",0,html-button-response,110,2074653,0.0-14.0-0.0,30806,List1A,white,man,,,,,,,,,,,,,
18974.4,"<img src=""portrait/BW1.jpg""style=""height:400px;""></img>",0,html-button-response,111,2094632,0.0-14.0-1.0,30806,List1A,white,man,,TRUE,0,,,,,,,,,,
null,CORRECT,,html-keyboard-response,112,2096139,0.0-14.0-2.0-0.0,30806,List1A,white,man,,,,null,,,,,,,,,
2883.1,"<img src=""portrait/BM1.jpg""style=""height:400px;""></img>",4,html-button-response,113,2099026,0.0-14.0-4.0,30806,List1A,white,man,,TRUE,4,,,,,,,,,,
null,CORRECT,,html-keyboard-response,114,2100530,0.0-14.0-5.0-0.0,30806,List1A,white,man,,,,null,,,,,,,,,
7882.5,"<img src=""portrait/WM2.jpg""style=""height:400px;""></img>",7,html-button-response,115,2108416,0.0-14.0-7.0,30806,List1A,white,man,,TRUE,7,,,,,,,,,,
null,CORRECT,,html-keyboard-response,116,2109920,0.0-14.0-8.0-0.0,30806,List1A,white,man,,,,null,,,,,,,,,
4495.2,"<img src=""portrait/WW2.jpg""style=""height:400px;""></img>",3,html-button-response,117,2114419,0.0-14.0-10.0,30806,List1A,white,man,,TRUE,3,,,,,,,,,,
null,CORRECT,,html-keyboard-response,118,2115923,0.0-14.0-11.0-0.0,30806,List1A,white,man,,,,null,,,,,,,,,
4978.6,"<img src=""portrait/WM1.jpg""style=""height:400px;""></img>",6,html-button-response,119,2120905,0.0-14.0-13.0,30806,List1A,white,man,,TRUE,6,,,,,,,,,,
null,CORRECT,,html-keyboard-response,120,2122409,0.0-14.0-14.0-0.0,30806,List1A,white,man,,,,null,,,,,,,,,
4471.2,"<img src=""portrait/WW1.jpg""style=""height:400px;""></img>",1,html-button-response,121,2126887,0.0-14.0-16.0,30806,List1A,white,man,,TRUE,1,,,,,,,,,,
null,CORRECT,,html-keyboard-response,122,2128390,0.0-14.0-17.0-0.0,30806,List1A,white,man,,,,null,,,,,,,,,
4203.2,"<img src=""portrait/BM2.jpg""style=""height:400px;""></img>",5,html-button-response,123,2132598,0.0-14.0-19.0,30806,List1A,white,man,,TRUE,5,,,,,,,,,,
null,CORRECT,,html-keyboard-response,124,2134102,0.0-14.0-20.0-0.0,30806,List1A,white,man,,,,null,,,,,,,,,
4421.9,"<img src=""portrait/BW2.jpg""style=""height:400px;""></img>",2,html-button-response,125,2138527,0.0-14.0-22.0,30806,List1A,white,man,,TRUE,2,,,,,,,,,,
null,CORRECT,,html-keyboard-response,126,2140030,0.0-14.0-23.0-0.0,30806,List1A,white,man,,,,null,,,,,,,,,
2523.3,<p>You got 8 out of 8 right first time. Press Continue.</p>,0,html-button-response,127,2142557,0.0-14.0-25.0,30806,List1A,white,man,,,,,,,,,,,,,
null,"<div style=""font-size:60px;"">+</div>",,html-keyboard-response,128,2144062,0.0-15.0-0.0,30806,List1A,white,man,,,,null,,,,,,,,,
null,"<img src=""stim_listA/copy7.gif""style=""height:400px;""></stim_listA>",,html-keyboard-response,129,2146064,0.0-15.0-1.0,30806,List1A,white,man,,,,null,,,,,,,,,
null,is copying,,html-keyboard-response,130,2148066,0.0-15.0-2.0,30806,List1A,white,man,,,,null,,,,,,,,,
36393.5,,,survey-text,131,2184465,0.0-15.0-3.0,30806,List1A,white,man,,,,,"{""Q0"":"" Ruth is copying Kate""}","<img src=""stim_listA/copy7.gif""style=""height:400px;""></stim_listA>",is copying,,,,,,
null,"<div style=""font-size:60px;"">+</div>",,html-keyboard-response,132,2184968,0.0-15.0-0.1,30806,List1A,white,man,,,,null,,,,,,,,,
null,"<img src=""stim_listA/kiss8.gif""style=""height:400px;""></stim_listA>",,html-keyboard-response,133,2186973,0.0-15.0-1.1,30806,List1A,white,man,,,,null,,,,,,,,,
null,is being kissed by,,html-keyboard-response,134,2188975,0.0-15.0-2.1,30806,List1A,white,man,,,,null,,,,,,,,,
65551.8,,,survey-text,135,2254534,0.0-15.0-3.1,30806,List1A,white,man,,,,,"{""Q0"":"" Kate is being kissed by Jane""}","<img src=""stim_listA/kiss8.gif""style=""height:400px;""></stim_listA>",is being kissed by,,,,,,
null,"<div style=""font-size:60px;"">+</div>",,html-keyboard-response,136,2255036,0.0-15.0-0.2,30806,List1A,white,man,,,,null,,,,,,,,,
null,"<img src=""stim_listA/copy5.gif""style=""height:400px;""></stim_listA>",,html-keyboard-response,137,2257040,0.0-15.0-1.2,30806,List1A,white,man,,,,null,,,,,,,,,
null,is copying,,html-keyboard-response,138,2259042,0.0-15.0-2.2,30806,List1A,white,man,,,,null,,,,,,,,,
85094.7,,,survey-text,139,2344144,0.0-15.0-3.2,30806,List1A,white,man,,,,,"{""Q0"":"" Luke is copying Mike""}","<img src=""stim_listA/copy5.gif""style=""height:400px;""></stim_listA>",is copying,,,,,,
null,"<div style=""font-size:60px;"">+</div>",,html-keyboard-response,140,2344647,0.0-15.0-0.3,30806,List1A,white,man,,,,null,,,,,,,,,
null,"<img src=""stim_listA/look1.gif""style=""height:400px;""></stim_listA>",,html-keyboard-response,141,2346651,0.0-15.0-1.3,30806,List1A,white,man,,,,null,,,,,,,,,
null,is looking at,,html-keyboard-response,142,2348653,0.0-15.0-2.3,30806,List1A,white,man,,,,null,,,,,,,,,
46940.1,,,survey-text,143,2395601,0.0-15.0-3.3,30806,List1A,white,man,,,,,"{""Q0"":"" Fred is looking at Beth""}","<img src=""stim_listA/look1.gif""style=""height:400px;""></stim_listA>",is looking at,,,,,,
null,"<div style=""font-size:60px;"">+</div>",,html-keyboard-response,144,2396105,0.0-15.0-0.4,30806,List1A,white,man,,,,null,,,,,,,,,
null,"<img src=""stim_listA/kiss7.gif""style=""height:400px;""></stim_listA>",,html-keyboard-response,145,2398109,0.0-15.0-1.4,30806,List1A,white,man,,,,null,,,,,,,,,
null,is kissing,,html-keyboard-response,146,2400111,0.0-15.0-2.4,30806,List1A,white,man,,,,null,,,,,,,,,
44727.5,,,survey-text,147,2444845,0.0-15.0-3.4,30806,List1A,white,man,,,,,"{""Q0"":""Beth is kissing Ruth""}","<img src=""stim_listA/kiss7.gif""style=""height:400px;""></stim_listA>",is kissing,,,,,,
null,"<div style=""font-size:60px;"">+</div>",,html-keyboard-response,148,2445349,0.0-15.0-0.5,30806,List1A,white,man,,,,null,,,,,,,,,
null,"<img src=""stim_listA/oppose3.gif""style=""height:400px;""></stim_listA>",,html-keyboard-response,149,2447353,0.0-15.0-1.5,30806,List1A,white,man,,,,null,,,,,,,,,
null,is opposing,,html-keyboard-response,150,2449355,0.0-15.0-2.5,30806,List1A,white,man,,,,null,,,,,,,,,
44848,,,survey-text,151,2494210,0.0-15.0-3.5,30806,List1A,white,man,,,,,"{""Q0"":"" Dave is opposing  Jane""}","<img src=""stim_listA/oppose3.gif""style=""height:400px;""></stim_listA>",is opposing,,,,,,
null,"<div style=""font-size:60px;"">+</div>",,html-keyboard-response,152,2494712,0.0-15.0-0.6,30806,List1A,white,man,,,,null,,,,,,,,,
null,"<img src=""stim_listA/oppose1.gif""style=""height:400px;""></stim_listA>",,html-keyboard-response,153,2496716,0.0-15.0-1.6,30806,List1A,white,man,,,,null,,,,,,,,,
null,is opposing,,html-keyboard-response,154,2498718,0.0-15.0-2.6,30806,List1A,white,man,,,,null,,,,,,,,,
48505.4,,,survey-text,155,2547229,0.0-15.0-3.6,30806,List1A,white,man,,,,,"{""Q0"":""  Mike is opposing Kate""}","<img src=""stim_listA/oppose1.gif""style=""height:400px;""></stim_listA>",is opposing,,,,,,
null,"<div style=""font-size:60px;"">+</div>",,html-keyboard-response,156,2547732,0.0-15.0-0.7,30806,List1A,white,man,,,,null,,,,,,,,,
null,"<img src=""stim_listA/copy8.gif""style=""height:400px;""></stim_listA>",,html-keyboard-response,157,2549738,0.0-15.0-1.7,30806,List1A,white,man,,,,null,,,,,,,,,
null,is being copied by,,html-keyboard-response,158,2551740,0.0-15.0-2.7,30806,List1A,white,man,,,,null,,,,,,,,,
64040.1,,,survey-text,159,2615787,0.0-15.0-3.7,30806,List1A,white,man,,,,,"{""Q0"":""  Jane is being copied by beth""}","<img src=""stim_listA/copy8.gif""style=""height:400px;""></stim_listA>",is being copied by,,,,,,
null,"<div style=""font-size:60px;"">+</div>",,html-keyboard-response,160,2616290,0.0-15.0-0.8,30806,List1A,white,man,,,,null,,,,,,,,,
null,"<img src=""stim_listA/copy2.gif""style=""height:400px;""></stim_listA>",,html-keyboard-response,161,2618294,0.0-15.0-1.8,30806,List1A,white,man,,,,null,,,,,,,,,
null,is being copied by,,html-keyboard-response,162,2620296,0.0-15.0-2.8,30806,List1A,white,man,,,,null,,,,,,,,,
65693.9,,,survey-text,163,2685997,0.0-15.0-3.8,30806,List1A,white,man,,,,,"{""Q0"":"" Kate is being copied by Fred""}","<img src=""stim_listA/copy2.gif""style=""height:400px;""></stim_listA>",is being copied by,,,,,,
null,"<div style=""font-size:60px;"">+</div>",,html-keyboard-response,164,2686500,0.0-15.0-0.9,30806,List1A,white,man,,,,null,,,,,,,,,
null,"<img src=""stim_listA/copy4.gif""style=""height:400px;""></stim_listA>",,html-keyboard-response,165,2688504,0.0-15.0-1.9,30806,List1A,white,man,,,,null,,,,,,,,,
null,is being copied by,,html-keyboard-response,166,2690546,0.0-15.0-2.9,30806,List1A,white,man,,,,null,,,,,,,,,
79251.3,,,survey-text,167,2769804,0.0-15.0-3.9,30806,List1A,white,man,,,,,"{""Q0"":"" Jane is being copied by Luke""}","<img src=""stim_listA/copy4.gif""style=""height:400px;""></stim_listA>",is being copied by,,,,,,
null,"<div style=""font-size:60px;"">+</div>",,html-keyboard-response,168,2770307,0.0-15.0-0.10,30806,List1A,white,man,,,,null,,,,,,,,,
null,"<img src=""stim_listA/challenge6.gif""style=""height:400px;""></stim_listA>",,html-keyboard-response,169,2772312,0.0-15.0-1.10,30806,List1A,white,man,,,,null,,,,,,,,,
null,is being challenged by,,html-keyboard-response,170,2774314,0.0-15.0-2.10,30806,List1A,white,man,,,,null,,,,,,,,,
99081.6,,,survey-text,171,2873405,0.0-15.0-3.10,30806,List1A,white,man,,,,,"{""Q0"":"" Dave is being challenged by Fred""}","<img src=""stim_listA/challenge6.gif""style=""height:400px;""></stim_listA>",is being challenged by,,,,,,
null,"<div style=""font-size:60px;"">+</div>",,html-keyboard-response,172,2873908,0.0-15.0-0.11,30806,List1A,white,man,,,,null,,,,,,,,,
null,"<img src=""stim_listA/hug2.gif""style=""height:400px;""></stim_listA>",,html-keyboard-response,173,2875912,0.0-15.0-1.11,30806,List1A,white,man,,,,null,,,,,,,,,
null,is being hugged by,,html-keyboard-response,174,2877914,0.0-15.0-2.11,30806,List1A,white,man,,,,null,,,,,,,,,
82767.6,,,survey-text,175,2960689,0.0-15.0-3.11,30806,List1A,white,man,,,,,"{""Q0"":""  Kate is being hugged by Mike""}","<img src=""stim_listA/hug2.gif""style=""height:400px;""></stim_listA>",is being hugged by,,,,,,
null,"<div style=""font-size:60px;"">+</div>",,html-keyboard-response,176,2961192,0.0-15.0-0.12,30806,List1A,white,man,,,,null,,,,,,,,,
null,"<img src=""stim_listA/touch3.gif""style=""height:400px;""></stim_listA>",,html-keyboard-response,177,2963196,0.0-15.0-1.12,30806,List1A,white,man,,,,null,,,,,,,,,
null,is touching,,html-keyboard-response,178,2965198,0.0-15.0-2.12,30806,List1A,white,man,,,,null,,,,,,,,,
49890.3,,,survey-text,179,3015096,0.0-15.0-3.12,30806,List1A,white,man,,,,,"{""Q0"":"" Dave is touching Jane""}","<img src=""stim_listA/touch3.gif""style=""height:400px;""></stim_listA>",is touching,,,,,,
null,"<div style=""font-size:60px;"">+</div>",,html-keyboard-response,180,3015598,0.0-15.0-0.13,30806,List1A,white,man,,,,null,,,,,,,,,
null,"<img src=""stim_listA/shout4.gif""style=""height:400px;""></stim_listA>",,html-keyboard-response,181,3017602,0.0-15.0-1.13,30806,List1A,white,man,,,,null,,,,,,,,,
null,is being shouted at by,,html-keyboard-response,182,3019604,0.0-15.0-2.13,30806,List1A,white,man,,,,null,,,,,,,,,
47881.2,,,survey-text,183,3067493,0.0-15.0-3.13,30806,List1A,white,man,,,,,"{""Q0"":"" Dave is being shouted at by Jane""}","<img src=""stim_listA/shout4.gif""style=""height:400px;""></stim_listA>",is being shouted at by,,,,,,
null,"<div style=""font-size:60px;"">+</div>",,html-keyboard-response,184,3067996,0.0-15.0-0.14,30806,List1A,white,man,,,,null,,,,,,,,,
null,"<img src=""stim_listA/challenge1.gif""style=""height:400px;""></stim_listA>",,html-keyboard-response,185,3070000,0.0-15.0-1.14,30806,List1A,white,man,,,,null,,,,,,,,,
null,is challenging,,html-keyboard-response,186,3072002,0.0-15.0-2.14,30806,List1A,white,man,,,,null,,,,,,,,,
53397.9,,,survey-text,187,3125406,0.0-15.0-3.14,30806,List1A,white,man,,,,,"{""Q0"":""  Mike is challenging beth""}","<img src=""stim_listA/challenge1.gif""style=""height:400px;""></stim_listA>",is challenging,,,,,,
null,"<div style=""font-size:60px;"">+</div>",,html-keyboard-response,188,3125909,0.0-15.0-0.15,30806,List1A,white,man,,,,null,,,,,,,,,
null,"<img src=""stim_listA/hug7.gif""style=""height:400px;""></stim_listA>",,html-keyboard-response,189,3127913,0.0-15.0-1.15,30806,List1A,white,man,,,,null,,,,,,,,,
null,is hugging,,html-keyboard-response,190,3129915,0.0-15.0-2.15,30806,List1A,white,man,,,,null,,,,,,,,,
44209.1,,,survey-text,191,3174131,0.0-15.0-3.15,30806,List1A,white,man,,,,,"{""Q0"":"" Beth is hugging Ruth""}","<img src=""stim_listA/hug7.gif""style=""height:400px;""></stim_listA>",is hugging,,,,,,
null,"<div style=""font-size:60px;"">+</div>",,html-keyboard-response,192,3174634,0.0-15.0-0.16,30806,List1A,white,man,,,,null,,,,,,,,,
null,"<img src=""stim_listA/challenge7.gif""style=""height:400px;""></stim_listA>",,html-keyboard-response,193,3176638,0.0-15.0-1.16,30806,List1A,white,man,,,,null,,,,,,,,,
null,is challenging,,html-keyboard-response,194,3178640,0.0-15.0-2.16,30806,List1A,white,man,,,,null,,,,,,,,,
110171.8,,,survey-text,195,3288821,0.0-15.0-3.16,30806,List1A,white,man,,,,,"{""Q0"":"" Kate is challenging Ruth""}","<img src=""stim_listA/challenge7.gif""style=""height:400px;""></stim_listA>",is challenging,,,,,,
null,"<div style=""font-size:60px;"">+</div>",,html-keyboard-response,196,3289324,0.0-15.0-0.17,30806,List1A,white,man,,,,null,,,,,,,,,
null,"<img src=""stim_listA/greet2.gif""style=""height:400px;""></stim_listA>",,html-keyboard-response,197,3291328,0.0-15.0-1.17,30806,List1A,white,man,,,,null,,,,,,,,,
null,is being greeted by,,html-keyboard-response,198,3293330,0.0-15.0-2.17,30806,List1A,white,man,,,,null,,,,,,,,,
100437.4,,,survey-text,199,3393776,0.0-15.0-3.17,30806,List1A,white,man,,,,,"{""Q0"":"" Fred is being greeted by Kate""}","<img src=""stim_listA/greet2.gif""style=""height:400px;""></stim_listA>",is being greeted by,,,,,,
null,"<div style=""font-size:60px;"">+</div>",,html-keyboard-response,200,3394279,0.0-15.0-0.18,30806,List1A,white,man,,,,null,,,,,,,,,
null,"<img src=""stim_listA/copy3.gif""style=""height:400px;""></stim_listA>",,html-keyboard-response,201,3396283,0.0-15.0-1.18,30806,List1A,white,man,,,,null,,,,,,,,,
null,is copying,,html-keyboard-response,202,3398285,0.0-15.0-2.18,30806,List1A,white,man,,,,null,,,,,,,,,
37467.1,,,survey-text,203,3435757,0.0-15.0-3.18,30806,List1A,white,man,,,,,"{""Q0"":""Dave is copying Ruth""}","<img src=""stim_listA/copy3.gif""style=""height:400px;""></stim_listA>",is copying,,,,,,
null,"<div style=""font-size:60px;"">+</div>",,html-keyboard-response,204,3436259,0.0-15.0-0.19,30806,List1A,white,man,,,,null,,,,,,,,,
null,"<img src=""stim_listA/challenge8.gif""style=""height:400px;""></stim_listA>",,html-keyboard-response,205,3438263,0.0-15.0-1.19,30806,List1A,white,man,,,,null,,,,,,,,,
null,is being challenged by,,html-keyboard-response,206,3440265,0.0-15.0-2.19,30806,List1A,white,man,,,,null,,,,,,,,,
58433.2,,,survey-text,207,3498705,0.0-15.0-3.19,30806,List1A,white,man,,,,,"{""Q0"":"" Jane  is being challenged by Beth""}","<img src=""stim_listA/challenge8.gif""style=""height:400px;""></stim_listA>",is being challenged by,,,,,,
27909.7,"<img src='img/portrait_matrix_list1.jpg' style='width:900px;height:500px;''></img><p>If you have memorised all the portraits and names and are ready to start, press Continue.</p><p><strong>Please note: Your memory of these faces will be tested 4 times during this experiment.</strong></p>",0,html-button-response,208,3526621,0.0-16.0-0.0,30806,List1A,white,man,,,,,,,,,,,,,
4355.9,"<img src=""portrait/BW1.jpg""style=""height:400px;""></img>",0,html-button-response,209,3531981,0.0-16.0-1.0,30806,List1A,white,man,,TRUE,0,,,,,,,,,,
null,CORRECT,,html-keyboard-response,210,3533485,0.0-16.0-2.0-0.0,30806,List1A,white,man,,,,null,,,,,,,,,
1989.2,"<img src=""portrait/BM1.jpg""style=""height:400px;""></img>",4,html-button-response,211,3535478,0.0-16.0-4.0,30806,List1A,white,man,,TRUE,4,,,,,,,,,,
null,CORRECT,,html-keyboard-response,212,3536981,0.0-16.0-5.0-0.0,30806,List1A,white,man,,,,null,,,,,,,,,
4422.1,"<img src=""portrait/WW1.jpg""style=""height:400px;""></img>",1,html-button-response,213,3541407,0.0-16.0-7.0,30806,List1A,white,man,,TRUE,1,,,,,,,,,,
null,CORRECT,,html-keyboard-response,214,3542913,0.0-16.0-8.0-0.0,30806,List1A,white,man,,,,null,,,,,,,,,
4455.9,"<img src=""portrait/WW2.jpg""style=""height:400px;""></img>",3,html-button-response,215,3547372,0.0-16.0-10.0,30806,List1A,white,man,,TRUE,3,,,,,,,,,,
null,CORRECT,,html-keyboard-response,216,3548876,0.0-16.0-11.0-0.0,30806,List1A,white,man,,,,null,,,,,,,,,
9635.5,"<img src=""portrait/WM1.jpg""style=""height:400px;""></img>",6,html-button-response,217,3558516,0.0-16.0-13.0,30806,List1A,white,man,,TRUE,6,,,,,,,,,,
null,CORRECT,,html-keyboard-response,218,3560019,0.0-16.0-14.0-0.0,30806,List1A,white,man,,,,null,,,,,,,,,
5123.6,"<img src=""portrait/WM2.jpg""style=""height:400px;""></img>",7,html-button-response,219,3565146,0.0-16.0-16.0,30806,List1A,white,man,,TRUE,7,,,,,,,,,,
null,CORRECT,,html-keyboard-response,220,3566649,0.0-16.0-17.0-0.0,30806,List1A,white,man,,,,null,,,,,,,,,
3768.5,"<img src=""portrait/BM2.jpg""style=""height:400px;""></img>",5,html-button-response,221,3570421,0.0-16.0-19.0,30806,List1A,white,man,,TRUE,5,,,,,,,,,,
null,CORRECT,,html-keyboard-response,222,3571926,0.0-16.0-20.0-0.0,30806,List1A,white,man,,,,null,,,,,,,,,
9145,"<img src=""portrait/BW2.jpg""style=""height:400px;""></img>",2,html-button-response,223,3581081,0.0-16.0-22.0,30806,List1A,white,man,,TRUE,2,,,,,,,,,,
null,CORRECT,,html-keyboard-response,224,3582585,0.0-16.0-23.0-0.0,30806,List1A,white,man,,,,null,,,,,,,,,
2618.7,<p>You got 8 out of 8 right first time. Press Continue.</p>,0,html-button-response,225,3585208,0.0-16.0-25.0,30806,List1A,white,man,,,,,,,,,,,,,
null,"<div style=""font-size:60px;"">+</div>",,html-keyboard-response,226,3586711,0.0-17.0-0.0,30806,List1A,white,man,,,,null,,,,,,,,,
null,"<img src=""stim_listA/greet8.gif""style=""height:400px;""></stim_listA>",,html-keyboard-response,227,3588715,0.0-17.0-1.0,30806,List1A,white,man,,,,null,,,,,,,,,
null,is being greeted by,,html-keyboard-response,228,3590717,0.0-17.0-2.0,30806,List1A,white,man,,,,null,,,,,,,,,
62498.8,,,survey-text,229,3653224,0.0-17.0-3.0,30806,List1A,white,man,,,,,"{""Q0"":"" Beth is being greeted by Jane ""}","<img src=""stim_listA/greet8.gif""style=""height:400px;""></stim_listA>",is being greeted by,,,,,,
null,"<div style=""font-size:60px;"">+</div>",,html-keyboard-response,230,3653727,0.0-17.0-0.1,30806,List1A,white,man,,,,null,,,,,,,,,
null,"<img src=""stim_listA/seduce6.gif""style=""height:400px;""></stim_listA>",,html-keyboard-response,231,3655731,0.0-17.0-1.1,30806,List1A,white,man,,,,null,,,,,,,,,
null,is being seduced by,,html-keyboard-response,232,3657733,0.0-17.0-2.1,30806,List1A,white,man,,,,null,,,,,,,,,
23279.1,,,survey-text,233,3681018,0.0-17.0-3.1,30806,List1A,white,man,,,,,"{""Q0"":"" Mike is being seduced by Luke""}","<img src=""stim_listA/seduce6.gif""style=""height:400px;""></stim_listA>",is being seduced by,,,,,,
null,"<div style=""font-size:60px;"">+</div>",,html-keyboard-response,234,3681521,0.0-17.0-0.2,30806,List1A,white,man,,,,null,,,,,,,,,
null,"<img src=""stim_listA/hug4.gif""style=""height:400px;""></stim_listA>",,html-keyboard-response,235,3683525,0.0-17.0-1.2,30806,List1A,white,man,,,,null,,,,,,,,,
null,is being hugged by,,html-keyboard-response,236,3685527,0.0-17.0-2.2,30806,List1A,white,man,,,,null,,,,,,,,,
44744.1,,,survey-text,237,3730278,0.0-17.0-3.2,30806,List1A,white,man,,,,,"{""Q0"":""Dave is being hugged by Jane""}","<img src=""stim_listA/hug4.gif""style=""height:400px;""></stim_listA>",is being hugged by,,,,,,
null,"<div style=""font-size:60px;"">+</div>",,html-keyboard-response,238,3730781,0.0-17.0-0.3,30806,List1A,white,man,,,,null,,,,,,,,,
null,"<img src=""stim_listA/look8.gif""style=""height:400px;""></stim_listA>",,html-keyboard-response,239,3732784,0.0-17.0-1.3,30806,List1A,white,man,,,,null,,,,,,,,,
null,is being looked at by,,html-keyboard-response,240,3734786,0.0-17.0-2.3,30806,List1A,white,man,,,,null,,,,,,,,,
43029.8,,,survey-text,241,3777822,0.0-17.0-3.3,30806,List1A,white,man,,,,,"{""Q0"":"" kate is being looked at by Jane   ""}","<img src=""stim_listA/look8.gif""style=""height:400px;""></stim_listA>",is being looked at by,,,,,,
null,"<div style=""font-size:60px;"">+</div>",,html-keyboard-response,242,3778325,0.0-17.0-0.4,30806,List1A,white,man,,,,null,,,,,,,,,
null,"<img src=""stim_listA/copy1.gif""style=""height:400px;""></stim_listA>",,html-keyboard-response,243,3780329,0.0-17.0-1.4,30806,List1A,white,man,,,,null,,,,,,,,,
null,is copying,,html-keyboard-response,244,3782331,0.0-17.0-2.4,30806,List1A,white,man,,,,null,,,,,,,,,
23364.7,,,survey-text,245,3805701,0.0-17.0-3.4,30806,List1A,white,man,,,,,"{""Q0"":"" beth is copying mike""}","<img src=""stim_listA/copy1.gif""style=""height:400px;""></stim_listA>",is copying,,,,,,
null,"<div style=""font-size:60px;"">+</div>",,html-keyboard-response,246,3806204,0.0-17.0-0.5,30806,List1A,white,man,,,,null,,,,,,,,,
null,"<img src=""stim_listA/kiss4.gif""style=""height:400px;""></stim_listA>",,html-keyboard-response,247,3808208,0.0-17.0-1.5,30806,List1A,white,man,,,,null,,,,,,,,,
null,is being kissed by,,html-keyboard-response,248,3810210,0.0-17.0-2.5,30806,List1A,white,man,,,,null,,,,,,,,,
16697.7,,,survey-text,249,3826915,0.0-17.0-3.5,30806,List1A,white,man,,,,,"{""Q0"":""Jane  is being kissed by Dave""}","<img src=""stim_listA/kiss4.gif""style=""height:400px;""></stim_listA>",is being kissed by,,,,,,
null,"<div style=""font-size:60px;"">+</div>",,html-keyboard-response,250,3827417,0.0-17.0-0.6,30806,List1A,white,man,,,,null,,,,,,,,,
null,"<img src=""stim_listA/greet5.gif""style=""height:400px;""></stim_listA>",,html-keyboard-response,251,3829421,0.0-17.0-1.6,30806,List1A,white,man,,,,null,,,,,,,,,
null,is greeting,,html-keyboard-response,252,3831423,0.0-17.0-2.6,30806,List1A,white,man,,,,null,,,,,,,,,
16454.9,,,survey-text,253,3847884,0.0-17.0-3.6,30806,List1A,white,man,,,,,"{""Q0"":""Mike is greeting  Luke""}","<img src=""stim_listA/greet5.gif""style=""height:400px;""></stim_listA>",is greeting,,,,,,
null,"<div style=""font-size:60px;"">+</div>",,html-keyboard-response,254,3848387,0.0-17.0-0.7,30806,List1A,white,man,,,,null,,,,,,,,,
null,"<img src=""stim_listA/shout1.gif""style=""height:400px;""></stim_listA>",,html-keyboard-response,255,3850391,0.0-17.0-1.7,30806,List1A,white,man,,,,null,,,,,,,,,
null,is shouting at,,html-keyboard-response,256,3852393,0.0-17.0-2.7,30806,List1A,white,man,,,,null,,,,,,,,,
29366.4,,,survey-text,257,3881765,0.0-17.0-3.7,30806,List1A,white,man,,,,,"{""Q0"":"" fred is shouting at beth""}","<img src=""stim_listA/shout1.gif""style=""height:400px;""></stim_listA>",is shouting at,,,,,,
null,"<div style=""font-size:60px;"">+</div>",,html-keyboard-response,258,3882268,0.0-17.0-0.8,30806,List1A,white,man,,,,null,,,,,,,,,
null,"<img src=""stim_listA/touch5.gif""style=""height:400px;""></stim_listA>",,html-keyboard-response,259,3884272,0.0-17.0-1.8,30806,List1A,white,man,,,,null,,,,,,,,,
null,is touching,,html-keyboard-response,260,3886275,0.0-17.0-2.8,30806,List1A,white,man,,,,null,,,,,,,,,
17475.4,,,survey-text,261,3903756,0.0-17.0-3.8,30806,List1A,white,man,,,,,"{""Q0"":""Dave is touching mike""}","<img src=""stim_listA/touch5.gif""style=""height:400px;""></stim_listA>",is touching,,,,,,
null,"<div style=""font-size:60px;"">+</div>",,html-keyboard-response,262,3904259,0.0-17.0-0.9,30806,List1A,white,man,,,,null,,,,,,,,,
null,"<img src=""stim_listA/copy6.gif""style=""height:400px;""></stim_listA>",,html-keyboard-response,263,3906263,0.0-17.0-1.9,30806,List1A,white,man,,,,null,,,,,,,,,
null,is being copied by,,html-keyboard-response,264,3908265,0.0-17.0-2.9,30806,List1A,white,man,,,,null,,,,,,,,,
25151.1,,,survey-text,265,3933421,0.0-17.0-3.9,30806,List1A,white,man,,,,,"{""Q0"":"" fred is being copied by Dave""}","<img src=""stim_listA/copy6.gif""style=""height:400px;""></stim_listA>",is being copied by,,,,,,
null,"<div style=""font-size:60px;"">+</div>",,html-keyboard-response,266,3933925,0.0-17.0-0.10,30806,List1A,white,man,,,,null,,,,,,,,,
null,"<img src=""stim_listA/oppose4.gif""style=""height:400px;""></stim_listA>",,html-keyboard-response,267,3935929,0.0-17.0-1.10,30806,List1A,white,man,,,,null,,,,,,,,,
null,is being opposed by,,html-keyboard-response,268,3937931,0.0-17.0-2.10,30806,List1A,white,man,,,,null,,,,,,,,,
18610.2,,,survey-text,269,3956548,0.0-17.0-3.10,30806,List1A,white,man,,,,,"{""Q0"":"" Ruth is being opposed by Luke""}","<img src=""stim_listA/oppose4.gif""style=""height:400px;""></stim_listA>",is being opposed by,,,,,,
null,"<div style=""font-size:60px;"">+</div>",,html-keyboard-response,270,3957051,0.0-17.0-0.11,30806,List1A,white,man,,,,null,,,,,,,,,
null,"<img src=""stim_listA/touch8.gif""style=""height:400px;""></stim_listA>",,html-keyboard-response,271,3959054,0.0-17.0-1.11,30806,List1A,white,man,,,,null,,,,,,,,,
null,is being touched by,,html-keyboard-response,272,3961056,0.0-17.0-2.11,30806,List1A,white,man,,,,null,,,,,,,,,
21862.9,,,survey-text,273,3982924,0.0-17.0-3.11,30806,List1A,white,man,,,,,"{""Q0"":""Beth is being touched by Ruth ""}","<img src=""stim_listA/touch8.gif""style=""height:400px;""></stim_listA>",is being touched by,,,,,,
null,"<div style=""font-size:60px;"">+</div>",,html-keyboard-response,274,3983426,0.0-17.0-0.12,30806,List1A,white,man,,,,null,,,,,,,,,
null,"<img src=""stim_listA/hug5.gif""style=""height:400px;""></stim_listA>",,html-keyboard-response,275,3985430,0.0-17.0-1.12,30806,List1A,white,man,,,,null,,,,,,,,,
null,is hugging,,html-keyboard-response,276,3987432,0.0-17.0-2.12,30806,List1A,white,man,,,,null,,,,,,,,,
22208,,,survey-text,277,4009646,0.0-17.0-3.12,30806,List1A,white,man,,,,,"{""Q0"":"" Luke is hugging fred""}","<img src=""stim_listA/hug5.gif""style=""height:400px;""></stim_listA>",is hugging,,,,,,
null,"<div style=""font-size:60px;"">+</div>",,html-keyboard-response,278,4010149,0.0-17.0-0.13,30806,List1A,white,man,,,,null,,,,,,,,,
null,"<img src=""stim_listA/look5.gif""style=""height:400px;""></stim_listA>",,html-keyboard-response,279,4012154,0.0-17.0-1.13,30806,List1A,white,man,,,,null,,,,,,,,,
null,is looking at,,html-keyboard-response,280,4014155,0.0-17.0-2.13,30806,List1A,white,man,,,,null,,,,,,,,,
20756.3,,,survey-text,281,4034917,0.0-17.0-3.13,30806,List1A,white,man,,,,,"{""Q0"":""Luke is looking at fred""}","<img src=""stim_listA/look5.gif""style=""height:400px;""></stim_listA>",is looking at,,,,,,
null,"<div style=""font-size:60px;"">+</div>",,html-keyboard-response,282,4035420,0.0-17.0-0.14,30806,List1A,white,man,,,,null,,,,,,,,,
null,"<img src=""stim_listA/challenge2.gif""style=""height:400px;""></stim_listA>",,html-keyboard-response,283,4037424,0.0-17.0-1.14,30806,List1A,white,man,,,,null,,,,,,,,,
null,is being challenged by,,html-keyboard-response,284,4039426,0.0-17.0-2.14,30806,List1A,white,man,,,,null,,,,,,,,,
20414,,,survey-text,285,4059845,0.0-17.0-3.14,30806,List1A,white,man,,,,,"{""Q0"":"" fred  is being challenged by kate""}","<img src=""stim_listA/challenge2.gif""style=""height:400px;""></stim_listA>",is being challenged by,,,,,,
null,"<div style=""font-size:60px;"">+</div>",,html-keyboard-response,286,4060349,0.0-17.0-0.15,30806,List1A,white,man,,,,null,,,,,,,,,
null,"<img src=""stim_listA/look6.gif""style=""height:400px;""></stim_listA>",,html-keyboard-response,287,4062353,0.0-17.0-1.15,30806,List1A,white,man,,,,null,,,,,,,,,
null,is being looked at by,,html-keyboard-response,288,4064355,0.0-17.0-2.15,30806,List1A,white,man,,,,null,,,,,,,,,
25617.6,,,survey-text,289,4089980,0.0-17.0-3.15,30806,List1A,white,man,,,,,"{""Q0"":""Dave is being looked at by Mike""}","<img src=""stim_listA/look6.gif""style=""height:400px;""></stim_listA>",is being looked at by,,,,,,
null,"<div style=""font-size:60px;"">+</div>",,html-keyboard-response,290,4090483,0.0-17.0-0.16,30806,List1A,white,man,,,,null,,,,,,,,,
null,"<img src=""stim_listA/challenge5.gif""style=""height:400px;""></stim_listA>",,html-keyboard-response,291,4092487,0.0-17.0-1.16,30806,List1A,white,man,,,,null,,,,,,,,,
null,is challenging,,html-keyboard-response,292,4094488,0.0-17.0-2.16,30806,List1A,white,man,,,,null,,,,,,,,,
10839.4,,,survey-text,293,4105333,0.0-17.0-3.16,30806,List1A,white,man,,,,,"{""Q0"":""Luke is challenging mike""}","<img src=""stim_listA/challenge5.gif""style=""height:400px;""></stim_listA>",is challenging,,,,,,
null,"<div style=""font-size:60px;"">+</div>",,html-keyboard-response,294,4105836,0.0-17.0-0.17,30806,List1A,white,man,,,,null,,,,,,,,,
null,"<img src=""stim_listA/greet3.gif""style=""height:400px;""></stim_listA>",,html-keyboard-response,295,4107840,0.0-17.0-1.17,30806,List1A,white,man,,,,null,,,,,,,,,
null,is greeting,,html-keyboard-response,296,4109842,0.0-17.0-2.17,30806,List1A,white,man,,,,null,,,,,,,,,
13773.1,,,survey-text,297,4123621,0.0-17.0-3.17,30806,List1A,white,man,,,,,"{""Q0"":"" Dave  is greeting Ruth""}","<img src=""stim_listA/greet3.gif""style=""height:400px;""></stim_listA>",is greeting,,,,,,
null,"<div style=""font-size:60px;"">+</div>",,html-keyboard-response,298,4124124,0.0-17.0-0.18,30806,List1A,white,man,,,,null,,,,,,,,,
null,"<img src=""stim_listA/shout2.gif""style=""height:400px;""></stim_listA>",,html-keyboard-response,299,4126128,0.0-17.0-1.18,30806,List1A,white,man,,,,null,,,,,,,,,
null,is being shouted at by,,html-keyboard-response,300,4128131,0.0-17.0-2.18,30806,List1A,white,man,,,,null,,,,,,,,,
22902,,,survey-text,301,4151039,0.0-17.0-3.18,30806,List1A,white,man,,,,,"{""Q0"":""Mike  is being shouted at by Kate""}","<img src=""stim_listA/shout2.gif""style=""height:400px;""></stim_listA>",is being shouted at by,,,,,,
null,"<div style=""font-size:60px;"">+</div>",,html-keyboard-response,302,4151542,0.0-17.0-0.19,30806,List1A,white,man,,,,null,,,,,,,,,
null,"<img src=""stim_listA/seduce1.gif""style=""height:400px;""></stim_listA>",,html-keyboard-response,303,4153546,0.0-17.0-1.19,30806,List1A,white,man,,,,null,,,,,,,,,
null,is seducing,,html-keyboard-response,304,4155548,0.0-17.0-2.19,30806,List1A,white,man,,,,null,,,,,,,,,
18232.2,,,survey-text,305,4173785,0.0-17.0-3.19,30806,List1A,white,man,,,,,"{""Q0"":"" fred is seducing Kate""}","<img src=""stim_listA/seduce1.gif""style=""height:400px;""></stim_listA>",is seducing,,,,,,
4110,"<img src='img/portrait_matrix_list1.jpg' style='width:900px;height:500px;''></img><p>If you have memorised all the portraits and names and are ready to start, press Continue.</p><p><strong>Please note: Your memory of these faces will be tested 4 times during this experiment.</strong></p>",0,html-button-response,306,4177899,0.0-18.0-0.0,30806,List1A,white,man,,,,,,,,,,,,,
12681.5,"<img src=""portrait/BM1.jpg""style=""height:400px;""></img>",4,html-button-response,307,4191587,0.0-18.0-1.0,30806,List1A,white,man,,TRUE,4,,,,,,,,,,
null,CORRECT,,html-keyboard-response,308,4193090,0.0-18.0-2.0-0.0,30806,List1A,white,man,,,,null,,,,,,,,,
2606.1,"<img src=""portrait/WW2.jpg""style=""height:400px;""></img>",3,html-button-response,309,4195700,0.0-18.0-4.0,30806,List1A,white,man,,TRUE,3,,,,,,,,,,
null,CORRECT,,html-keyboard-response,310,4197203,0.0-18.0-5.0-0.0,30806,List1A,white,man,,,,null,,,,,,,,,
2408.4,"<img src=""portrait/WM2.jpg""style=""height:400px;""></img>",7,html-button-response,311,4199615,0.0-18.0-7.0,30806,List1A,white,man,,TRUE,7,,,,,,,,,,
null,CORRECT,,html-keyboard-response,312,4201119,0.0-18.0-8.0-0.0,30806,List1A,white,man,,,,null,,,,,,,,,
2801.9,"<img src=""portrait/WW1.jpg""style=""height:400px;""></img>",1,html-button-response,313,4203924,0.0-18.0-10.0,30806,List1A,white,man,,TRUE,1,,,,,,,,,,
null,CORRECT,,html-keyboard-response,314,4205428,0.0-18.0-11.0-0.0,30806,List1A,white,man,,,,null,,,,,,,,,
4447.2,"<img src=""portrait/BW1.jpg""style=""height:400px;""></img>",0,html-button-response,315,4209878,0.0-18.0-13.0,30806,List1A,white,man,,TRUE,0,,,,,,,,,,
null,CORRECT,,html-keyboard-response,316,4211382,0.0-18.0-14.0-0.0,30806,List1A,white,man,,,,null,,,,,,,,,
2482.2,"<img src=""portrait/BW2.jpg""style=""height:400px;""></img>",2,html-button-response,317,4213868,0.0-18.0-16.0,30806,List1A,white,man,,TRUE,2,,,,,,,,,,
null,CORRECT,,html-keyboard-response,318,4215371,0.0-18.0-17.0-0.0,30806,List1A,white,man,,,,null,,,,,,,,,
2862.7,"<img src=""portrait/BM2.jpg""style=""height:400px;""></img>",5,html-button-response,319,4218238,0.0-18.0-19.0,30806,List1A,white,man,,TRUE,5,,,,,,,,,,
null,CORRECT,,html-keyboard-response,320,4219741,0.0-18.0-20.0-0.0,30806,List1A,white,man,,,,null,,,,,,,,,
18327.3,"<img src=""portrait/WM1.jpg""style=""height:400px;""></img>",6,html-button-response,321,4238072,0.0-18.0-22.0,30806,List1A,white,man,,TRUE,6,,,,,,,,,,
null,CORRECT,,html-keyboard-response,322,4239576,0.0-18.0-23.0-0.0,30806,List1A,white,man,,,,null,,,,,,,,,
2063.7,<p>You got 8 out of 8 right first time. Press Continue.</p>,0,html-button-response,323,4241643,0.0-18.0-25.0,30806,List1A,white,man,,,,,,,,,,,,,
null,"<div style=""font-size:60px;"">+</div>",,html-keyboard-response,324,4243148,0.0-19.0-0.0,30806,List1A,white,man,,,,null,,,,,,,,,
null,"<img src=""stim_listA/look7.gif""style=""height:400px;""></stim_listA>",,html-keyboard-response,325,4245150,0.0-19.0-1.0,30806,List1A,white,man,,,,null,,,,,,,,,
null,is looking at,,html-keyboard-response,326,4247152,0.0-19.0-2.0,30806,List1A,white,man,,,,null,,,,,,,,,
40146,,,survey-text,327,4287305,0.0-19.0-3.0,30806,List1A,white,man,,,,,"{""Q0"":""Ruth  is looking at Beth""}","<img src=""stim_listA/look7.gif""style=""height:400px;""></stim_listA>",is looking at,,,,,,
null,"<div style=""font-size:60px;"">+</div>",,html-keyboard-response,328,4287807,0.0-19.0-0.1,30806,List1A,white,man,,,,null,,,,,,,,,
null,"<img src=""stim_listA/kiss2.gif""style=""height:400px;""></stim_listA>",,html-keyboard-response,329,4289812,0.0-19.0-1.1,30806,List1A,white,man,,,,null,,,,,,,,,
null,is being kissed by,,html-keyboard-response,330,4291814,0.0-19.0-2.1,30806,List1A,white,man,,,,null,,,,,,,,,
17701.5,,,survey-text,331,4309522,0.0-19.0-3.1,30806,List1A,white,man,,,,,"{""Q0"":""Kate is being kissed by mike""}","<img src=""stim_listA/kiss2.gif""style=""height:400px;""></stim_listA>",is being kissed by,,,,,,
null,"<div style=""font-size:60px;"">+</div>",,html-keyboard-response,332,4310025,0.0-19.0-0.2,30806,List1A,white,man,,,,null,,,,,,,,,
null,"<img src=""stim_listA/oppose6.gif""style=""height:400px;""></stim_listA>",,html-keyboard-response,333,4312029,0.0-19.0-1.2,30806,List1A,white,man,,,,null,,,,,,,,,
null,is being opposed by,,html-keyboard-response,334,4314031,0.0-19.0-2.2,30806,List1A,white,man,,,,null,,,,,,,,,
14618.8,,,survey-text,335,4328655,0.0-19.0-3.2,30806,List1A,white,man,,,,,"{""Q0"":""  Fred is being opposed by Luke""}","<img src=""stim_listA/oppose6.gif""style=""height:400px;""></stim_listA>",is being opposed by,,,,,,
null,"<div style=""font-size:60px;"">+</div>",,html-keyboard-response,336,4329157,0.0-19.0-0.3,30806,List1A,white,man,,,,null,,,,,,,,,
null,"<img src=""stim_listA/look2.gif""style=""height:400px;""></stim_listA>",,html-keyboard-response,337,4331161,0.0-19.0-1.3,30806,List1A,white,man,,,,null,,,,,,,,,
null,is being looked at by,,html-keyboard-response,338,4333163,0.0-19.0-2.3,30806,List1A,white,man,,,,null,,,,,,,,,
20109,,,survey-text,339,4353277,0.0-19.0-3.3,30806,List1A,white,man,,,,,"{""Q0"":"" Kate is being looked at by Mike""}","<img src=""stim_listA/look2.gif""style=""height:400px;""></stim_listA>",is being looked at by,,,,,,
null,"<div style=""font-size:60px;"">+</div>",,html-keyboard-response,340,4353780,0.0-19.0-0.4,30806,List1A,white,man,,,,null,,,,,,,,,
null,"<img src=""stim_listA/greet6.gif""style=""height:400px;""></stim_listA>",,html-keyboard-response,341,4355784,0.0-19.0-1.4,30806,List1A,white,man,,,,null,,,,,,,,,
null,is being greeted by,,html-keyboard-response,342,4357786,0.0-19.0-2.4,30806,List1A,white,man,,,,null,,,,,,,,,
15689.5,,,survey-text,343,4373482,0.0-19.0-3.4,30806,List1A,white,man,,,,,"{""Q0"":""Dave is being greeted by fred""}","<img src=""stim_listA/greet6.gif""style=""height:400px;""></stim_listA>",is being greeted by,,,,,,
null,"<div style=""font-size:60px;"">+</div>",,html-keyboard-response,344,4373985,0.0-19.0-0.5,30806,List1A,white,man,,,,null,,,,,,,,,
null,"<img src=""stim_listA/challenge3.gif""style=""height:400px;""></stim_listA>",,html-keyboard-response,345,4375989,0.0-19.0-1.5,30806,List1A,white,man,,,,null,,,,,,,,,
null,is challenging,,html-keyboard-response,346,4377991,0.0-19.0-2.5,30806,List1A,white,man,,,,null,,,,,,,,,
11700.2,,,survey-text,347,4389696,0.0-19.0-3.5,30806,List1A,white,man,,,,,"{""Q0"":""Dave is challenging ruth""}","<img src=""stim_listA/challenge3.gif""style=""height:400px;""></stim_listA>",is challenging,,,,,,
null,"<div style=""font-size:60px;"">+</div>",,html-keyboard-response,348,4390199,0.0-19.0-0.6,30806,List1A,white,man,,,,null,,,,,,,,,
null,"<img src=""stim_listA/shout8.gif""style=""height:400px;""></stim_listA>",,html-keyboard-response,349,4392203,0.0-19.0-1.6,30806,List1A,white,man,,,,null,,,,,,,,,
null,is being shouted at by,,html-keyboard-response,350,4394205,0.0-19.0-2.6,30806,List1A,white,man,,,,null,,,,,,,,,
34197.9,,,survey-text,351,4428411,0.0-19.0-3.6,30806,List1A,white,man,,,,,"{""Q0"":""jane  is being shouted at by kate""}","<img src=""stim_listA/shout8.gif""style=""height:400px;""></stim_listA>",is being shouted at by,,,,,,
null,"<div style=""font-size:60px;"">+</div>",,html-keyboard-response,352,4428914,0.0-19.0-0.7,30806,List1A,white,man,,,,null,,,,,,,,,
null,"<img src=""stim_listA/seduce8.gif""style=""height:400px;""></stim_listA>",,html-keyboard-response,353,4430919,0.0-19.0-1.7,30806,List1A,white,man,,,,null,,,,,,,,,
null,is being seduced by,,html-keyboard-response,354,4432922,0.0-19.0-2.7,30806,List1A,white,man,,,,null,,,,,,,,,
15416.5,,,survey-text,355,4448344,0.0-19.0-3.7,30806,List1A,white,man,,,,,"{""Q0"":""ruth is being seduced by kate""}","<img src=""stim_listA/seduce8.gif""style=""height:400px;""></stim_listA>",is being seduced by,,,,,,
null,"<div style=""font-size:60px;"">+</div>",,html-keyboard-response,356,4448847,0.0-19.0-0.8,30806,List1A,white,man,,,,null,,,,,,,,,
null,"<img src=""stim_listA/shout3.gif""style=""height:400px;""></stim_listA>",,html-keyboard-response,357,4450851,0.0-19.0-1.8,30806,List1A,white,man,,,,null,,,,,,,,,
null,is shouting at,,html-keyboard-response,358,4452853,0.0-19.0-2.8,30806,List1A,white,man,,,,null,,,,,,,,,
20499.3,,,survey-text,359,4473357,0.0-19.0-3.8,30806,List1A,white,man,,,,,"{""Q0"":"" luke is shouting at ruth""}","<img src=""stim_listA/shout3.gif""style=""height:400px;""></stim_listA>",is shouting at,,,,,,
null,"<div style=""font-size:60px;"">+</div>",,html-keyboard-response,360,4473860,0.0-19.0-0.9,30806,List1A,white,man,,,,null,,,,,,,,,
null,"<img src=""stim_listA/kiss3.gif""style=""height:400px;""></stim_listA>",,html-keyboard-response,361,4475864,0.0-19.0-1.9,30806,List1A,white,man,,,,null,,,,,,,,,
null,is kissing,,html-keyboard-response,362,4477866,0.0-19.0-2.9,30806,List1A,white,man,,,,null,,,,,,,,,
10693.7,,,survey-text,363,4488566,0.0-19.0-3.9,30806,List1A,white,man,,,,,"{""Q0"":""luke is kissing ruth""}","<img src=""stim_listA/kiss3.gif""style=""height:400px;""></stim_listA>",is kissing,,,,,,
null,"<div style=""font-size:60px;"">+</div>",,html-keyboard-response,364,4489068,0.0-19.0-0.10,30806,List1A,white,man,,,,null,,,,,,,,,
null,"<img src=""stim_listA/kiss5.gif""style=""height:400px;""></stim_listA>",,html-keyboard-response,365,4491073,0.0-19.0-1.10,30806,List1A,white,man,,,,null,,,,,,,,,
null,is kissing,,html-keyboard-response,366,4493074,0.0-19.0-2.10,30806,List1A,white,man,,,,null,,,,,,,,,
12497.9,,,survey-text,367,4505577,0.0-19.0-3.10,30806,List1A,white,man,,,,,"{""Q0"":""fred is kissing luke""}","<img src=""stim_listA/kiss5.gif""style=""height:400px;""></stim_listA>",is kissing,,,,,,
null,"<div style=""font-size:60px;"">+</div>",,html-keyboard-response,368,4506080,0.0-19.0-0.11,30806,List1A,white,man,,,,null,,,,,,,,,
null,"<img src=""stim_listA/greet4.gif""style=""height:400px;""></stim_listA>",,html-keyboard-response,369,4508084,0.0-19.0-1.11,30806,List1A,white,man,,,,null,,,,,,,,,
null,is being greeted by,,html-keyboard-response,370,4510086,0.0-19.0-2.11,30806,List1A,white,man,,,,null,,,,,,,,,
16461.3,,,survey-text,371,4526552,0.0-19.0-3.11,30806,List1A,white,man,,,,,"{""Q0"":""jane is being greeted by luke""}","<img src=""stim_listA/greet4.gif""style=""height:400px;""></stim_listA>",is being greeted by,,,,,,
null,"<div style=""font-size:60px;"">+</div>",,html-keyboard-response,372,4527056,0.0-19.0-0.12,30806,List1A,white,man,,,,null,,,,,,,,,
null,"<img src=""stim_listA/hug6.gif""style=""height:400px;""></stim_listA>",,html-keyboard-response,373,4529060,0.0-19.0-1.12,30806,List1A,white,man,,,,null,,,,,,,,,
null,is being hugged by,,html-keyboard-response,374,4531061,0.0-19.0-2.12,30806,List1A,white,man,,,,null,,,,,,,,,
15994.8,,,survey-text,375,4547062,0.0-19.0-3.12,30806,List1A,white,man,,,,,"{""Q0"":""dave is being hugged by mike""}","<img src=""stim_listA/hug6.gif""style=""height:400px;""></stim_listA>",is being hugged by,,,,,,
null,"<div style=""font-size:60px;"">+</div>",,html-keyboard-response,376,4547565,0.0-19.0-0.13,30806,List1A,white,man,,,,null,,,,,,,,,
null,"<img src=""stim_listA/shout5.gif""style=""height:400px;""></stim_listA>",,html-keyboard-response,377,4549573,0.0-19.0-1.13,30806,List1A,white,man,,,,null,,,,,,,,,
null,is shouting at,,html-keyboard-response,378,4551575,0.0-19.0-2.13,30806,List1A,white,man,,,,null,,,,,,,,,
14850.8,,,survey-text,379,4566432,0.0-19.0-3.13,30806,List1A,white,man,,,,,"{""Q0"":""fred is shouting at luke""}","<img src=""stim_listA/shout5.gif""style=""height:400px;""></stim_listA>",is shouting at,,,,,,
null,"<div style=""font-size:60px;"">+</div>",,html-keyboard-response,380,4566934,0.0-19.0-0.14,30806,List1A,white,man,,,,null,,,,,,,,,
null,"<img src=""stim_listA/seduce4.gif""style=""height:400px;""></stim_listA>",,html-keyboard-response,381,4568938,0.0-19.0-1.14,30806,List1A,white,man,,,,null,,,,,,,,,
null,is being seduced by,,html-keyboard-response,382,4570941,0.0-19.0-2.14,30806,List1A,white,man,,,,null,,,,,,,,,
20205.2,,,survey-text,383,4591151,0.0-19.0-3.14,30806,List1A,white,man,,,,,"{""Q0"":"" ruth is being seduced by dave""}","<img src=""stim_listA/seduce4.gif""style=""height:400px;""></stim_listA>",is being seduced by,,,,,,
null,"<div style=""font-size:60px;"">+</div>",,html-keyboard-response,384,4591655,0.0-19.0-0.15,30806,List1A,white,man,,,,null,,,,,,,,,
null,"<img src=""stim_listA/challenge4.gif""style=""height:400px;""></stim_listA>",,html-keyboard-response,385,4593659,0.0-19.0-1.15,30806,List1A,white,man,,,,null,,,,,,,,,
null,is being challenged by,,html-keyboard-response,386,4595661,0.0-19.0-2.15,30806,List1A,white,man,,,,null,,,,,,,,,
46938.6,,,survey-text,387,4642607,0.0-19.0-3.15,30806,List1A,white,man,,,,,"{""Q0"":""jane  is being challenged by luke""}","<img src=""stim_listA/challenge4.gif""style=""height:400px;""></stim_listA>",is being challenged by,,,,,,
null,"<div style=""font-size:60px;"">+</div>",,html-keyboard-response,388,4643110,0.0-19.0-0.16,30806,List1A,white,man,,,,null,,,,,,,,,
null,"<img src=""stim_listA/touch6.gif""style=""height:400px;""></stim_listA>",,html-keyboard-response,389,4645114,0.0-19.0-1.16,30806,List1A,white,man,,,,null,,,,,,,,,
null,is being touched by,,html-keyboard-response,390,4647116,0.0-19.0-2.16,30806,List1A,white,man,,,,null,,,,,,,,,
12431.8,,,survey-text,391,4659557,0.0-19.0-3.16,30806,List1A,white,man,,,,,"{""Q0"":""fred is being touched by luke""}","<img src=""stim_listA/touch6.gif""style=""height:400px;""></stim_listA>",is being touched by,,,,,,
null,"<div style=""font-size:60px;"">+</div>",,html-keyboard-response,392,4660059,0.0-19.0-0.17,30806,List1A,white,man,,,,null,,,,,,,,,
null,"<img src=""stim_listA/touch2.gif""style=""height:400px;""></stim_listA>",,html-keyboard-response,393,4662063,0.0-19.0-1.17,30806,List1A,white,man,,,,null,,,,,,,,,
null,is being touched by,,html-keyboard-response,394,4664065,0.0-19.0-2.17,30806,List1A,white,man,,,,null,,,,,,,,,
12327.7,,,survey-text,395,4676399,0.0-19.0-3.17,30806,List1A,white,man,,,,,"{""Q0"":""fred is being touched by beth""}","<img src=""stim_listA/touch2.gif""style=""height:400px;""></stim_listA>",is being touched by,,,,,,
null,"<div style=""font-size:60px;"">+</div>",,html-keyboard-response,396,4676901,0.0-19.0-0.18,30806,List1A,white,man,,,,null,,,,,,,,,
null,"<img src=""stim_listA/kiss6.gif""style=""height:400px;""></stim_listA>",,html-keyboard-response,397,4678905,0.0-19.0-1.18,30806,List1A,white,man,,,,null,,,,,,,,,
null,is being kissed by,,html-keyboard-response,398,4680907,0.0-19.0-2.18,30806,List1A,white,man,,,,null,,,,,,,,,
15444.4,,,survey-text,399,4696357,0.0-19.0-3.18,30806,List1A,white,man,,,,,"{""Q0"":"" dave is being kissed by mike""}","<img src=""stim_listA/kiss6.gif""style=""height:400px;""></stim_listA>",is being kissed by,,,,,,
null,"<div style=""font-size:60px;"">+</div>",,html-keyboard-response,400,4696860,0.0-19.0-0.19,30806,List1A,white,man,,,,null,,,,,,,,,
null,"<img src=""stim_listA/seduce3.gif""style=""height:400px;""></stim_listA>",,html-keyboard-response,401,4698864,0.0-19.0-1.19,30806,List1A,white,man,,,,null,,,,,,,,,
null,is seducing,,html-keyboard-response,402,4700866,0.0-19.0-2.19,30806,List1A,white,man,,,,null,,,,,,,,,
14093.2,,,survey-text,403,4714964,0.0-19.0-3.19,30806,List1A,white,man,,,,,"{""Q0"":"" jane is seducing luke""}","<img src=""stim_listA/seduce3.gif""style=""height:400px;""></stim_listA>",is seducing,,,,,,
10281.8,<p>Thank you for completing that task.</p><p>The final part of this session is a questionnaire that will take about 4 minutes.</p><p>Press Continue.</p>,0,html-button-response,404,4725249,0.0-20.0,30806,List1A,white,man,,,,,,,,,,,,,
55279.5,,,survey-text,405,4781543,0.0-21.0,30806,List1A,white,man,,,,,"{""Q0"":""31"",""Q1"":""English Langusge"",""Q2"":""English Language"",""Q3"":""United States"",""Q4"":""American"",""Q5"":""White"",""Q6"":""Male""}",,,demographics,,,,,
6068.6,<p>Have you lived in the USA for the last 5 years or more?</p>,0,html-button-response,406,4787618,0.0-22.0,30806,List1A,white,man,,,,,,,,fiveyears,,,,,
3058.9,<p>Move the slider to show the extent to which you agree with the following statements.</p>,0,html-button-response,407,4791683,0.0-23.0,30806,List1A,white,man,,,,,,,,,,,,,
8737.8,,,html-slider-response,408,4801428,0.0-24.0-0.0-0.0,30806,List1A,white,man,,,,,,,,survey_gender,75,,,I consider myself a highly empathetic person.,filler
6352,,,html-slider-response,409,4807786,0.0-24.0-0.0-0.1,30806,List1A,white,man,,,,,,,,survey_gender,93,,,I am glad to have the friends that I have.,filler
4966.7,,,html-slider-response,410,4812757,0.0-24.0-0.0-0.2,30806,List1A,white,man,,,,,,,,survey_gender,86,,,I often think about my actions.,filler
4732.6,,,html-slider-response,411,4817495,0.0-24.0-0.0-0.3,30806,List1A,white,man,,,,,,,,survey_gender,100,,,Being around my friends gives me a good feeling.,filler
5241.6,,,html-slider-response,412,4822742,0.0-24.0-0.0-0.4,30806,List1A,white,man,,,,,,,,survey_gender,66,,,People of my gender have a lot in common with each other.,common
4027.5,,,html-slider-response,413,4826774,0.0-24.0-0.0-0.5,30806,List1A,white,man,,,,,,,,survey_gender,99,,,I am glad to be my gender.,glad
4279.4,,,html-slider-response,414,4831059,0.0-24.0-0.0-0.6,30806,List1A,white,man,,,,,,,,survey_gender,71,,,I have a lot in common with my friends.,filler
3369.5,,,html-slider-response,415,4834433,0.0-24.0-0.0-0.7,30806,List1A,white,man,,,,,,,,survey_gender,85,,,My friends understand me.,filler
4193.1,,,html-slider-response,416,4838631,0.0-24.0-0.0-0.8,30806,List1A,white,man,,,,,,,,survey_gender,70,,,Most of the friends in my life are very similar to me.,filler
5739.2,,,html-slider-response,417,4844376,0.0-24.0-0.0-0.9,30806,List1A,white,man,,,,,,,,survey_gender,54,,,It is not always easy for people to know what I am thinking.,filler
5064.2,,,html-slider-response,418,4849445,0.0-24.0-0.0-0.10,30806,List1A,white,man,,,,,,,,survey_gender,79,,,I feel solidarity with my gender.,solidarity
3713.3,,,html-slider-response,419,4853165,0.0-24.0-0.0-0.11,30806,List1A,white,man,,,,,,,,survey_gender,100,,,I feel a bond with my friends.,filler
5741.4,,,html-slider-response,420,4858910,0.0-24.0-0.0-0.12,30806,List1A,white,man,,,,,,,,survey_gender,67,,,I am similar to the average person of my gender.,similar
5345.5,,,html-slider-response,421,4864261,0.0-24.0-0.0-0.13,30806,List1A,white,man,,,,,,,,survey_gender,62,,,I have a lot in common with the average person of my gender.,average
5174.3,,,html-slider-response,422,4869441,0.0-24.0-0.0-0.14,30806,List1A,white,man,,,,,,,,survey_gender,94,,,I think that my gender has a lot to be proud of.,proud
4609,,,html-slider-response,423,4874055,0.0-24.0-0.0-0.15,30806,List1A,white,man,,,,,,,,survey_gender,82,,,My friends have a lot in common with each other.,filler
4083.4,,,html-slider-response,424,4878143,0.0-24.0-0.0-0.16,30806,List1A,white,man,,,,,,,,survey_gender,97,,,It is pleasant to be my gender.,pleasant
9507.8,,,html-slider-response,425,4887656,0.0-24.0-0.0-0.17,30806,List1A,white,man,,,,,,,,survey_gender,44,,,I would say I am an animal person.,filler
4757.3,,,html-slider-response,426,4892418,0.0-24.0-0.0-0.18,30806,List1A,white,man,,,,,,,,survey_gender,100,,,Being my gender is an important part of how I see myself.,important
6709.1,,,html-slider-response,427,4899132,0.0-24.0-0.0-0.19,30806,List1A,white,man,,,,,,,,survey_gender,11,,,Family is not more important to me than friendship.,filler
3358.3,,,html-slider-response,428,4902496,0.0-24.0-0.0-0.20,30806,List1A,white,man,,,,,,,,survey_gender,99,,,Being my gender gives me a good feeling.,feeling
3997.2,,,html-slider-response,429,4906498,0.0-24.0-0.0-0.21,30806,List1A,white,man,,,,,,,,survey_gender,73,,,People of my gender are very similar to each other.,verysimilar
4242.4,,,html-slider-response,430,4910747,0.0-24.0-0.0-0.22,30806,List1A,white,man,,,,,,,,survey_gender,74,,,I often think about the fact that I am my gender.,often
4364.3,,,html-slider-response,431,4915116,0.0-24.0-0.0-0.23,30806,List1A,white,man,,,,,,,,survey_gender,25,,,Routine is not important to me.,filler
5064.9,,,html-slider-response,432,4920186,0.0-24.0-0.0-0.24,30806,List1A,white,man,,,,,,,,survey_gender,96,,,The fact that I am my gender is an important part of my identity.,identity
4745.2,,,html-slider-response,433,4924937,0.0-24.0-0.0-0.25,30806,List1A,white,man,,,,,,,,survey_gender,95,,,I feel committed to my gender.,committed
4337.4,,,html-slider-response,434,4929282,0.0-24.0-0.0-0.26,30806,List1A,white,man,,,,,,,,survey_gender,97,,,I feel a bond with my gender.,bond
2977.9,,,html-slider-response,435,4932265,0.0-24.0-0.0-0.27,30806,List1A,white,man,,,,,,,,survey_gender,86,,,I feel solidarity with my friends.,filler
3726.5,,,html-slider-response,436,4935997,0.0-24.0-1.0-0.0,30806,List1A,white,man,,,,,,,,survey_race,100,,,Being my race gives me a good feeling.,feeling
5002.8,,,html-slider-response,437,4941004,0.0-24.0-1.0-0.1,30806,List1A,white,man,,,,,,,,survey_race,100,,,Being my race is an important part of how I see myself.,important
5323.1,,,html-slider-response,438,4946332,0.0-24.0-1.0-0.2,30806,List1A,white,man,,,,,,,,survey_race,90,,,Being my age gives me a good feeling.,filler
3787,,,html-slider-response,439,4950124,0.0-24.0-1.0-0.3,30806,List1A,white,man,,,,,,,,survey_race,77,,,I have a lot in common with people of a similar age to me.,filler
3862.5,,,html-slider-response,440,4953992,0.0-24.0-1.0-0.4,30806,List1A,white,man,,,,,,,,survey_race,69,,,I often think about the fact that I am my race.,often
3578.5,,,html-slider-response,441,4957575,0.0-24.0-1.0-0.5,30806,List1A,white,man,,,,,,,,survey_race,98,,,I feel a bond with my race.,bond
4833,,,html-slider-response,442,4962411,0.0-24.0-1.0-0.6,30806,List1A,white,man,,,,,,,,survey_race,100,,,I think that my race has a lot to be proud of.,proud
5198.3,,,html-slider-response,443,4967616,0.0-24.0-1.0-0.7,30806,List1A,white,man,,,,,,,,survey_race,97,,,"The older I get, the wiser I feel.",filler
4524.3,,,html-slider-response,444,4972147,0.0-24.0-1.0-0.8,30806,List1A,white,man,,,,,,,,survey_race,44,,,I consider myself an introvert.,filler
5198.5,,,html-slider-response,445,4977351,0.0-24.0-1.0-0.9,30806,List1A,white,man,,,,,,,,survey_race,41,,,Getting older does not worry me.,filler
6169.1,,,html-slider-response,446,4983526,0.0-24.0-1.0-0.10,30806,List1A,white,man,,,,,,,,survey_race,67,,,I consider myself an extrovert.,filler
3296.2,,,html-slider-response,447,4986827,0.0-24.0-1.0-0.11,30806,List1A,white,man,,,,,,,,survey_race,89,,,I am glad to be my race.,glad
3554.4,,,html-slider-response,448,4990386,0.0-24.0-1.0-0.12,30806,List1A,white,man,,,,,,,,survey_race,72,,,I feel solidarity with my race.,solidarity
4143.3,,,html-slider-response,449,4994535,0.0-24.0-1.0-0.13,30806,List1A,white,man,,,,,,,,survey_race,98,,,The fact that I am my race is an important part of my identity.,identity
4327.6,,,html-slider-response,450,4998868,0.0-24.0-1.0-0.14,30806,List1A,white,man,,,,,,,,survey_race,76,,,I feel committed to my race.,committed
4572.5,,,html-slider-response,451,5003446,0.0-24.0-1.0-0.15,30806,List1A,white,man,,,,,,,,survey_race,68,,,I often think about the fact that I am my age.,filler
3541.6,,,html-slider-response,452,5006993,0.0-24.0-1.0-0.16,30806,List1A,white,man,,,,,,,,survey_race,74,,,People my age have a lot in common with each other.,filler
4192.3,,,html-slider-response,453,5011191,0.0-24.0-1.0-0.17,30806,List1A,white,man,,,,,,,,survey_race,61,,,I enjoy being in large groups.,filler
3358,,,html-slider-response,454,5014554,0.0-24.0-1.0-0.18,30806,List1A,white,man,,,,,,,,survey_race,64,,,I am similar to the average person of my race.,similar
3308.9,,,html-slider-response,455,5017868,0.0-24.0-1.0-0.19,30806,List1A,white,man,,,,,,,,survey_race,85,,,It is pleasant to be my race.,pleasant
4634.9,,,html-slider-response,456,5022508,0.0-24.0-1.0-0.20,30806,List1A,white,man,,,,,,,,survey_race,79,,,I feel a bond with people the same age as me.,filler
3420.4,,,html-slider-response,457,5025933,0.0-24.0-1.0-0.21,30806,List1A,white,man,,,,,,,,survey_race,76,,,People of my race have a lot in common with each other.,common
2851.8,,,html-slider-response,458,5028791,0.0-24.0-1.0-0.22,30806,List1A,white,man,,,,,,,,survey_race,69,,,I am glad to be my age.,filler
2918.9,,,html-slider-response,459,5031715,0.0-24.0-1.0-0.23,30806,List1A,white,man,,,,,,,,survey_race,70,,,I have a lot in common with the average person of my race.,average
2891.4,,,html-slider-response,460,5034611,0.0-24.0-1.0-0.24,30806,List1A,white,man,,,,,,,,survey_race,76,,,I feel solidarity with people the same age as me.,filler
3052.3,,,html-slider-response,461,5037667,0.0-24.0-1.0-0.25,30806,List1A,white,man,,,,,,,,survey_race,65,,,I am glad to be the age I am.,filler
5127.8,,,html-slider-response,462,5042798,0.0-24.0-1.0-0.26,30806,List1A,white,man,,,,,,,,survey_race,36,,,My age is not an important part of who I am.,filler
2621.5,,,html-slider-response,463,5045425,0.0-24.0-1.0-0.27,30806,List1A,white,man,,,,,,,,survey_race,74,,,People of my race are very similar to each other.,verysimilar
17876.8,,,survey-text,464,5063309,0.0-25.0,30806,List1A,white,man,,,,,"{""Q0"":""ccc""}",,,worker_id,,,,,
15599.3,,,external-html,465,5084887,0.0-26.0,30806,List1A,white,man,debrief.html,,,,,,,,,,,,
