"rt","stimulus","button_pressed","trial_type","trial_index","time_elapsed","internal_node_id","subject","list","ppt_race","ppt_gender","url","first_guess","correct","key_press","responses","image_type","phrase_type","test_part","response","stimulus1","stimulus2","question_type","survey_item"
"5345.400000095367","Welcome to the experiment. Press Continue to begin.","0","html-button-response","0","5352","0.0-0.0","30939","List1A","black","man","","","","","","","","","","","","",""
"62069.700000047684","","","external-html","1","69735","0.0-1.0","30939","List1A","black","man","consent.html","","","","","","","","","","","",""
"240836.70000004768","<p>On the next page, you will see portraits of 8 people and their names.</p><p>Your first task is to take a few minutes to memorise the names of these people.</p><p>You will have to recall their names during the rest of the experiment, so it is</p><p>essential that you try to memorise these people and their names as best as you can.</p><br><p><strong>You will then be tested on your memory of these names and portraits.</strong></p><br><p>The experiment will start after you have completed this memory test.</p><br><p>Ready?</p>","0","html-button-response","2","310573","0.0-2.0","30939","List1A","black","man","","","","","","","","","","","","",""
"47519.90000009537","<img src='img/portrait_matrix_list1.jpg' style='width:900px;height:500px;''></img><p>If you have memorised all the portraits and names and are ready to start, press Continue.</p><p><strong>Please note: Your memory of these faces will be tested 4 times during this experiment.</strong></p>","0","html-button-response","3","359101","0.0-3.0-0.0","30939","List1A","black","man","","","","","","","","","","","","",""
"9923.5","<img src=""portrait/WW1.jpg""style=""height:400px;""></img>","0","html-button-response","4","370031","0.0-3.0-1.0","30939","List1A","black","man","","true","1","","","","","","","","","",""
"5086.599999904633","<img src=""portrait/WW1.jpg""style=""height:400px;""></img>","1","html-button-response","5","376136","0.0-3.0-3.0-0.0","30939","List1A","black","man","","false","1","","","","","","","","","",""
"null","CORRECT","","html-keyboard-response","6","377646","0.0-3.0-3.0-1.0-0.0","30939","List1A","black","man","","","","null","","","","","","","","",""
"5297.099999904633","<img src=""portrait/BW1.jpg""style=""height:400px;""></img>","3","html-button-response","7","382946","0.0-3.0-4.0","30939","List1A","black","man","","true","0","","","","","","","","","",""
"4847.5","<img src=""portrait/BW1.jpg""style=""height:400px;""></img>","0","html-button-response","8","388808","0.0-3.0-6.0-0.0","30939","List1A","black","man","","false","0","","","","","","","","","",""
"null","CORRECT","","html-keyboard-response","9","390344","0.0-3.0-6.0-1.0-0.0","30939","List1A","black","man","","","","null","","","","","","","","",""
"9865.400000095367","<img src=""portrait/WW2.jpg""style=""height:400px;""></img>","2","html-button-response","10","400211","0.0-3.0-7.0","30939","List1A","black","man","","true","3","","","","","","","","","",""
"16746.200000047684","<img src=""portrait/WW2.jpg""style=""height:400px;""></img>","3","html-button-response","11","417972","0.0-3.0-9.0-0.0","30939","List1A","black","man","","false","3","","","","","","","","","",""
"null","CORRECT","","html-keyboard-response","12","419482","0.0-3.0-9.0-1.0-0.0","30939","List1A","black","man","","","","null","","","","","","","","",""
"7696.599999904633","<img src=""portrait/BW2.jpg""style=""height:400px;""></img>","1","html-button-response","13","427180","0.0-3.0-10.0","30939","List1A","black","man","","true","2","","","","","","","","","",""
"8311.700000047684","<img src=""portrait/BW2.jpg""style=""height:400px;""></img>","2","html-button-response","14","436502","0.0-3.0-12.0-0.0","30939","List1A","black","man","","false","2","","","","","","","","","",""
"null","CORRECT","","html-keyboard-response","15","438027","0.0-3.0-12.0-1.0-0.0","30939","List1A","black","man","","","","null","","","","","","","","",""
"11501.399999856949","<img src=""portrait/WM2.jpg""style=""height:400px;""></img>","6","html-button-response","16","449530","0.0-3.0-13.0","30939","List1A","black","man","","true","7","","","","","","","","","",""
"7405.5","<img src=""portrait/WM2.jpg""style=""height:400px;""></img>","7","html-button-response","17","457947","0.0-3.0-15.0-0.0","30939","List1A","black","man","","false","7","","","","","","","","","",""
"null","CORRECT","","html-keyboard-response","18","459463","0.0-3.0-15.0-1.0-0.0","30939","List1A","black","man","","","","null","","","","","","","","",""
"6868.200000047684","<img src=""portrait/BM2.jpg""style=""height:400px;""></img>","4","html-button-response","19","466333","0.0-3.0-16.0","30939","List1A","black","man","","true","5","","","","","","","","","",""
"6620.200000047684","<img src=""portrait/BM2.jpg""style=""height:400px;""></img>","5","html-button-response","20","473962","0.0-3.0-18.0-0.0","30939","List1A","black","man","","false","5","","","","","","","","","",""
"null","CORRECT","","html-keyboard-response","21","475482","0.0-3.0-18.0-1.0-0.0","30939","List1A","black","man","","","","null","","","","","","","","",""
"16344.799999952316","<img src=""portrait/WM1.jpg""style=""height:400px;""></img>","6","html-button-response","22","491829","0.0-3.0-19.0","30939","List1A","black","man","","true","6","","","","","","","","","",""
"null","CORRECT","","html-keyboard-response","23","493340","0.0-3.0-20.0-0.0","30939","List1A","black","man","","","","null","","","","","","","","",""
"14190.5","<img src=""portrait/BM1.jpg""style=""height:400px;""></img>","4","html-button-response","24","507532","0.0-3.0-22.0","30939","List1A","black","man","","true","4","","","","","","","","","",""
"null","CORRECT","","html-keyboard-response","25","509053","0.0-3.0-23.0-0.0","30939","List1A","black","man","","","","null","","","","","","","","",""
"4313.300000190735","<p>You got 2 out of 8 right first time. Press Continue.</p>","0","html-button-response","26","513368","0.0-3.0-25.0","30939","List1A","black","man","","","","","","","","","","","","",""
"3508.100000143051","As you did not score 100%, the memory game will repeat. Press Continue.","0","html-button-response","27","517889","0.0-3.0-26.0-0.0","30939","List1A","black","man","","","","","","","","","","","","",""
"19663.900000095367","<img src='img/portrait_matrix_list1.jpg' style='width:900px;height:500px;''></img><p>If you have memorised all the portraits and names and are ready to start, press Continue.</p><p><strong>Please note: Your memory of these faces will be tested 4 times during this experiment.</strong></p>","0","html-button-response","28","538561","0.0-3.1-0.1","30939","List1A","black","man","","","","","","","","","","","","",""
"10602.699999809265","<img src=""portrait/WW1.jpg""style=""height:400px;""></img>","1","html-button-response","29","550176","0.0-3.1-1.1","30939","List1A","black","man","","true","1","","","","","","","","","",""
"null","CORRECT","","html-keyboard-response","30","551694","0.0-3.1-2.1-0.1","30939","List1A","black","man","","","","null","","","","","","","","",""
"9227.299999952316","<img src=""portrait/BW1.jpg""style=""height:400px;""></img>","0","html-button-response","31","560923","0.0-3.1-4.1","30939","List1A","black","man","","true","0","","","","","","","","","",""
"null","CORRECT","","html-keyboard-response","32","562443","0.0-3.1-5.1-0.1","30939","List1A","black","man","","","","null","","","","","","","","",""
"6121.599999904633","<img src=""portrait/WW2.jpg""style=""height:400px;""></img>","3","html-button-response","33","568566","0.0-3.1-7.1","30939","List1A","black","man","","true","3","","","","","","","","","",""
"null","CORRECT","","html-keyboard-response","34","570076","0.0-3.1-8.1-0.1","30939","List1A","black","man","","","","null","","","","","","","","",""
"6069.5","<img src=""portrait/BW2.jpg""style=""height:400px;""></img>","2","html-button-response","35","576148","0.0-3.1-10.1","30939","List1A","black","man","","true","2","","","","","","","","","",""
"null","CORRECT","","html-keyboard-response","36","577674","0.0-3.1-11.1-0.1","30939","List1A","black","man","","","","null","","","","","","","","",""
"7456.5","<img src=""portrait/WM2.jpg""style=""height:400px;""></img>","7","html-button-response","37","585132","0.0-3.1-13.1","30939","List1A","black","man","","true","7","","","","","","","","","",""
"null","CORRECT","","html-keyboard-response","38","586668","0.0-3.1-14.1-0.1","30939","List1A","black","man","","","","null","","","","","","","","",""
"2933.9000000953674","<img src=""portrait/BM2.jpg""style=""height:400px;""></img>","5","html-button-response","39","589604","0.0-3.1-16.1","30939","List1A","black","man","","true","5","","","","","","","","","",""
"null","CORRECT","","html-keyboard-response","40","591123","0.0-3.1-17.1-0.1","30939","List1A","black","man","","","","null","","","","","","","","",""
"3485","<img src=""portrait/WM1.jpg""style=""height:400px;""></img>","6","html-button-response","41","594610","0.0-3.1-19.1","30939","List1A","black","man","","true","6","","","","","","","","","",""
"null","CORRECT","","html-keyboard-response","42","596121","0.0-3.1-20.1-0.1","30939","List1A","black","man","","","","null","","","","","","","","",""
"15301.799999952316","<img src=""portrait/BM1.jpg""style=""height:400px;""></img>","4","html-button-response","43","611425","0.0-3.1-22.1","30939","List1A","black","man","","true","4","","","","","","","","","",""
"null","CORRECT","","html-keyboard-response","44","612940","0.0-3.1-23.1-0.1","30939","List1A","black","man","","","","null","","","","","","","","",""
"2286.5","<p>You got 8 out of 8 right first time. Press Continue.</p>","0","html-button-response","45","615229","0.0-3.1-25.1","30939","List1A","black","man","","","","","","","","","","","","",""
"255530.40000009537","<p>In this experiment, you will view photographs of the people from the memory game interacting.</p><p>By using the <strong>exact</strong> phrase given <i>after</i> the photograph appears and recalling the correct names of the people in the photographs, form a sentence describing the interaction. You do not need to capitalise names.</p><p>Type your answer in the space provided. Please complete every sentence before moving onto the next trial.</p><p>You will only have a few seconds to memorise each given photograph and phrase before you can respond, so try your best to focus.</p><p>An example is given below. Press 'Continue' when you are ready.</p><img src='img/speaking_example.jpg' style='width:800px;height:460px;''></img>","0","html-button-response","46","871769","0.0-4.0","30939","List1A","black","man","","","","","","","","","","","","",""
"7949.5","<p>Before the experiment starts, you will watch two example trials. Press 'Continue'.</p>","0","html-button-response","47","880733","0.0-5.0","30939","List1A","black","man","","","","","","","","","","","","",""
"null","<img src='img/play_eg.gif' style='height:400px;''></img>","","html-keyboard-response","48","883756","0.0-6.0","30939","List1A","black","man","","","","null","","","","","","","","",""
"null","<p>is playing with</p>","","html-keyboard-response","49","885774","0.0-7.0","30939","List1A","black","man","","","","null","","","","","","","","",""
"2839.7000000476837","<p><b>Answer:</b> kate is playing with beth</p>","0","html-button-response","50","888615","0.0-8.0","30939","List1A","black","man","","","","","","","","","","","","",""
"null","<img src='img/dance_eg.gif' style='height:400px;''></img>","","html-keyboard-response","51","891619","0.0-9.0","30939","List1A","black","man","","","","null","","","","","","","","",""
"null","<p>is being entertained by</p>","","html-keyboard-response","52","893633","0.0-10.0","30939","List1A","black","man","","","","null","","","","","","","","",""
"2676.5999999046326","<p><b>Answer:</b> luke is being entertained by dave</p>","0","html-button-response","53","896311","0.0-11.0","30939","List1A","black","man","","","","","","","","","","","","",""
"11030.799999952316","<p>Ready to start the experiment?</p><br><p><strong>Remember to describe the picture using a full sentence,</strong></p><p><strong>that combines the names of the people with the <i>exact</i> phrase given.</strong></p><p><strong>To receive full payment you must do this correctly.</strong></p><p><strong> You do not need to capitalise names or use punctuation.</strong></p><br><p>Press 'Continue' to begin.</p>","0","html-button-response","54","908352","0.0-12.0","30939","List1A","black","man","","","","","","","","","","","","",""
"null","<div style=""font-size:60px;"">+</div>","","html-keyboard-response","55","909861","0.0-13.0-0.0","30939","List1A","black","man","","","","null","","","","","","","","",""
"null","<img src=""stim_listA/copy6.gif""style=""height:400px;""></stim_listA>","","html-keyboard-response","56","911865","0.0-13.0-1.0","30939","List1A","black","man","","","","null","","","","","","","","",""
"null","is being copied by","","html-keyboard-response","57","913872","0.0-13.0-2.0","30939","List1A","black","man","","","","null","","","","","","","","",""
"18144.900000095367","","","survey-text","58","932021","0.0-13.0-3.0","30939","List1A","black","man","","","","","{""Q0"":""Dave is being copied by fred""}","<img src=""stim_listA/copy6.gif""style=""height:400px;""></stim_listA>","is being copied by","","","","","",""
"null","<div style=""font-size:60px;"">+</div>","","html-keyboard-response","59","932531","0.0-13.0-0.1","30939","List1A","black","man","","","","null","","","","","","","","",""
"null","<img src=""stim_listA/copy5.gif""style=""height:400px;""></stim_listA>","","html-keyboard-response","60","934535","0.0-13.0-1.1","30939","List1A","black","man","","","","null","","","","","","","","",""
"null","is copying","","html-keyboard-response","61","936544","0.0-13.0-2.1","30939","List1A","black","man","","","","null","","","","","","","","",""
"24211.700000047684","","","survey-text","62","960759","0.0-13.0-3.1","30939","List1A","black","man","","","","","{""Q0"":""Luke is copying Mike""}","<img src=""stim_listA/copy5.gif""style=""height:400px;""></stim_listA>","is copying","","","","","",""
"null","<div style=""font-size:60px;"">+</div>","","html-keyboard-response","63","961274","0.0-13.0-0.2","30939","List1A","black","man","","","","null","","","","","","","","",""
"null","<img src=""stim_listA/touch3.gif""style=""height:400px;""></stim_listA>","","html-keyboard-response","64","963289","0.0-13.0-1.2","30939","List1A","black","man","","","","null","","","","","","","","",""
"null","is touching","","html-keyboard-response","65","965298","0.0-13.0-2.2","30939","List1A","black","man","","","","null","","","","","","","","",""
"18360.5","","","survey-text","66","983661","0.0-13.0-3.2","30939","List1A","black","man","","","","","{""Q0"":""Jane is touching Dave""}","<img src=""stim_listA/touch3.gif""style=""height:400px;""></stim_listA>","is touching","","","","","",""
"null","<div style=""font-size:60px;"">+</div>","","html-keyboard-response","67","984170","0.0-13.0-0.3","30939","List1A","black","man","","","","null","","","","","","","","",""
"null","<img src=""stim_listA/kiss7.gif""style=""height:400px;""></stim_listA>","","html-keyboard-response","68","986190","0.0-13.0-1.3","30939","List1A","black","man","","","","null","","","","","","","","",""
"null","is kissing","","html-keyboard-response","69","988197","0.0-13.0-2.3","30939","List1A","black","man","","","","null","","","","","","","","",""
"16690.10000014305","","","survey-text","70","1004891","0.0-13.0-3.3","30939","List1A","black","man","","","","","{""Q0"":""Ruth is kissing Beth""}","<img src=""stim_listA/kiss7.gif""style=""height:400px;""></stim_listA>","is kissing","","","","","",""
"null","<div style=""font-size:60px;"">+</div>","","html-keyboard-response","71","1005392","0.0-13.0-0.4","30939","List1A","black","man","","","","null","","","","","","","","",""
"null","<img src=""stim_listA/oppose7.gif""style=""height:400px;""></stim_listA>","","html-keyboard-response","72","1007415","0.0-13.0-1.4","30939","List1A","black","man","","","","null","","","","","","","","",""
"null","is opposing","","html-keyboard-response","73","1009420","0.0-13.0-2.4","30939","List1A","black","man","","","","null","","","","","","","","",""
"16791.400000095367","","","survey-text","74","1026214","0.0-13.0-3.4","30939","List1A","black","man","","","","","{""Q0"":""Jane is opposing Kate""}","<img src=""stim_listA/oppose7.gif""style=""height:400px;""></stim_listA>","is opposing","","","","","",""
"null","<div style=""font-size:60px;"">+</div>","","html-keyboard-response","75","1026726","0.0-13.0-0.5","30939","List1A","black","man","","","","null","","","","","","","","",""
"null","<img src=""stim_listA/kiss2.gif""style=""height:400px;""></stim_listA>","","html-keyboard-response","76","1028743","0.0-13.0-1.5","30939","List1A","black","man","","","","null","","","","","","","","",""
"null","is being kissed by","","html-keyboard-response","77","1030756","0.0-13.0-2.5","30939","List1A","black","man","","","","null","","","","","","","","",""
"17132","","","survey-text","78","1047892","0.0-13.0-3.5","30939","List1A","black","man","","","","","{""Q0"":""Kate is being kissed by mike""}","<img src=""stim_listA/kiss2.gif""style=""height:400px;""></stim_listA>","is being kissed by","","","","","",""
"null","<div style=""font-size:60px;"">+</div>","","html-keyboard-response","79","1048402","0.0-13.0-0.6","30939","List1A","black","man","","","","null","","","","","","","","",""
"null","<img src=""stim_listA/kiss4.gif""style=""height:400px;""></stim_listA>","","html-keyboard-response","80","1050420","0.0-13.0-1.6","30939","List1A","black","man","","","","null","","","","","","","","",""
"null","is being kissed by","","html-keyboard-response","81","1052426","0.0-13.0-2.6","30939","List1A","black","man","","","","null","","","","","","","","",""
"115020.09999990463","","","survey-text","82","1167449","0.0-13.0-3.6","30939","List1A","black","man","","","","","{""Q0"":""kate is being kissed by mike""}","<img src=""stim_listA/kiss4.gif""style=""height:400px;""></stim_listA>","is being kissed by","","","","","",""
"null","<div style=""font-size:60px;"">+</div>","","html-keyboard-response","83","1167953","0.0-13.0-0.7","30939","List1A","black","man","","","","null","","","","","","","","",""
"null","<img src=""stim_listA/oppose5.gif""style=""height:400px;""></stim_listA>","","html-keyboard-response","84","1169963","0.0-13.0-1.7","30939","List1A","black","man","","","","null","","","","","","","","",""
"null","is opposing","","html-keyboard-response","85","1171968","0.0-13.0-2.7","30939","List1A","black","man","","","","null","","","","","","","","",""
"16739.60000014305","","","survey-text","86","1188711","0.0-13.0-3.7","30939","List1A","black","man","","","","","{""Q0"":""Dave is opposing mike""}","<img src=""stim_listA/oppose5.gif""style=""height:400px;""></stim_listA>","is opposing","","","","","",""
"null","<div style=""font-size:60px;"">+</div>","","html-keyboard-response","87","1189222","0.0-13.0-0.8","30939","List1A","black","man","","","","null","","","","","","","","",""
"null","<img src=""stim_listA/oppose3.gif""style=""height:400px;""></stim_listA>","","html-keyboard-response","88","1191237","0.0-13.0-1.8","30939","List1A","black","man","","","","null","","","","","","","","",""
"null","is opposing","","html-keyboard-response","89","1193249","0.0-13.0-2.8","30939","List1A","black","man","","","","null","","","","","","","","",""
"9123.5","","","survey-text","90","1202376","0.0-13.0-3.8","30939","List1A","black","man","","","","","{""Q0"":""Jane is opposing dave""}","<img src=""stim_listA/oppose3.gif""style=""height:400px;""></stim_listA>","is opposing","","","","","",""
"null","<div style=""font-size:60px;"">+</div>","","html-keyboard-response","91","1202888","0.0-13.0-0.9","30939","List1A","black","man","","","","null","","","","","","","","",""
"null","<img src=""stim_listA/touch7.gif""style=""height:400px;""></stim_listA>","","html-keyboard-response","92","1204899","0.0-13.0-1.9","30939","List1A","black","man","","","","null","","","","","","","","",""
"null","is touching","","html-keyboard-response","93","1206905","0.0-13.0-2.9","30939","List1A","black","man","","","","null","","","","","","","","",""
"15297.599999904633","","","survey-text","94","1222206","0.0-13.0-3.9","30939","List1A","black","man","","","","","{""Q0"":""Jane is touching kate""}","<img src=""stim_listA/touch7.gif""style=""height:400px;""></stim_listA>","is touching","","","","","",""
"null","<div style=""font-size:60px;"">+</div>","","html-keyboard-response","95","1222710","0.0-13.0-0.10","30939","List1A","black","man","","","","null","","","","","","","","",""
"null","<img src=""stim_listA/shout5.gif""style=""height:400px;""></stim_listA>","","html-keyboard-response","96","1224727","0.0-13.0-1.10","30939","List1A","black","man","","","","null","","","","","","","","",""
"null","is shouting at","","html-keyboard-response","97","1226732","0.0-13.0-2.10","30939","List1A","black","man","","","","null","","","","","","","","",""
"19938.099999904633","","","survey-text","98","1246673","0.0-13.0-3.10","30939","List1A","black","man","","","","","{""Q0"":""Fred is shouting at Luke""}","<img src=""stim_listA/shout5.gif""style=""height:400px;""></stim_listA>","is shouting at","","","","","",""
"null","<div style=""font-size:60px;"">+</div>","","html-keyboard-response","99","1247185","0.0-13.0-0.11","30939","List1A","black","man","","","","null","","","","","","","","",""
"null","<img src=""stim_listA/oppose2.gif""style=""height:400px;""></stim_listA>","","html-keyboard-response","100","1249206","0.0-13.0-1.11","30939","List1A","black","man","","","","null","","","","","","","","",""
"null","is being opposed by","","html-keyboard-response","101","1251211","0.0-13.0-2.11","30939","List1A","black","man","","","","null","","","","","","","","",""
"26262.700000047684","","","survey-text","102","1277477","0.0-13.0-3.11","30939","List1A","black","man","","","","","{""Q0"":""Beth is being opposed by Fred""}","<img src=""stim_listA/oppose2.gif""style=""height:400px;""></stim_listA>","is being opposed by","","","","","",""
"null","<div style=""font-size:60px;"">+</div>","","html-keyboard-response","103","1277981","0.0-13.0-0.12","30939","List1A","black","man","","","","null","","","","","","","","",""
"null","<img src=""stim_listA/touch6.gif""style=""height:400px;""></stim_listA>","","html-keyboard-response","104","1279994","0.0-13.0-1.12","30939","List1A","black","man","","","","null","","","","","","","","",""
"null","is being touched by","","html-keyboard-response","105","1282007","0.0-13.0-2.12","30939","List1A","black","man","","","","null","","","","","","","","",""
"12198.700000047684","","","survey-text","106","1294210","0.0-13.0-3.12","30939","List1A","black","man","","","","","{""Q0"":""Fred is being touched by luke""}","<img src=""stim_listA/touch6.gif""style=""height:400px;""></stim_listA>","is being touched by","","","","","",""
"null","<div style=""font-size:60px;"">+</div>","","html-keyboard-response","107","1294715","0.0-13.0-0.13","30939","List1A","black","man","","","","null","","","","","","","","",""
"null","<img src=""stim_listA/seduce8.gif""style=""height:400px;""></stim_listA>","","html-keyboard-response","108","1296723","0.0-13.0-1.13","30939","List1A","black","man","","","","null","","","","","","","","",""
"null","is being seduced by","","html-keyboard-response","109","1298732","0.0-13.0-2.13","30939","List1A","black","man","","","","null","","","","","","","","",""
"20193.39999985695","","","survey-text","110","1318928","0.0-13.0-3.13","30939","List1A","black","man","","","","","{""Q0"":""ruth is being seduced by beth""}","<img src=""stim_listA/seduce8.gif""style=""height:400px;""></stim_listA>","is being seduced by","","","","","",""
"null","<div style=""font-size:60px;"">+</div>","","html-keyboard-response","111","1319440","0.0-13.0-0.14","30939","List1A","black","man","","","","null","","","","","","","","",""
"null","<img src=""stim_listA/shout6.gif""style=""height:400px;""></stim_listA>","","html-keyboard-response","112","1321458","0.0-13.0-1.14","30939","List1A","black","man","","","","null","","","","","","","","",""
"null","is being shouted at by","","html-keyboard-response","113","1323470","0.0-13.0-2.14","30939","List1A","black","man","","","","null","","","","","","","","",""
"20973.700000047684","","","survey-text","114","1344447","0.0-13.0-3.14","30939","List1A","black","man","","","","","{""Q0"":""Dave is being shouted at by Fred""}","<img src=""stim_listA/shout6.gif""style=""height:400px;""></stim_listA>","is being shouted at by","","","","","",""
"null","<div style=""font-size:60px;"">+</div>","","html-keyboard-response","115","1344953","0.0-13.0-0.15","30939","List1A","black","man","","","","null","","","","","","","","",""
"null","<img src=""stim_listA/challenge1.gif""style=""height:400px;""></stim_listA>","","html-keyboard-response","116","1346964","0.0-13.0-1.15","30939","List1A","black","man","","","","null","","","","","","","","",""
"null","is challenging","","html-keyboard-response","117","1348986","0.0-13.0-2.15","30939","List1A","black","man","","","","null","","","","","","","","",""
"14132.299999952316","","","survey-text","118","1363121","0.0-13.0-3.15","30939","List1A","black","man","","","","","{""Q0"":""Beth is challenging Fred""}","<img src=""stim_listA/challenge1.gif""style=""height:400px;""></stim_listA>","is challenging","","","","","",""
"null","<div style=""font-size:60px;"">+</div>","","html-keyboard-response","119","1363637","0.0-13.0-0.16","30939","List1A","black","man","","","","null","","","","","","","","",""
"null","<img src=""stim_listA/greet1.gif""style=""height:400px;""></stim_listA>","","html-keyboard-response","120","1365655","0.0-13.0-1.16","30939","List1A","black","man","","","","null","","","","","","","","",""
"null","is greeting","","html-keyboard-response","121","1367669","0.0-13.0-2.16","30939","List1A","black","man","","","","null","","","","","","","","",""
"12107.5","","","survey-text","122","1379780","0.0-13.0-3.16","30939","List1A","black","man","","","","","{""Q0"":""Beth is greeting mike""}","<img src=""stim_listA/greet1.gif""style=""height:400px;""></stim_listA>","is greeting","","","","","",""
"null","<div style=""font-size:60px;"">+</div>","","html-keyboard-response","123","1380284","0.0-13.0-0.17","30939","List1A","black","man","","","","null","","","","","","","","",""
"null","<img src=""stim_listA/oppose1.gif""style=""height:400px;""></stim_listA>","","html-keyboard-response","124","1382300","0.0-13.0-1.17","30939","List1A","black","man","","","","null","","","","","","","","",""
"null","is opposing","","html-keyboard-response","125","1384306","0.0-13.0-2.17","30939","List1A","black","man","","","","null","","","","","","","","",""
"12739.800000190735","","","survey-text","126","1397050","0.0-13.0-3.17","30939","List1A","black","man","","","","","{""Q0"":""Mike is opposing Kate""}","<img src=""stim_listA/oppose1.gif""style=""height:400px;""></stim_listA>","is opposing","","","","","",""
"null","<div style=""font-size:60px;"">+</div>","","html-keyboard-response","127","1397553","0.0-13.0-0.18","30939","List1A","black","man","","","","null","","","","","","","","",""
"null","<img src=""stim_listA/shout3.gif""style=""height:400px;""></stim_listA>","","html-keyboard-response","128","1399561","0.0-13.0-1.18","30939","List1A","black","man","","","","null","","","","","","","","",""
"null","is shouting at","","html-keyboard-response","129","1401573","0.0-13.0-2.18","30939","List1A","black","man","","","","null","","","","","","","","",""
"20733.099999904633","","","survey-text","130","1422309","0.0-13.0-3.18","30939","List1A","black","man","","","","","{""Q0"":""Ruth is shouting at Luke""}","<img src=""stim_listA/shout3.gif""style=""height:400px;""></stim_listA>","is shouting at","","","","","",""
"null","<div style=""font-size:60px;"">+</div>","","html-keyboard-response","131","1422824","0.0-13.0-0.19","30939","List1A","black","man","","","","null","","","","","","","","",""
"null","<img src=""stim_listA/kiss5.gif""style=""height:400px;""></stim_listA>","","html-keyboard-response","132","1424828","0.0-13.0-1.19","30939","List1A","black","man","","","","null","","","","","","","","",""
"null","is kissing","","html-keyboard-response","133","1426839","0.0-13.0-2.19","30939","List1A","black","man","","","","null","","","","","","","","",""
"9931.299999952316","","","survey-text","134","1436773","0.0-13.0-3.19","30939","List1A","black","man","","","","","{""Q0"":""Luke is kissing Fred""}","<img src=""stim_listA/kiss5.gif""style=""height:400px;""></stim_listA>","is kissing","","","","","",""
"25859.5","<img src='img/portrait_matrix_list1.jpg' style='width:900px;height:500px;''></img><p>If you have memorised all the portraits and names and are ready to start, press Continue.</p><p><strong>Please note: Your memory of these faces will be tested 4 times during this experiment.</strong></p>","0","html-button-response","135","1462634","0.0-14.0-0.0","30939","List1A","black","man","","","","","","","","","","","","",""
"3053.7000000476837","<img src=""portrait/BM2.jpg""style=""height:400px;""></img>","5","html-button-response","136","1466706","0.0-14.0-1.0","30939","List1A","black","man","","true","5","","","","","","","","","",""
"null","CORRECT","","html-keyboard-response","137","1468229","0.0-14.0-2.0-0.0","30939","List1A","black","man","","","","null","","","","","","","","",""
"8999.599999904633","<img src=""portrait/WW2.jpg""style=""height:400px;""></img>","0","html-button-response","138","1477231","0.0-14.0-4.0","30939","List1A","black","man","","true","3","","","","","","","","","",""
"2568.5999999046326","<img src=""portrait/WW2.jpg""style=""height:400px;""></img>","3","html-button-response","139","1480813","0.0-14.0-6.0-0.0","30939","List1A","black","man","","false","3","","","","","","","","","",""
"null","CORRECT","","html-keyboard-response","140","1482330","0.0-14.0-6.0-1.0-0.0","30939","List1A","black","man","","","","null","","","","","","","","",""
"2353.7000000476837","<img src=""portrait/WW1.jpg""style=""height:400px;""></img>","1","html-button-response","141","1484685","0.0-14.0-7.0","30939","List1A","black","man","","true","1","","","","","","","","","",""
"null","CORRECT","","html-keyboard-response","142","1486217","0.0-14.0-8.0-0.0","30939","List1A","black","man","","","","null","","","","","","","","",""
"4495.899999856949","<img src=""portrait/BW2.jpg""style=""height:400px;""></img>","2","html-button-response","143","1490715","0.0-14.0-10.0","30939","List1A","black","man","","true","2","","","","","","","","","",""
"null","CORRECT","","html-keyboard-response","144","1492234","0.0-14.0-11.0-0.0","30939","List1A","black","man","","","","null","","","","","","","","",""
"3686.2000000476837","<img src=""portrait/BM1.jpg""style=""height:400px;""></img>","4","html-button-response","145","1495922","0.0-14.0-13.0","30939","List1A","black","man","","true","4","","","","","","","","","",""
"null","CORRECT","","html-keyboard-response","146","1497443","0.0-14.0-14.0-0.0","30939","List1A","black","man","","","","null","","","","","","","","",""
"3774.5999999046326","<img src=""portrait/WM1.jpg""style=""height:400px;""></img>","6","html-button-response","147","1501220","0.0-14.0-16.0","30939","List1A","black","man","","true","6","","","","","","","","","",""
"null","CORRECT","","html-keyboard-response","148","1502731","0.0-14.0-17.0-0.0","30939","List1A","black","man","","","","null","","","","","","","","",""
"2545.7999999523163","<img src=""portrait/WM2.jpg""style=""height:400px;""></img>","7","html-button-response","149","1505279","0.0-14.0-19.0","30939","List1A","black","man","","true","7","","","","","","","","","",""
"null","CORRECT","","html-keyboard-response","150","1506810","0.0-14.0-20.0-0.0","30939","List1A","black","man","","","","null","","","","","","","","",""
"9399.399999856949","<img src=""portrait/BW1.jpg""style=""height:400px;""></img>","0","html-button-response","151","1516211","0.0-14.0-22.0","30939","List1A","black","man","","true","0","","","","","","","","","",""
"null","CORRECT","","html-keyboard-response","152","1517739","0.0-14.0-23.0-0.0","30939","List1A","black","man","","","","null","","","","","","","","",""
"2178.4000000953674","<p>You got 7 out of 8 right first time. Press Continue.</p>","0","html-button-response","153","1519919","0.0-14.0-25.0","30939","List1A","black","man","","","","","","","","","","","","",""
"3009.199999809265","As you did not score 100%, the memory game will repeat. Press Continue.","0","html-button-response","154","1523942","0.0-14.0-26.0-0.0","30939","List1A","black","man","","","","","","","","","","","","",""
"3117.2000000476837","<img src='img/portrait_matrix_list1.jpg' style='width:900px;height:500px;''></img><p>If you have memorised all the portraits and names and are ready to start, press Continue.</p><p><strong>Please note: Your memory of these faces will be tested 4 times during this experiment.</strong></p>","0","html-button-response","155","1528073","0.0-14.1-0.1","30939","List1A","black","man","","","","","","","","","","","","",""
"2152.0999999046326","<img src=""portrait/BM2.jpg""style=""height:400px;""></img>","5","html-button-response","156","1531236","0.0-14.1-1.1","30939","List1A","black","man","","true","5","","","","","","","","","",""
"null","CORRECT","","html-keyboard-response","157","1532746","0.0-14.1-2.1-0.1","30939","List1A","black","man","","","","null","","","","","","","","",""
"3689.7999999523163","<img src=""portrait/WW2.jpg""style=""height:400px;""></img>","3","html-button-response","158","1536438","0.0-14.1-4.1","30939","List1A","black","man","","true","3","","","","","","","","","",""
"null","CORRECT","","html-keyboard-response","159","1537957","0.0-14.1-5.1-0.1","30939","List1A","black","man","","","","null","","","","","","","","",""
"1916","<img src=""portrait/WW1.jpg""style=""height:400px;""></img>","1","html-button-response","160","1539875","0.0-14.1-7.1","30939","List1A","black","man","","true","1","","","","","","","","","",""
"null","CORRECT","","html-keyboard-response","161","1541394","0.0-14.1-8.1-0.1","30939","List1A","black","man","","","","null","","","","","","","","",""
"1780.0999999046326","<img src=""portrait/BW2.jpg""style=""height:400px;""></img>","2","html-button-response","162","1543176","0.0-14.1-10.1","30939","List1A","black","man","","true","2","","","","","","","","","",""
"null","CORRECT","","html-keyboard-response","163","1544710","0.0-14.1-11.1-0.1","30939","List1A","black","man","","","","null","","","","","","","","",""
"2593.5999999046326","<img src=""portrait/BM1.jpg""style=""height:400px;""></img>","4","html-button-response","164","1547305","0.0-14.1-13.1","30939","List1A","black","man","","true","4","","","","","","","","","",""
"null","CORRECT","","html-keyboard-response","165","1548822","0.0-14.1-14.1-0.1","30939","List1A","black","man","","","","null","","","","","","","","",""
"2517.0999999046326","<img src=""portrait/WM1.jpg""style=""height:400px;""></img>","6","html-button-response","166","1551341","0.0-14.1-16.1","30939","List1A","black","man","","true","6","","","","","","","","","",""
"null","CORRECT","","html-keyboard-response","167","1552872","0.0-14.1-17.1-0.1","30939","List1A","black","man","","","","null","","","","","","","","",""
"1987.4000000953674","<img src=""portrait/WM2.jpg""style=""height:400px;""></img>","7","html-button-response","168","1554861","0.0-14.1-19.1","30939","List1A","black","man","","true","7","","","","","","","","","",""
"null","CORRECT","","html-keyboard-response","169","1556383","0.0-14.1-20.1-0.1","30939","List1A","black","man","","","","null","","","","","","","","",""
"9803.900000095367","<img src=""portrait/BW1.jpg""style=""height:400px;""></img>","0","html-button-response","170","1566189","0.0-14.1-22.1","30939","List1A","black","man","","true","0","","","","","","","","","",""
"null","CORRECT","","html-keyboard-response","171","1567711","0.0-14.1-23.1-0.1","30939","List1A","black","man","","","","null","","","","","","","","",""
"1798.6000001430511","<p>You got 8 out of 8 right first time. Press Continue.</p>","0","html-button-response","172","1569511","0.0-14.1-25.1","30939","List1A","black","man","","","","","","","","","","","","",""
"null","<div style=""font-size:60px;"">+</div>","","html-keyboard-response","173","1571034","0.0-15.0-0.0","30939","List1A","black","man","","","","null","","","","","","","","",""
"null","<img src=""stim_listA/copy1.gif""style=""height:400px;""></stim_listA>","","html-keyboard-response","174","1573049","0.0-15.0-1.0","30939","List1A","black","man","","","","null","","","","","","","","",""
"null","is copying","","html-keyboard-response","175","1575064","0.0-15.0-2.0","30939","List1A","black","man","","","","null","","","","","","","","",""
"8431.400000095367","","","survey-text","176","1583498","0.0-15.0-3.0","30939","List1A","black","man","","","","","{""Q0"":""Beth is copying mike""}","<img src=""stim_listA/copy1.gif""style=""height:400px;""></stim_listA>","is copying","","","","","",""
"null","<div style=""font-size:60px;"">+</div>","","html-keyboard-response","177","1584014","0.0-15.0-0.1","30939","List1A","black","man","","","","null","","","","","","","","",""
"null","<img src=""stim_listA/shout1.gif""style=""height:400px;""></stim_listA>","","html-keyboard-response","178","1586023","0.0-15.0-1.1","30939","List1A","black","man","","","","null","","","","","","","","",""
"null","is shouting at","","html-keyboard-response","179","1588040","0.0-15.0-2.1","30939","List1A","black","man","","","","null","","","","","","","","",""
"8087.800000190735","","","survey-text","180","1596129","0.0-15.0-3.1","30939","List1A","black","man","","","","","{""Q0"":""Beth is shouting at Fred""}","<img src=""stim_listA/shout1.gif""style=""height:400px;""></stim_listA>","is shouting at","","","","","",""
"null","<div style=""font-size:60px;"">+</div>","","html-keyboard-response","181","1596646","0.0-15.0-0.2","30939","List1A","black","man","","","","null","","","","","","","","",""
"null","<img src=""stim_listA/touch5.gif""style=""height:400px;""></stim_listA>","","html-keyboard-response","182","1598659","0.0-15.0-1.2","30939","List1A","black","man","","","","null","","","","","","","","",""
"null","is touching","","html-keyboard-response","183","1600667","0.0-15.0-2.2","30939","List1A","black","man","","","","null","","","","","","","","",""
"10109.300000190735","","","survey-text","184","1610780","0.0-15.0-3.2","30939","List1A","black","man","","","","","{""Q0"":""Dave is touching Mike""}","<img src=""stim_listA/touch5.gif""style=""height:400px;""></stim_listA>","is touching","","","","","",""
"null","<div style=""font-size:60px;"">+</div>","","html-keyboard-response","185","1611285","0.0-15.0-0.3","30939","List1A","black","man","","","","null","","","","","","","","",""
"null","<img src=""stim_listA/hug5.gif""style=""height:400px;""></stim_listA>","","html-keyboard-response","186","1613289","0.0-15.0-1.3","30939","List1A","black","man","","","","null","","","","","","","","",""
"null","is hugging","","html-keyboard-response","187","1615296","0.0-15.0-2.3","30939","List1A","black","man","","","","null","","","","","","","","",""
"7363","","","survey-text","188","1622663","0.0-15.0-3.3","30939","List1A","black","man","","","","","{""Q0"":""Luke is hugging Fred""}","<img src=""stim_listA/hug5.gif""style=""height:400px;""></stim_listA>","is hugging","","","","","",""
"null","<div style=""font-size:60px;"">+</div>","","html-keyboard-response","189","1623166","0.0-15.0-0.4","30939","List1A","black","man","","","","null","","","","","","","","",""
"null","<img src=""stim_listA/copy8.gif""style=""height:400px;""></stim_listA>","","html-keyboard-response","190","1625184","0.0-15.0-1.4","30939","List1A","black","man","","","","null","","","","","","","","",""
"null","is being copied by","","html-keyboard-response","191","1627191","0.0-15.0-2.4","30939","List1A","black","man","","","","null","","","","","","","","",""
"16763.599999904633","","","survey-text","192","1643958","0.0-15.0-3.4","30939","List1A","black","man","","","","","{""Q0"":""Beth is being copied by jane""}","<img src=""stim_listA/copy8.gif""style=""height:400px;""></stim_listA>","is being copied by","","","","","",""
"null","<div style=""font-size:60px;"">+</div>","","html-keyboard-response","193","1644474","0.0-15.0-0.5","30939","List1A","black","man","","","","null","","","","","","","","",""
"null","<img src=""stim_listA/oppose4.gif""style=""height:400px;""></stim_listA>","","html-keyboard-response","194","1646486","0.0-15.0-1.5","30939","List1A","black","man","","","","null","","","","","","","","",""
"null","is being opposed by","","html-keyboard-response","195","1648491","0.0-15.0-2.5","30939","List1A","black","man","","","","null","","","","","","","","",""
"17785.400000095367","","","survey-text","196","1666281","0.0-15.0-3.5","30939","List1A","black","man","","","","","{""Q0"":""Ruth is being opposed by Luke""}","<img src=""stim_listA/oppose4.gif""style=""height:400px;""></stim_listA>","is being opposed by","","","","","",""
"null","<div style=""font-size:60px;"">+</div>","","html-keyboard-response","197","1666792","0.0-15.0-0.6","30939","List1A","black","man","","","","null","","","","","","","","",""
"null","<img src=""stim_listA/kiss6.gif""style=""height:400px;""></stim_listA>","","html-keyboard-response","198","1668799","0.0-15.0-1.6","30939","List1A","black","man","","","","null","","","","","","","","",""
"null","is being kissed by","","html-keyboard-response","199","1670815","0.0-15.0-2.6","30939","List1A","black","man","","","","null","","","","","","","","",""
"13417.799999952316","","","survey-text","200","1684236","0.0-15.0-3.6","30939","List1A","black","man","","","","","{""Q0"":""Dave is being kissed by Mike""}","<img src=""stim_listA/kiss6.gif""style=""height:400px;""></stim_listA>","is being kissed by","","","","","",""
"null","<div style=""font-size:60px;"">+</div>","","html-keyboard-response","201","1684755","0.0-15.0-0.7","30939","List1A","black","man","","","","null","","","","","","","","",""
"null","<img src=""stim_listA/greet6.gif""style=""height:400px;""></stim_listA>","","html-keyboard-response","202","1686771","0.0-15.0-1.7","30939","List1A","black","man","","","","null","","","","","","","","",""
"null","is being greeted by","","html-keyboard-response","203","1688777","0.0-15.0-2.7","30939","List1A","black","man","","","","null","","","","","","","","",""
"14270","","","survey-text","204","1703050","0.0-15.0-3.7","30939","List1A","black","man","","","","","{""Q0"":""Dave is being greeted by Fred""}","<img src=""stim_listA/greet6.gif""style=""height:400px;""></stim_listA>","is being greeted by","","","","","",""
"null","<div style=""font-size:60px;"">+</div>","","html-keyboard-response","205","1703571","0.0-15.0-0.8","30939","List1A","black","man","","","","null","","","","","","","","",""
"null","<img src=""stim_listA/challenge4.gif""style=""height:400px;""></stim_listA>","","html-keyboard-response","206","1705577","0.0-15.0-1.8","30939","List1A","black","man","","","","null","","","","","","","","",""
"null","is being challenged by","","html-keyboard-response","207","1707592","0.0-15.0-2.8","30939","List1A","black","man","","","","null","","","","","","","","",""
"15422.299999952316","","","survey-text","208","1723017","0.0-15.0-3.8","30939","List1A","black","man","","","","","{""Q0"":""Mike is being challenged by Jane""}","<img src=""stim_listA/challenge4.gif""style=""height:400px;""></stim_listA>","is being challenged by","","","","","",""
"null","<div style=""font-size:60px;"">+</div>","","html-keyboard-response","209","1723529","0.0-15.0-0.9","30939","List1A","black","man","","","","null","","","","","","","","",""
"null","<img src=""stim_listA/look2.gif""style=""height:400px;""></stim_listA>","","html-keyboard-response","210","1725532","0.0-15.0-1.9","30939","List1A","black","man","","","","null","","","","","","","","",""
"null","is being looked at by","","html-keyboard-response","211","1727559","0.0-15.0-2.9","30939","List1A","black","man","","","","null","","","","","","","","",""
"17103.299999952316","","","survey-text","212","1744665","0.0-15.0-3.9","30939","List1A","black","man","","","","","{""Q0"":""Mike is being looked at by Kate""}","<img src=""stim_listA/look2.gif""style=""height:400px;""></stim_listA>","is being looked at by","","","","","",""
"null","<div style=""font-size:60px;"">+</div>","","html-keyboard-response","213","1745168","0.0-15.0-0.10","30939","List1A","black","man","","","","null","","","","","","","","",""
"null","<img src=""stim_listA/seduce2.gif""style=""height:400px;""></stim_listA>","","html-keyboard-response","214","1747175","0.0-15.0-1.10","30939","List1A","black","man","","","","null","","","","","","","","",""
"null","is being seduced by","","html-keyboard-response","215","1749181","0.0-15.0-2.10","30939","List1A","black","man","","","","null","","","","","","","","",""
"13282.699999809265","","","survey-text","216","1762467","0.0-15.0-3.10","30939","List1A","black","man","","","","","{""Q0"":""Beth is being seduced by Mike""}","<img src=""stim_listA/seduce2.gif""style=""height:400px;""></stim_listA>","is being seduced by","","","","","",""
"null","<div style=""font-size:60px;"">+</div>","","html-keyboard-response","217","1762974","0.0-15.0-0.11","30939","List1A","black","man","","","","null","","","","","","","","",""
"null","<img src=""stim_listA/greet8.gif""style=""height:400px;""></stim_listA>","","html-keyboard-response","218","1764992","0.0-15.0-1.11","30939","List1A","black","man","","","","null","","","","","","","","",""
"null","is being greeted by","","html-keyboard-response","219","1766996","0.0-15.0-2.11","30939","List1A","black","man","","","","null","","","","","","","","",""
"16254.299999952316","","","survey-text","220","1783254","0.0-15.0-3.11","30939","List1A","black","man","","","","","{""Q0"":""Jane is being greeted by Beth""}","<img src=""stim_listA/greet8.gif""style=""height:400px;""></stim_listA>","is being greeted by","","","","","",""
"null","<div style=""font-size:60px;"">+</div>","","html-keyboard-response","221","1783776","0.0-15.0-0.12","30939","List1A","black","man","","","","null","","","","","","","","",""
"null","<img src=""stim_listA/kiss3.gif""style=""height:400px;""></stim_listA>","","html-keyboard-response","222","1785784","0.0-15.0-1.12","30939","List1A","black","man","","","","null","","","","","","","","",""
"null","is kissing","","html-keyboard-response","223","1787799","0.0-15.0-2.12","30939","List1A","black","man","","","","null","","","","","","","","",""
"13506.299999952316","","","survey-text","224","1801308","0.0-15.0-3.12","30939","List1A","black","man","","","","","{""Q0"":""Ruth is kissing Luke""}","<img src=""stim_listA/kiss3.gif""style=""height:400px;""></stim_listA>","is kissing","","","","","",""
"null","<div style=""font-size:60px;"">+</div>","","html-keyboard-response","225","1801824","0.0-15.0-0.13","30939","List1A","black","man","","","","null","","","","","","","","",""
"null","<img src=""stim_listA/look4.gif""style=""height:400px;""></stim_listA>","","html-keyboard-response","226","1803836","0.0-15.0-1.13","30939","List1A","black","man","","","","null","","","","","","","","",""
"null","is being looked at by","","html-keyboard-response","227","1805846","0.0-15.0-2.13","30939","List1A","black","man","","","","null","","","","","","","","",""
"11346.200000047684","","","survey-text","228","1817195","0.0-15.0-3.13","30939","List1A","black","man","","","","","{""Q0"":""Jane is being looked at by dave""}","<img src=""stim_listA/look4.gif""style=""height:400px;""></stim_listA>","is being looked at by","","","","","",""
"null","<div style=""font-size:60px;"">+</div>","","html-keyboard-response","229","1817698","0.0-15.0-0.14","30939","List1A","black","man","","","","null","","","","","","","","",""
"null","<img src=""stim_listA/challenge3.gif""style=""height:400px;""></stim_listA>","","html-keyboard-response","230","1819710","0.0-15.0-1.14","30939","List1A","black","man","","","","null","","","","","","","","",""
"null","is challenging","","html-keyboard-response","231","1821714","0.0-15.0-2.14","30939","List1A","black","man","","","","null","","","","","","","","",""
"11077.700000047684","","","survey-text","232","1832796","0.0-15.0-3.14","30939","List1A","black","man","","","","","{""Q0"":""Dave is challenging Ruth""}","<img src=""stim_listA/challenge3.gif""style=""height:400px;""></stim_listA>","is challenging","","","","","",""
"null","<div style=""font-size:60px;"">+</div>","","html-keyboard-response","233","1833307","0.0-15.0-0.15","30939","List1A","black","man","","","","null","","","","","","","","",""
"null","<img src=""stim_listA/shout7.gif""style=""height:400px;""></stim_listA>","","html-keyboard-response","234","1835316","0.0-15.0-1.15","30939","List1A","black","man","","","","null","","","","","","","","",""
"null","is shouting at","","html-keyboard-response","235","1837322","0.0-15.0-2.15","30939","List1A","black","man","","","","null","","","","","","","","",""
"10256.799999952316","","","survey-text","236","1847582","0.0-15.0-3.15","30939","List1A","black","man","","","","","{""Q0"":""Ruth is shouting at Beth""}","<img src=""stim_listA/shout7.gif""style=""height:400px;""></stim_listA>","is shouting at","","","","","",""
"null","<div style=""font-size:60px;"">+</div>","","html-keyboard-response","237","1848094","0.0-15.0-0.16","30939","List1A","black","man","","","","null","","","","","","","","",""
"null","<img src=""stim_listA/kiss8.gif""style=""height:400px;""></stim_listA>","","html-keyboard-response","238","1850110","0.0-15.0-1.16","30939","List1A","black","man","","","","null","","","","","","","","",""
"null","is being kissed by","","html-keyboard-response","239","1852115","0.0-15.0-2.16","30939","List1A","black","man","","","","null","","","","","","","","",""
"13214.100000143051","","","survey-text","240","1865333","0.0-15.0-3.16","30939","List1A","black","man","","","","","{""Q0"":""Jane is being kissed by Kate""}","<img src=""stim_listA/kiss8.gif""style=""height:400px;""></stim_listA>","is being kissed by","","","","","",""
"null","<div style=""font-size:60px;"">+</div>","","html-keyboard-response","241","1865845","0.0-15.0-0.17","30939","List1A","black","man","","","","null","","","","","","","","",""
"null","<img src=""stim_listA/seduce1.gif""style=""height:400px;""></stim_listA>","","html-keyboard-response","242","1867857","0.0-15.0-1.17","30939","List1A","black","man","","","","null","","","","","","","","",""
"null","is seducing","","html-keyboard-response","243","1869863","0.0-15.0-2.17","30939","List1A","black","man","","","","null","","","","","","","","",""
"19350.200000047684","","","survey-text","244","1889217","0.0-15.0-3.17","30939","List1A","black","man","","","","","{""Q0"":""Kate is seducing Fred""}","<img src=""stim_listA/seduce1.gif""style=""height:400px;""></stim_listA>","is seducing","","","","","",""
"null","<div style=""font-size:60px;"">+</div>","","html-keyboard-response","245","1889728","0.0-15.0-0.18","30939","List1A","black","man","","","","null","","","","","","","","",""
"null","<img src=""stim_listA/touch8.gif""style=""height:400px;""></stim_listA>","","html-keyboard-response","246","1891733","0.0-15.0-1.18","30939","List1A","black","man","","","","null","","","","","","","","",""
"null","is being touched by","","html-keyboard-response","247","1893738","0.0-15.0-2.18","30939","List1A","black","man","","","","null","","","","","","","","",""
"10915.799999952316","","","survey-text","248","1904659","0.0-15.0-3.18","30939","List1A","black","man","","","","","{""Q0"":""Ruth is being touched by Beth""}","<img src=""stim_listA/touch8.gif""style=""height:400px;""></stim_listA>","is being touched by","","","","","",""
"null","<div style=""font-size:60px;"">+</div>","","html-keyboard-response","249","1905177","0.0-15.0-0.19","30939","List1A","black","man","","","","null","","","","","","","","",""
"null","<img src=""stim_listA/greet3.gif""style=""height:400px;""></stim_listA>","","html-keyboard-response","250","1907188","0.0-15.0-1.19","30939","List1A","black","man","","","","null","","","","","","","","",""
"null","is greeting","","html-keyboard-response","251","1909195","0.0-15.0-2.19","30939","List1A","black","man","","","","null","","","","","","","","",""
"9917.799999952316","","","survey-text","252","1919116","0.0-15.0-3.19","30939","List1A","black","man","","","","","{""Q0"":""Dave is greeting Ruth""}","<img src=""stim_listA/greet3.gif""style=""height:400px;""></stim_listA>","is greeting","","","","","",""
"14218.200000047684","<img src='img/portrait_matrix_list1.jpg' style='width:900px;height:500px;''></img><p>If you have memorised all the portraits and names and are ready to start, press Continue.</p><p><strong>Please note: Your memory of these faces will be tested 4 times during this experiment.</strong></p>","0","html-button-response","253","1933336","0.0-16.0-0.0","30939","List1A","black","man","","","","","","","","","","","","",""
"2722.0999999046326","<img src=""portrait/BW1.jpg""style=""height:400px;""></img>","0","html-button-response","254","1937066","0.0-16.0-1.0","30939","List1A","black","man","","true","0","","","","","","","","","",""
"null","CORRECT","","html-keyboard-response","255","1938591","0.0-16.0-2.0-0.0","30939","List1A","black","man","","","","null","","","","","","","","",""
"2328.5999999046326","<img src=""portrait/WW2.jpg""style=""height:400px;""></img>","3","html-button-response","256","1940922","0.0-16.0-4.0","30939","List1A","black","man","","true","3","","","","","","","","","",""
"null","CORRECT","","html-keyboard-response","257","1942447","0.0-16.0-5.0-0.0","30939","List1A","black","man","","","","null","","","","","","","","",""
"3042.7999999523163","<img src=""portrait/WM2.jpg""style=""height:400px;""></img>","7","html-button-response","258","1945492","0.0-16.0-7.0","30939","List1A","black","man","","true","7","","","","","","","","","",""
"null","CORRECT","","html-keyboard-response","259","1947029","0.0-16.0-8.0-0.0","30939","List1A","black","man","","","","null","","","","","","","","",""
"1905.2999999523163","<img src=""portrait/WM1.jpg""style=""height:400px;""></img>","6","html-button-response","260","1948937","0.0-16.0-10.0","30939","List1A","black","man","","true","6","","","","","","","","","",""
"null","CORRECT","","html-keyboard-response","261","1950457","0.0-16.0-11.0-0.0","30939","List1A","black","man","","","","null","","","","","","","","",""
"2906.2999999523163","<img src=""portrait/BW2.jpg""style=""height:400px;""></img>","2","html-button-response","262","1953366","0.0-16.0-13.0","30939","List1A","black","man","","true","2","","","","","","","","","",""
"null","CORRECT","","html-keyboard-response","263","1954901","0.0-16.0-14.0-0.0","30939","List1A","black","man","","","","null","","","","","","","","",""
"3540.5","<img src=""portrait/BM1.jpg""style=""height:400px;""></img>","4","html-button-response","264","1958444","0.0-16.0-16.0","30939","List1A","black","man","","true","4","","","","","","","","","",""
"null","CORRECT","","html-keyboard-response","265","1959974","0.0-16.0-17.0-0.0","30939","List1A","black","man","","","","null","","","","","","","","",""
"2435.7000000476837","<img src=""portrait/WW1.jpg""style=""height:400px;""></img>","1","html-button-response","266","1962412","0.0-16.0-19.0","30939","List1A","black","man","","true","1","","","","","","","","","",""
"null","CORRECT","","html-keyboard-response","267","1963939","0.0-16.0-20.0-0.0","30939","List1A","black","man","","","","null","","","","","","","","",""
"3486.399999856949","<img src=""portrait/BM2.jpg""style=""height:400px;""></img>","5","html-button-response","268","1967427","0.0-16.0-22.0","30939","List1A","black","man","","true","5","","","","","","","","","",""
"null","CORRECT","","html-keyboard-response","269","1968934","0.0-16.0-23.0-0.0","30939","List1A","black","man","","","","null","","","","","","","","",""
"2076.5","<p>You got 8 out of 8 right first time. Press Continue.</p>","0","html-button-response","270","1971013","0.0-16.0-25.0","30939","List1A","black","man","","","","","","","","","","","","",""
"null","<div style=""font-size:60px;"">+</div>","","html-keyboard-response","271","1972538","0.0-17.0-0.0","30939","List1A","black","man","","","","null","","","","","","","","",""
"null","<img src=""stim_listA/greet4.gif""style=""height:400px;""></stim_listA>","","html-keyboard-response","272","1974543","0.0-17.0-1.0","30939","List1A","black","man","","","","null","","","","","","","","",""
"null","is being greeted by","","html-keyboard-response","273","1976558","0.0-17.0-2.0","30939","List1A","black","man","","","","null","","","","","","","","",""
"12564.299999952316","","","survey-text","274","1989126","0.0-17.0-3.0","30939","List1A","black","man","","","","","{""Q0"":""Luke is being greeted by Jane""}","<img src=""stim_listA/greet4.gif""style=""height:400px;""></stim_listA>","is being greeted by","","","","","",""
"null","<div style=""font-size:60px;"">+</div>","","html-keyboard-response","275","1989647","0.0-17.0-0.1","30939","List1A","black","man","","","","null","","","","","","","","",""
"null","<img src=""stim_listA/seduce3.gif""style=""height:400px;""></stim_listA>","","html-keyboard-response","276","1991653","0.0-17.0-1.1","30939","List1A","black","man","","","","null","","","","","","","","",""
"null","is seducing","","html-keyboard-response","277","1993665","0.0-17.0-2.1","30939","List1A","black","man","","","","null","","","","","","","","",""
"8686.599999904633","","","survey-text","278","2002355","0.0-17.0-3.1","30939","List1A","black","man","","","","","{""Q0"":""Jane is seducing luke""}","<img src=""stim_listA/seduce3.gif""style=""height:400px;""></stim_listA>","is seducing","","","","","",""
"null","<div style=""font-size:60px;"">+</div>","","html-keyboard-response","279","2002868","0.0-17.0-0.2","30939","List1A","black","man","","","","null","","","","","","","","",""
"null","<img src=""stim_listA/challenge7.gif""style=""height:400px;""></stim_listA>","","html-keyboard-response","280","2004884","0.0-17.0-1.2","30939","List1A","black","man","","","","null","","","","","","","","",""
"null","is challenging","","html-keyboard-response","281","2006890","0.0-17.0-2.2","30939","List1A","black","man","","","","null","","","","","","","","",""
"11136.200000047684","","","survey-text","282","2018030","0.0-17.0-3.2","30939","List1A","black","man","","","","","{""Q0"":""Ruth is challenging Kate""}","<img src=""stim_listA/challenge7.gif""style=""height:400px;""></stim_listA>","is challenging","","","","","",""
"null","<div style=""font-size:60px;"">+</div>","","html-keyboard-response","283","2018544","0.0-17.0-0.3","30939","List1A","black","man","","","","null","","","","","","","","",""
"null","<img src=""stim_listA/greet5.gif""style=""height:400px;""></stim_listA>","","html-keyboard-response","284","2020563","0.0-17.0-1.3","30939","List1A","black","man","","","","null","","","","","","","","",""
"null","is greeting","","html-keyboard-response","285","2022571","0.0-17.0-2.3","30939","List1A","black","man","","","","null","","","","","","","","",""
"7753.700000047684","","","survey-text","286","2030328","0.0-17.0-3.3","30939","List1A","black","man","","","","","{""Q0"":""Mike is greeting Luke""}","<img src=""stim_listA/greet5.gif""style=""height:400px;""></stim_listA>","is greeting","","","","","",""
"null","<div style=""font-size:60px;"">+</div>","","html-keyboard-response","287","2030844","0.0-17.0-0.4","30939","List1A","black","man","","","","null","","","","","","","","",""
"null","<img src=""stim_listA/greet7.gif""style=""height:400px;""></stim_listA>","","html-keyboard-response","288","2032861","0.0-17.0-1.4","30939","List1A","black","man","","","","null","","","","","","","","",""
"null","is greeting","","html-keyboard-response","289","2034874","0.0-17.0-2.4","30939","List1A","black","man","","","","null","","","","","","","","",""
"9278.100000143051","","","survey-text","290","2044155","0.0-17.0-3.4","30939","List1A","black","man","","","","","{""Q0"":""Ruth is greeting Kate""}","<img src=""stim_listA/greet7.gif""style=""height:400px;""></stim_listA>","is greeting","","","","","",""
"null","<div style=""font-size:60px;"">+</div>","","html-keyboard-response","291","2044659","0.0-17.0-0.5","30939","List1A","black","man","","","","null","","","","","","","","",""
"null","<img src=""stim_listA/oppose6.gif""style=""height:400px;""></stim_listA>","","html-keyboard-response","292","2046674","0.0-17.0-1.5","30939","List1A","black","man","","","","null","","","","","","","","",""
"null","is being opposed by","","html-keyboard-response","293","2048689","0.0-17.0-2.5","30939","List1A","black","man","","","","null","","","","","","","","",""
"11179.700000047684","","","survey-text","294","2059872","0.0-17.0-3.5","30939","List1A","black","man","","","","","{""Q0"":""Fred is being opposed by Luke""}","<img src=""stim_listA/oppose6.gif""style=""height:400px;""></stim_listA>","is being opposed by","","","","","",""
"null","<div style=""font-size:60px;"">+</div>","","html-keyboard-response","295","2060376","0.0-17.0-0.6","30939","List1A","black","man","","","","null","","","","","","","","",""
"null","<img src=""stim_listA/seduce4.gif""style=""height:400px;""></stim_listA>","","html-keyboard-response","296","2062393","0.0-17.0-1.6","30939","List1A","black","man","","","","null","","","","","","","","",""
"null","is being seduced by","","html-keyboard-response","297","2064402","0.0-17.0-2.6","30939","List1A","black","man","","","","null","","","","","","","","",""
"13376.699999809265","","","survey-text","298","2077782","0.0-17.0-3.6","30939","List1A","black","man","","","","","{""Q0"":""Dave is being opposed by Ruth""}","<img src=""stim_listA/seduce4.gif""style=""height:400px;""></stim_listA>","is being seduced by","","","","","",""
"null","<div style=""font-size:60px;"">+</div>","","html-keyboard-response","299","2078291","0.0-17.0-0.7","30939","List1A","black","man","","","","null","","","","","","","","",""
"null","<img src=""stim_listA/hug3.gif""style=""height:400px;""></stim_listA>","","html-keyboard-response","300","2080295","0.0-17.0-1.7","30939","List1A","black","man","","","","null","","","","","","","","",""
"null","is hugging","","html-keyboard-response","301","2082317","0.0-17.0-2.7","30939","List1A","black","man","","","","null","","","","","","","","",""
"10980.099999904633","","","survey-text","302","2093300","0.0-17.0-3.7","30939","List1A","black","man","","","","","{""Q0"":""Ruth is hugging Luke""}","<img src=""stim_listA/hug3.gif""style=""height:400px;""></stim_listA>","is hugging","","","","","",""
"null","<div style=""font-size:60px;"">+</div>","","html-keyboard-response","303","2093811","0.0-17.0-0.8","30939","List1A","black","man","","","","null","","","","","","","","",""
"null","<img src=""stim_listA/look6.gif""style=""height:400px;""></stim_listA>","","html-keyboard-response","304","2095818","0.0-17.0-1.8","30939","List1A","black","man","","","","null","","","","","","","","",""
"null","is being looked at by","","html-keyboard-response","305","2097823","0.0-17.0-2.8","30939","List1A","black","man","","","","null","","","","","","","","",""
"32995.299999952316","","","survey-text","306","2130822","0.0-17.0-3.8","30939","List1A","black","man","","","","","{""Q0"":""Dave is being looked at by Mike""}","<img src=""stim_listA/look6.gif""style=""height:400px;""></stim_listA>","is being looked at by","","","","","",""
"null","<div style=""font-size:60px;"">+</div>","","html-keyboard-response","307","2131334","0.0-17.0-0.9","30939","List1A","black","man","","","","null","","","","","","","","",""
"null","<img src=""stim_listA/greet2.gif""style=""height:400px;""></stim_listA>","","html-keyboard-response","308","2133343","0.0-17.0-1.9","30939","List1A","black","man","","","","null","","","","","","","","",""
"null","is being greeted by","","html-keyboard-response","309","2135347","0.0-17.0-2.9","30939","List1A","black","man","","","","null","","","","","","","","",""
"10441.399999856949","","","survey-text","310","2145790","0.0-17.0-3.9","30939","List1A","black","man","","","","","{""Q0"":""Fred is being greeted by kate""}","<img src=""stim_listA/greet2.gif""style=""height:400px;""></stim_listA>","is being greeted by","","","","","",""
"null","<div style=""font-size:60px;"">+</div>","","html-keyboard-response","311","2146303","0.0-17.0-0.10","30939","List1A","black","man","","","","null","","","","","","","","",""
"null","<img src=""stim_listA/challenge2.gif""style=""height:400px;""></stim_listA>","","html-keyboard-response","312","2148313","0.0-17.0-1.10","30939","List1A","black","man","","","","null","","","","","","","","",""
"null","is being challenged by","","html-keyboard-response","313","2150326","0.0-17.0-2.10","30939","List1A","black","man","","","","null","","","","","","","","",""
"11363.100000143051","","","survey-text","314","2161692","0.0-17.0-3.10","30939","List1A","black","man","","","","","{""Q0"":""Fred is being challenged by Kate""}","<img src=""stim_listA/challenge2.gif""style=""height:400px;""></stim_listA>","is being challenged by","","","","","",""
"null","<div style=""font-size:60px;"">+</div>","","html-keyboard-response","315","2162208","0.0-17.0-0.11","30939","List1A","black","man","","","","null","","","","","","","","",""
"null","<img src=""stim_listA/look1.gif""style=""height:400px;""></stim_listA>","","html-keyboard-response","316","2164213","0.0-17.0-1.11","30939","List1A","black","man","","","","null","","","","","","","","",""
"null","is looking at","","html-keyboard-response","317","2166218","0.0-17.0-2.11","30939","List1A","black","man","","","","null","","","","","","","","",""
"10907","","","survey-text","318","2177128","0.0-17.0-3.11","30939","List1A","black","man","","","","","{""Q0"":""Beth is looking at Fred""}","<img src=""stim_listA/look1.gif""style=""height:400px;""></stim_listA>","is looking at","","","","","",""
"null","<div style=""font-size:60px;"">+</div>","","html-keyboard-response","319","2177633","0.0-17.0-0.12","30939","List1A","black","man","","","","null","","","","","","","","",""
"null","<img src=""stim_listA/look5.gif""style=""height:400px;""></stim_listA>","","html-keyboard-response","320","2179645","0.0-17.0-1.12","30939","List1A","black","man","","","","null","","","","","","","","",""
"null","is looking at","","html-keyboard-response","321","2181655","0.0-17.0-2.12","30939","List1A","black","man","","","","null","","","","","","","","",""
"9252.900000095367","","","survey-text","322","2190912","0.0-17.0-3.12","30939","List1A","black","man","","","","","{""Q0"":""Fred is looking at Luke""}","<img src=""stim_listA/look5.gif""style=""height:400px;""></stim_listA>","is looking at","","","","","",""
"null","<div style=""font-size:60px;"">+</div>","","html-keyboard-response","323","2191419","0.0-17.0-0.13","30939","List1A","black","man","","","","null","","","","","","","","",""
"null","<img src=""stim_listA/shout4.gif""style=""height:400px;""></stim_listA>","","html-keyboard-response","324","2193433","0.0-17.0-1.13","30939","List1A","black","man","","","","null","","","","","","","","",""
"null","is being shouted at by","","html-keyboard-response","325","2195441","0.0-17.0-2.13","30939","List1A","black","man","","","","null","","","","","","","","",""
"16735.400000095367","","","survey-text","326","2212179","0.0-17.0-3.13","30939","List1A","black","man","","","","","{""Q0"":""Dave is being shouted at by Jane""}","<img src=""stim_listA/shout4.gif""style=""height:400px;""></stim_listA>","is being shouted at by","","","","","",""
"null","<div style=""font-size:60px;"">+</div>","","html-keyboard-response","327","2212683","0.0-17.0-0.14","30939","List1A","black","man","","","","null","","","","","","","","",""
"null","<img src=""stim_listA/hug2.gif""style=""height:400px;""></stim_listA>","","html-keyboard-response","328","2214700","0.0-17.0-1.14","30939","List1A","black","man","","","","null","","","","","","","","",""
"null","is being hugged by","","html-keyboard-response","329","2216706","0.0-17.0-2.14","30939","List1A","black","man","","","","null","","","","","","","","",""
"12146","","","survey-text","330","2228855","0.0-17.0-3.14","30939","List1A","black","man","","","","","{""Q0"":""Mike is being hugged by Kate""}","<img src=""stim_listA/hug2.gif""style=""height:400px;""></stim_listA>","is being hugged by","","","","","",""
"null","<div style=""font-size:60px;"">+</div>","","html-keyboard-response","331","2229359","0.0-17.0-0.15","30939","List1A","black","man","","","","null","","","","","","","","",""
"null","<img src=""stim_listA/touch1.gif""style=""height:400px;""></stim_listA>","","html-keyboard-response","332","2231370","0.0-17.0-1.15","30939","List1A","black","man","","","","null","","","","","","","","",""
"null","is touching","","html-keyboard-response","333","2233379","0.0-17.0-2.15","30939","List1A","black","man","","","","null","","","","","","","","",""
"11688.200000047684","","","survey-text","334","2245071","0.0-17.0-3.15","30939","List1A","black","man","","","","","{""Q0"":""Kate is touching Mike""}","<img src=""stim_listA/touch1.gif""style=""height:400px;""></stim_listA>","is touching","","","","","",""
"null","<div style=""font-size:60px;"">+</div>","","html-keyboard-response","335","2245583","0.0-17.0-0.16","30939","List1A","black","man","","","","null","","","","","","","","",""
"null","<img src=""stim_listA/copy2.gif""style=""height:400px;""></stim_listA>","","html-keyboard-response","336","2247586","0.0-17.0-1.16","30939","List1A","black","man","","","","null","","","","","","","","",""
"null","is being copied by","","html-keyboard-response","337","2249599","0.0-17.0-2.16","30939","List1A","black","man","","","","null","","","","","","","","",""
"13177.299999952316","","","survey-text","338","2262780","0.0-17.0-3.16","30939","List1A","black","man","","","","","{""Q0"":""Kate is being copied by Fred""}","<img src=""stim_listA/copy2.gif""style=""height:400px;""></stim_listA>","is being copied by","","","","","",""
"null","<div style=""font-size:60px;"">+</div>","","html-keyboard-response","339","2263287","0.0-17.0-0.17","30939","List1A","black","man","","","","null","","","","","","","","",""
"null","<img src=""stim_listA/seduce7.gif""style=""height:400px;""></stim_listA>","","html-keyboard-response","340","2265293","0.0-17.0-1.17","30939","List1A","black","man","","","","null","","","","","","","","",""
"null","is seducing","","html-keyboard-response","341","2267296","0.0-17.0-2.17","30939","List1A","black","man","","","","null","","","","","","","","",""
"7525.100000143051","","","survey-text","342","2274824","0.0-17.0-3.17","30939","List1A","black","man","","","","","{""Q0"":""Beth is seducing jane""}","<img src=""stim_listA/seduce7.gif""style=""height:400px;""></stim_listA>","is seducing","","","","","",""
"null","<div style=""font-size:60px;"">+</div>","","html-keyboard-response","343","2275336","0.0-17.0-0.18","30939","List1A","black","man","","","","null","","","","","","","","",""
"null","<img src=""stim_listA/shout8.gif""style=""height:400px;""></stim_listA>","","html-keyboard-response","344","2277351","0.0-17.0-1.18","30939","List1A","black","man","","","","null","","","","","","","","",""
"null","is being shouted at by","","html-keyboard-response","345","2279355","0.0-17.0-2.18","30939","List1A","black","man","","","","null","","","","","","","","",""
"12874","","","survey-text","346","2292234","0.0-17.0-3.18","30939","List1A","black","man","","","","","{""Q0"":""Jane is being shouted at by Kate""}","<img src=""stim_listA/shout8.gif""style=""height:400px;""></stim_listA>","is being shouted at by","","","","","",""
"null","<div style=""font-size:60px;"">+</div>","","html-keyboard-response","347","2292738","0.0-17.0-0.19","30939","List1A","black","man","","","","null","","","","","","","","",""
"null","<img src=""stim_listA/challenge5.gif""style=""height:400px;""></stim_listA>","","html-keyboard-response","348","2294754","0.0-17.0-1.19","30939","List1A","black","man","","","","null","","","","","","","","",""
"null","is challenging","","html-keyboard-response","349","2296760","0.0-17.0-2.19","30939","List1A","black","man","","","","null","","","","","","","","",""
"10285.800000190735","","","survey-text","350","2307049","0.0-17.0-3.19","30939","List1A","black","man","","","","","{""Q0"":""Mike is challenging Luke""}","<img src=""stim_listA/challenge5.gif""style=""height:400px;""></stim_listA>","is challenging","","","","","",""
"12517.5","<img src='img/portrait_matrix_list1.jpg' style='width:900px;height:500px;''></img><p>If you have memorised all the portraits and names and are ready to start, press Continue.</p><p><strong>Please note: Your memory of these faces will be tested 4 times during this experiment.</strong></p>","0","html-button-response","351","2319569","0.0-18.0-0.0","30939","List1A","black","man","","","","","","","","","","","","",""
"2504.2999999523163","<img src=""portrait/WM2.jpg""style=""height:400px;""></img>","7","html-button-response","352","2323078","0.0-18.0-1.0","30939","List1A","black","man","","true","7","","","","","","","","","",""
"null","CORRECT","","html-keyboard-response","353","2324607","0.0-18.0-2.0-0.0","30939","List1A","black","man","","","","null","","","","","","","","",""
"2620.5","<img src=""portrait/BW1.jpg""style=""height:400px;""></img>","0","html-button-response","354","2327230","0.0-18.0-4.0","30939","List1A","black","man","","true","0","","","","","","","","","",""
"null","CORRECT","","html-keyboard-response","355","2328756","0.0-18.0-5.0-0.0","30939","List1A","black","man","","","","null","","","","","","","","",""
"1922","<img src=""portrait/BW2.jpg""style=""height:400px;""></img>","2","html-button-response","356","2330681","0.0-18.0-7.0","30939","List1A","black","man","","true","2","","","","","","","","","",""
"null","CORRECT","","html-keyboard-response","357","2332204","0.0-18.0-8.0-0.0","30939","List1A","black","man","","","","null","","","","","","","","",""
"3051.5","<img src=""portrait/WM1.jpg""style=""height:400px;""></img>","6","html-button-response","358","2335257","0.0-18.0-10.0","30939","List1A","black","man","","true","6","","","","","","","","","",""
"null","CORRECT","","html-keyboard-response","359","2336790","0.0-18.0-11.0-0.0","30939","List1A","black","man","","","","null","","","","","","","","",""
"1996.5","<img src=""portrait/WW2.jpg""style=""height:400px;""></img>","3","html-button-response","360","2338788","0.0-18.0-13.0","30939","List1A","black","man","","true","3","","","","","","","","","",""
"null","CORRECT","","html-keyboard-response","361","2340322","0.0-18.0-14.0-0.0","30939","List1A","black","man","","","","null","","","","","","","","",""
"2045.4000000953674","<img src=""portrait/WW1.jpg""style=""height:400px;""></img>","1","html-button-response","362","2342370","0.0-18.0-16.0","30939","List1A","black","man","","true","1","","","","","","","","","",""
"null","CORRECT","","html-keyboard-response","363","2343905","0.0-18.0-17.0-0.0","30939","List1A","black","man","","","","null","","","","","","","","",""
"2363.899999856949","<img src=""portrait/BM1.jpg""style=""height:400px;""></img>","4","html-button-response","364","2346270","0.0-18.0-19.0","30939","List1A","black","man","","true","4","","","","","","","","","",""
"null","CORRECT","","html-keyboard-response","365","2347799","0.0-18.0-20.0-0.0","30939","List1A","black","man","","","","null","","","","","","","","",""
"3202.300000190735","<img src=""portrait/BM2.jpg""style=""height:400px;""></img>","5","html-button-response","366","2351003","0.0-18.0-22.0","30939","List1A","black","man","","true","5","","","","","","","","","",""
"null","CORRECT","","html-keyboard-response","367","2352512","0.0-18.0-23.0-0.0","30939","List1A","black","man","","","","null","","","","","","","","",""
"1726.2000000476837","<p>You got 8 out of 8 right first time. Press Continue.</p>","0","html-button-response","368","2354240","0.0-18.0-25.0","30939","List1A","black","man","","","","","","","","","","","","",""
"null","<div style=""font-size:60px;"">+</div>","","html-keyboard-response","369","2355764","0.0-19.0-0.0","30939","List1A","black","man","","","","null","","","","","","","","",""
"null","<img src=""stim_listA/touch4.gif""style=""height:400px;""></stim_listA>","","html-keyboard-response","370","2357769","0.0-19.0-1.0","30939","List1A","black","man","","","","null","","","","","","","","",""
"null","is being touched by","","html-keyboard-response","371","2359784","0.0-19.0-2.0","30939","List1A","black","man","","","","null","","","","","","","","",""
"11411.200000047684","","","survey-text","372","2371198","0.0-19.0-3.0","30939","List1A","black","man","","","","","{""Q0"":""Ruth is being touched by luke""}","<img src=""stim_listA/touch4.gif""style=""height:400px;""></stim_listA>","is being touched by","","","","","",""
"null","<div style=""font-size:60px;"">+</div>","","html-keyboard-response","373","2371709","0.0-19.0-0.1","30939","List1A","black","man","","","","null","","","","","","","","",""
"null","<img src=""stim_listA/copy3.gif""style=""height:400px;""></stim_listA>","","html-keyboard-response","374","2373732","0.0-19.0-1.1","30939","List1A","black","man","","","","null","","","","","","","","",""
"null","is copying","","html-keyboard-response","375","2375740","0.0-19.0-2.1","30939","List1A","black","man","","","","null","","","","","","","","",""
"21103.89999985695","","","survey-text","376","2396845","0.0-19.0-3.1","30939","List1A","black","man","","","","","{""Q0"":""Dave is being copied by Ruth""}","<img src=""stim_listA/copy3.gif""style=""height:400px;""></stim_listA>","is copying","","","","","",""
"null","<div style=""font-size:60px;"">+</div>","","html-keyboard-response","377","2397355","0.0-19.0-0.2","30939","List1A","black","man","","","","null","","","","","","","","",""
"null","<img src=""stim_listA/seduce5.gif""style=""height:400px;""></stim_listA>","","html-keyboard-response","378","2399374","0.0-19.0-1.2","30939","List1A","black","man","","","","null","","","","","","","","",""
"null","is seducing","","html-keyboard-response","379","2401386","0.0-19.0-2.2","30939","List1A","black","man","","","","null","","","","","","","","",""
"8766.400000095367","","","survey-text","380","2410155","0.0-19.0-3.2","30939","List1A","black","man","","","","","{""Q0"":""Dave is seducing Fred""}","<img src=""stim_listA/seduce5.gif""style=""height:400px;""></stim_listA>","is seducing","","","","","",""
"null","<div style=""font-size:60px;"">+</div>","","html-keyboard-response","381","2410658","0.0-19.0-0.3","30939","List1A","black","man","","","","null","","","","","","","","",""
"null","<img src=""stim_listA/hug7.gif""style=""height:400px;""></stim_listA>","","html-keyboard-response","382","2412668","0.0-19.0-1.3","30939","List1A","black","man","","","","null","","","","","","","","",""
"null","is hugging","","html-keyboard-response","383","2414681","0.0-19.0-2.3","30939","List1A","black","man","","","","null","","","","","","","","",""
"11308.899999856949","","","survey-text","384","2425993","0.0-19.0-3.3","30939","List1A","black","man","","","","","{""Q0"":""Beth is hugging Ruth""}","<img src=""stim_listA/hug7.gif""style=""height:400px;""></stim_listA>","is hugging","","","","","",""
"null","<div style=""font-size:60px;"">+</div>","","html-keyboard-response","385","2426507","0.0-19.0-0.4","30939","List1A","black","man","","","","null","","","","","","","","",""
"null","<img src=""stim_listA/touch2.gif""style=""height:400px;""></stim_listA>","","html-keyboard-response","386","2428522","0.0-19.0-1.4","30939","List1A","black","man","","","","null","","","","","","","","",""
"null","is being touched by","","html-keyboard-response","387","2430535","0.0-19.0-2.4","30939","List1A","black","man","","","","null","","","","","","","","",""
"17541.699999809265","","","survey-text","388","2448082","0.0-19.0-3.4","30939","List1A","black","man","","","","","{""Q0"":""Fred is being touched by Beth""}","<img src=""stim_listA/touch2.gif""style=""height:400px;""></stim_listA>","is being touched by","","","","","",""
"null","<div style=""font-size:60px;"">+</div>","","html-keyboard-response","389","2448590","0.0-19.0-0.5","30939","List1A","black","man","","","","null","","","","","","","","",""
"null","<img src=""stim_listA/kiss1.gif""style=""height:400px;""></stim_listA>","","html-keyboard-response","390","2450613","0.0-19.0-1.5","30939","List1A","black","man","","","","null","","","","","","","","",""
"null","is kissing","","html-keyboard-response","391","2452621","0.0-19.0-2.5","30939","List1A","black","man","","","","null","","","","","","","","",""
"8338.400000095367","","","survey-text","392","2460962","0.0-19.0-3.5","30939","List1A","black","man","","","","","{""Q0"":""Beth is kissing Fred""}","<img src=""stim_listA/kiss1.gif""style=""height:400px;""></stim_listA>","is kissing","","","","","",""
"null","<div style=""font-size:60px;"">+</div>","","html-keyboard-response","393","2461466","0.0-19.0-0.6","30939","List1A","black","man","","","","null","","","","","","","","",""
"null","<img src=""stim_listA/shout2.gif""style=""height:400px;""></stim_listA>","","html-keyboard-response","394","2463472","0.0-19.0-1.6","30939","List1A","black","man","","","","null","","","","","","","","",""
"null","is being shouted at by","","html-keyboard-response","395","2465481","0.0-19.0-2.6","30939","List1A","black","man","","","","null","","","","","","","","",""
"13867.300000190735","","","survey-text","396","2479351","0.0-19.0-3.6","30939","List1A","black","man","","","","","{""Q0"":""Mike is being shouted at by Kate""}","<img src=""stim_listA/shout2.gif""style=""height:400px;""></stim_listA>","is being shouted at by","","","","","",""
"null","<div style=""font-size:60px;"">+</div>","","html-keyboard-response","397","2479855","0.0-19.0-0.7","30939","List1A","black","man","","","","null","","","","","","","","",""
"null","<img src=""stim_listA/challenge8.gif""style=""height:400px;""></stim_listA>","","html-keyboard-response","398","2481868","0.0-19.0-1.7","30939","List1A","black","man","","","","null","","","","","","","","",""
"null","is being challenged by","","html-keyboard-response","399","2483877","0.0-19.0-2.7","30939","List1A","black","man","","","","null","","","","","","","","",""
"13301.5","","","survey-text","400","2497182","0.0-19.0-3.7","30939","List1A","black","man","","","","","{""Q0"":""Jane is being challenged by Beth""}","<img src=""stim_listA/challenge8.gif""style=""height:400px;""></stim_listA>","is being challenged by","","","","","",""
"null","<div style=""font-size:60px;"">+</div>","","html-keyboard-response","401","2497702","0.0-19.0-0.8","30939","List1A","black","man","","","","null","","","","","","","","",""
"null","<img src=""stim_listA/hug6.gif""style=""height:400px;""></stim_listA>","","html-keyboard-response","402","2499714","0.0-19.0-1.8","30939","List1A","black","man","","","","null","","","","","","","","",""
"null","is being hugged by","","html-keyboard-response","403","2501724","0.0-19.0-2.8","30939","List1A","black","man","","","","null","","","","","","","","",""
"10956.599999904633","","","survey-text","404","2512684","0.0-19.0-3.8","30939","List1A","black","man","","","","","{""Q0"":""Dave is being hugged by Mike""}","<img src=""stim_listA/hug6.gif""style=""height:400px;""></stim_listA>","is being hugged by","","","","","",""
"null","<div style=""font-size:60px;"">+</div>","","html-keyboard-response","405","2513195","0.0-19.0-0.9","30939","List1A","black","man","","","","null","","","","","","","","",""
"null","<img src=""stim_listA/copy7.gif""style=""height:400px;""></stim_listA>","","html-keyboard-response","406","2515210","0.0-19.0-1.9","30939","List1A","black","man","","","","null","","","","","","","","",""
"null","is copying","","html-keyboard-response","407","2517221","0.0-19.0-2.9","30939","List1A","black","man","","","","null","","","","","","","","",""
"11825.700000047684","","","survey-text","408","2529050","0.0-19.0-3.9","30939","List1A","black","man","","","","","{""Q0"":""Kate is copying Ruth""}","<img src=""stim_listA/copy7.gif""style=""height:400px;""></stim_listA>","is copying","","","","","",""
"null","<div style=""font-size:60px;"">+</div>","","html-keyboard-response","409","2529552","0.0-19.0-0.10","30939","List1A","black","man","","","","null","","","","","","","","",""
"null","<img src=""stim_listA/hug1.gif""style=""height:400px;""></stim_listA>","","html-keyboard-response","410","2531573","0.0-19.0-1.10","30939","List1A","black","man","","","","null","","","","","","","","",""
"null","is hugging","","html-keyboard-response","411","2533578","0.0-19.0-2.10","30939","List1A","black","man","","","","null","","","","","","","","",""
"12987.5","","","survey-text","412","2546569","0.0-19.0-3.10","30939","List1A","black","man","","","","","{""Q0"":""Fred is hugging Beth""}","<img src=""stim_listA/hug1.gif""style=""height:400px;""></stim_listA>","is hugging","","","","","",""
"null","<div style=""font-size:60px;"">+</div>","","html-keyboard-response","413","2547081","0.0-19.0-0.11","30939","List1A","black","man","","","","null","","","","","","","","",""
"null","<img src=""stim_listA/hug8.gif""style=""height:400px;""></stim_listA>","","html-keyboard-response","414","2549092","0.0-19.0-1.11","30939","List1A","black","man","","","","null","","","","","","","","",""
"null","is being hugged by","","html-keyboard-response","415","2551107","0.0-19.0-2.11","30939","List1A","black","man","","","","null","","","","","","","","",""
"13392.600000143051","","","survey-text","416","2564502","0.0-19.0-3.11","30939","List1A","black","man","","","","","{""Q0"":""Jane is being hugged by Kate""}","<img src=""stim_listA/hug8.gif""style=""height:400px;""></stim_listA>","is being hugged by","","","","","",""
"null","<div style=""font-size:60px;"">+</div>","","html-keyboard-response","417","2565014","0.0-19.0-0.12","30939","List1A","black","man","","","","null","","","","","","","","",""
"null","<img src=""stim_listA/copy4.gif""style=""height:400px;""></stim_listA>","","html-keyboard-response","418","2567023","0.0-19.0-1.12","30939","List1A","black","man","","","","null","","","","","","","","",""
"null","is being copied by","","html-keyboard-response","419","2569028","0.0-19.0-2.12","30939","List1A","black","man","","","","null","","","","","","","","",""
"11774.599999904633","","","survey-text","420","2580806","0.0-19.0-3.12","30939","List1A","black","man","","","","","{""Q0"":""Jane is being copied by Luke""}","<img src=""stim_listA/copy4.gif""style=""height:400px;""></stim_listA>","is being copied by","","","","","",""
"null","<div style=""font-size:60px;"">+</div>","","html-keyboard-response","421","2581317","0.0-19.0-0.13","30939","List1A","black","man","","","","null","","","","","","","","",""
"null","<img src=""stim_listA/hug4.gif""style=""height:400px;""></stim_listA>","","html-keyboard-response","422","2583333","0.0-19.0-1.13","30939","List1A","black","man","","","","null","","","","","","","","",""
"null","is being hugged by","","html-keyboard-response","423","2585341","0.0-19.0-2.13","30939","List1A","black","man","","","","null","","","","","","","","",""
"10413.900000095367","","","survey-text","424","2595759","0.0-19.0-3.13","30939","List1A","black","man","","","","","{""Q0"":""Jane is being hugged by Dave""}","<img src=""stim_listA/hug4.gif""style=""height:400px;""></stim_listA>","is being hugged by","","","","","",""
"null","<div style=""font-size:60px;"">+</div>","","html-keyboard-response","425","2596273","0.0-19.0-0.14","30939","List1A","black","man","","","","null","","","","","","","","",""
"null","<img src=""stim_listA/look7.gif""style=""height:400px;""></stim_listA>","","html-keyboard-response","426","2598282","0.0-19.0-1.14","30939","List1A","black","man","","","","null","","","","","","","","",""
"null","is looking at","","html-keyboard-response","427","2600296","0.0-19.0-2.14","30939","List1A","black","man","","","","null","","","","","","","","",""
"15836.599999904633","","","survey-text","428","2616136","0.0-19.0-3.14","30939","List1A","black","man","","","","","{""Q0"":""Beth is looking at Ruth""}","<img src=""stim_listA/look7.gif""style=""height:400px;""></stim_listA>","is looking at","","","","","",""
"null","<div style=""font-size:60px;"">+</div>","","html-keyboard-response","429","2616638","0.0-19.0-0.15","30939","List1A","black","man","","","","null","","","","","","","","",""
"null","<img src=""stim_listA/seduce6.gif""style=""height:400px;""></stim_listA>","","html-keyboard-response","430","2618660","0.0-19.0-1.15","30939","List1A","black","man","","","","null","","","","","","","","",""
"null","is being seduced by","","html-keyboard-response","431","2620668","0.0-19.0-2.15","30939","List1A","black","man","","","","null","","","","","","","","",""
"10904.200000047684","","","survey-text","432","2631576","0.0-19.0-3.15","30939","List1A","black","man","","","","","{""Q0"":""Mike is being seduced by Luke""}","<img src=""stim_listA/seduce6.gif""style=""height:400px;""></stim_listA>","is being seduced by","","","","","",""
"null","<div style=""font-size:60px;"">+</div>","","html-keyboard-response","433","2632077","0.0-19.0-0.16","30939","List1A","black","man","","","","null","","","","","","","","",""
"null","<img src=""stim_listA/challenge6.gif""style=""height:400px;""></stim_listA>","","html-keyboard-response","434","2634088","0.0-19.0-1.16","30939","List1A","black","man","","","","null","","","","","","","","",""
"null","is being challenged by","","html-keyboard-response","435","2636092","0.0-19.0-2.16","30939","List1A","black","man","","","","null","","","","","","","","",""
"15538.800000190735","","","survey-text","436","2651634","0.0-19.0-3.16","30939","List1A","black","man","","","","","{""Q0"":""Dave is being challenged by Fred""}","<img src=""stim_listA/challenge6.gif""style=""height:400px;""></stim_listA>","is being challenged by","","","","","",""
"null","<div style=""font-size:60px;"">+</div>","","html-keyboard-response","437","2652146","0.0-19.0-0.17","30939","List1A","black","man","","","","null","","","","","","","","",""
"null","<img src=""stim_listA/look3.gif""style=""height:400px;""></stim_listA>","","html-keyboard-response","438","2654158","0.0-19.0-1.17","30939","List1A","black","man","","","","null","","","","","","","","",""
"null","is looking at","","html-keyboard-response","439","2656168","0.0-19.0-2.17","30939","List1A","black","man","","","","null","","","","","","","","",""
"11368.100000143051","","","survey-text","440","2667540","0.0-19.0-3.17","30939","List1A","black","man","","","","","{""Q0"":""Ruth is looking at Luke""}","<img src=""stim_listA/look3.gif""style=""height:400px;""></stim_listA>","is looking at","","","","","",""
"null","<div style=""font-size:60px;"">+</div>","","html-keyboard-response","441","2668053","0.0-19.0-0.18","30939","List1A","black","man","","","","null","","","","","","","","",""
"null","<img src=""stim_listA/oppose8.gif""style=""height:400px;""></stim_listA>","","html-keyboard-response","442","2670062","0.0-19.0-1.18","30939","List1A","black","man","","","","null","","","","","","","","",""
"null","is being opposed by","","html-keyboard-response","443","2672076","0.0-19.0-2.18","30939","List1A","black","man","","","","null","","","","","","","","",""
"10346.099999904633","","","survey-text","444","2682424","0.0-19.0-3.18","30939","List1A","black","man","","","","","{""Q0"":""Beth is being opposed by Ruth""}","<img src=""stim_listA/oppose8.gif""style=""height:400px;""></stim_listA>","is being opposed by","","","","","",""
"null","<div style=""font-size:60px;"">+</div>","","html-keyboard-response","445","2682934","0.0-19.0-0.19","30939","List1A","black","man","","","","null","","","","","","","","",""
"null","<img src=""stim_listA/look8.gif""style=""height:400px;""></stim_listA>","","html-keyboard-response","446","2684951","0.0-19.0-1.19","30939","List1A","black","man","","","","null","","","","","","","","",""
"null","is being looked at by","","html-keyboard-response","447","2686956","0.0-19.0-2.19","30939","List1A","black","man","","","","null","","","","","","","","",""
"12541.899999856949","","","survey-text","448","2699501","0.0-19.0-3.19","30939","List1A","black","man","","","","","{""Q0"":""Jane is being looked at by Kate""}","<img src=""stim_listA/look8.gif""style=""height:400px;""></stim_listA>","is being looked at by","","","","","",""
"2840.2999999523163","<p>Thank you for completing that task.</p><p>The final part of this session is a questionnaire that will take about 4 minutes.</p><p>Press Continue.</p>","0","html-button-response","449","2702343","0.0-20.0","30939","List1A","black","man","","","","","","","","","","","","",""
"38373.700000047684","","","survey-text","450","2741741","0.0-21.0","30939","List1A","black","man","","","","","{""Q0"":""33"",""Q1"":""English"",""Q2"":""English"",""Q3"":""United states"",""Q4"":""United states"",""Q5"":""Black"",""Q6"":""Male""}","","","demographics","","","","",""
"3422","<p>Have you lived in the USA for the last 5 years or more?</p>","0","html-button-response","451","2745166","0.0-22.0","30939","List1A","black","man","","","","","","","","fiveyears","","","","",""
"3888.899999856949","<p>Move the slider to show the extent to which you agree with the following statements.</p>","0","html-button-response","452","2750070","0.0-23.0","30939","List1A","black","man","","","","","","","","","","","","",""
"7873.100000143051","","","html-slider-response","453","2758961","0.0-24.0-0.0-0.0","30939","List1A","black","man","","","","","","","","survey_race","82","","","I feel solidarity with my race.","solidarity"
"3250.7999999523163","","","html-slider-response","454","2762214","0.0-24.0-0.0-0.1","30939","List1A","black","man","","","","","","","","survey_race","80","","","I feel a bond with people the same age as me.","filler"
"3044.399999856949","","","html-slider-response","455","2765261","0.0-24.0-0.0-0.2","30939","List1A","black","man","","","","","","","","survey_race","74","","","People of my race are very similar to each other.","verysimilar"
"6013.799999952316","","","html-slider-response","456","2771276","0.0-24.0-0.0-0.3","30939","List1A","black","man","","","","","","","","survey_race","86","","","I think that my race has a lot to be proud of.","proud"
"3114.4000000953674","","","html-slider-response","457","2774392","0.0-24.0-0.0-0.4","30939","List1A","black","man","","","","","","","","survey_race","81","","","It is pleasant to be my race.","pleasant"
"3193.9000000953674","","","html-slider-response","458","2777588","0.0-24.0-0.0-0.5","30939","List1A","black","man","","","","","","","","survey_race","76","","","Being my age gives me a good feeling.","filler"
"4511.699999809265","","","html-slider-response","459","2782102","0.0-24.0-0.0-0.6","30939","List1A","black","man","","","","","","","","survey_race","82","","","People my age have a lot in common with each other.","filler"
"3455.5","","","html-slider-response","460","2785560","0.0-24.0-0.0-0.7","30939","List1A","black","man","","","","","","","","survey_race","84","","","I am glad to be my race.","glad"
"3539.4000000953674","","","html-slider-response","461","2789101","0.0-24.0-0.0-0.8","30939","List1A","black","man","","","","","","","","survey_race","90","","","I am glad to be my age.","filler"
"3130.5999999046326","","","html-slider-response","462","2792233","0.0-24.0-0.0-0.9","30939","List1A","black","man","","","","","","","","survey_race","84","","","I feel a bond with my race.","bond"
"3675","","","html-slider-response","463","2795910","0.0-24.0-0.0-0.10","30939","List1A","black","man","","","","","","","","survey_race","74","","","I feel committed to my race.","committed"
"5296.399999856949","","","html-slider-response","464","2801208","0.0-24.0-0.0-0.11","30939","List1A","black","man","","","","","","","","survey_race","81","","","I am glad to be the age I am.","filler"
"3367.7999999523163","","","html-slider-response","465","2804577","0.0-24.0-0.0-0.12","30939","List1A","black","man","","","","","","","","survey_race","85","","","I enjoy being in large groups.","filler"
"6249.899999856949","","","html-slider-response","466","2810829","0.0-24.0-0.0-0.13","30939","List1A","black","man","","","","","","","","survey_race","67","","","I consider myself an introvert.","filler"
"8379.900000095367","","","html-slider-response","467","2819211","0.0-24.0-0.0-0.14","30939","List1A","black","man","","","","","","","","survey_race","72","","","The fact that I am my race is an important part of my identity.","identity"
"4901.5","","","html-slider-response","468","2824114","0.0-24.0-0.0-0.15","30939","List1A","black","man","","","","","","","","survey_race","70","","","I have a lot in common with the average person of my race.","average"
"5045.5","","","html-slider-response","469","2829162","0.0-24.0-0.0-0.16","30939","List1A","black","man","","","","","","","","survey_race","65","","","I often think about the fact that I am my race.","often"
"3922.7000000476837","","","html-slider-response","470","2833086","0.0-24.0-0.0-0.17","30939","List1A","black","man","","","","","","","","survey_race","38","","","My age is not an important part of who I am.","filler"
"4127","","","html-slider-response","471","2837215","0.0-24.0-0.0-0.18","30939","List1A","black","man","","","","","","","","survey_race","75","","","The older I get, the wiser I feel.","filler"
"4852.600000143051","","","html-slider-response","472","2842070","0.0-24.0-0.0-0.19","30939","List1A","black","man","","","","","","","","survey_race","54","","","I consider myself an extrovert.","filler"
"6679.699999809265","","","html-slider-response","473","2848751","0.0-24.0-0.0-0.20","30939","List1A","black","man","","","","","","","","survey_race","67","","","Getting older does not worry me.","filler"
"3767.5","","","html-slider-response","474","2852521","0.0-24.0-0.0-0.21","30939","List1A","black","man","","","","","","","","survey_race","71","","","I have a lot in common with people of a similar age to me.","filler"
"3152.0999999046326","","","html-slider-response","475","2855675","0.0-24.0-0.0-0.22","30939","List1A","black","man","","","","","","","","survey_race","65","","","I feel solidarity with people the same age as me.","filler"
"2910.2000000476837","","","html-slider-response","476","2858586","0.0-24.0-0.0-0.23","30939","List1A","black","man","","","","","","","","survey_race","69","","","I am similar to the average person of my race.","similar"
"2625.5","","","html-slider-response","477","2861213","0.0-24.0-0.0-0.24","30939","List1A","black","man","","","","","","","","survey_race","76","","","People of my race have a lot in common with each other.","common"
"3653.2999999523163","","","html-slider-response","478","2864868","0.0-24.0-0.0-0.25","30939","List1A","black","man","","","","","","","","survey_race","80","","","Being my race gives me a good feeling.","feeling"
"5414.5","","","html-slider-response","479","2870285","0.0-24.0-0.0-0.26","30939","List1A","black","man","","","","","","","","survey_race","35","","","I often think about the fact that I am my age.","filler"
