rt,stimulus,button_pressed,trial_type,trial_index,time_elapsed,internal_node_id,subject,list,ppt_race,ppt_gender,url,first_guess,correct,key_press,responses,image_type,phrase_type,test_part,response,stimulus1,stimulus2,question_type,survey_item
4124.1,Welcome to the experiment. Press Continue to begin.,0,html-button-response,0,4143,0.0-0.0,3171,List2B,black,man,,,,,,,,,,,,,
21105.7,,,external-html,1,26441,0.0-1.0,3171,List2B,black,man,consent.html,,,,,,,,,,,,
11868.5,"<p>On the next page, you will see portraits of 8 people and their names.</p><p>Your first task is to take a few minutes to memorise the names of these people.</p><p>You will have to recall their names during the rest of the experiment, so it is</p><p>essential that you try to memorise these people and their names as best as you can.</p><br><p><strong>You will then be tested on your memory of these names and portraits.</strong></p><br><p>The experiment will start after you have completed this memory test.</p><br><p>Ready?</p>",0,html-button-response,2,38317,0.0-2.0,3171,List2B,black,man,,,,,,,,,,,,,
98953.5,"<img src='img/portrait_matrix_list2.jpg' style='width:900px;height:500px;''></img><p>If you have memorised all the portraits and names and are ready to start, press Continue.</p><p><strong>Please note: Your memory of these faces will be tested 4 times during this experiment.</strong></p>",0,html-button-response,3,138286,0.0-3.0-0.0,3171,List2B,black,man,,,,,,,,,,,,,
12556.8,"<img src=""portrait/WW1.jpg""style=""height:400px;""></img>",1,html-button-response,4,151864,0.0-3.0-1.0,3171,List2B,black,man,,TRUE,1,,,,,,,,,,
null,CORRECT,,html-keyboard-response,5,153387,0.0-3.0-2.0-0.0,3171,List2B,black,man,,,,null,,,,,,,,,
15085.4,"<img src=""portrait/WM2.jpg""style=""height:400px;""></img>",7,html-button-response,6,168483,0.0-3.0-4.0,3171,List2B,black,man,,TRUE,7,,,,,,,,,,
null,CORRECT,,html-keyboard-response,7,169992,0.0-3.0-5.0-0.0,3171,List2B,black,man,,,,null,,,,,,,,,
4514.2,"<img src=""portrait/WM1.jpg""style=""height:400px;""></img>",6,html-button-response,8,174516,0.0-3.0-7.0,3171,List2B,black,man,,TRUE,6,,,,,,,,,,
null,CORRECT,,html-keyboard-response,9,176023,0.0-3.0-8.0-0.0,3171,List2B,black,man,,,,null,,,,,,,,,
8605.9,"<img src=""portrait/WW2.jpg""style=""height:400px;""></img>",2,html-button-response,10,184637,0.0-3.0-10.0,3171,List2B,black,man,,TRUE,3,,,,,,,,,,
3649.3,"<img src=""portrait/WW2.jpg""style=""height:400px;""></img>",3,html-button-response,11,189298,0.0-3.0-12.0-0.0,3171,List2B,black,man,,FALSE,3,,,,,,,,,,
null,CORRECT,,html-keyboard-response,12,190806,0.0-3.0-12.0-1.0-0.0,3171,List2B,black,man,,,,null,,,,,,,,,
13921.2,"<img src=""portrait/BW1.jpg""style=""height:400px;""></img>",0,html-button-response,13,204735,0.0-3.0-13.0,3171,List2B,black,man,,TRUE,0,,,,,,,,,,
null,CORRECT,,html-keyboard-response,14,206243,0.0-3.0-14.0-0.0,3171,List2B,black,man,,,,null,,,,,,,,,
4430.4,"<img src=""portrait/BM2.jpg""style=""height:400px;""></img>",5,html-button-response,15,210681,0.0-3.0-16.0,3171,List2B,black,man,,TRUE,5,,,,,,,,,,
null,CORRECT,,html-keyboard-response,16,212188,0.0-3.0-17.0-0.0,3171,List2B,black,man,,,,null,,,,,,,,,
8975.1,"<img src=""portrait/BM1.jpg""style=""height:400px;""></img>",4,html-button-response,17,221172,0.0-3.0-19.0,3171,List2B,black,man,,TRUE,4,,,,,,,,,,
null,CORRECT,,html-keyboard-response,18,222679,0.0-3.0-20.0-0.0,3171,List2B,black,man,,,,null,,,,,,,,,
11664.8,"<img src=""portrait/BW2.jpg""style=""height:400px;""></img>",2,html-button-response,19,234352,0.0-3.0-22.0,3171,List2B,black,man,,TRUE,2,,,,,,,,,,
null,CORRECT,,html-keyboard-response,20,235859,0.0-3.0-23.0-0.0,3171,List2B,black,man,,,,null,,,,,,,,,
3327.3,<p>You got 7 out of 8 right first time. Press Continue.</p>,0,html-button-response,21,239197,0.0-3.0-25.0,3171,List2B,black,man,,,,,,,,,,,,,
4837.3,"As you did not score 100%, the memory game will repeat. Press Continue.",0,html-button-response,22,245042,0.0-3.0-26.0-0.0,3171,List2B,black,man,,,,,,,,,,,,,
68641.9,"<img src='img/portrait_matrix_list2.jpg' style='width:900px;height:500px;''></img><p>If you have memorised all the portraits and names and are ready to start, press Continue.</p><p><strong>Please note: Your memory of these faces will be tested 4 times during this experiment.</strong></p>",0,html-button-response,23,314703,0.0-3.1-0.1,3171,List2B,black,man,,,,,,,,,,,,,
8833.6,"<img src=""portrait/WW1.jpg""style=""height:400px;""></img>",3,html-button-response,24,324546,0.0-3.1-1.1,3171,List2B,black,man,,TRUE,1,,,,,,,,,,
4733,"<img src=""portrait/WW1.jpg""style=""height:400px;""></img>",1,html-button-response,25,330291,0.0-3.1-3.1-0.1,3171,List2B,black,man,,FALSE,1,,,,,,,,,,
null,CORRECT,,html-keyboard-response,26,331799,0.0-3.1-3.1-1.1-0.1,3171,List2B,black,man,,,,null,,,,,,,,,
2476.3,"<img src=""portrait/WM2.jpg""style=""height:400px;""></img>",7,html-button-response,27,334284,0.0-3.1-4.1,3171,List2B,black,man,,TRUE,7,,,,,,,,,,
null,CORRECT,,html-keyboard-response,28,335791,0.0-3.1-5.1-0.1,3171,List2B,black,man,,,,null,,,,,,,,,
11363.4,"<img src=""portrait/WM1.jpg""style=""height:400px;""></img>",6,html-button-response,29,347163,0.0-3.1-7.1,3171,List2B,black,man,,TRUE,6,,,,,,,,,,
null,CORRECT,,html-keyboard-response,30,348672,0.0-3.1-8.1-0.1,3171,List2B,black,man,,,,null,,,,,,,,,
7536.9,"<img src=""portrait/WW2.jpg""style=""height:400px;""></img>",3,html-button-response,31,356217,0.0-3.1-10.1,3171,List2B,black,man,,TRUE,3,,,,,,,,,,
null,CORRECT,,html-keyboard-response,32,357725,0.0-3.1-11.1-0.1,3171,List2B,black,man,,,,null,,,,,,,,,
17014.3,"<img src=""portrait/BW1.jpg""style=""height:400px;""></img>",2,html-button-response,33,374747,0.0-3.1-13.1,3171,List2B,black,man,,TRUE,0,,,,,,,,,,
5951.5,"<img src=""portrait/BW1.jpg""style=""height:400px;""></img>",0,html-button-response,34,381709,0.0-3.1-15.1-0.1,3171,List2B,black,man,,FALSE,0,,,,,,,,,,
null,CORRECT,,html-keyboard-response,35,383217,0.0-3.1-15.1-1.1-0.1,3171,List2B,black,man,,,,null,,,,,,,,,
2795.3,"<img src=""portrait/BM2.jpg""style=""height:400px;""></img>",4,html-button-response,36,386021,0.0-3.1-16.1,3171,List2B,black,man,,TRUE,5,,,,,,,,,,
1391.8,"<img src=""portrait/BM2.jpg""style=""height:400px;""></img>",5,html-button-response,37,388425,0.0-3.1-18.1-0.1,3171,List2B,black,man,,FALSE,5,,,,,,,,,,
null,CORRECT,,html-keyboard-response,38,389931,0.0-3.1-18.1-1.1-0.1,3171,List2B,black,man,,,,null,,,,,,,,,
4318,"<img src=""portrait/BM1.jpg""style=""height:400px;""></img>",4,html-button-response,39,394258,0.0-3.1-19.1,3171,List2B,black,man,,TRUE,4,,,,,,,,,,
null,CORRECT,,html-keyboard-response,40,395764,0.0-3.1-20.1-0.1,3171,List2B,black,man,,,,null,,,,,,,,,
9057.1,"<img src=""portrait/BW2.jpg""style=""height:400px;""></img>",0,html-button-response,41,404829,0.0-3.1-22.1,3171,List2B,black,man,,TRUE,2,,,,,,,,,,
2881.3,"<img src=""portrait/BW2.jpg""style=""height:400px;""></img>",2,html-button-response,42,408722,0.0-3.1-24.1-0.1,3171,List2B,black,man,,FALSE,2,,,,,,,,,,
null,CORRECT,,html-keyboard-response,43,410230,0.0-3.1-24.1-1.1-0.1,3171,List2B,black,man,,,,null,,,,,,,,,
2324.6,<p>You got 4 out of 8 right first time. Press Continue.</p>,0,html-button-response,44,412564,0.0-3.1-25.1,3171,List2B,black,man,,,,,,,,,,,,,
2851.3,"As you did not score 100%, the memory game will repeat. Press Continue.",0,html-button-response,45,416422,0.0-3.1-26.1-0.1,3171,List2B,black,man,,,,,,,,,,,,,
59147.5,"<img src='img/portrait_matrix_list2.jpg' style='width:900px;height:500px;''></img><p>If you have memorised all the portraits and names and are ready to start, press Continue.</p><p><strong>Please note: Your memory of these faces will be tested 4 times during this experiment.</strong></p>",0,html-button-response,46,476580,0.0-3.2-0.2,3171,List2B,black,man,,,,,,,,,,,,,
14024.2,"<img src=""portrait/WW1.jpg""style=""height:400px;""></img>",1,html-button-response,47,491616,0.0-3.2-1.2,3171,List2B,black,man,,TRUE,1,,,,,,,,,,
null,CORRECT,,html-keyboard-response,48,493122,0.0-3.2-2.2-0.2,3171,List2B,black,man,,,,null,,,,,,,,,
3664.8,"<img src=""portrait/WM2.jpg""style=""height:400px;""></img>",7,html-button-response,49,496793,0.0-3.2-4.2,3171,List2B,black,man,,TRUE,7,,,,,,,,,,
null,CORRECT,,html-keyboard-response,50,498301,0.0-3.2-5.2-0.2,3171,List2B,black,man,,,,null,,,,,,,,,
5899.9,"<img src=""portrait/WM1.jpg""style=""height:400px;""></img>",6,html-button-response,51,504210,0.0-3.2-7.2,3171,List2B,black,man,,TRUE,6,,,,,,,,,,
null,CORRECT,,html-keyboard-response,52,505717,0.0-3.2-8.2-0.2,3171,List2B,black,man,,,,null,,,,,,,,,
6718,"<img src=""portrait/WW2.jpg""style=""height:400px;""></img>",3,html-button-response,53,512445,0.0-3.2-10.2,3171,List2B,black,man,,TRUE,3,,,,,,,,,,
null,CORRECT,,html-keyboard-response,54,513960,0.0-3.2-11.2-0.2,3171,List2B,black,man,,,,null,,,,,,,,,
9354.5,"<img src=""portrait/BW1.jpg""style=""height:400px;""></img>",0,html-button-response,55,523322,0.0-3.2-13.2,3171,List2B,black,man,,TRUE,0,,,,,,,,,,
null,CORRECT,,html-keyboard-response,56,524828,0.0-3.2-14.2-0.2,3171,List2B,black,man,,,,null,,,,,,,,,
2293.8,"<img src=""portrait/BM2.jpg""style=""height:400px;""></img>",5,html-button-response,57,527130,0.0-3.2-16.2,3171,List2B,black,man,,TRUE,5,,,,,,,,,,
null,CORRECT,,html-keyboard-response,58,528638,0.0-3.2-17.2-0.2,3171,List2B,black,man,,,,null,,,,,,,,,
5403.2,"<img src=""portrait/BM1.jpg""style=""height:400px;""></img>",4,html-button-response,59,534049,0.0-3.2-19.2,3171,List2B,black,man,,TRUE,4,,,,,,,,,,
null,CORRECT,,html-keyboard-response,60,535556,0.0-3.2-20.2-0.2,3171,List2B,black,man,,,,null,,,,,,,,,
9256.9,"<img src=""portrait/BW2.jpg""style=""height:400px;""></img>",2,html-button-response,61,544820,0.0-3.2-22.2,3171,List2B,black,man,,TRUE,2,,,,,,,,,,
null,CORRECT,,html-keyboard-response,62,546328,0.0-3.2-23.2-0.2,3171,List2B,black,man,,,,null,,,,,,,,,
1942.6,<p>You got 8 out of 8 right first time. Press Continue.</p>,0,html-button-response,63,548278,0.0-3.2-25.2,3171,List2B,black,man,,,,,,,,,,,,,
80645.3,"<p>In this experiment, you will view photographs of the people from the memory game interacting.</p><p>By using the <strong>exact</strong> phrase given <i>after</i> the photograph appears and recalling the correct names of the people in the photographs, form a sentence describing the interaction. You do not need to capitalise names.</p><p>Type your answer in the space provided. Please complete every sentence before moving onto the next trial.</p><p>You will only have a few seconds to memorise each given photograph and phrase before you can respond, so try your best to focus.</p><p>An example is given below. Press 'Continue' when you are ready.</p><img src='img/speaking_example.jpg' style='width:800px;height:460px;''></img>",0,html-button-response,64,629934,0.0-4.0,3171,List2B,black,man,,,,,,,,,,,,,
5457.5,"<p>Before the experiment starts, you will watch two example trials. Press 'Continue'.</p>",0,html-button-response,65,636398,0.0-5.0,3171,List2B,black,man,,,,,,,,,,,,,
null,<img src='img/play_eg.gif' style='height:400px;''></img>,,html-keyboard-response,66,639407,0.0-6.0,3171,List2B,black,man,,,,null,,,,,,,,,
null,<p>is playing with</p>,,html-keyboard-response,67,641412,0.0-7.0,3171,List2B,black,man,,,,null,,,,,,,,,
3602.8,<p><b>Answer:</b> jane is playing with ruth</p>,0,html-button-response,68,645020,0.0-8.0,3171,List2B,black,man,,,,,,,,,,,,,
null,<img src='img/dance_eg.gif' style='height:400px;''></img>,,html-keyboard-response,69,648029,0.0-9.0,3171,List2B,black,man,,,,null,,,,,,,,,
null,<p>is being entertained by</p>,,html-keyboard-response,70,650032,0.0-10.0,3171,List2B,black,man,,,,null,,,,,,,,,
5073.7,<p><b>Answer:</b> fred is being entertained by mike</p>,0,html-button-response,71,655116,0.0-11.0,3171,List2B,black,man,,,,,,,,,,,,,
5917.5,"<p>Ready to start the experiment?</p><br><p><strong>Remember to describe the picture using a full sentence,</strong></p><p><strong>that combines the names of the people with the <i>exact</i> phrase given.</strong></p><p><strong>To receive full payment you must do this correctly.</strong></p><p><strong> You do not need to capitalise names or use punctuation.</strong></p><br><p>Press 'Continue' to begin.</p>",0,html-button-response,72,662041,0.0-12.0,3171,List2B,black,man,,,,,,,,,,,,,
null,"<div style=""font-size:60px;"">+</div>",,html-keyboard-response,73,663548,0.0-13.0-0.0,3171,List2B,black,man,,,,null,,,,,,,,,
null,"<img src=""stim_listB/touch4.gif""style=""height:400px;""></stim_listB>",,html-keyboard-response,74,665560,0.0-13.0-1.0,3171,List2B,black,man,,,,null,,,,,,,,,
null,is being touched by,,html-keyboard-response,75,667564,0.0-13.0-2.0,3171,List2B,black,man,,,,null,,,,,,,,,
48861,,,survey-text,76,716458,0.0-13.0-3.0,3171,List2B,black,man,,,,,"{""Q0"":""Beth and fred are high five.""}","<img src=""stim_listB/touch4.gif""style=""height:400px;""></stim_listB>",is being touched by,,,,,,
null,"<div style=""font-size:60px;"">+</div>",,html-keyboard-response,77,716965,0.0-13.0-0.1,3171,List2B,black,man,,,,null,,,,,,,,,
null,"<img src=""stim_listB/touch3.gif""style=""height:400px;""></stim_listB>",,html-keyboard-response,78,718970,0.0-13.0-1.1,3171,List2B,black,man,,,,null,,,,,,,,,
null,is touching,,html-keyboard-response,79,720974,0.0-13.0-2.1,3171,List2B,black,man,,,,null,,,,,,,,,
32007.4,,,survey-text,80,752999,0.0-13.0-3.1,3171,List2B,black,man,,,,,"{""Q0"":""Mike is  happy""}","<img src=""stim_listB/touch3.gif""style=""height:400px;""></stim_listB>",is touching,,,,,,
null,"<div style=""font-size:60px;"">+</div>",,html-keyboard-response,81,753507,0.0-13.0-0.2,3171,List2B,black,man,,,,null,,,,,,,,,
null,"<img src=""stim_listB/look8.gif""style=""height:400px;""></stim_listB>",,html-keyboard-response,82,755520,0.0-13.0-1.2,3171,List2B,black,man,,,,null,,,,,,,,,
null,is being looked at by,,html-keyboard-response,83,757524,0.0-13.0-2.2,3171,List2B,black,man,,,,null,,,,,,,,,
16691.4,,,survey-text,84,774226,0.0-13.0-3.2,3171,List2B,black,man,,,,,"{""Q0"":""Not sure""}","<img src=""stim_listB/look8.gif""style=""height:400px;""></stim_listB>",is being looked at by,,,,,,
null,"<div style=""font-size:60px;"">+</div>",,html-keyboard-response,85,774733,0.0-13.0-0.3,3171,List2B,black,man,,,,null,,,,,,,,,
null,"<img src=""stim_listB/seduce5.gif""style=""height:400px;""></stim_listB>",,html-keyboard-response,86,776742,0.0-13.0-1.3,3171,List2B,black,man,,,,null,,,,,,,,,
null,is seducing,,html-keyboard-response,87,778747,0.0-13.0-2.3,3171,List2B,black,man,,,,null,,,,,,,,,
29915.6,,,survey-text,88,808682,0.0-13.0-3.3,3171,List2B,black,man,,,,,"{""Q0"":""Mike and Dave talking.""}","<img src=""stim_listB/seduce5.gif""style=""height:400px;""></stim_listB>",is seducing,,,,,,
null,"<div style=""font-size:60px;"">+</div>",,html-keyboard-response,89,809189,0.0-13.0-0.4,3171,List2B,black,man,,,,null,,,,,,,,,
null,"<img src=""stim_listB/kiss3.gif""style=""height:400px;""></stim_listB>",,html-keyboard-response,90,811198,0.0-13.0-1.4,3171,List2B,black,man,,,,null,,,,,,,,,
null,is kissing,,html-keyboard-response,91,813202,0.0-13.0-2.4,3171,List2B,black,man,,,,null,,,,,,,,,
20529,,,survey-text,92,833751,0.0-13.0-3.4,3171,List2B,black,man,,,,,"{""Q0"":""Beth and fred kissing""}","<img src=""stim_listB/kiss3.gif""style=""height:400px;""></stim_listB>",is kissing,,,,,,
null,"<div style=""font-size:60px;"">+</div>",,html-keyboard-response,93,834257,0.0-13.0-0.5,3171,List2B,black,man,,,,null,,,,,,,,,
null,"<img src=""stim_listB/shout2.gif""style=""height:400px;""></stim_listB>",,html-keyboard-response,94,836263,0.0-13.0-1.5,3171,List2B,black,man,,,,null,,,,,,,,,
null,is being shouted at by,,html-keyboard-response,95,838268,0.0-13.0-2.5,3171,List2B,black,man,,,,null,,,,,,,,,
34993.8,,,survey-text,96,873278,0.0-13.0-3.5,3171,List2B,black,man,,,,,"{""Q0"":""Dave and Jane laughing""}","<img src=""stim_listB/shout2.gif""style=""height:400px;""></stim_listB>",is being shouted at by,,,,,,
null,"<div style=""font-size:60px;"">+</div>",,html-keyboard-response,97,873784,0.0-13.0-0.6,3171,List2B,black,man,,,,null,,,,,,,,,
null,"<img src=""stim_listB/kiss6.gif""style=""height:400px;""></stim_listB>",,html-keyboard-response,98,875792,0.0-13.0-1.6,3171,List2B,black,man,,,,null,,,,,,,,,
null,is being kissed by,,html-keyboard-response,99,877797,0.0-13.0-2.6,3171,List2B,black,man,,,,null,,,,,,,,,
20555.3,,,survey-text,100,898370,0.0-13.0-3.6,3171,List2B,black,man,,,,,"{""Q0"":""Mike and dave kissing""}","<img src=""stim_listB/kiss6.gif""style=""height:400px;""></stim_listB>",is being kissed by,,,,,,
null,"<div style=""font-size:60px;"">+</div>",,html-keyboard-response,101,898877,0.0-13.0-0.7,3171,List2B,black,man,,,,null,,,,,,,,,
null,"<img src=""stim_listB/copy1.gif""style=""height:400px;""></stim_listB>",,html-keyboard-response,102,900887,0.0-13.0-1.7,3171,List2B,black,man,,,,null,,,,,,,,,
null,is copying,,html-keyboard-response,103,902892,0.0-13.0-2.7,3171,List2B,black,man,,,,null,,,,,,,,,
20348.1,,,survey-text,104,923259,0.0-13.0-3.7,3171,List2B,black,man,,,,,"{""Q0"":""Dave and ruth playing""}","<img src=""stim_listB/copy1.gif""style=""height:400px;""></stim_listB>",is copying,,,,,,
null,"<div style=""font-size:60px;"">+</div>",,html-keyboard-response,105,923765,0.0-13.0-0.8,3171,List2B,black,man,,,,null,,,,,,,,,
null,"<img src=""stim_listB/oppose7.gif""style=""height:400px;""></stim_listB>",,html-keyboard-response,106,925775,0.0-13.0-1.8,3171,List2B,black,man,,,,null,,,,,,,,,
null,is opposing,,html-keyboard-response,107,927779,0.0-13.0-2.8,3171,List2B,black,man,,,,null,,,,,,,,,
6072.8,,,survey-text,108,933866,0.0-13.0-3.8,3171,List2B,black,man,,,,,"{""Q0"":""Not sure""}","<img src=""stim_listB/oppose7.gif""style=""height:400px;""></stim_listB>",is opposing,,,,,,
null,"<div style=""font-size:60px;"">+</div>",,html-keyboard-response,109,934370,0.0-13.0-0.9,3171,List2B,black,man,,,,null,,,,,,,,,
null,"<img src=""stim_listB/greet7.gif""style=""height:400px;""></stim_listB>",,html-keyboard-response,110,936375,0.0-13.0-1.9,3171,List2B,black,man,,,,null,,,,,,,,,
null,is greeting,,html-keyboard-response,111,938380,0.0-13.0-2.9,3171,List2B,black,man,,,,null,,,,,,,,,
24974.2,,,survey-text,112,963371,0.0-13.0-3.9,3171,List2B,black,man,,,,,"{""Q0"":""Beth and jane touching""}","<img src=""stim_listB/greet7.gif""style=""height:400px;""></stim_listB>",is greeting,,,,,,
null,"<div style=""font-size:60px;"">+</div>",,html-keyboard-response,113,963877,0.0-13.0-0.10,3171,List2B,black,man,,,,null,,,,,,,,,
null,"<img src=""stim_listB/look5.gif""style=""height:400px;""></stim_listB>",,html-keyboard-response,114,965886,0.0-13.0-1.10,3171,List2B,black,man,,,,null,,,,,,,,,
null,is looking at,,html-keyboard-response,115,967890,0.0-13.0-2.10,3171,List2B,black,man,,,,null,,,,,,,,,
24417.5,,,survey-text,116,992321,0.0-13.0-3.10,3171,List2B,black,man,,,,,"{""Q0"":""Mike and dave is looking""}","<img src=""stim_listB/look5.gif""style=""height:400px;""></stim_listB>",is looking at,,,,,,
null,"<div style=""font-size:60px;"">+</div>",,html-keyboard-response,117,992827,0.0-13.0-0.11,3171,List2B,black,man,,,,null,,,,,,,,,
null,"<img src=""stim_listB/seduce3.gif""style=""height:400px;""></stim_listB>",,html-keyboard-response,118,994836,0.0-13.0-1.11,3171,List2B,black,man,,,,null,,,,,,,,,
null,is seducing,,html-keyboard-response,119,996841,0.0-13.0-2.11,3171,List2B,black,man,,,,null,,,,,,,,,
13121.7,,,survey-text,120,1009981,0.0-13.0-3.11,3171,List2B,black,man,,,,,"{""Q0"":""Not sure""}","<img src=""stim_listB/seduce3.gif""style=""height:400px;""></stim_listB>",is seducing,,,,,,
null,"<div style=""font-size:60px;"">+</div>",,html-keyboard-response,121,1010490,0.0-13.0-0.12,3171,List2B,black,man,,,,null,,,,,,,,,
null,"<img src=""stim_listB/greet5.gif""style=""height:400px;""></stim_listB>",,html-keyboard-response,122,1012500,0.0-13.0-1.12,3171,List2B,black,man,,,,null,,,,,,,,,
null,is greeting,,html-keyboard-response,123,1014505,0.0-13.0-2.12,3171,List2B,black,man,,,,null,,,,,,,,,
19009.2,,,survey-text,124,1033536,0.0-13.0-3.12,3171,List2B,black,man,,,,,"{""Q0"":""Fred and dave touching""}","<img src=""stim_listB/greet5.gif""style=""height:400px;""></stim_listB>",is greeting,,,,,,
null,"<div style=""font-size:60px;"">+</div>",,html-keyboard-response,125,1034041,0.0-13.0-0.13,3171,List2B,black,man,,,,null,,,,,,,,,
null,"<img src=""stim_listB/hug7.gif""style=""height:400px;""></stim_listB>",,html-keyboard-response,126,1036050,0.0-13.0-1.13,3171,List2B,black,man,,,,null,,,,,,,,,
null,is hugging,,html-keyboard-response,127,1038055,0.0-13.0-2.13,3171,List2B,black,man,,,,null,,,,,,,,,
28607.7,,,survey-text,128,1066680,0.0-13.0-3.13,3171,List2B,black,man,,,,,"{""Q0"":""Jane wns ruth higging""}","<img src=""stim_listB/hug7.gif""style=""height:400px;""></stim_listB>",is hugging,,,,,,
null,"<div style=""font-size:60px;"">+</div>",,html-keyboard-response,129,1067185,0.0-13.0-0.14,3171,List2B,black,man,,,,null,,,,,,,,,
null,"<img src=""stim_listB/look4.gif""style=""height:400px;""></stim_listB>",,html-keyboard-response,130,1069196,0.0-13.0-1.14,3171,List2B,black,man,,,,null,,,,,,,,,
null,is being looked at by,,html-keyboard-response,131,1071201,0.0-13.0-2.14,3171,List2B,black,man,,,,null,,,,,,,,,
24573.1,,,survey-text,132,1095792,0.0-13.0-3.14,3171,List2B,black,man,,,,,"{""Q0"":""Mike and Kate looking""}","<img src=""stim_listB/look4.gif""style=""height:400px;""></stim_listB>",is being looked at by,,,,,,
null,"<div style=""font-size:60px;"">+</div>",,html-keyboard-response,133,1096299,0.0-13.0-0.15,3171,List2B,black,man,,,,null,,,,,,,,,
null,"<img src=""stim_listB/oppose2.gif""style=""height:400px;""></stim_listB>",,html-keyboard-response,134,1098308,0.0-13.0-1.15,3171,List2B,black,man,,,,null,,,,,,,,,
null,is being opposed by,,html-keyboard-response,135,1100312,0.0-13.0-2.15,3171,List2B,black,man,,,,null,,,,,,,,,
7885.2,,,survey-text,136,1108212,0.0-13.0-3.15,3171,List2B,black,man,,,,,"{""Q0"":""Not sure""}","<img src=""stim_listB/oppose2.gif""style=""height:400px;""></stim_listB>",is being opposed by,,,,,,
null,"<div style=""font-size:60px;"">+</div>",,html-keyboard-response,137,1108716,0.0-13.0-0.16,3171,List2B,black,man,,,,null,,,,,,,,,
null,"<img src=""stim_listB/look7.gif""style=""height:400px;""></stim_listB>",,html-keyboard-response,138,1110722,0.0-13.0-1.16,3171,List2B,black,man,,,,null,,,,,,,,,
null,is looking at,,html-keyboard-response,139,1112727,0.0-13.0-2.16,3171,List2B,black,man,,,,null,,,,,,,,,
15721.9,,,survey-text,140,1128469,0.0-13.0-3.16,3171,List2B,black,man,,,,,"{""Q0"":""Not sure""}","<img src=""stim_listB/look7.gif""style=""height:400px;""></stim_listB>",is looking at,,,,,,
null,"<div style=""font-size:60px;"">+</div>",,html-keyboard-response,141,1128975,0.0-13.0-0.17,3171,List2B,black,man,,,,null,,,,,,,,,
null,"<img src=""stim_listB/greet8.gif""style=""height:400px;""></stim_listB>",,html-keyboard-response,142,1130984,0.0-13.0-1.17,3171,List2B,black,man,,,,null,,,,,,,,,
null,is being greeted by,,html-keyboard-response,143,1132989,0.0-13.0-2.17,3171,List2B,black,man,,,,null,,,,,,,,,
27803.5,,,survey-text,144,1160812,0.0-13.0-3.17,3171,List2B,black,man,,,,,"{""Q0"":""Beth and Jane touching""}","<img src=""stim_listB/greet8.gif""style=""height:400px;""></stim_listB>",is being greeted by,,,,,,
null,"<div style=""font-size:60px;"">+</div>",,html-keyboard-response,145,1161318,0.0-13.0-0.18,3171,List2B,black,man,,,,null,,,,,,,,,
null,"<img src=""stim_listB/challenge5.gif""style=""height:400px;""></stim_listB>",,html-keyboard-response,146,1163327,0.0-13.0-1.18,3171,List2B,black,man,,,,null,,,,,,,,,
null,is challenging,,html-keyboard-response,147,1165333,0.0-13.0-2.18,3171,List2B,black,man,,,,null,,,,,,,,,
33131.2,,,survey-text,148,1198481,0.0-13.0-3.18,3171,List2B,black,man,,,,,"{""Q0"":""Fred and dave is challenging ""}","<img src=""stim_listB/challenge5.gif""style=""height:400px;""></stim_listB>",is challenging,,,,,,
null,"<div style=""font-size:60px;"">+</div>",,html-keyboard-response,149,1198989,0.0-13.0-0.19,3171,List2B,black,man,,,,null,,,,,,,,,
null,"<img src=""stim_listB/kiss7.gif""style=""height:400px;""></stim_listB>",,html-keyboard-response,150,1200999,0.0-13.0-1.19,3171,List2B,black,man,,,,null,,,,,,,,,
null,is kissing,,html-keyboard-response,151,1203004,0.0-13.0-2.19,3171,List2B,black,man,,,,null,,,,,,,,,
22859.7,,,survey-text,152,1225881,0.0-13.0-3.19,3171,List2B,black,man,,,,,"{""Q0"":""Beth and ruth is kissing""}","<img src=""stim_listB/kiss7.gif""style=""height:400px;""></stim_listB>",is kissing,,,,,,
12334.8,"<img src='img/portrait_matrix_list2.jpg' style='width:900px;height:500px;''></img><p>If you have memorised all the portraits and names and are ready to start, press Continue.</p><p><strong>Please note: Your memory of these faces will be tested 4 times during this experiment.</strong></p>",0,html-button-response,153,1238228,0.0-14.0-0.0,3171,List2B,black,man,,,,,,,,,,,,,
44361.6,"<img src=""portrait/WM1.jpg""style=""height:400px;""></img>",6,html-button-response,154,1283601,0.0-14.0-1.0,3171,List2B,black,man,,TRUE,6,,,,,,,,,,
null,CORRECT,,html-keyboard-response,155,1285118,0.0-14.0-2.0-0.0,3171,List2B,black,man,,,,null,,,,,,,,,
14626.1,"<img src=""portrait/BW1.jpg""style=""height:400px;""></img>",0,html-button-response,156,1299753,0.0-14.0-4.0,3171,List2B,black,man,,TRUE,0,,,,,,,,,,
null,CORRECT,,html-keyboard-response,157,1301260,0.0-14.0-5.0-0.0,3171,List2B,black,man,,,,null,,,,,,,,,
9008.3,"<img src=""portrait/BM1.jpg""style=""height:400px;""></img>",4,html-button-response,158,1310278,0.0-14.0-7.0,3171,List2B,black,man,,TRUE,4,,,,,,,,,,
null,CORRECT,,html-keyboard-response,159,1311784,0.0-14.0-8.0-0.0,3171,List2B,black,man,,,,null,,,,,,,,,
7373.4,"<img src=""portrait/BW2.jpg""style=""height:400px;""></img>",2,html-button-response,160,1319164,0.0-14.0-10.0,3171,List2B,black,man,,TRUE,2,,,,,,,,,,
null,CORRECT,,html-keyboard-response,161,1320671,0.0-14.0-11.0-0.0,3171,List2B,black,man,,,,null,,,,,,,,,
8990.8,"<img src=""portrait/WM2.jpg""style=""height:400px;""></img>",7,html-button-response,162,1329670,0.0-14.0-13.0,3171,List2B,black,man,,TRUE,7,,,,,,,,,,
null,CORRECT,,html-keyboard-response,163,1331176,0.0-14.0-14.0-0.0,3171,List2B,black,man,,,,null,,,,,,,,,
5489.1,"<img src=""portrait/BM2.jpg""style=""height:400px;""></img>",5,html-button-response,164,1336671,0.0-14.0-16.0,3171,List2B,black,man,,TRUE,5,,,,,,,,,,
null,CORRECT,,html-keyboard-response,165,1338177,0.0-14.0-17.0-0.0,3171,List2B,black,man,,,,null,,,,,,,,,
8946.3,"<img src=""portrait/WW2.jpg""style=""height:400px;""></img>",3,html-button-response,166,1347129,0.0-14.0-19.0,3171,List2B,black,man,,TRUE,3,,,,,,,,,,
null,CORRECT,,html-keyboard-response,167,1348633,0.0-14.0-20.0-0.0,3171,List2B,black,man,,,,null,,,,,,,,,
13141.2,"<img src=""portrait/WW1.jpg""style=""height:400px;""></img>",1,html-button-response,168,1361780,0.0-14.0-22.0,3171,List2B,black,man,,TRUE,1,,,,,,,,,,
null,CORRECT,,html-keyboard-response,169,1363288,0.0-14.0-23.0-0.0,3171,List2B,black,man,,,,null,,,,,,,,,
2623.7,<p>You got 8 out of 8 right first time. Press Continue.</p>,0,html-button-response,170,1365921,0.0-14.0-25.0,3171,List2B,black,man,,,,,,,,,,,,,
null,"<div style=""font-size:60px;"">+</div>",,html-keyboard-response,171,1367436,0.0-15.0-0.0,3171,List2B,black,man,,,,null,,,,,,,,,
null,"<img src=""stim_listB/seduce1.gif""style=""height:400px;""></stim_listB>",,html-keyboard-response,172,1369442,0.0-15.0-1.0,3171,List2B,black,man,,,,null,,,,,,,,,
null,is seducing,,html-keyboard-response,173,1371446,0.0-15.0-2.0,3171,List2B,black,man,,,,null,,,,,,,,,
33799,,,survey-text,174,1405265,0.0-15.0-3.0,3171,List2B,black,man,,,,,"{""Q0"":""Ruth and dave is seducing ""}","<img src=""stim_listB/seduce1.gif""style=""height:400px;""></stim_listB>",is seducing,,,,,,
null,"<div style=""font-size:60px;"">+</div>",,html-keyboard-response,175,1405771,0.0-15.0-0.1,3171,List2B,black,man,,,,null,,,,,,,,,
null,"<img src=""stim_listB/shout5.gif""style=""height:400px;""></stim_listB>",,html-keyboard-response,176,1407779,0.0-15.0-1.1,3171,List2B,black,man,,,,null,,,,,,,,,
null,is shouting at,,html-keyboard-response,177,1409783,0.0-15.0-2.1,3171,List2B,black,man,,,,null,,,,,,,,,
42023,,,survey-text,178,1451828,0.0-15.0-3.1,3171,List2B,black,man,,,,,"{""Q0"":""Mike is shouting at dave""}","<img src=""stim_listB/shout5.gif""style=""height:400px;""></stim_listB>",is shouting at,,,,,,
null,"<div style=""font-size:60px;"">+</div>",,html-keyboard-response,179,1452335,0.0-15.0-0.2,3171,List2B,black,man,,,,null,,,,,,,,,
null,"<img src=""stim_listB/oppose6.gif""style=""height:400px;""></stim_listB>",,html-keyboard-response,180,1454342,0.0-15.0-1.2,3171,List2B,black,man,,,,null,,,,,,,,,
null,is being opposed by,,html-keyboard-response,181,1456346,0.0-15.0-2.2,3171,List2B,black,man,,,,null,,,,,,,,,
16635.8,,,survey-text,182,1473003,0.0-15.0-3.2,3171,List2B,black,man,,,,,"{""Q0"":""I'm not sure""}","<img src=""stim_listB/oppose6.gif""style=""height:400px;""></stim_listB>",is being opposed by,,,,,,
null,"<div style=""font-size:60px;"">+</div>",,html-keyboard-response,183,1473510,0.0-15.0-0.3,3171,List2B,black,man,,,,null,,,,,,,,,
null,"<img src=""stim_listB/seduce7.gif""style=""height:400px;""></stim_listB>",,html-keyboard-response,184,1475519,0.0-15.0-1.3,3171,List2B,black,man,,,,null,,,,,,,,,
null,is seducing,,html-keyboard-response,185,1477524,0.0-15.0-2.3,3171,List2B,black,man,,,,null,,,,,,,,,
32141.9,,,survey-text,186,1509685,0.0-15.0-3.3,3171,List2B,black,man,,,,,"{""Q0"":""Kate is looking AT ruth""}","<img src=""stim_listB/seduce7.gif""style=""height:400px;""></stim_listB>",is seducing,,,,,,
null,"<div style=""font-size:60px;"">+</div>",,html-keyboard-response,187,1510192,0.0-15.0-0.4,3171,List2B,black,man,,,,null,,,,,,,,,
null,"<img src=""stim_listB/hug4.gif""style=""height:400px;""></stim_listB>",,html-keyboard-response,188,1512203,0.0-15.0-1.4,3171,List2B,black,man,,,,null,,,,,,,,,
null,is being hugged by,,html-keyboard-response,189,1514208,0.0-15.0-2.4,3171,List2B,black,man,,,,null,,,,,,,,,
20182.4,,,survey-text,190,1534410,0.0-15.0-3.4,3171,List2B,black,man,,,,,"{""Q0"":""Mike is hugging kate""}","<img src=""stim_listB/hug4.gif""style=""height:400px;""></stim_listB>",is being hugged by,,,,,,
null,"<div style=""font-size:60px;"">+</div>",,html-keyboard-response,191,1534916,0.0-15.0-0.5,3171,List2B,black,man,,,,null,,,,,,,,,
null,"<img src=""stim_listB/kiss2.gif""style=""height:400px;""></stim_listB>",,html-keyboard-response,192,1536922,0.0-15.0-1.5,3171,List2B,black,man,,,,null,,,,,,,,,
null,is being kissed by,,html-keyboard-response,193,1538926,0.0-15.0-2.5,3171,List2B,black,man,,,,null,,,,,,,,,
26470.7,,,survey-text,194,1565415,0.0-15.0-3.5,3171,List2B,black,man,,,,,"{""Q0"":""Jane is being kissed by dave""}","<img src=""stim_listB/kiss2.gif""style=""height:400px;""></stim_listB>",is being kissed by,,,,,,
null,"<div style=""font-size:60px;"">+</div>",,html-keyboard-response,195,1565921,0.0-15.0-0.6,3171,List2B,black,man,,,,null,,,,,,,,,
null,"<img src=""stim_listB/look3.gif""style=""height:400px;""></stim_listB>",,html-keyboard-response,196,1567930,0.0-15.0-1.6,3171,List2B,black,man,,,,null,,,,,,,,,
null,is looking at,,html-keyboard-response,197,1569934,0.0-15.0-2.6,3171,List2B,black,man,,,,null,,,,,,,,,
23329.7,,,survey-text,198,1593278,0.0-15.0-3.6,3171,List2B,black,man,,,,,"{""Q0"":""Beth is looking  at fred""}","<img src=""stim_listB/look3.gif""style=""height:400px;""></stim_listB>",is looking at,,,,,,
null,"<div style=""font-size:60px;"">+</div>",,html-keyboard-response,199,1593785,0.0-15.0-0.7,3171,List2B,black,man,,,,null,,,,,,,,,
null,"<img src=""stim_listB/kiss1.gif""style=""height:400px;""></stim_listB>",,html-keyboard-response,200,1595793,0.0-15.0-1.7,3171,List2B,black,man,,,,null,,,,,,,,,
null,is kissing,,html-keyboard-response,201,1597798,0.0-15.0-2.7,3171,List2B,black,man,,,,null,,,,,,,,,
23863.5,,,survey-text,202,1621678,0.0-15.0-3.7,3171,List2B,black,man,,,,,"{""Q0"":""Mike is kissing ruth""}","<img src=""stim_listB/kiss1.gif""style=""height:400px;""></stim_listB>",is kissing,,,,,,
null,"<div style=""font-size:60px;"">+</div>",,html-keyboard-response,203,1622184,0.0-15.0-0.8,3171,List2B,black,man,,,,null,,,,,,,,,
null,"<img src=""stim_listB/touch5.gif""style=""height:400px;""></stim_listB>",,html-keyboard-response,204,1624192,0.0-15.0-1.8,3171,List2B,black,man,,,,null,,,,,,,,,
null,is touching,,html-keyboard-response,205,1626196,0.0-15.0-2.8,3171,List2B,black,man,,,,null,,,,,,,,,
16608.8,,,survey-text,206,1642823,0.0-15.0-3.8,3171,List2B,black,man,,,,,"{""Q0"":""Mike is touching dave""}","<img src=""stim_listB/touch5.gif""style=""height:400px;""></stim_listB>",is touching,,,,,,
null,"<div style=""font-size:60px;"">+</div>",,html-keyboard-response,207,1643329,0.0-15.0-0.9,3171,List2B,black,man,,,,null,,,,,,,,,
null,"<img src=""stim_listB/oppose8.gif""style=""height:400px;""></stim_listB>",,html-keyboard-response,208,1645339,0.0-15.0-1.9,3171,List2B,black,man,,,,null,,,,,,,,,
null,is being opposed by,,html-keyboard-response,209,1647344,0.0-15.0-2.9,3171,List2B,black,man,,,,null,,,,,,,,,
29074.9,,,survey-text,210,1676436,0.0-15.0-3.9,3171,List2B,black,man,,,,,"{""Q0"":""Ruth is being opposed by kate""}","<img src=""stim_listB/oppose8.gif""style=""height:400px;""></stim_listB>",is being opposed by,,,,,,
null,"<div style=""font-size:60px;"">+</div>",,html-keyboard-response,211,1676941,0.0-15.0-0.10,3171,List2B,black,man,,,,null,,,,,,,,,
null,"<img src=""stim_listB/greet6.gif""style=""height:400px;""></stim_listB>",,html-keyboard-response,212,1678949,0.0-15.0-1.10,3171,List2B,black,man,,,,null,,,,,,,,,
null,is being greeted by,,html-keyboard-response,213,1680953,0.0-15.0-2.10,3171,List2B,black,man,,,,null,,,,,,,,,
25043.7,,,survey-text,214,1706013,0.0-15.0-3.10,3171,List2B,black,man,,,,,"{""Q0"":""Mike is being greeted by dave""}","<img src=""stim_listB/greet6.gif""style=""height:400px;""></stim_listB>",is being greeted by,,,,,,
null,"<div style=""font-size:60px;"">+</div>",,html-keyboard-response,215,1706518,0.0-15.0-0.11,3171,List2B,black,man,,,,null,,,,,,,,,
null,"<img src=""stim_listB/hug5.gif""style=""height:400px;""></stim_listB>",,html-keyboard-response,216,1708527,0.0-15.0-1.11,3171,List2B,black,man,,,,null,,,,,,,,,
null,is hugging,,html-keyboard-response,217,1710532,0.0-15.0-2.11,3171,List2B,black,man,,,,null,,,,,,,,,
20562.7,,,survey-text,218,1731113,0.0-15.0-3.11,3171,List2B,black,man,,,,,"{""Q0"":""Not sure""}","<img src=""stim_listB/hug5.gif""style=""height:400px;""></stim_listB>",is hugging,,,,,,
null,"<div style=""font-size:60px;"">+</div>",,html-keyboard-response,219,1731620,0.0-15.0-0.12,3171,List2B,black,man,,,,null,,,,,,,,,
null,"<img src=""stim_listB/challenge6.gif""style=""height:400px;""></stim_listB>",,html-keyboard-response,220,1733629,0.0-15.0-1.12,3171,List2B,black,man,,,,null,,,,,,,,,
null,is being challenged by,,html-keyboard-response,221,1735632,0.0-15.0-2.12,3171,List2B,black,man,,,,null,,,,,,,,,
39340,,,survey-text,222,1774984,0.0-15.0-3.12,3171,List2B,black,man,,,,,"{""Q0"":""Nike being challenged by dave""}","<img src=""stim_listB/challenge6.gif""style=""height:400px;""></stim_listB>",is being challenged by,,,,,,
null,"<div style=""font-size:60px;"">+</div>",,html-keyboard-response,223,1775492,0.0-15.0-0.13,3171,List2B,black,man,,,,null,,,,,,,,,
null,"<img src=""stim_listB/oppose1.gif""style=""height:400px;""></stim_listB>",,html-keyboard-response,224,1777503,0.0-15.0-1.13,3171,List2B,black,man,,,,null,,,,,,,,,
null,is opposing,,html-keyboard-response,225,1779507,0.0-15.0-2.13,3171,List2B,black,man,,,,null,,,,,,,,,
21170.7,,,survey-text,226,1800689,0.0-15.0-3.13,3171,List2B,black,man,,,,,"{""Q0"":""Dave is opposing jane""}","<img src=""stim_listB/oppose1.gif""style=""height:400px;""></stim_listB>",is opposing,,,,,,
null,"<div style=""font-size:60px;"">+</div>",,html-keyboard-response,227,1801196,0.0-15.0-0.14,3171,List2B,black,man,,,,null,,,,,,,,,
null,"<img src=""stim_listB/greet1.gif""style=""height:400px;""></stim_listB>",,html-keyboard-response,228,1803204,0.0-15.0-1.14,3171,List2B,black,man,,,,null,,,,,,,,,
null,is greeting,,html-keyboard-response,229,1805208,0.0-15.0-2.14,3171,List2B,black,man,,,,null,,,,,,,,,
19017.6,,,survey-text,230,1824245,0.0-15.0-3.14,3171,List2B,black,man,,,,,"{""Q0"":""Ruth is greeting dave""}","<img src=""stim_listB/greet1.gif""style=""height:400px;""></stim_listB>",is greeting,,,,,,
null,"<div style=""font-size:60px;"">+</div>",,html-keyboard-response,231,1824752,0.0-15.0-0.15,3171,List2B,black,man,,,,null,,,,,,,,,
null,"<img src=""stim_listB/oppose5.gif""style=""height:400px;""></stim_listB>",,html-keyboard-response,232,1826760,0.0-15.0-1.15,3171,List2B,black,man,,,,null,,,,,,,,,
null,is opposing,,html-keyboard-response,233,1828764,0.0-15.0-2.15,3171,List2B,black,man,,,,null,,,,,,,,,
18883.3,,,survey-text,234,1847667,0.0-15.0-3.15,3171,List2B,black,man,,,,,"{""Q0"":""Mike is opposing dave""}","<img src=""stim_listB/oppose5.gif""style=""height:400px;""></stim_listB>",is opposing,,,,,,
null,"<div style=""font-size:60px;"">+</div>",,html-keyboard-response,235,1848174,0.0-15.0-0.16,3171,List2B,black,man,,,,null,,,,,,,,,
null,"<img src=""stim_listB/challenge2.gif""style=""height:400px;""></stim_listB>",,html-keyboard-response,236,1850181,0.0-15.0-1.16,3171,List2B,black,man,,,,null,,,,,,,,,
null,is being challenged by,,html-keyboard-response,237,1852185,0.0-15.0-2.16,3171,List2B,black,man,,,,null,,,,,,,,,
22878.1,,,survey-text,238,1875082,0.0-15.0-3.16,3171,List2B,black,man,,,,,"{""Q0"":""Luke opposing jane""}","<img src=""stim_listB/challenge2.gif""style=""height:400px;""></stim_listB>",is being challenged by,,,,,,
null,"<div style=""font-size:60px;"">+</div>",,html-keyboard-response,239,1875588,0.0-15.0-0.17,3171,List2B,black,man,,,,null,,,,,,,,,
null,"<img src=""stim_listB/shout7.gif""style=""height:400px;""></stim_listB>",,html-keyboard-response,240,1877596,0.0-15.0-1.17,3171,List2B,black,man,,,,null,,,,,,,,,
null,is shouting at,,html-keyboard-response,241,1879600,0.0-15.0-2.17,3171,List2B,black,man,,,,null,,,,,,,,,
28536.6,,,survey-text,242,1908155,0.0-15.0-3.17,3171,List2B,black,man,,,,,"{""Q0"":""Beth and ruth is shouting""}","<img src=""stim_listB/shout7.gif""style=""height:400px;""></stim_listB>",is shouting at,,,,,,
null,"<div style=""font-size:60px;"">+</div>",,html-keyboard-response,243,1908662,0.0-15.0-0.18,3171,List2B,black,man,,,,null,,,,,,,,,
null,"<img src=""stim_listB/touch6.gif""style=""height:400px;""></stim_listB>",,html-keyboard-response,244,1910670,0.0-15.0-1.18,3171,List2B,black,man,,,,null,,,,,,,,,
null,is being touched by,,html-keyboard-response,245,1912674,0.0-15.0-2.18,3171,List2B,black,man,,,,null,,,,,,,,,
31390.8,,,survey-text,246,1944082,0.0-15.0-3.18,3171,List2B,black,man,,,,,"{""Q0"":""Fred is being touched by luke""}","<img src=""stim_listB/touch6.gif""style=""height:400px;""></stim_listB>",is being touched by,,,,,,
null,"<div style=""font-size:60px;"">+</div>",,html-keyboard-response,247,1944589,0.0-15.0-0.19,3171,List2B,black,man,,,,null,,,,,,,,,
null,"<img src=""stim_listB/greet4.gif""style=""height:400px;""></stim_listB>",,html-keyboard-response,248,1946600,0.0-15.0-1.19,3171,List2B,black,man,,,,null,,,,,,,,,
null,is being greeted by,,html-keyboard-response,249,1948605,0.0-15.0-2.19,3171,List2B,black,man,,,,null,,,,,,,,,
27156.4,,,survey-text,250,1975778,0.0-15.0-3.19,3171,List2B,black,man,,,,,"{""Q0"":""Beth is being greeted by fred""}","<img src=""stim_listB/greet4.gif""style=""height:400px;""></stim_listB>",is being greeted by,,,,,,
5091.4,"<img src='img/portrait_matrix_list2.jpg' style='width:900px;height:500px;''></img><p>If you have memorised all the portraits and names and are ready to start, press Continue.</p><p><strong>Please note: Your memory of these faces will be tested 4 times during this experiment.</strong></p>",0,html-button-response,251,1980879,0.0-16.0-0.0,3171,List2B,black,man,,,,,,,,,,,,,
11752.5,"<img src=""portrait/BW2.jpg""style=""height:400px;""></img>",2,html-button-response,252,1993644,0.0-16.0-1.0,3171,List2B,black,man,,TRUE,2,,,,,,,,,,
null,CORRECT,,html-keyboard-response,253,1995154,0.0-16.0-2.0-0.0,3171,List2B,black,man,,,,null,,,,,,,,,
9487.9,"<img src=""portrait/BM1.jpg""style=""height:400px;""></img>",4,html-button-response,254,2004651,0.0-16.0-4.0,3171,List2B,black,man,,TRUE,4,,,,,,,,,,
null,CORRECT,,html-keyboard-response,255,2006158,0.0-16.0-5.0-0.0,3171,List2B,black,man,,,,null,,,,,,,,,
7588.6,"<img src=""portrait/WW2.jpg""style=""height:400px;""></img>",3,html-button-response,256,2013755,0.0-16.0-7.0,3171,List2B,black,man,,TRUE,3,,,,,,,,,,
null,CORRECT,,html-keyboard-response,257,2015263,0.0-16.0-8.0-0.0,3171,List2B,black,man,,,,null,,,,,,,,,
12648.2,"<img src=""portrait/BW1.jpg""style=""height:400px;""></img>",0,html-button-response,258,2027920,0.0-16.0-10.0,3171,List2B,black,man,,TRUE,0,,,,,,,,,,
null,CORRECT,,html-keyboard-response,259,2029425,0.0-16.0-11.0-0.0,3171,List2B,black,man,,,,null,,,,,,,,,
10534.3,"<img src=""portrait/WM2.jpg""style=""height:400px;""></img>",7,html-button-response,260,2039966,0.0-16.0-13.0,3171,List2B,black,man,,TRUE,7,,,,,,,,,,
null,CORRECT,,html-keyboard-response,261,2041471,0.0-16.0-14.0-0.0,3171,List2B,black,man,,,,null,,,,,,,,,
6408,"<img src=""portrait/BM2.jpg""style=""height:400px;""></img>",5,html-button-response,262,2047885,0.0-16.0-16.0,3171,List2B,black,man,,TRUE,5,,,,,,,,,,
null,CORRECT,,html-keyboard-response,263,2049393,0.0-16.0-17.0-0.0,3171,List2B,black,man,,,,null,,,,,,,,,
8071.8,"<img src=""portrait/WW1.jpg""style=""height:400px;""></img>",1,html-button-response,264,2057474,0.0-16.0-19.0,3171,List2B,black,man,,TRUE,1,,,,,,,,,,
null,CORRECT,,html-keyboard-response,265,2058982,0.0-16.0-20.0-0.0,3171,List2B,black,man,,,,null,,,,,,,,,
12448.8,"<img src=""portrait/WM1.jpg""style=""height:400px;""></img>",6,html-button-response,266,2071440,0.0-16.0-22.0,3171,List2B,black,man,,TRUE,6,,,,,,,,,,
null,CORRECT,,html-keyboard-response,267,2072945,0.0-16.0-23.0-0.0,3171,List2B,black,man,,,,null,,,,,,,,,
5002.8,<p>You got 8 out of 8 right first time. Press Continue.</p>,0,html-button-response,268,2077954,0.0-16.0-25.0,3171,List2B,black,man,,,,,,,,,,,,,
null,"<div style=""font-size:60px;"">+</div>",,html-keyboard-response,269,2079464,0.0-17.0-0.0,3171,List2B,black,man,,,,null,,,,,,,,,
null,"<img src=""stim_listB/touch7.gif""style=""height:400px;""></stim_listB>",,html-keyboard-response,270,2081472,0.0-17.0-1.0,3171,List2B,black,man,,,,null,,,,,,,,,
null,is touching,,html-keyboard-response,271,2083478,0.0-17.0-2.0,3171,List2B,black,man,,,,null,,,,,,,,,
7999.9,,,survey-text,272,2091498,0.0-17.0-3.0,3171,List2B,black,man,,,,,"{""Q0"":""Not sure""}","<img src=""stim_listB/touch7.gif""style=""height:400px;""></stim_listB>",is touching,,,,,,
null,"<div style=""font-size:60px;"">+</div>",,html-keyboard-response,273,2092008,0.0-17.0-0.1,3171,List2B,black,man,,,,null,,,,,,,,,
null,"<img src=""stim_listB/seduce2.gif""style=""height:400px;""></stim_listB>",,html-keyboard-response,274,2094015,0.0-17.0-1.1,3171,List2B,black,man,,,,null,,,,,,,,,
null,is being seduced by,,html-keyboard-response,275,2096021,0.0-17.0-2.1,3171,List2B,black,man,,,,null,,,,,,,,,
23093.5,,,survey-text,276,2119130,0.0-17.0-3.1,3171,List2B,black,man,,,,,"{""Q0"":""Ruth is being seduced by dave""}","<img src=""stim_listB/seduce2.gif""style=""height:400px;""></stim_listB>",is being seduced by,,,,,,
null,"<div style=""font-size:60px;"">+</div>",,html-keyboard-response,277,2119636,0.0-17.0-0.2,3171,List2B,black,man,,,,null,,,,,,,,,
null,"<img src=""stim_listB/seduce8.gif""style=""height:400px;""></stim_listB>",,html-keyboard-response,278,2121646,0.0-17.0-1.2,3171,List2B,black,man,,,,null,,,,,,,,,
null,is being seduced by,,html-keyboard-response,279,2123654,0.0-17.0-2.2,3171,List2B,black,man,,,,null,,,,,,,,,
23722.3,,,survey-text,280,2147393,0.0-17.0-3.2,3171,List2B,black,man,,,,,"{""Q0"":""Beth being seduced by jane""}","<img src=""stim_listB/seduce8.gif""style=""height:400px;""></stim_listB>",is being seduced by,,,,,,
null,"<div style=""font-size:60px;"">+</div>",,html-keyboard-response,281,2147898,0.0-17.0-0.3,3171,List2B,black,man,,,,null,,,,,,,,,
null,"<img src=""stim_listB/challenge1.gif""style=""height:400px;""></stim_listB>",,html-keyboard-response,282,2149904,0.0-17.0-1.3,3171,List2B,black,man,,,,null,,,,,,,,,
null,is challenging,,html-keyboard-response,283,2151908,0.0-17.0-2.3,3171,List2B,black,man,,,,null,,,,,,,,,
25173.2,,,survey-text,284,2177097,0.0-17.0-3.3,3171,List2B,black,man,,,,,"{""Q0"":""Dave is challenging ruth""}","<img src=""stim_listB/challenge1.gif""style=""height:400px;""></stim_listB>",is challenging,,,,,,
null,"<div style=""font-size:60px;"">+</div>",,html-keyboard-response,285,2177605,0.0-17.0-0.4,3171,List2B,black,man,,,,null,,,,,,,,,
null,"<img src=""stim_listB/seduce4.gif""style=""height:400px;""></stim_listB>",,html-keyboard-response,286,2179615,0.0-17.0-1.4,3171,List2B,black,man,,,,null,,,,,,,,,
null,is being seduced by,,html-keyboard-response,287,2181619,0.0-17.0-2.4,3171,List2B,black,man,,,,null,,,,,,,,,
22402.7,,,survey-text,288,2204040,0.0-17.0-3.4,3171,List2B,black,man,,,,,"{""Q0"":""Beth being seduced by mike""}","<img src=""stim_listB/seduce4.gif""style=""height:400px;""></stim_listB>",is being seduced by,,,,,,
null,"<div style=""font-size:60px;"">+</div>",,html-keyboard-response,289,2204547,0.0-17.0-0.5,3171,List2B,black,man,,,,null,,,,,,,,,
null,"<img src=""stim_listB/hug8.gif""style=""height:400px;""></stim_listB>",,html-keyboard-response,290,2206555,0.0-17.0-1.5,3171,List2B,black,man,,,,null,,,,,,,,,
null,is being hugged by,,html-keyboard-response,291,2208559,0.0-17.0-2.5,3171,List2B,black,man,,,,null,,,,,,,,,
38896.8,,,survey-text,292,2247474,0.0-17.0-3.5,3171,List2B,black,man,,,,,"{""Q0"":""Kate being hugged  by jane""}","<img src=""stim_listB/hug8.gif""style=""height:400px;""></stim_listB>",is being hugged by,,,,,,
null,"<div style=""font-size:60px;"">+</div>",,html-keyboard-response,293,2247979,0.0-17.0-0.6,3171,List2B,black,man,,,,null,,,,,,,,,
null,"<img src=""stim_listB/shout3.gif""style=""height:400px;""></stim_listB>",,html-keyboard-response,294,2249987,0.0-17.0-1.6,3171,List2B,black,man,,,,null,,,,,,,,,
null,is shouting at,,html-keyboard-response,295,2251992,0.0-17.0-2.6,3171,List2B,black,man,,,,null,,,,,,,,,
22110.1,,,survey-text,296,2274120,0.0-17.0-3.6,3171,List2B,black,man,,,,,"{""Q0"":""Fred is shouting at beth""}","<img src=""stim_listB/shout3.gif""style=""height:400px;""></stim_listB>",is shouting at,,,,,,
null,"<div style=""font-size:60px;"">+</div>",,html-keyboard-response,297,2274626,0.0-17.0-0.7,3171,List2B,black,man,,,,null,,,,,,,,,
null,"<img src=""stim_listB/touch8.gif""style=""height:400px;""></stim_listB>",,html-keyboard-response,298,2276633,0.0-17.0-1.7,3171,List2B,black,man,,,,null,,,,,,,,,
null,is being touched by,,html-keyboard-response,299,2278638,0.0-17.0-2.7,3171,List2B,black,man,,,,null,,,,,,,,,
33335.9,,,survey-text,300,2311990,0.0-17.0-3.7,3171,List2B,black,man,,,,,"{""Q0"":""Beth being touched by ruth""}","<img src=""stim_listB/touch8.gif""style=""height:400px;""></stim_listB>",is being touched by,,,,,,
null,"<div style=""font-size:60px;"">+</div>",,html-keyboard-response,301,2312497,0.0-17.0-0.8,3171,List2B,black,man,,,,null,,,,,,,,,
null,"<img src=""stim_listB/touch1.gif""style=""height:400px;""></stim_listB>",,html-keyboard-response,302,2314507,0.0-17.0-1.8,3171,List2B,black,man,,,,null,,,,,,,,,
null,is touching,,html-keyboard-response,303,2316513,0.0-17.0-2.8,3171,List2B,black,man,,,,null,,,,,,,,,
21591.7,,,survey-text,304,2338123,0.0-17.0-3.8,3171,List2B,black,man,,,,,"{""Q0"":""Dave and jane is touching""}","<img src=""stim_listB/touch1.gif""style=""height:400px;""></stim_listB>",is touching,,,,,,
null,"<div style=""font-size:60px;"">+</div>",,html-keyboard-response,305,2338629,0.0-17.0-0.9,3171,List2B,black,man,,,,null,,,,,,,,,
null,"<img src=""stim_listB/seduce6.gif""style=""height:400px;""></stim_listB>",,html-keyboard-response,306,2340637,0.0-17.0-1.9,3171,List2B,black,man,,,,null,,,,,,,,,
null,is being seduced by,,html-keyboard-response,307,2342641,0.0-17.0-2.9,3171,List2B,black,man,,,,null,,,,,,,,,
19399.3,,,survey-text,308,2362057,0.0-17.0-3.9,3171,List2B,black,man,,,,,"{""Q0"":""Fred being seduced by dave""}","<img src=""stim_listB/seduce6.gif""style=""height:400px;""></stim_listB>",is being seduced by,,,,,,
null,"<div style=""font-size:60px;"">+</div>",,html-keyboard-response,309,2362564,0.0-17.0-0.10,3171,List2B,black,man,,,,null,,,,,,,,,
null,"<img src=""stim_listB/copy2.gif""style=""height:400px;""></stim_listB>",,html-keyboard-response,310,2364577,0.0-17.0-1.10,3171,List2B,black,man,,,,null,,,,,,,,,
null,is being copied by,,html-keyboard-response,311,2366584,0.0-17.0-2.10,3171,List2B,black,man,,,,null,,,,,,,,,
27186.7,,,survey-text,312,2393789,0.0-17.0-3.10,3171,List2B,black,man,,,,,"{""Q0"":""Luke is being copied by jane""}","<img src=""stim_listB/copy2.gif""style=""height:400px;""></stim_listB>",is being copied by,,,,,,
null,"<div style=""font-size:60px;"">+</div>",,html-keyboard-response,313,2394294,0.0-17.0-0.11,3171,List2B,black,man,,,,null,,,,,,,,,
null,"<img src=""stim_listB/greet2.gif""style=""height:400px;""></stim_listB>",,html-keyboard-response,314,2396303,0.0-17.0-1.11,3171,List2B,black,man,,,,null,,,,,,,,,
null,is being greeted by,,html-keyboard-response,315,2398307,0.0-17.0-2.11,3171,List2B,black,man,,,,null,,,,,,,,,
25975.4,,,survey-text,316,2424300,0.0-17.0-3.11,3171,List2B,black,man,,,,,"{""Q0"":""Luke is being greeted by jane""}","<img src=""stim_listB/greet2.gif""style=""height:400px;""></stim_listB>",is being greeted by,,,,,,
null,"<div style=""font-size:60px;"">+</div>",,html-keyboard-response,317,2424808,0.0-17.0-0.12,3171,List2B,black,man,,,,null,,,,,,,,,
null,"<img src=""stim_listB/copy4.gif""style=""height:400px;""></stim_listB>",,html-keyboard-response,318,2426819,0.0-17.0-1.12,3171,List2B,black,man,,,,null,,,,,,,,,
null,is being copied by,,html-keyboard-response,319,2428824,0.0-17.0-2.12,3171,List2B,black,man,,,,null,,,,,,,,,
20629.4,,,survey-text,320,2449464,0.0-17.0-3.12,3171,List2B,black,man,,,,,"{""Q0"":""Fred being copied  by kate""}","<img src=""stim_listB/copy4.gif""style=""height:400px;""></stim_listB>",is being copied by,,,,,,
null,"<div style=""font-size:60px;"">+</div>",,html-keyboard-response,321,2449969,0.0-17.0-0.13,3171,List2B,black,man,,,,null,,,,,,,,,
null,"<img src=""stim_listB/shout6.gif""style=""height:400px;""></stim_listB>",,html-keyboard-response,322,2451978,0.0-17.0-1.13,3171,List2B,black,man,,,,null,,,,,,,,,
null,is being shouted at by,,html-keyboard-response,323,2453982,0.0-17.0-2.13,3171,List2B,black,man,,,,null,,,,,,,,,
28374.3,,,survey-text,324,2482374,0.0-17.0-3.13,3171,List2B,black,man,,,,,"{""Q0"":""Dave and luke shouting""}","<img src=""stim_listB/shout6.gif""style=""height:400px;""></stim_listB>",is being shouted at by,,,,,,
null,"<div style=""font-size:60px;"">+</div>",,html-keyboard-response,325,2482884,0.0-17.0-0.14,3171,List2B,black,man,,,,null,,,,,,,,,
null,"<img src=""stim_listB/look6.gif""style=""height:400px;""></stim_listB>",,html-keyboard-response,326,2484893,0.0-17.0-1.14,3171,List2B,black,man,,,,null,,,,,,,,,
null,is being looked at by,,html-keyboard-response,327,2486897,0.0-17.0-2.14,3171,List2B,black,man,,,,null,,,,,,,,,
15229.3,,,survey-text,328,2502151,0.0-17.0-3.14,3171,List2B,black,man,,,,,"{""Q0"":""Mike is being looked at by dave""}","<img src=""stim_listB/look6.gif""style=""height:400px;""></stim_listB>",is being looked at by,,,,,,
null,"<div style=""font-size:60px;"">+</div>",,html-keyboard-response,329,2502658,0.0-17.0-0.15,3171,List2B,black,man,,,,null,,,,,,,,,
null,"<img src=""stim_listB/hug1.gif""style=""height:400px;""></stim_listB>",,html-keyboard-response,330,2504667,0.0-17.0-1.15,3171,List2B,black,man,,,,null,,,,,,,,,
null,is hugging,,html-keyboard-response,331,2506674,0.0-17.0-2.15,3171,List2B,black,man,,,,null,,,,,,,,,
25340.3,,,survey-text,332,2532033,0.0-17.0-3.15,3171,List2B,black,man,,,,,"{""Q0"":""Luke and ruth is hugging""}","<img src=""stim_listB/hug1.gif""style=""height:400px;""></stim_listB>",is hugging,,,,,,
null,"<div style=""font-size:60px;"">+</div>",,html-keyboard-response,333,2532540,0.0-17.0-0.16,3171,List2B,black,man,,,,null,,,,,,,,,
null,"<img src=""stim_listB/look2.gif""style=""height:400px;""></stim_listB>",,html-keyboard-response,334,2534548,0.0-17.0-1.16,3171,List2B,black,man,,,,null,,,,,,,,,
null,is being looked at by,,html-keyboard-response,335,2536551,0.0-17.0-2.16,3171,List2B,black,man,,,,null,,,,,,,,,
25259.6,,,survey-text,336,2561822,0.0-17.0-3.16,3171,List2B,black,man,,,,,"{""Q0"":""Dave being looked at by jane""}","<img src=""stim_listB/look2.gif""style=""height:400px;""></stim_listB>",is being looked at by,,,,,,
null,"<div style=""font-size:60px;"">+</div>",,html-keyboard-response,337,2562329,0.0-17.0-0.17,3171,List2B,black,man,,,,null,,,,,,,,,
null,"<img src=""stim_listB/challenge7.gif""style=""height:400px;""></stim_listB>",,html-keyboard-response,338,2564338,0.0-17.0-1.17,3171,List2B,black,man,,,,null,,,,,,,,,
null,is challenging,,html-keyboard-response,339,2566343,0.0-17.0-2.17,3171,List2B,black,man,,,,null,,,,,,,,,
22277.1,,,survey-text,340,2588631,0.0-17.0-3.17,3171,List2B,black,man,,,,,"{""Q0"":""Beth being challenged by jane""}","<img src=""stim_listB/challenge7.gif""style=""height:400px;""></stim_listB>",is challenging,,,,,,
null,"<div style=""font-size:60px;"">+</div>",,html-keyboard-response,341,2589137,0.0-17.0-0.18,3171,List2B,black,man,,,,null,,,,,,,,,
null,"<img src=""stim_listB/hug6.gif""style=""height:400px;""></stim_listB>",,html-keyboard-response,342,2591148,0.0-17.0-1.18,3171,List2B,black,man,,,,null,,,,,,,,,
null,is being hugged by,,html-keyboard-response,343,2593154,0.0-17.0-2.18,3171,List2B,black,man,,,,null,,,,,,,,,
12866.1,,,survey-text,344,2606036,0.0-17.0-3.18,3171,List2B,black,man,,,,,"{""Q0"":""Mike being hugged by dave""}","<img src=""stim_listB/hug6.gif""style=""height:400px;""></stim_listB>",is being hugged by,,,,,,
null,"<div style=""font-size:60px;"">+</div>",,html-keyboard-response,345,2606542,0.0-17.0-0.19,3171,List2B,black,man,,,,null,,,,,,,,,
null,"<img src=""stim_listB/look1.gif""style=""height:400px;""></stim_listB>",,html-keyboard-response,346,2608550,0.0-17.0-1.19,3171,List2B,black,man,,,,null,,,,,,,,,
null,is looking at,,html-keyboard-response,347,2610553,0.0-17.0-2.19,3171,List2B,black,man,,,,null,,,,,,,,,
21208,,,survey-text,348,2631773,0.0-17.0-3.19,3171,List2B,black,man,,,,,"{""Q0"":""Luke is looking at ruth""}","<img src=""stim_listB/look1.gif""style=""height:400px;""></stim_listB>",is looking at,,,,,,
7053.4,"<img src='img/portrait_matrix_list2.jpg' style='width:900px;height:500px;''></img><p>If you have memorised all the portraits and names and are ready to start, press Continue.</p><p><strong>Please note: Your memory of these faces will be tested 4 times during this experiment.</strong></p>",0,html-button-response,349,2638837,0.0-18.0-0.0,3171,List2B,black,man,,,,,,,,,,,,,
12420.8,"<img src=""portrait/BW1.jpg""style=""height:400px;""></img>",0,html-button-response,350,2652268,0.0-18.0-1.0,3171,List2B,black,man,,TRUE,0,,,,,,,,,,
null,CORRECT,,html-keyboard-response,351,2653783,0.0-18.0-2.0-0.0,3171,List2B,black,man,,,,null,,,,,,,,,
5059.2,"<img src=""portrait/BM1.jpg""style=""height:400px;""></img>",4,html-button-response,352,2658849,0.0-18.0-4.0,3171,List2B,black,man,,TRUE,4,,,,,,,,,,
null,CORRECT,,html-keyboard-response,353,2660357,0.0-18.0-5.0-0.0,3171,List2B,black,man,,,,null,,,,,,,,,
3326.6,"<img src=""portrait/BM2.jpg""style=""height:400px;""></img>",5,html-button-response,354,2663693,0.0-18.0-7.0,3171,List2B,black,man,,TRUE,5,,,,,,,,,,
null,CORRECT,,html-keyboard-response,355,2665200,0.0-18.0-8.0-0.0,3171,List2B,black,man,,,,null,,,,,,,,,
3946.1,"<img src=""portrait/WM2.jpg""style=""height:400px;""></img>",7,html-button-response,356,2669156,0.0-18.0-10.0,3171,List2B,black,man,,TRUE,7,,,,,,,,,,
null,CORRECT,,html-keyboard-response,357,2670665,0.0-18.0-11.0-0.0,3171,List2B,black,man,,,,null,,,,,,,,,
9492.7,"<img src=""portrait/WW2.jpg""style=""height:400px;""></img>",3,html-button-response,358,2680166,0.0-18.0-13.0,3171,List2B,black,man,,TRUE,3,,,,,,,,,,
null,CORRECT,,html-keyboard-response,359,2681674,0.0-18.0-14.0-0.0,3171,List2B,black,man,,,,null,,,,,,,,,
12380.3,"<img src=""portrait/WW1.jpg""style=""height:400px;""></img>",1,html-button-response,360,2694064,0.0-18.0-16.0,3171,List2B,black,man,,TRUE,1,,,,,,,,,,
null,CORRECT,,html-keyboard-response,361,2695572,0.0-18.0-17.0-0.0,3171,List2B,black,man,,,,null,,,,,,,,,
7454,"<img src=""portrait/BW2.jpg""style=""height:400px;""></img>",2,html-button-response,362,2703035,0.0-18.0-19.0,3171,List2B,black,man,,TRUE,2,,,,,,,,,,
null,CORRECT,,html-keyboard-response,363,2704544,0.0-18.0-20.0-0.0,3171,List2B,black,man,,,,null,,,,,,,,,
6666.5,"<img src=""portrait/WM1.jpg""style=""height:400px;""></img>",6,html-button-response,364,2711220,0.0-18.0-22.0,3171,List2B,black,man,,TRUE,6,,,,,,,,,,
null,CORRECT,,html-keyboard-response,365,2712727,0.0-18.0-23.0-0.0,3171,List2B,black,man,,,,null,,,,,,,,,
13516.9,<p>You got 8 out of 8 right first time. Press Continue.</p>,0,html-button-response,366,2726255,0.0-18.0-25.0,3171,List2B,black,man,,,,,,,,,,,,,
null,"<div style=""font-size:60px;"">+</div>",,html-keyboard-response,367,2727773,0.0-19.0-0.0,3171,List2B,black,man,,,,null,,,,,,,,,
null,"<img src=""stim_listB/copy5.gif""style=""height:400px;""></stim_listB>",,html-keyboard-response,368,2729781,0.0-19.0-1.0,3171,List2B,black,man,,,,null,,,,,,,,,
null,is copying,,html-keyboard-response,369,2731787,0.0-19.0-2.0,3171,List2B,black,man,,,,null,,,,,,,,,
22814.2,,,survey-text,370,2754620,0.0-19.0-3.0,3171,List2B,black,man,,,,,"{""Q0"":""Dave is copying fred""}","<img src=""stim_listB/copy5.gif""style=""height:400px;""></stim_listB>",is copying,,,,,,
null,"<div style=""font-size:60px;"">+</div>",,html-keyboard-response,371,2755131,0.0-19.0-0.1,3171,List2B,black,man,,,,null,,,,,,,,,
null,"<img src=""stim_listB/touch2.gif""style=""height:400px;""></stim_listB>",,html-keyboard-response,372,2757138,0.0-19.0-1.1,3171,List2B,black,man,,,,null,,,,,,,,,
null,is being touched by,,html-keyboard-response,373,2759144,0.0-19.0-2.1,3171,List2B,black,man,,,,null,,,,,,,,,
27593.3,,,survey-text,374,2786754,0.0-19.0-3.1,3171,List2B,black,man,,,,,"{""Q0"":""Luke is being touched by ruth""}","<img src=""stim_listB/touch2.gif""style=""height:400px;""></stim_listB>",is being touched by,,,,,,
null,"<div style=""font-size:60px;"">+</div>",,html-keyboard-response,375,2787261,0.0-19.0-0.2,3171,List2B,black,man,,,,null,,,,,,,,,
null,"<img src=""stim_listB/challenge8.gif""style=""height:400px;""></stim_listB>",,html-keyboard-response,376,2789270,0.0-19.0-1.2,3171,List2B,black,man,,,,null,,,,,,,,,
null,is being challenged by,,html-keyboard-response,377,2791276,0.0-19.0-2.2,3171,List2B,black,man,,,,null,,,,,,,,,
42187.9,,,survey-text,378,2833482,0.0-19.0-3.2,3171,List2B,black,man,,,,,"{""Q0"":""Kate is being challenged by ruth""}","<img src=""stim_listB/challenge8.gif""style=""height:400px;""></stim_listB>",is being challenged by,,,,,,
null,"<div style=""font-size:60px;"">+</div>",,html-keyboard-response,379,2833991,0.0-19.0-0.3,3171,List2B,black,man,,,,null,,,,,,,,,
null,"<img src=""stim_listB/kiss5.gif""style=""height:400px;""></stim_listB>",,html-keyboard-response,380,2836001,0.0-19.0-1.3,3171,List2B,black,man,,,,null,,,,,,,,,
null,is kissing,,html-keyboard-response,381,2838007,0.0-19.0-2.3,3171,List2B,black,man,,,,null,,,,,,,,,
20631.8,,,survey-text,382,2858663,0.0-19.0-3.3,3171,List2B,black,man,,,,,"{""Q0"":""Fred and luke is kissing""}","<img src=""stim_listB/kiss5.gif""style=""height:400px;""></stim_listB>",is kissing,,,,,,
null,"<div style=""font-size:60px;"">+</div>",,html-keyboard-response,383,2859171,0.0-19.0-0.4,3171,List2B,black,man,,,,null,,,,,,,,,
null,"<img src=""stim_listB/hug2.gif""style=""height:400px;""></stim_listB>",,html-keyboard-response,384,2861179,0.0-19.0-1.4,3171,List2B,black,man,,,,null,,,,,,,,,
null,is being hugged by,,html-keyboard-response,385,2863184,0.0-19.0-2.4,3171,List2B,black,man,,,,null,,,,,,,,,
22898.6,,,survey-text,386,2886102,0.0-19.0-3.4,3171,List2B,black,man,,,,,"{""Q0"":""Dave is being hugged by jane""}","<img src=""stim_listB/hug2.gif""style=""height:400px;""></stim_listB>",is being hugged by,,,,,,
null,"<div style=""font-size:60px;"">+</div>",,html-keyboard-response,387,2886625,0.0-19.0-0.5,3171,List2B,black,man,,,,null,,,,,,,,,
null,"<img src=""stim_listB/hug3.gif""style=""height:400px;""></stim_listB>",,html-keyboard-response,388,2888635,0.0-19.0-1.5,3171,List2B,black,man,,,,null,,,,,,,,,
null,is hugging,,html-keyboard-response,389,2890640,0.0-19.0-2.5,3171,List2B,black,man,,,,null,,,,,,,,,
20527.4,,,survey-text,390,2911178,0.0-19.0-3.5,3171,List2B,black,man,,,,,"{""Q0"":""Fred and beth is hugging""}","<img src=""stim_listB/hug3.gif""style=""height:400px;""></stim_listB>",is hugging,,,,,,
null,"<div style=""font-size:60px;"">+</div>",,html-keyboard-response,391,2911682,0.0-19.0-0.6,3171,List2B,black,man,,,,null,,,,,,,,,
null,"<img src=""stim_listB/kiss8.gif""style=""height:400px;""></stim_listB>",,html-keyboard-response,392,2913688,0.0-19.0-1.6,3171,List2B,black,man,,,,null,,,,,,,,,
null,is being kissed by,,html-keyboard-response,393,2915691,0.0-19.0-2.6,3171,List2B,black,man,,,,null,,,,,,,,,
22320.7,,,survey-text,394,2938024,0.0-19.0-3.6,3171,List2B,black,man,,,,,"{""Q0"":""Kate being kissed by jane""}","<img src=""stim_listB/kiss8.gif""style=""height:400px;""></stim_listB>",is being kissed by,,,,,,
null,"<div style=""font-size:60px;"">+</div>",,html-keyboard-response,395,2938530,0.0-19.0-0.7,3171,List2B,black,man,,,,null,,,,,,,,,
null,"<img src=""stim_listB/copy3.gif""style=""height:400px;""></stim_listB>",,html-keyboard-response,396,2940539,0.0-19.0-1.7,3171,List2B,black,man,,,,null,,,,,,,,,
null,is copying,,html-keyboard-response,397,2942544,0.0-19.0-2.7,3171,List2B,black,man,,,,null,,,,,,,,,
18932.1,,,survey-text,398,2961485,0.0-19.0-3.7,3171,List2B,black,man,,,,,"{""Q0"":""Mike is copying  beth""}","<img src=""stim_listB/copy3.gif""style=""height:400px;""></stim_listB>",is copying,,,,,,
null,"<div style=""font-size:60px;"">+</div>",,html-keyboard-response,399,2961998,0.0-19.0-0.8,3171,List2B,black,man,,,,null,,,,,,,,,
null,"<img src=""stim_listB/challenge3.gif""style=""height:400px;""></stim_listB>",,html-keyboard-response,400,2964007,0.0-19.0-1.8,3171,List2B,black,man,,,,null,,,,,,,,,
null,is challenging,,html-keyboard-response,401,2966012,0.0-19.0-2.8,3171,List2B,black,man,,,,null,,,,,,,,,
28932.1,,,survey-text,402,2994957,0.0-19.0-3.8,3171,List2B,black,man,,,,,"{""Q0"":""Mike is challenging  beth""}","<img src=""stim_listB/challenge3.gif""style=""height:400px;""></stim_listB>",is challenging,,,,,,
null,"<div style=""font-size:60px;"">+</div>",,html-keyboard-response,403,2995464,0.0-19.0-0.9,3171,List2B,black,man,,,,null,,,,,,,,,
null,"<img src=""stim_listB/copy6.gif""style=""height:400px;""></stim_listB>",,html-keyboard-response,404,2997474,0.0-19.0-1.9,3171,List2B,black,man,,,,null,,,,,,,,,
null,is being copied by,,html-keyboard-response,405,2999481,0.0-19.0-2.9,3171,List2B,black,man,,,,null,,,,,,,,,
22575.1,,,survey-text,406,3022074,0.0-19.0-3.9,3171,List2B,black,man,,,,,"{""Q0"":""Mike is being copied by luke""}","<img src=""stim_listB/copy6.gif""style=""height:400px;""></stim_listB>",is being copied by,,,,,,
null,"<div style=""font-size:60px;"">+</div>",,html-keyboard-response,407,3022580,0.0-19.0-0.10,3171,List2B,black,man,,,,null,,,,,,,,,
null,"<img src=""stim_listB/challenge4.gif""style=""height:400px;""></stim_listB>",,html-keyboard-response,408,3024589,0.0-19.0-1.10,3171,List2B,black,man,,,,null,,,,,,,,,
null,is being challenged by,,html-keyboard-response,409,3026595,0.0-19.0-2.10,3171,List2B,black,man,,,,null,,,,,,,,,
30483.8,,,survey-text,410,3057099,0.0-19.0-3.10,3171,List2B,black,man,,,,,"{""Q0"":""Fred is being copied  by Kate ""}","<img src=""stim_listB/challenge4.gif""style=""height:400px;""></stim_listB>",is being challenged by,,,,,,
null,"<div style=""font-size:60px;"">+</div>",,html-keyboard-response,411,3057607,0.0-19.0-0.11,3171,List2B,black,man,,,,null,,,,,,,,,
null,"<img src=""stim_listB/greet3.gif""style=""height:400px;""></stim_listB>",,html-keyboard-response,412,3059616,0.0-19.0-1.11,3171,List2B,black,man,,,,null,,,,,,,,,
null,is greeting,,html-keyboard-response,413,3061621,0.0-19.0-2.11,3171,List2B,black,man,,,,null,,,,,,,,,
38943.9,,,survey-text,414,3100583,0.0-19.0-3.11,3171,List2B,black,man,,,,,"{""Q0"":""Mike is greeting beth""}","<img src=""stim_listB/greet3.gif""style=""height:400px;""></stim_listB>",is greeting,,,,,,
null,"<div style=""font-size:60px;"">+</div>",,html-keyboard-response,415,3101097,0.0-19.0-0.12,3171,List2B,black,man,,,,null,,,,,,,,,
null,"<img src=""stim_listB/oppose4.gif""style=""height:400px;""></stim_listB>",,html-keyboard-response,416,3103108,0.0-19.0-1.12,3171,List2B,black,man,,,,null,,,,,,,,,
null,is being opposed by,,html-keyboard-response,417,3105115,0.0-19.0-2.12,3171,List2B,black,man,,,,null,,,,,,,,,
18547.2,,,survey-text,418,3123675,0.0-19.0-3.12,3171,List2B,black,man,,,,,"{""Q0"":""Beth is being opposed by fred""}","<img src=""stim_listB/oppose4.gif""style=""height:400px;""></stim_listB>",is being opposed by,,,,,,
null,"<div style=""font-size:60px;"">+</div>",,html-keyboard-response,419,3124181,0.0-19.0-0.13,3171,List2B,black,man,,,,null,,,,,,,,,
null,"<img src=""stim_listB/shout4.gif""style=""height:400px;""></stim_listB>",,html-keyboard-response,420,3126190,0.0-19.0-1.13,3171,List2B,black,man,,,,null,,,,,,,,,
null,is being shouted at by,,html-keyboard-response,421,3128195,0.0-19.0-2.13,3171,List2B,black,man,,,,null,,,,,,,,,
32812.1,,,survey-text,422,3161026,0.0-19.0-3.13,3171,List2B,black,man,,,,,"{""Q0"":""Mike is being shouted at by beth""}","<img src=""stim_listB/shout4.gif""style=""height:400px;""></stim_listB>",is being shouted at by,,,,,,
null,"<div style=""font-size:60px;"">+</div>",,html-keyboard-response,423,3161534,0.0-19.0-0.14,3171,List2B,black,man,,,,null,,,,,,,,,
null,"<img src=""stim_listB/shout1.gif""style=""height:400px;""></stim_listB>",,html-keyboard-response,424,3163543,0.0-19.0-1.14,3171,List2B,black,man,,,,null,,,,,,,,,
null,is shouting at,,html-keyboard-response,425,3165549,0.0-19.0-2.14,3171,List2B,black,man,,,,null,,,,,,,,,
25786.4,,,survey-text,426,3191353,0.0-19.0-3.14,3171,List2B,black,man,,,,,"{""Q0"":""Luke is shouting at ruth""}","<img src=""stim_listB/shout1.gif""style=""height:400px;""></stim_listB>",is shouting at,,,,,,
null,"<div style=""font-size:60px;"">+</div>",,html-keyboard-response,427,3191857,0.0-19.0-0.15,3171,List2B,black,man,,,,null,,,,,,,,,
null,"<img src=""stim_listB/kiss4.gif""style=""height:400px;""></stim_listB>",,html-keyboard-response,428,3193865,0.0-19.0-1.15,3171,List2B,black,man,,,,null,,,,,,,,,
null,is being kissed by,,html-keyboard-response,429,3195871,0.0-19.0-2.15,3171,List2B,black,man,,,,null,,,,,,,,,
22032.4,,,survey-text,430,3217924,0.0-19.0-3.15,3171,List2B,black,man,,,,,"{""Q0"":""Kate is being kissed by mike""}","<img src=""stim_listB/kiss4.gif""style=""height:400px;""></stim_listB>",is being kissed by,,,,,,
null,"<div style=""font-size:60px;"">+</div>",,html-keyboard-response,431,3218431,0.0-19.0-0.16,3171,List2B,black,man,,,,null,,,,,,,,,
null,"<img src=""stim_listB/shout8.gif""style=""height:400px;""></stim_listB>",,html-keyboard-response,432,3220440,0.0-19.0-1.16,3171,List2B,black,man,,,,null,,,,,,,,,
null,is being shouted at by,,html-keyboard-response,433,3222443,0.0-19.0-2.16,3171,List2B,black,man,,,,null,,,,,,,,,
21839.8,,,survey-text,434,3244299,0.0-19.0-3.16,3171,List2B,black,man,,,,,"{""Q0"":""Jane is being shouted at by kate""}","<img src=""stim_listB/shout8.gif""style=""height:400px;""></stim_listB>",is being shouted at by,,,,,,
null,"<div style=""font-size:60px;"">+</div>",,html-keyboard-response,435,3244807,0.0-19.0-0.17,3171,List2B,black,man,,,,null,,,,,,,,,
null,"<img src=""stim_listB/copy7.gif""style=""height:400px;""></stim_listB>",,html-keyboard-response,436,3246817,0.0-19.0-1.17,3171,List2B,black,man,,,,null,,,,,,,,,
null,is copying,,html-keyboard-response,437,3248822,0.0-19.0-2.17,3171,List2B,black,man,,,,null,,,,,,,,,
21451.9,,,survey-text,438,3270285,0.0-19.0-3.17,3171,List2B,black,man,,,,,"{""Q0"":""Beth is copying jane""}","<img src=""stim_listB/copy7.gif""style=""height:400px;""></stim_listB>",is copying,,,,,,
null,"<div style=""font-size:60px;"">+</div>",,html-keyboard-response,439,3270791,0.0-19.0-0.18,3171,List2B,black,man,,,,null,,,,,,,,,
null,"<img src=""stim_listB/oppose3.gif""style=""height:400px;""></stim_listB>",,html-keyboard-response,440,3272800,0.0-19.0-1.18,3171,List2B,black,man,,,,null,,,,,,,,,
null,is opposing,,html-keyboard-response,441,3274805,0.0-19.0-2.18,3171,List2B,black,man,,,,null,,,,,,,,,
15715.2,,,survey-text,442,3290542,0.0-19.0-3.18,3171,List2B,black,man,,,,,"{""Q0"":""Mike is opposing beth""}","<img src=""stim_listB/oppose3.gif""style=""height:400px;""></stim_listB>",is opposing,,,,,,
null,"<div style=""font-size:60px;"">+</div>",,html-keyboard-response,443,3291049,0.0-19.0-0.19,3171,List2B,black,man,,,,null,,,,,,,,,
null,"<img src=""stim_listB/copy8.gif""style=""height:400px;""></stim_listB>",,html-keyboard-response,444,3293058,0.0-19.0-1.19,3171,List2B,black,man,,,,null,,,,,,,,,
null,is being copied by,,html-keyboard-response,445,3295064,0.0-19.0-2.19,3171,List2B,black,man,,,,null,,,,,,,,,
14986.7,,,survey-text,446,3310068,0.0-19.0-3.19,3171,List2B,black,man,,,,,"{""Q0"":""Not sure""}","<img src=""stim_listB/copy8.gif""style=""height:400px;""></stim_listB>",is being copied by,,,,,,
6646.3,<p>Thank you for completing that task.</p><p>The final part of this session is a questionnaire that will take about 4 minutes.</p><p>Press Continue.</p>,0,html-button-response,447,3316722,0.0-20.0,3171,List2B,black,man,,,,,,,,,,,,,
59541.7,,,survey-text,448,3377314,0.0-21.0,3171,List2B,black,man,,,,,"{""Q0"":""33"",""Q1"":""English"",""Q2"":""English"",""Q3"":""Us"",""Q4"":""American"",""Q5"":""Black"",""Q6"":""Male""}",,,demographics,,,,,
11846.4,<p>Have you lived in the USA for the last 5 years or more?</p>,0,html-button-response,449,3389172,0.0-22.0,3171,List2B,black,man,,,,,,,,fiveyears,,,,,
7612.3,<p>Move the slider to show the extent to which you agree with the following statements.</p>,0,html-button-response,450,3397793,0.0-23.0,3171,List2B,black,man,,,,,,,,,,,,,
4172,,,html-slider-response,451,3402987,0.0-24.0-0.0-0.0,3171,List2B,black,man,,,,,,,,survey_race,60,,,I consider myself an extrovert.,filler
6423.8,,,html-slider-response,452,3409419,0.0-24.0-0.0-0.1,3171,List2B,black,man,,,,,,,,survey_race,38,,,Being my race gives me a good feeling.,feeling
7340.4,,,html-slider-response,453,3416768,0.0-24.0-0.0-0.2,3171,List2B,black,man,,,,,,,,survey_race,46,,,I feel solidarity with people the same age as me.,filler
3750.5,,,html-slider-response,454,3420527,0.0-24.0-0.0-0.3,3171,List2B,black,man,,,,,,,,survey_race,63,,,I feel a bond with my race.,bond
6723.3,,,html-slider-response,455,3427259,0.0-24.0-0.0-0.4,3171,List2B,black,man,,,,,,,,survey_race,65,,,I am glad to be the age I am.,filler
3867.1,,,html-slider-response,456,3431135,0.0-24.0-0.0-0.5,3171,List2B,black,man,,,,,,,,survey_race,42,,,I feel solidarity with my race.,solidarity
4788.3,,,html-slider-response,457,3435930,0.0-24.0-0.0-0.6,3171,List2B,black,man,,,,,,,,survey_race,39,,,People my age have a lot in common with each other.,filler
3515.6,,,html-slider-response,458,3439455,0.0-24.0-0.0-0.7,3171,List2B,black,man,,,,,,,,survey_race,42,,,I consider myself an introvert.,filler
4951.8,,,html-slider-response,459,3444415,0.0-24.0-0.0-0.8,3171,List2B,black,man,,,,,,,,survey_race,60,,,It is pleasant to be my race.,pleasant
3834.8,,,html-slider-response,460,3448259,0.0-24.0-0.0-0.9,3171,List2B,black,man,,,,,,,,survey_race,59,,,Being my race is an important part of how I see myself.,important
4919.5,,,html-slider-response,461,3453187,0.0-24.0-0.0-0.10,3171,List2B,black,man,,,,,,,,survey_race,56,,,The fact that I am my race is an important part of my identity.,identity
8812.3,,,html-slider-response,462,3462007,0.0-24.0-0.0-0.11,3171,List2B,black,man,,,,,,,,survey_race,53,,,I often think about the fact that I am my age.,filler
5937,,,html-slider-response,463,3467955,0.0-24.0-0.0-0.12,3171,List2B,black,man,,,,,,,,survey_race,64,,,I have a lot in common with the average person of my race.,average
5035.5,,,html-slider-response,464,3472999,0.0-24.0-0.0-0.13,3171,List2B,black,man,,,,,,,,survey_race,37,,,I have a lot in common with people of a similar age to me.,filler
4635.6,,,html-slider-response,465,3477643,0.0-24.0-0.0-0.14,3171,List2B,black,man,,,,,,,,survey_race,60,,,I think that my race has a lot to be proud of.,proud
3282.1,,,html-slider-response,466,3480934,0.0-24.0-0.0-0.15,3171,List2B,black,man,,,,,,,,survey_race,52,,,People of my race are very similar to each other.,verysimilar
8762.2,,,html-slider-response,467,3489704,0.0-24.0-0.0-0.16,3171,List2B,black,man,,,,,,,,survey_race,51,,,Being my age gives me a good feeling.,filler
6289.8,,,html-slider-response,468,3496003,0.0-24.0-0.0-0.17,3171,List2B,black,man,,,,,,,,survey_race,26,,,My age is not an important part of who I am.,filler
5737.9,,,html-slider-response,469,3501749,0.0-24.0-0.0-0.18,3171,List2B,black,man,,,,,,,,survey_race,59,,,I often think about the fact that I am my race.,often
3783.6,,,html-slider-response,470,3505541,0.0-24.0-0.0-0.19,3171,List2B,black,man,,,,,,,,survey_race,40,,,I enjoy being in large groups.,filler
3567.9,,,html-slider-response,471,3509115,0.0-24.0-0.0-0.20,3171,List2B,black,man,,,,,,,,survey_race,57,,,I feel committed to my race.,committed
5838.3,,,html-slider-response,472,3514962,0.0-24.0-0.0-0.21,3171,List2B,black,man,,,,,,,,survey_race,32,,,I am similar to the average person of my race.,similar
3834.8,,,html-slider-response,473,3518805,0.0-24.0-0.0-0.22,3171,List2B,black,man,,,,,,,,survey_race,56,,,Getting older does not worry me.,filler
3132.1,,,html-slider-response,474,3521945,0.0-24.0-0.0-0.23,3171,List2B,black,man,,,,,,,,survey_race,32,,,I feel a bond with people the same age as me.,filler
5671.7,,,html-slider-response,475,3527625,0.0-24.0-0.0-0.24,3171,List2B,black,man,,,,,,,,survey_race,51,,,I am glad to be my age.,filler
3499.9,,,html-slider-response,476,3531133,0.0-24.0-0.0-0.25,3171,List2B,black,man,,,,,,,,survey_race,56,,,I am glad to be my race.,glad
4618.1,,,html-slider-response,477,3535759,0.0-24.0-0.0-0.26,3171,List2B,black,man,,,,,,,,survey_race,52,,,People of my race have a lot in common with each other.,common
3369.7,,,html-slider-response,478,3539136,0.0-24.0-0.0-0.27,3171,List2B,black,man,,,,,,,,survey_race,57,,,"The older I get, the wiser I feel.",filler
5137.9,,,html-slider-response,479,3544281,0.0-24.0-1.0-0.0,3171,List2B,black,man,,,,,,,,survey_gender,80,,,Being my gender is an important part of how I see myself.,important
5437.3,,,html-slider-response,480,3549727,0.0-24.0-1.0-0.1,3171,List2B,black,man,,,,,,,,survey_gender,78,,,I feel a bond with my friends.,filler
4551.8,,,html-slider-response,481,3554287,0.0-24.0-1.0-0.2,3171,List2B,black,man,,,,,,,,survey_gender,54,,,Most of the friends in my life are very similar to me.,filler
3099.6,,,html-slider-response,482,3557395,0.0-24.0-1.0-0.3,3171,List2B,black,man,,,,,,,,survey_gender,72,,,My friends understand me.,filler
4202.6,,,html-slider-response,483,3561604,0.0-24.0-1.0-0.4,3171,List2B,black,man,,,,,,,,survey_gender,67,,,I feel solidarity with my friends.,filler
4100.8,,,html-slider-response,484,3565712,0.0-24.0-1.0-0.5,3171,List2B,black,man,,,,,,,,survey_gender,39,,,People of my gender have a lot in common with each other.,common
3416.6,,,html-slider-response,485,3569137,0.0-24.0-1.0-0.6,3171,List2B,black,man,,,,,,,,survey_gender,60,,,It is pleasant to be my gender.,pleasant
5590.4,,,html-slider-response,486,3574735,0.0-24.0-1.0-0.7,3171,List2B,black,man,,,,,,,,survey_gender,56,,,Routine is not important to me.,filler
3950.6,,,html-slider-response,487,3578694,0.0-24.0-1.0-0.8,3171,List2B,black,man,,,,,,,,survey_gender,56,,,My friends have a lot in common with each other.,filler
5104.4,,,html-slider-response,488,3583806,0.0-24.0-1.0-0.9,3171,List2B,black,man,,,,,,,,survey_gender,54,,,People of my gender are very similar to each other.,verysimilar
2430.3,,,html-slider-response,489,3586245,0.0-24.0-1.0-0.10,3171,List2B,black,man,,,,,,,,survey_gender,56,,,I would say I am an animal person.,filler
8874.1,,,html-slider-response,490,3595132,0.0-24.0-1.0-0.11,3171,List2B,black,man,,,,,,,,survey_gender,62,,,The fact that I am my gender is an important part of my identity.,identity
4936.6,,,html-slider-response,491,3600077,0.0-24.0-1.0-0.12,3171,List2B,black,man,,,,,,,,survey_gender,67,,,I am glad to be my gender.,glad
4836.4,,,html-slider-response,492,3604921,0.0-24.0-1.0-0.13,3171,List2B,black,man,,,,,,,,survey_gender,70,,,I have a lot in common with my friends.,filler
4534.9,,,html-slider-response,493,3609465,0.0-24.0-1.0-0.14,3171,List2B,black,man,,,,,,,,survey_gender,70,,,I consider myself a highly empathetic person.,filler
6239.9,,,html-slider-response,494,3615713,0.0-24.0-1.0-0.15,3171,List2B,black,man,,,,,,,,survey_gender,63,,,It is not always easy for people to know what I am thinking.,filler
3549.9,,,html-slider-response,495,3619271,0.0-24.0-1.0-0.16,3171,List2B,black,man,,,,,,,,survey_gender,66,,,Being my gender gives me a good feeling.,feeling
10766,,,html-slider-response,496,3630046,0.0-24.0-1.0-0.17,3171,List2B,black,man,,,,,,,,survey_gender,21,,,Family is not more important to me than friendship.,filler
5020.7,,,html-slider-response,497,3635076,0.0-24.0-1.0-0.18,3171,List2B,black,man,,,,,,,,survey_gender,20,,,I often think about the fact that I am my gender.,often
5018.5,,,html-slider-response,498,3640102,0.0-24.0-1.0-0.19,3171,List2B,black,man,,,,,,,,survey_gender,89,,,I feel committed to my gender.,committed
4300,,,html-slider-response,499,3644414,0.0-24.0-1.0-0.20,3171,List2B,black,man,,,,,,,,survey_gender,85,,,I think that my gender has a lot to be proud of.,proud
4685.2,,,html-slider-response,500,3649107,0.0-24.0-1.0-0.21,3171,List2B,black,man,,,,,,,,survey_gender,36,,,I am similar to the average person of my gender.,similar
4520.4,,,html-slider-response,501,3653635,0.0-24.0-1.0-0.22,3171,List2B,black,man,,,,,,,,survey_gender,79,,,I often think about my actions.,filler
4702.6,,,html-slider-response,502,3658346,0.0-24.0-1.0-0.23,3171,List2B,black,man,,,,,,,,survey_gender,78,,,Being around my friends gives me a good feeling.,filler
5136.1,,,html-slider-response,503,3663490,0.0-24.0-1.0-0.24,3171,List2B,black,man,,,,,,,,survey_gender,46,,,I have a lot in common with the average person of my gender.,average
3850.5,,,html-slider-response,504,3667349,0.0-24.0-1.0-0.25,3171,List2B,black,man,,,,,,,,survey_gender,67,,,I am glad to have the friends that I have.,filler
4953.8,,,html-slider-response,505,3672310,0.0-24.0-1.0-0.26,3171,List2B,black,man,,,,,,,,survey_gender,70,,,I feel solidarity with my gender.,solidarity
4419.1,,,html-slider-response,506,3676738,0.0-24.0-1.0-0.27,3171,List2B,black,man,,,,,,,,survey_gender,67,,,I feel a bond with my gender.,bond
7830.6,,,survey-text,507,3684586,0.0-25.0,3171,List2B,black,man,,,,,"{""Q0"":""ccc""}",,,worker_id,,,,,
18288,,,external-html,508,3703483,0.0-26.0,3171,List2B,black,man,debrief.html,,,,,,,,,,,,
