rt,stimulus,button_pressed,trial_type,trial_index,time_elapsed,internal_node_id,subject,list,ppt_race,ppt_gender,url,first_guess,correct,key_press,responses,image_type,phrase_type,test_part,response,stimulus1,stimulus2,question_type,survey_item
4767.8,Welcome to the experiment. Press Continue to begin.,0,html-button-response,0,4783,0.0-0.0,32389,List2A,black,man,,,,,,,,,,,,,
137013.4,,,external-html,1,143539,0.0-1.0,32389,List2A,black,man,consent.html,,,,,,,,,,,,
15920.9,"<p>On the next page, you will see portraits of 8 people and their names.</p><p>Your first task is to take a few minutes to memorise the names of these people.</p><p>You will have to recall their names during the rest of the experiment, so it is</p><p>essential that you try to memorise these people and their names as best as you can.</p><br><p><strong>You will then be tested on your memory of these names and portraits.</strong></p><br><p>The experiment will start after you have completed this memory test.</p><br><p>Ready?</p>",0,html-button-response,2,159470,0.0-2.0,32389,List2A,black,man,,,,,,,,,,,,,
41437.6,"<img src='img/portrait_matrix_list2.jpg' style='width:900px;height:500px;''></img><p>If you have memorised all the portraits and names and are ready to start, press Continue.</p><p><strong>Please note: Your memory of these faces will be tested 4 times during this experiment.</strong></p>",0,html-button-response,3,201920,0.0-3.0-0.0,32389,List2A,black,man,,,,,,,,,,,,,
18790.3,"<img src=""portrait/BM1.jpg""style=""height:400px;""></img>",4,html-button-response,4,221725,0.0-3.0-1.0,32389,List2A,black,man,,TRUE,4,,,,,,,,,,
null,CORRECT,,html-keyboard-response,5,223241,0.0-3.0-2.0-0.0,32389,List2A,black,man,,,,null,,,,,,,,,
11645.1,"<img src=""portrait/BM2.jpg""style=""height:400px;""></img>",5,html-button-response,6,234896,0.0-3.0-4.0,32389,List2A,black,man,,TRUE,5,,,,,,,,,,
null,CORRECT,,html-keyboard-response,7,236404,0.0-3.0-5.0-0.0,32389,List2A,black,man,,,,null,,,,,,,,,
9129.1,"<img src=""portrait/BW1.jpg""style=""height:400px;""></img>",0,html-button-response,8,245542,0.0-3.0-7.0,32389,List2A,black,man,,TRUE,0,,,,,,,,,,
null,CORRECT,,html-keyboard-response,9,247050,0.0-3.0-8.0-0.0,32389,List2A,black,man,,,,null,,,,,,,,,
10682.2,"<img src=""portrait/WM2.jpg""style=""height:400px;""></img>",7,html-button-response,10,257741,0.0-3.0-10.0,32389,List2A,black,man,,TRUE,7,,,,,,,,,,
null,CORRECT,,html-keyboard-response,11,259249,0.0-3.0-11.0-0.0,32389,List2A,black,man,,,,null,,,,,,,,,
13191.5,"<img src=""portrait/WW1.jpg""style=""height:400px;""></img>",1,html-button-response,12,272449,0.0-3.0-13.0,32389,List2A,black,man,,TRUE,1,,,,,,,,,,
null,CORRECT,,html-keyboard-response,13,273958,0.0-3.0-14.0-0.0,32389,List2A,black,man,,,,null,,,,,,,,,
9093.4,"<img src=""portrait/WW2.jpg""style=""height:400px;""></img>",3,html-button-response,14,283062,0.0-3.0-16.0,32389,List2A,black,man,,TRUE,3,,,,,,,,,,
null,CORRECT,,html-keyboard-response,15,284570,0.0-3.0-17.0-0.0,32389,List2A,black,man,,,,null,,,,,,,,,
10885.5,"<img src=""portrait/WM1.jpg""style=""height:400px;""></img>",6,html-button-response,16,295467,0.0-3.0-19.0,32389,List2A,black,man,,TRUE,6,,,,,,,,,,
null,CORRECT,,html-keyboard-response,17,296976,0.0-3.0-20.0-0.0,32389,List2A,black,man,,,,null,,,,,,,,,
8373.9,"<img src=""portrait/BW2.jpg""style=""height:400px;""></img>",2,html-button-response,18,305361,0.0-3.0-22.0,32389,List2A,black,man,,TRUE,2,,,,,,,,,,
null,CORRECT,,html-keyboard-response,19,306870,0.0-3.0-23.0-0.0,32389,List2A,black,man,,,,null,,,,,,,,,
9370.9,<p>You got 8 out of 8 right first time. Press Continue.</p>,0,html-button-response,20,316254,0.0-3.0-25.0,32389,List2A,black,man,,,,,,,,,,,,,
122667.4,"<p>In this experiment, you will view photographs of the people from the memory game interacting.</p><p>By using the <strong>exact</strong> phrase given <i>after</i> the photograph appears and recalling the correct names of the people in the photographs, form a sentence describing the interaction. You do not need to capitalise names.</p><p>Type your answer in the space provided. Please complete every sentence before moving onto the next trial.</p><p>You will only have a few seconds to memorise each given photograph and phrase before you can respond, so try your best to focus.</p><p>An example is given below. Press 'Continue' when you are ready.</p><img src='img/speaking_example.jpg' style='width:800px;height:460px;''></img>",0,html-button-response,21,439941,0.0-4.0,32389,List2A,black,man,,,,,,,,,,,,,
10285.6,"<p>Before the experiment starts, you will watch two example trials. Press 'Continue'.</p>",0,html-button-response,22,451234,0.0-5.0,32389,List2A,black,man,,,,,,,,,,,,,
null,<img src='img/play_eg.gif' style='height:400px;''></img>,,html-keyboard-response,23,454245,0.0-6.0,32389,List2A,black,man,,,,null,,,,,,,,,
null,<p>is playing with</p>,,html-keyboard-response,24,456251,0.0-7.0,32389,List2A,black,man,,,,null,,,,,,,,,
4320.7,<p><b>Answer:</b> jane is playing with ruth</p>,0,html-button-response,25,460580,0.0-8.0,32389,List2A,black,man,,,,,,,,,,,,,
null,<img src='img/dance_eg.gif' style='height:400px;''></img>,,html-keyboard-response,26,463588,0.0-9.0,32389,List2A,black,man,,,,null,,,,,,,,,
null,<p>is being entertained by</p>,,html-keyboard-response,27,465595,0.0-10.0,32389,List2A,black,man,,,,null,,,,,,,,,
3621,<p><b>Answer:</b> fred is being entertained by mike</p>,0,html-button-response,28,469224,0.0-11.0,32389,List2A,black,man,,,,,,,,,,,,,
15451.8,"<p>Ready to start the experiment?</p><br><p><strong>Remember to describe the picture using a full sentence,</strong></p><p><strong>that combines the names of the people with the <i>exact</i> phrase given.</strong></p><p><strong>To receive full payment you must do this correctly.</strong></p><p><strong> You do not need to capitalise names or use punctuation.</strong></p><br><p>Press 'Continue' to begin.</p>",0,html-button-response,29,485684,0.0-12.0,32389,List2A,black,man,,,,,,,,,,,,,
null,"<div style=""font-size:60px;"">+</div>",,html-keyboard-response,30,487192,0.0-13.0-0.0,32389,List2A,black,man,,,,null,,,,,,,,,
null,"<img src=""stim_listA/hug2.gif""style=""height:400px;""></stim_listA>",,html-keyboard-response,31,489206,0.0-13.0-1.0,32389,List2A,black,man,,,,null,,,,,,,,,
null,is being hugged by,,html-keyboard-response,32,491211,0.0-13.0-2.0,32389,List2A,black,man,,,,null,,,,,,,,,
22182.2,,,survey-text,33,513410,0.0-13.0-3.0,32389,List2A,black,man,,,,,"{""Q0"":""Dave is been hug by jane""}","<img src=""stim_listA/hug2.gif""style=""height:400px;""></stim_listA>",is being hugged by,,,,,,
null,"<div style=""font-size:60px;"">+</div>",,html-keyboard-response,34,513918,0.0-13.0-0.1,32389,List2A,black,man,,,,null,,,,,,,,,
null,"<img src=""stim_listA/challenge5.gif""style=""height:400px;""></stim_listA>",,html-keyboard-response,35,515927,0.0-13.0-1.1,32389,List2A,black,man,,,,null,,,,,,,,,
null,is challenging,,html-keyboard-response,36,518754,0.0-13.0-2.1,32389,List2A,black,man,,,,null,,,,,,,,,
14841.3,,,survey-text,37,533608,0.0-13.0-3.1,32389,List2A,black,man,,,,,"{""Q0"":""Fred is challenging dave""}","<img src=""stim_listA/challenge5.gif""style=""height:400px;""></stim_listA>",is challenging,,,,,,
null,"<div style=""font-size:60px;"">+</div>",,html-keyboard-response,38,534115,0.0-13.0-0.2,32389,List2A,black,man,,,,null,,,,,,,,,
null,"<img src=""stim_listA/challenge3.gif""style=""height:400px;""></stim_listA>",,html-keyboard-response,39,536126,0.0-13.0-1.2,32389,List2A,black,man,,,,null,,,,,,,,,
null,is challenging,,html-keyboard-response,40,538754,0.0-13.0-2.2,32389,List2A,black,man,,,,null,,,,,,,,,
30607.1,,,survey-text,41,569378,0.0-13.0-3.2,32389,List2A,black,man,,,,,"{""Q0"":""Beth is challenging mike""}","<img src=""stim_listA/challenge3.gif""style=""height:400px;""></stim_listA>",is challenging,,,,,,
null,"<div style=""font-size:60px;"">+</div>",,html-keyboard-response,42,569885,0.0-13.0-0.3,32389,List2A,black,man,,,,null,,,,,,,,,
null,"<img src=""stim_listA/hug6.gif""style=""height:400px;""></stim_listA>",,html-keyboard-response,43,571896,0.0-13.0-1.3,32389,List2A,black,man,,,,null,,,,,,,,,
null,is being hugged by,,html-keyboard-response,44,573902,0.0-13.0-2.3,32389,List2A,black,man,,,,null,,,,,,,,,
37327.3,,,survey-text,45,611243,0.0-13.0-3.3,32389,List2A,black,man,,,,,"{""Q0"":""Mike is been hug by dave""}","<img src=""stim_listA/hug6.gif""style=""height:400px;""></stim_listA>",is being hugged by,,,,,,
null,"<div style=""font-size:60px;"">+</div>",,html-keyboard-response,46,611752,0.0-13.0-0.4,32389,List2A,black,man,,,,null,,,,,,,,,
null,"<img src=""stim_listA/look7.gif""style=""height:400px;""></stim_listA>",,html-keyboard-response,47,613764,0.0-13.0-1.4,32389,List2A,black,man,,,,null,,,,,,,,,
null,is looking at,,html-keyboard-response,48,615770,0.0-13.0-2.4,32389,List2A,black,man,,,,null,,,,,,,,,
15700.5,,,survey-text,49,631486,0.0-13.0-3.4,32389,List2A,black,man,,,,,"{""Q0"":""Beth is looking at ruth""}","<img src=""stim_listA/look7.gif""style=""height:400px;""></stim_listA>",is looking at,,,,,,
null,"<div style=""font-size:60px;"">+</div>",,html-keyboard-response,50,631995,0.0-13.0-0.5,32389,List2A,black,man,,,,null,,,,,,,,,
null,"<img src=""stim_listA/look8.gif""style=""height:400px;""></stim_listA>",,html-keyboard-response,51,634007,0.0-13.0-1.5,32389,List2A,black,man,,,,null,,,,,,,,,
null,is being looked at by,,html-keyboard-response,52,636754,0.0-13.0-2.5,32389,List2A,black,man,,,,null,,,,,,,,,
28262.7,,,survey-text,53,665029,0.0-13.0-3.5,32389,List2A,black,man,,,,,"{""Q0"":""Beth is being looked out by kate""}","<img src=""stim_listA/look8.gif""style=""height:400px;""></stim_listA>",is being looked at by,,,,,,
null,"<div style=""font-size:60px;"">+</div>",,html-keyboard-response,54,665537,0.0-13.0-0.6,32389,List2A,black,man,,,,null,,,,,,,,,
null,"<img src=""stim_listA/oppose7.gif""style=""height:400px;""></stim_listA>",,html-keyboard-response,55,667549,0.0-13.0-1.6,32389,List2A,black,man,,,,null,,,,,,,,,
null,is opposing,,html-keyboard-response,56,669754,0.0-13.0-2.6,32389,List2A,black,man,,,,null,,,,,,,,,
25679.3,,,survey-text,57,695449,0.0-13.0-3.6,32389,List2A,black,man,,,,,"{""Q0"":""Jane is opposing kate""}","<img src=""stim_listA/oppose7.gif""style=""height:400px;""></stim_listA>",is opposing,,,,,,
null,"<div style=""font-size:60px;"">+</div>",,html-keyboard-response,58,695957,0.0-13.0-0.7,32389,List2A,black,man,,,,null,,,,,,,,,
null,"<img src=""stim_listA/oppose5.gif""style=""height:400px;""></stim_listA>",,html-keyboard-response,59,697970,0.0-13.0-1.7,32389,List2A,black,man,,,,null,,,,,,,,,
null,is opposing,,html-keyboard-response,60,700754,0.0-13.0-2.7,32389,List2A,black,man,,,,null,,,,,,,,,
16674.6,,,survey-text,61,717443,0.0-13.0-3.7,32389,List2A,black,man,,,,,"{""Q0"":""Mike is opposing dave""}","<img src=""stim_listA/oppose5.gif""style=""height:400px;""></stim_listA>",is opposing,,,,,,
null,"<div style=""font-size:60px;"">+</div>",,html-keyboard-response,62,717952,0.0-13.0-0.8,32389,List2A,black,man,,,,null,,,,,,,,,
null,"<img src=""stim_listA/look1.gif""style=""height:400px;""></stim_listA>",,html-keyboard-response,63,719966,0.0-13.0-1.8,32389,List2A,black,man,,,,null,,,,,,,,,
null,is looking at,,html-keyboard-response,64,722754,0.0-13.0-2.8,32389,List2A,black,man,,,,null,,,,,,,,,
20070.4,,,survey-text,65,742838,0.0-13.0-3.8,32389,List2A,black,man,,,,,"{""Q0"":""Luke is looking at ruth""}","<img src=""stim_listA/look1.gif""style=""height:400px;""></stim_listA>",is looking at,,,,,,
null,"<div style=""font-size:60px;"">+</div>",,html-keyboard-response,66,743345,0.0-13.0-0.9,32389,List2A,black,man,,,,null,,,,,,,,,
null,"<img src=""stim_listA/shout6.gif""style=""height:400px;""></stim_listA>",,html-keyboard-response,67,745356,0.0-13.0-1.9,32389,List2A,black,man,,,,null,,,,,,,,,
null,is being shouted at by,,html-keyboard-response,68,747755,0.0-13.0-2.9,32389,List2A,black,man,,,,null,,,,,,,,,
58668.3,,,survey-text,69,806447,0.0-13.0-3.9,32389,List2A,black,man,,,,,"{""Q0"":""Dave Is being shouted at by luke""}","<img src=""stim_listA/shout6.gif""style=""height:400px;""></stim_listA>",is being shouted at by,,,,,,
null,"<div style=""font-size:60px;"">+</div>",,html-keyboard-response,70,806954,0.0-13.0-0.10,32389,List2A,black,man,,,,null,,,,,,,,,
null,"<img src=""stim_listA/greet3.gif""style=""height:400px;""></stim_listA>",,html-keyboard-response,71,808967,0.0-13.0-1.10,32389,List2A,black,man,,,,null,,,,,,,,,
null,is greeting,,html-keyboard-response,72,810974,0.0-13.0-2.10,32389,List2A,black,man,,,,null,,,,,,,,,
70918.2,,,survey-text,73,881905,0.0-13.0-3.10,32389,List2A,black,man,,,,,"{""Q0"":""Fred is greeting jane""}","<img src=""stim_listA/greet3.gif""style=""height:400px;""></stim_listA>",is greeting,,,,,,
null,"<div style=""font-size:60px;"">+</div>",,html-keyboard-response,74,882410,0.0-13.0-0.11,32389,List2A,black,man,,,,null,,,,,,,,,
null,"<img src=""stim_listA/seduce2.gif""style=""height:400px;""></stim_listA>",,html-keyboard-response,75,884420,0.0-13.0-1.11,32389,List2A,black,man,,,,null,,,,,,,,,
null,is being seduced by,,html-keyboard-response,76,886754,0.0-13.0-2.11,32389,List2A,black,man,,,,null,,,,,,,,,
42174.1,,,survey-text,77,928944,0.0-13.0-3.11,32389,List2A,black,man,,,,,"{""Q0"":""Dave is being seduced by ruth""}","<img src=""stim_listA/seduce2.gif""style=""height:400px;""></stim_listA>",is being seduced by,,,,,,
null,"<div style=""font-size:60px;"">+</div>",,html-keyboard-response,78,929451,0.0-13.0-0.12,32389,List2A,black,man,,,,null,,,,,,,,,
null,"<img src=""stim_listA/seduce1.gif""style=""height:400px;""></stim_listA>",,html-keyboard-response,79,931463,0.0-13.0-1.12,32389,List2A,black,man,,,,null,,,,,,,,,
null,is seducing,,html-keyboard-response,80,933754,0.0-13.0-2.12,32389,List2A,black,man,,,,null,,,,,,,,,
28305.8,,,survey-text,81,962074,0.0-13.0-3.12,32389,List2A,black,man,,,,,"{""Q0"":""Jane is seducing luke""}","<img src=""stim_listA/seduce1.gif""style=""height:400px;""></stim_listA>",is seducing,,,,,,
null,"<div style=""font-size:60px;"">+</div>",,html-keyboard-response,82,962581,0.0-13.0-0.13,32389,List2A,black,man,,,,null,,,,,,,,,
null,"<img src=""stim_listA/shout3.gif""style=""height:400px;""></stim_listA>",,html-keyboard-response,83,964593,0.0-13.0-1.13,32389,List2A,black,man,,,,null,,,,,,,,,
null,is shouting at,,html-keyboard-response,84,966754,0.0-13.0-2.13,32389,List2A,black,man,,,,null,,,,,,,,,
23444.8,,,survey-text,85,990211,0.0-13.0-3.13,32389,List2A,black,man,,,,,"{""Q0"":""Fred is shouting at beth""}","<img src=""stim_listA/shout3.gif""style=""height:400px;""></stim_listA>",is shouting at,,,,,,
null,"<div style=""font-size:60px;"">+</div>",,html-keyboard-response,86,990716,0.0-13.0-0.14,32389,List2A,black,man,,,,null,,,,,,,,,
null,"<img src=""stim_listA/greet2.gif""style=""height:400px;""></stim_listA>",,html-keyboard-response,87,992728,0.0-13.0-1.14,32389,List2A,black,man,,,,null,,,,,,,,,
null,is being greeted by,,html-keyboard-response,88,994755,0.0-13.0-2.14,32389,List2A,black,man,,,,null,,,,,,,,,
30681.3,,,survey-text,89,1025451,0.0-13.0-3.14,32389,List2A,black,man,,,,,"{""Q0"":""luke is being greeted by jane""}","<img src=""stim_listA/greet2.gif""style=""height:400px;""></stim_listA>",is being greeted by,,,,,,
null,"<div style=""font-size:60px;"">+</div>",,html-keyboard-response,90,1025957,0.0-13.0-0.15,32389,List2A,black,man,,,,null,,,,,,,,,
null,"<img src=""stim_listA/challenge4.gif""style=""height:400px;""></stim_listA>",,html-keyboard-response,91,1027965,0.0-13.0-1.15,32389,List2A,black,man,,,,null,,,,,,,,,
null,is being challenged by,,html-keyboard-response,92,1030754,0.0-13.0-2.15,32389,List2A,black,man,,,,null,,,,,,,,,
28328.2,,,survey-text,93,1059098,0.0-13.0-3.15,32389,List2A,black,man,,,,,"{""Q0"":""Fred is being challenged by kate""}","<img src=""stim_listA/challenge4.gif""style=""height:400px;""></stim_listA>",is being challenged by,,,,,,
null,"<div style=""font-size:60px;"">+</div>",,html-keyboard-response,94,1059605,0.0-13.0-0.16,32389,List2A,black,man,,,,null,,,,,,,,,
null,"<img src=""stim_listA/kiss5.gif""style=""height:400px;""></stim_listA>",,html-keyboard-response,95,1061618,0.0-13.0-1.16,32389,List2A,black,man,,,,null,,,,,,,,,
null,is kissing,,html-keyboard-response,96,1063754,0.0-13.0-2.16,32389,List2A,black,man,,,,null,,,,,,,,,
16983.2,,,survey-text,97,1080751,0.0-13.0-3.16,32389,List2A,black,man,,,,,"{""Q0"":""Fred is kissing luke""}","<img src=""stim_listA/kiss5.gif""style=""height:400px;""></stim_listA>",is kissing,,,,,,
null,"<div style=""font-size:60px;"">+</div>",,html-keyboard-response,98,1081257,0.0-13.0-0.17,32389,List2A,black,man,,,,null,,,,,,,,,
null,"<img src=""stim_listA/shout5.gif""style=""height:400px;""></stim_listA>",,html-keyboard-response,99,1083269,0.0-13.0-1.17,32389,List2A,black,man,,,,null,,,,,,,,,
null,is shouting at,,html-keyboard-response,100,1085754,0.0-13.0-2.17,32389,List2A,black,man,,,,null,,,,,,,,,
12033.1,,,survey-text,101,1097804,0.0-13.0-3.17,32389,List2A,black,man,,,,,"{""Q0"":""Fred is shouting at luke""}","<img src=""stim_listA/shout5.gif""style=""height:400px;""></stim_listA>",is shouting at,,,,,,
null,"<div style=""font-size:60px;"">+</div>",,html-keyboard-response,102,1098311,0.0-13.0-0.18,32389,List2A,black,man,,,,null,,,,,,,,,
null,"<img src=""stim_listA/oppose1.gif""style=""height:400px;""></stim_listA>",,html-keyboard-response,103,1100324,0.0-13.0-1.18,32389,List2A,black,man,,,,null,,,,,,,,,
null,is opposing,,html-keyboard-response,104,1102755,0.0-13.0-2.18,32389,List2A,black,man,,,,null,,,,,,,,,
19722,,,survey-text,105,1122501,0.0-13.0-3.18,32389,List2A,black,man,,,,,"{""Q0"":""Dave is opposing jane""}","<img src=""stim_listA/oppose1.gif""style=""height:400px;""></stim_listA>",is opposing,,,,,,
null,"<div style=""font-size:60px;"">+</div>",,html-keyboard-response,106,1123007,0.0-13.0-0.19,32389,List2A,black,man,,,,null,,,,,,,,,
null,"<img src=""stim_listA/challenge7.gif""style=""height:400px;""></stim_listA>",,html-keyboard-response,107,1125019,0.0-13.0-1.19,32389,List2A,black,man,,,,null,,,,,,,,,
null,is challenging,,html-keyboard-response,108,1127754,0.0-13.0-2.19,32389,List2A,black,man,,,,null,,,,,,,,,
12681.8,,,survey-text,109,1140450,0.0-13.0-3.19,32389,List2A,black,man,,,,,"{""Q0"":""Jane is challenging beth""}","<img src=""stim_listA/challenge7.gif""style=""height:400px;""></stim_listA>",is challenging,,,,,,
12998.8,"<img src='img/portrait_matrix_list2.jpg' style='width:900px;height:500px;''></img><p>If you have memorised all the portraits and names and are ready to start, press Continue.</p><p><strong>Please note: Your memory of these faces will be tested 4 times during this experiment.</strong></p>",0,html-button-response,110,1153465,0.0-14.0-0.0,32389,List2A,black,man,,,,,,,,,,,,,
11077,"<img src=""portrait/WM2.jpg""style=""height:400px;""></img>",7,html-button-response,111,1165557,0.0-14.0-1.0,32389,List2A,black,man,,TRUE,7,,,,,,,,,,
null,CORRECT,,html-keyboard-response,112,1167071,0.0-14.0-2.0-0.0,32389,List2A,black,man,,,,null,,,,,,,,,
5644.2,"<img src=""portrait/WW1.jpg""style=""height:400px;""></img>",1,html-button-response,113,1172725,0.0-14.0-4.0,32389,List2A,black,man,,TRUE,1,,,,,,,,,,
null,CORRECT,,html-keyboard-response,114,1174235,0.0-14.0-5.0-0.0,32389,List2A,black,man,,,,null,,,,,,,,,
5601.5,"<img src=""portrait/BM2.jpg""style=""height:400px;""></img>",5,html-button-response,115,1179850,0.0-14.0-7.0,32389,List2A,black,man,,TRUE,5,,,,,,,,,,
null,CORRECT,,html-keyboard-response,116,1181360,0.0-14.0-8.0-0.0,32389,List2A,black,man,,,,null,,,,,,,,,
5475.8,"<img src=""portrait/WM1.jpg""style=""height:400px;""></img>",6,html-button-response,117,1186851,0.0-14.0-10.0,32389,List2A,black,man,,TRUE,6,,,,,,,,,,
null,CORRECT,,html-keyboard-response,118,1188361,0.0-14.0-11.0-0.0,32389,List2A,black,man,,,,null,,,,,,,,,
4845.7,"<img src=""portrait/WW2.jpg""style=""height:400px;""></img>",3,html-button-response,119,1193221,0.0-14.0-13.0,32389,List2A,black,man,,TRUE,3,,,,,,,,,,
null,CORRECT,,html-keyboard-response,120,1194730,0.0-14.0-14.0-0.0,32389,List2A,black,man,,,,null,,,,,,,,,
4391.6,"<img src=""portrait/BM1.jpg""style=""height:400px;""></img>",4,html-button-response,121,1199135,0.0-14.0-16.0,32389,List2A,black,man,,TRUE,4,,,,,,,,,,
null,CORRECT,,html-keyboard-response,122,1200645,0.0-14.0-17.0-0.0,32389,List2A,black,man,,,,null,,,,,,,,,
4830.3,"<img src=""portrait/BW1.jpg""style=""height:400px;""></img>",0,html-button-response,123,1205490,0.0-14.0-19.0,32389,List2A,black,man,,TRUE,0,,,,,,,,,,
null,CORRECT,,html-keyboard-response,124,1207000,0.0-14.0-20.0-0.0,32389,List2A,black,man,,,,null,,,,,,,,,
5157.8,"<img src=""portrait/BW2.jpg""style=""height:400px;""></img>",2,html-button-response,125,1212171,0.0-14.0-22.0,32389,List2A,black,man,,TRUE,2,,,,,,,,,,
null,CORRECT,,html-keyboard-response,126,1213681,0.0-14.0-23.0-0.0,32389,List2A,black,man,,,,null,,,,,,,,,
2830.7,<p>You got 8 out of 8 right first time. Press Continue.</p>,0,html-button-response,127,1216520,0.0-14.0-25.0,32389,List2A,black,man,,,,,,,,,,,,,
null,"<div style=""font-size:60px;"">+</div>",,html-keyboard-response,128,1218036,0.0-15.0-0.0,32389,List2A,black,man,,,,null,,,,,,,,,
null,"<img src=""stim_listA/seduce3.gif""style=""height:400px;""></stim_listA>",,html-keyboard-response,129,1220049,0.0-15.0-1.0,32389,List2A,black,man,,,,null,,,,,,,,,
null,is seducing,,html-keyboard-response,130,1222754,0.0-15.0-2.0,32389,List2A,black,man,,,,null,,,,,,,,,
20215.5,,,survey-text,131,1242982,0.0-15.0-3.0,32389,List2A,black,man,,,,,"{""Q0"":""Beth is seducing fred""}","<img src=""stim_listA/seduce3.gif""style=""height:400px;""></stim_listA>",is seducing,,,,,,
null,"<div style=""font-size:60px;"">+</div>",,html-keyboard-response,132,1243489,0.0-15.0-0.1,32389,List2A,black,man,,,,null,,,,,,,,,
null,"<img src=""stim_listA/shout7.gif""style=""height:400px;""></stim_listA>",,html-keyboard-response,133,1245503,0.0-15.0-1.1,32389,List2A,black,man,,,,null,,,,,,,,,
null,is shouting at,,html-keyboard-response,134,1247755,0.0-15.0-2.1,32389,List2A,black,man,,,,null,,,,,,,,,
24586.3,,,survey-text,135,1272365,0.0-15.0-3.1,32389,List2A,black,man,,,,,"{""Q0"":""Beth is shouting at ruth""}","<img src=""stim_listA/shout7.gif""style=""height:400px;""></stim_listA>",is shouting at,,,,,,
null,"<div style=""font-size:60px;"">+</div>",,html-keyboard-response,136,1272872,0.0-15.0-0.2,32389,List2A,black,man,,,,null,,,,,,,,,
null,"<img src=""stim_listA/challenge2.gif""style=""height:400px;""></stim_listA>",,html-keyboard-response,137,1274885,0.0-15.0-1.2,32389,List2A,black,man,,,,null,,,,,,,,,
null,is being challenged by,,html-keyboard-response,138,1277754,0.0-15.0-2.2,32389,List2A,black,man,,,,null,,,,,,,,,
26333.1,,,survey-text,139,1304103,0.0-15.0-3.2,32389,List2A,black,man,,,,,"{""Q0"":""Luke is being challenged by kate""}","<img src=""stim_listA/challenge2.gif""style=""height:400px;""></stim_listA>",is being challenged by,,,,,,
null,"<div style=""font-size:60px;"">+</div>",,html-keyboard-response,140,1304610,0.0-15.0-0.3,32389,List2A,black,man,,,,null,,,,,,,,,
null,"<img src=""stim_listA/shout8.gif""style=""height:400px;""></stim_listA>",,html-keyboard-response,141,1306623,0.0-15.0-1.3,32389,List2A,black,man,,,,null,,,,,,,,,
null,is being shouted at by,,html-keyboard-response,142,1308754,0.0-15.0-2.3,32389,List2A,black,man,,,,null,,,,,,,,,
39423.3,,,survey-text,143,1348189,0.0-15.0-3.3,32389,List2A,black,man,,,,,"{""Q0"":""Kate is being shouted at by jane""}","<img src=""stim_listA/shout8.gif""style=""height:400px;""></stim_listA>",is being shouted at by,,,,,,
null,"<div style=""font-size:60px;"">+</div>",,html-keyboard-response,144,1348695,0.0-15.0-0.4,32389,List2A,black,man,,,,null,,,,,,,,,
null,"<img src=""stim_listA/hug4.gif""style=""height:400px;""></stim_listA>",,html-keyboard-response,145,1350707,0.0-15.0-1.4,32389,List2A,black,man,,,,null,,,,,,,,,
null,is being hugged by,,html-keyboard-response,146,1352754,0.0-15.0-2.4,32389,List2A,black,man,,,,null,,,,,,,,,
20243.1,,,survey-text,147,1373011,0.0-15.0-3.4,32389,List2A,black,man,,,,,"{""Q0"":""Mike is being hugged by kate""}","<img src=""stim_listA/hug4.gif""style=""height:400px;""></stim_listA>",is being hugged by,,,,,,
null,"<div style=""font-size:60px;"">+</div>",,html-keyboard-response,148,1373517,0.0-15.0-0.5,32389,List2A,black,man,,,,null,,,,,,,,,
null,"<img src=""stim_listA/touch6.gif""style=""height:400px;""></stim_listA>",,html-keyboard-response,149,1375529,0.0-15.0-1.5,32389,List2A,black,man,,,,null,,,,,,,,,
null,is being touched by,,html-keyboard-response,150,1377755,0.0-15.0-2.5,32389,List2A,black,man,,,,null,,,,,,,,,
23601.7,,,survey-text,151,1401381,0.0-15.0-3.5,32389,List2A,black,man,,,,,"{""Q0"":""Fred is being touched by luke""}","<img src=""stim_listA/touch6.gif""style=""height:400px;""></stim_listA>",is being touched by,,,,,,
null,"<div style=""font-size:60px;"">+</div>",,html-keyboard-response,152,1401888,0.0-15.0-0.6,32389,List2A,black,man,,,,null,,,,,,,,,
null,"<img src=""stim_listA/touch2.gif""style=""height:400px;""></stim_listA>",,html-keyboard-response,153,1403907,0.0-15.0-1.6,32389,List2A,black,man,,,,null,,,,,,,,,
null,is being touched by,,html-keyboard-response,154,1406754,0.0-15.0-2.6,32389,List2A,black,man,,,,null,,,,,,,,,
27731.3,,,survey-text,155,1434500,0.0-15.0-3.6,32389,List2A,black,man,,,,,"{""Q0"":""Luke is being touched by ruth""}","<img src=""stim_listA/touch2.gif""style=""height:400px;""></stim_listA>",is being touched by,,,,,,
null,"<div style=""font-size:60px;"">+</div>",,html-keyboard-response,156,1435006,0.0-15.0-0.7,32389,List2A,black,man,,,,null,,,,,,,,,
null,"<img src=""stim_listA/challenge1.gif""style=""height:400px;""></stim_listA>",,html-keyboard-response,157,1437018,0.0-15.0-1.7,32389,List2A,black,man,,,,null,,,,,,,,,
null,is challenging,,html-keyboard-response,158,1439754,0.0-15.0-2.7,32389,List2A,black,man,,,,null,,,,,,,,,
26272.4,,,survey-text,159,1466047,0.0-15.0-3.7,32389,List2A,black,man,,,,,"{""Q0"":""Ruth is challenging dave""}","<img src=""stim_listA/challenge1.gif""style=""height:400px;""></stim_listA>",is challenging,,,,,,
null,"<div style=""font-size:60px;"">+</div>",,html-keyboard-response,160,1466554,0.0-15.0-0.8,32389,List2A,black,man,,,,null,,,,,,,,,
null,"<img src=""stim_listA/challenge6.gif""style=""height:400px;""></stim_listA>",,html-keyboard-response,161,1468566,0.0-15.0-1.8,32389,List2A,black,man,,,,null,,,,,,,,,
null,is being challenged by,,html-keyboard-response,162,1470755,0.0-15.0-2.8,32389,List2A,black,man,,,,null,,,,,,,,,
15104.1,,,survey-text,163,1485883,0.0-15.0-3.8,32389,List2A,black,man,,,,,"{""Q0"":""Mike is being challenged by luke""}","<img src=""stim_listA/challenge6.gif""style=""height:400px;""></stim_listA>",is being challenged by,,,,,,
null,"<div style=""font-size:60px;"">+</div>",,html-keyboard-response,164,1486391,0.0-15.0-0.9,32389,List2A,black,man,,,,null,,,,,,,,,
null,"<img src=""stim_listA/hug7.gif""style=""height:400px;""></stim_listA>",,html-keyboard-response,165,1488405,0.0-15.0-1.9,32389,List2A,black,man,,,,null,,,,,,,,,
null,is hugging,,html-keyboard-response,166,1490754,0.0-15.0-2.9,32389,List2A,black,man,,,,null,,,,,,,,,
15236.4,,,survey-text,167,1506005,0.0-15.0-3.9,32389,List2A,black,man,,,,,"{""Q0"":""Beth is hugging ruth""}","<img src=""stim_listA/hug7.gif""style=""height:400px;""></stim_listA>",is hugging,,,,,,
null,"<div style=""font-size:60px;"">+</div>",,html-keyboard-response,168,1506511,0.0-15.0-0.10,32389,List2A,black,man,,,,null,,,,,,,,,
null,"<img src=""stim_listA/greet5.gif""style=""height:400px;""></stim_listA>",,html-keyboard-response,169,1508525,0.0-15.0-1.10,32389,List2A,black,man,,,,null,,,,,,,,,
null,is greeting,,html-keyboard-response,170,1510755,0.0-15.0-2.10,32389,List2A,black,man,,,,null,,,,,,,,,
14654.5,,,survey-text,171,1525434,0.0-15.0-3.10,32389,List2A,black,man,,,,,"{""Q0"":""Fred is greeting dave""}","<img src=""stim_listA/greet5.gif""style=""height:400px;""></stim_listA>",is greeting,,,,,,
null,"<div style=""font-size:60px;"">+</div>",,html-keyboard-response,172,1525941,0.0-15.0-0.11,32389,List2A,black,man,,,,null,,,,,,,,,
null,"<img src=""stim_listA/kiss1.gif""style=""height:400px;""></stim_listA>",,html-keyboard-response,173,1527954,0.0-15.0-1.11,32389,List2A,black,man,,,,null,,,,,,,,,
null,is kissing,,html-keyboard-response,174,1530754,0.0-15.0-2.11,32389,List2A,black,man,,,,null,,,,,,,,,
13879.8,,,survey-text,175,1544649,0.0-15.0-3.11,32389,List2A,black,man,,,,,"{""Q0"":""Luke is kissing ruth""}","<img src=""stim_listA/kiss1.gif""style=""height:400px;""></stim_listA>",is kissing,,,,,,
null,"<div style=""font-size:60px;"">+</div>",,html-keyboard-response,176,1545157,0.0-15.0-0.12,32389,List2A,black,man,,,,null,,,,,,,,,
null,"<img src=""stim_listA/challenge8.gif""style=""height:400px;""></stim_listA>",,html-keyboard-response,177,1547168,0.0-15.0-1.12,32389,List2A,black,man,,,,null,,,,,,,,,
null,is being challenged by,,html-keyboard-response,178,1549755,0.0-15.0-2.12,32389,List2A,black,man,,,,null,,,,,,,,,
23974.6,,,survey-text,179,1573759,0.0-15.0-3.12,32389,List2A,black,man,,,,,"{""Q0"":""Kate is being challenged by ruth""}","<img src=""stim_listA/challenge8.gif""style=""height:400px;""></stim_listA>",is being challenged by,,,,,,
null,"<div style=""font-size:60px;"">+</div>",,html-keyboard-response,180,1574266,0.0-15.0-0.13,32389,List2A,black,man,,,,null,,,,,,,,,
null,"<img src=""stim_listA/kiss6.gif""style=""height:400px;""></stim_listA>",,html-keyboard-response,181,1576274,0.0-15.0-1.13,32389,List2A,black,man,,,,null,,,,,,,,,
null,is being kissed by,,html-keyboard-response,182,1578754,0.0-15.0-2.13,32389,List2A,black,man,,,,null,,,,,,,,,
27313.6,,,survey-text,183,1606085,0.0-15.0-3.13,32389,List2A,black,man,,,,,"{""Q0"":""Dave is being kissed by mike""}","<img src=""stim_listA/kiss6.gif""style=""height:400px;""></stim_listA>",is being kissed by,,,,,,
null,"<div style=""font-size:60px;"">+</div>",,html-keyboard-response,184,1606592,0.0-15.0-0.14,32389,List2A,black,man,,,,null,,,,,,,,,
null,"<img src=""stim_listA/shout4.gif""style=""height:400px;""></stim_listA>",,html-keyboard-response,185,1608604,0.0-15.0-1.14,32389,List2A,black,man,,,,null,,,,,,,,,
null,is being shouted at by,,html-keyboard-response,186,1610755,0.0-15.0-2.14,32389,List2A,black,man,,,,null,,,,,,,,,
28510.9,,,survey-text,187,1639291,0.0-15.0-3.14,32389,List2A,black,man,,,,,"{""Q0"":""Mike is being shouted at by kate""}","<img src=""stim_listA/shout4.gif""style=""height:400px;""></stim_listA>",is being shouted at by,,,,,,
null,"<div style=""font-size:60px;"">+</div>",,html-keyboard-response,188,1639796,0.0-15.0-0.15,32389,List2A,black,man,,,,null,,,,,,,,,
null,"<img src=""stim_listA/copy2.gif""style=""height:400px;""></stim_listA>",,html-keyboard-response,189,1642756,0.0-15.0-1.15,32389,List2A,black,man,,,,null,,,,,,,,,
null,is being copied by,,html-keyboard-response,190,1645432,0.0-15.0-2.15,32389,List2A,black,man,,,,null,,,,,,,,,
23330.1,,,survey-text,191,1668773,0.0-15.0-3.15,32389,List2A,black,man,,,,,"{""Q0"":""Jane is begging luke""}","<img src=""stim_listA/copy2.gif""style=""height:400px;""></stim_listA>",is being copied by,,,,,,
null,"<div style=""font-size:60px;"">+</div>",,html-keyboard-response,192,1669280,0.0-15.0-0.16,32389,List2A,black,man,,,,null,,,,,,,,,
null,"<img src=""stim_listA/copy8.gif""style=""height:400px;""></stim_listA>",,html-keyboard-response,193,1671291,0.0-15.0-1.16,32389,List2A,black,man,,,,null,,,,,,,,,
null,is being copied by,,html-keyboard-response,194,1673753,0.0-15.0-2.16,32389,List2A,black,man,,,,null,,,,,,,,,
28238.1,,,survey-text,195,1702005,0.0-15.0-3.16,32389,List2A,black,man,,,,,"{""Q0"":""Kate is being copied by jane""}","<img src=""stim_listA/copy8.gif""style=""height:400px;""></stim_listA>",is being copied by,,,,,,
null,"<div style=""font-size:60px;"">+</div>",,html-keyboard-response,196,1702511,0.0-15.0-0.17,32389,List2A,black,man,,,,null,,,,,,,,,
null,"<img src=""stim_listA/touch8.gif""style=""height:400px;""></stim_listA>",,html-keyboard-response,197,1704523,0.0-15.0-1.17,32389,List2A,black,man,,,,null,,,,,,,,,
null,is being touched by,,html-keyboard-response,198,1706755,0.0-15.0-2.17,32389,List2A,black,man,,,,null,,,,,,,,,
26935.2,,,survey-text,199,1733712,0.0-15.0-3.17,32389,List2A,black,man,,,,,"{""Q0"":""Ruth is being touched by Jane""}","<img src=""stim_listA/touch8.gif""style=""height:400px;""></stim_listA>",is being touched by,,,,,,
null,"<div style=""font-size:60px;"">+</div>",,html-keyboard-response,200,1734218,0.0-15.0-0.18,32389,List2A,black,man,,,,null,,,,,,,,,
null,"<img src=""stim_listA/look5.gif""style=""height:400px;""></stim_listA>",,html-keyboard-response,201,1736692,0.0-15.0-1.18,32389,List2A,black,man,,,,null,,,,,,,,,
null,is looking at,,html-keyboard-response,202,1738753,0.0-15.0-2.18,32389,List2A,black,man,,,,null,,,,,,,,,
17284.6,,,survey-text,203,1756053,0.0-15.0-3.18,32389,List2A,black,man,,,,,"{""Q0"":""Fred is looking at luke""}","<img src=""stim_listA/look5.gif""style=""height:400px;""></stim_listA>",is looking at,,,,,,
null,"<div style=""font-size:60px;"">+</div>",,html-keyboard-response,204,1756559,0.0-15.0-0.19,32389,List2A,black,man,,,,null,,,,,,,,,
null,"<img src=""stim_listA/seduce4.gif""style=""height:400px;""></stim_listA>",,html-keyboard-response,205,1758571,0.0-15.0-1.19,32389,List2A,black,man,,,,null,,,,,,,,,
null,is being seduced by,,html-keyboard-response,206,1760755,0.0-15.0-2.19,32389,List2A,black,man,,,,null,,,,,,,,,
49862.6,,,survey-text,207,1810642,0.0-15.0-3.19,32389,List2A,black,man,,,,,"{""Q0"":""Mike is being seduced by beth""}","<img src=""stim_listA/seduce4.gif""style=""height:400px;""></stim_listA>",is being seduced by,,,,,,
14980.3,"<img src='img/portrait_matrix_list2.jpg' style='width:900px;height:500px;''></img><p>If you have memorised all the portraits and names and are ready to start, press Continue.</p><p><strong>Please note: Your memory of these faces will be tested 4 times during this experiment.</strong></p>",0,html-button-response,208,1825631,0.0-16.0-0.0,32389,List2A,black,man,,,,,,,,,,,,,
5522.6,"<img src=""portrait/BM1.jpg""style=""height:400px;""></img>",4,html-button-response,209,1832166,0.0-16.0-1.0,32389,List2A,black,man,,TRUE,4,,,,,,,,,,
null,CORRECT,,html-keyboard-response,210,1833675,0.0-16.0-2.0-0.0,32389,List2A,black,man,,,,null,,,,,,,,,
4649.3,"<img src=""portrait/BM2.jpg""style=""height:400px;""></img>",5,html-button-response,211,1838336,0.0-16.0-4.0,32389,List2A,black,man,,TRUE,5,,,,,,,,,,
null,CORRECT,,html-keyboard-response,212,1839844,0.0-16.0-5.0-0.0,32389,List2A,black,man,,,,null,,,,,,,,,
4361.7,"<img src=""portrait/WW2.jpg""style=""height:400px;""></img>",3,html-button-response,213,1844217,0.0-16.0-7.0,32389,List2A,black,man,,TRUE,3,,,,,,,,,,
null,CORRECT,,html-keyboard-response,214,1845726,0.0-16.0-8.0-0.0,32389,List2A,black,man,,,,null,,,,,,,,,
4832,"<img src=""portrait/BW2.jpg""style=""height:400px;""></img>",2,html-button-response,215,1850569,0.0-16.0-10.0,32389,List2A,black,man,,TRUE,2,,,,,,,,,,
null,CORRECT,,html-keyboard-response,216,1852076,0.0-16.0-11.0-0.0,32389,List2A,black,man,,,,null,,,,,,,,,
6188.7,"<img src=""portrait/WM2.jpg""style=""height:400px;""></img>",7,html-button-response,217,1858276,0.0-16.0-13.0,32389,List2A,black,man,,TRUE,7,,,,,,,,,,
null,CORRECT,,html-keyboard-response,218,1859785,0.0-16.0-14.0-0.0,32389,List2A,black,man,,,,null,,,,,,,,,
6065.6,"<img src=""portrait/BW1.jpg""style=""height:400px;""></img>",0,html-button-response,219,1865862,0.0-16.0-16.0,32389,List2A,black,man,,TRUE,0,,,,,,,,,,
null,CORRECT,,html-keyboard-response,220,1867371,0.0-16.0-17.0-0.0,32389,List2A,black,man,,,,null,,,,,,,,,
4847,"<img src=""portrait/WW1.jpg""style=""height:400px;""></img>",1,html-button-response,221,1872230,0.0-16.0-19.0,32389,List2A,black,man,,TRUE,1,,,,,,,,,,
null,CORRECT,,html-keyboard-response,222,1873739,0.0-16.0-20.0-0.0,32389,List2A,black,man,,,,null,,,,,,,,,
5448.6,"<img src=""portrait/WM1.jpg""style=""height:400px;""></img>",6,html-button-response,223,1879198,0.0-16.0-22.0,32389,List2A,black,man,,TRUE,6,,,,,,,,,,
null,CORRECT,,html-keyboard-response,224,1880707,0.0-16.0-23.0-0.0,32389,List2A,black,man,,,,null,,,,,,,,,
2295.5,<p>You got 8 out of 8 right first time. Press Continue.</p>,0,html-button-response,225,1883013,0.0-16.0-25.0,32389,List2A,black,man,,,,,,,,,,,,,
null,"<div style=""font-size:60px;"">+</div>",,html-keyboard-response,226,1884525,0.0-17.0-0.0,32389,List2A,black,man,,,,null,,,,,,,,,
null,"<img src=""stim_listA/oppose4.gif""style=""height:400px;""></stim_listA>",,html-keyboard-response,227,1886537,0.0-17.0-1.0,32389,List2A,black,man,,,,null,,,,,,,,,
null,is being opposed by,,html-keyboard-response,228,1888755,0.0-17.0-2.0,32389,List2A,black,man,,,,null,,,,,,,,,
25170.1,,,survey-text,229,1913951,0.0-17.0-3.0,32389,List2A,black,man,,,,,"{""Q0"":""Fred is opposed by ruth""}","<img src=""stim_listA/oppose4.gif""style=""height:400px;""></stim_listA>",is being opposed by,,,,,,
null,"<div style=""font-size:60px;"">+</div>",,html-keyboard-response,230,1914457,0.0-17.0-0.1,32389,List2A,black,man,,,,null,,,,,,,,,
null,"<img src=""stim_listA/kiss8.gif""style=""height:400px;""></stim_listA>",,html-keyboard-response,231,1916470,0.0-17.0-1.1,32389,List2A,black,man,,,,null,,,,,,,,,
null,is being kissed by,,html-keyboard-response,232,1918754,0.0-17.0-2.1,32389,List2A,black,man,,,,null,,,,,,,,,
19229.5,,,survey-text,233,1938008,0.0-17.0-3.1,32389,List2A,black,man,,,,,"{""Q0"":""Jane is kissed by Kate""}","<img src=""stim_listA/kiss8.gif""style=""height:400px;""></stim_listA>",is being kissed by,,,,,,
null,"<div style=""font-size:60px;"">+</div>",,html-keyboard-response,234,1938515,0.0-17.0-0.2,32389,List2A,black,man,,,,null,,,,,,,,,
null,"<img src=""stim_listA/touch5.gif""style=""height:400px;""></stim_listA>",,html-keyboard-response,235,1940527,0.0-17.0-1.2,32389,List2A,black,man,,,,null,,,,,,,,,
null,is touching,,html-keyboard-response,236,1942755,0.0-17.0-2.2,32389,List2A,black,man,,,,null,,,,,,,,,
14311.7,,,survey-text,237,1957090,0.0-17.0-3.2,32389,List2A,black,man,,,,,"{""Q0"":""Dave is touching mike""}","<img src=""stim_listA/touch5.gif""style=""height:400px;""></stim_listA>",is touching,,,,,,
null,"<div style=""font-size:60px;"">+</div>",,html-keyboard-response,238,1957597,0.0-17.0-0.3,32389,List2A,black,man,,,,null,,,,,,,,,
null,"<img src=""stim_listA/shout1.gif""style=""height:400px;""></stim_listA>",,html-keyboard-response,239,1959610,0.0-17.0-1.3,32389,List2A,black,man,,,,null,,,,,,,,,
null,is shouting at,,html-keyboard-response,240,1961755,0.0-17.0-2.3,32389,List2A,black,man,,,,null,,,,,,,,,
25914.1,,,survey-text,241,1987692,0.0-17.0-3.3,32389,List2A,black,man,,,,,"{""Q0"":""Luke is shouting at ruth""}","<img src=""stim_listA/shout1.gif""style=""height:400px;""></stim_listA>",is shouting at,,,,,,
null,"<div style=""font-size:60px;"">+</div>",,html-keyboard-response,242,1988199,0.0-17.0-0.4,32389,List2A,black,man,,,,null,,,,,,,,,
null,"<img src=""stim_listA/hug3.gif""style=""height:400px;""></stim_listA>",,html-keyboard-response,243,1990211,0.0-17.0-1.4,32389,List2A,black,man,,,,null,,,,,,,,,
null,is hugging,,html-keyboard-response,244,1992755,0.0-17.0-2.4,32389,List2A,black,man,,,,null,,,,,,,,,
14402.9,,,survey-text,245,2007182,0.0-17.0-3.4,32389,List2A,black,man,,,,,"{""Q0"":""Fred is hugging kate""}","<img src=""stim_listA/hug3.gif""style=""height:400px;""></stim_listA>",is hugging,,,,,,
null,"<div style=""font-size:60px;"">+</div>",,html-keyboard-response,246,2007691,0.0-17.0-0.5,32389,List2A,black,man,,,,null,,,,,,,,,
null,"<img src=""stim_listA/seduce7.gif""style=""height:400px;""></stim_listA>",,html-keyboard-response,247,2009703,0.0-17.0-1.5,32389,List2A,black,man,,,,null,,,,,,,,,
null,is seducing,,html-keyboard-response,248,2011755,0.0-17.0-2.5,32389,List2A,black,man,,,,null,,,,,,,,,
19385.7,,,survey-text,249,2031165,0.0-17.0-3.5,32389,List2A,black,man,,,,,"{""Q0"":""Kate is seducing ruth""}","<img src=""stim_listA/seduce7.gif""style=""height:400px;""></stim_listA>",is seducing,,,,,,
null,"<div style=""font-size:60px;"">+</div>",,html-keyboard-response,250,2031673,0.0-17.0-0.6,32389,List2A,black,man,,,,null,,,,,,,,,
null,"<img src=""stim_listA/kiss2.gif""style=""height:400px;""></stim_listA>",,html-keyboard-response,251,2033686,0.0-17.0-1.6,32389,List2A,black,man,,,,null,,,,,,,,,
null,is being kissed by,,html-keyboard-response,252,2035755,0.0-17.0-2.6,32389,List2A,black,man,,,,null,,,,,,,,,
21059.7,,,survey-text,253,2056838,0.0-17.0-3.6,32389,List2A,black,man,,,,,"{""Q0"":""Jane is being kissed by Dave""}","<img src=""stim_listA/kiss2.gif""style=""height:400px;""></stim_listA>",is being kissed by,,,,,,
null,"<div style=""font-size:60px;"">+</div>",,html-keyboard-response,254,2057346,0.0-17.0-0.7,32389,List2A,black,man,,,,null,,,,,,,,,
null,"<img src=""stim_listA/copy7.gif""style=""height:400px;""></stim_listA>",,html-keyboard-response,255,2059359,0.0-17.0-1.7,32389,List2A,black,man,,,,null,,,,,,,,,
null,is copying,,html-keyboard-response,256,2061754,0.0-17.0-2.7,32389,List2A,black,man,,,,null,,,,,,,,,
14472.7,,,survey-text,257,2076244,0.0-17.0-3.7,32389,List2A,black,man,,,,,"{""Q0"":""Kate is copying Beth""}","<img src=""stim_listA/copy7.gif""style=""height:400px;""></stim_listA>",is copying,,,,,,
null,"<div style=""font-size:60px;"">+</div>",,html-keyboard-response,258,2076751,0.0-17.0-0.8,32389,List2A,black,man,,,,null,,,,,,,,,
null,"<img src=""stim_listA/copy6.gif""style=""height:400px;""></stim_listA>",,html-keyboard-response,259,2078764,0.0-17.0-1.8,32389,List2A,black,man,,,,null,,,,,,,,,
null,is being copied by,,html-keyboard-response,260,2081755,0.0-17.0-2.8,32389,List2A,black,man,,,,null,,,,,,,,,
16562.8,,,survey-text,261,2098343,0.0-17.0-3.8,32389,List2A,black,man,,,,,"{""Q0"":""Luke is being copied by Mike""}","<img src=""stim_listA/copy6.gif""style=""height:400px;""></stim_listA>",is being copied by,,,,,,
null,"<div style=""font-size:60px;"">+</div>",,html-keyboard-response,262,2098851,0.0-17.0-0.9,32389,List2A,black,man,,,,null,,,,,,,,,
null,"<img src=""stim_listA/copy5.gif""style=""height:400px;""></stim_listA>",,html-keyboard-response,263,2100865,0.0-17.0-1.9,32389,List2A,black,man,,,,null,,,,,,,,,
null,is copying,,html-keyboard-response,264,2103754,0.0-17.0-2.9,32389,List2A,black,man,,,,null,,,,,,,,,
19040.4,,,survey-text,265,2122810,0.0-17.0-3.9,32389,List2A,black,man,,,,,"{""Q0"":""Dave is copying fred""}","<img src=""stim_listA/copy5.gif""style=""height:400px;""></stim_listA>",is copying,,,,,,
null,"<div style=""font-size:60px;"">+</div>",,html-keyboard-response,266,2123317,0.0-17.0-0.10,32389,List2A,black,man,,,,null,,,,,,,,,
null,"<img src=""stim_listA/copy1.gif""style=""height:400px;""></stim_listA>",,html-keyboard-response,267,2125329,0.0-17.0-1.10,32389,List2A,black,man,,,,null,,,,,,,,,
null,is copying,,html-keyboard-response,268,2127755,0.0-17.0-2.10,32389,List2A,black,man,,,,null,,,,,,,,,
12593.9,,,survey-text,269,2140373,0.0-17.0-3.10,32389,List2A,black,man,,,,,"{""Q0"":""Dave is copying ruth""}","<img src=""stim_listA/copy1.gif""style=""height:400px;""></stim_listA>",is copying,,,,,,
null,"<div style=""font-size:60px;"">+</div>",,html-keyboard-response,270,2140880,0.0-17.0-0.11,32389,List2A,black,man,,,,null,,,,,,,,,
null,"<img src=""stim_listA/oppose2.gif""style=""height:400px;""></stim_listA>",,html-keyboard-response,271,2142895,0.0-17.0-1.11,32389,List2A,black,man,,,,null,,,,,,,,,
null,is being opposed by,,html-keyboard-response,272,2145754,0.0-17.0-2.11,32389,List2A,black,man,,,,null,,,,,,,,,
16775.6,,,survey-text,273,2162549,0.0-17.0-3.11,32389,List2A,black,man,,,,,"{""Q0"":""Luke is being opposed by ruth""}","<img src=""stim_listA/oppose2.gif""style=""height:400px;""></stim_listA>",is being opposed by,,,,,,
null,"<div style=""font-size:60px;"">+</div>",,html-keyboard-response,274,2163055,0.0-17.0-0.12,32389,List2A,black,man,,,,null,,,,,,,,,
null,"<img src=""stim_listA/hug8.gif""style=""height:400px;""></stim_listA>",,html-keyboard-response,275,2165068,0.0-17.0-1.12,32389,List2A,black,man,,,,null,,,,,,,,,
null,is being hugged by,,html-keyboard-response,276,2167756,0.0-17.0-2.12,32389,List2A,black,man,,,,null,,,,,,,,,
14115.3,,,survey-text,277,2181889,0.0-17.0-3.12,32389,List2A,black,man,,,,,"{""Q0"":""Jane is being hugged by Kate""}","<img src=""stim_listA/hug8.gif""style=""height:400px;""></stim_listA>",is being hugged by,,,,,,
null,"<div style=""font-size:60px;"">+</div>",,html-keyboard-response,278,2182395,0.0-17.0-0.13,32389,List2A,black,man,,,,null,,,,,,,,,
null,"<img src=""stim_listA/greet8.gif""style=""height:400px;""></stim_listA>",,html-keyboard-response,279,2184405,0.0-17.0-1.13,32389,List2A,black,man,,,,null,,,,,,,,,
null,is being greeted by,,html-keyboard-response,280,2186755,0.0-17.0-2.13,32389,List2A,black,man,,,,null,,,,,,,,,
16808.3,,,survey-text,281,2203588,0.0-17.0-3.13,32389,List2A,black,man,,,,,"{""Q0"":""Kate is greeted by ruth""}","<img src=""stim_listA/greet8.gif""style=""height:400px;""></stim_listA>",is being greeted by,,,,,,
null,"<div style=""font-size:60px;"">+</div>",,html-keyboard-response,282,2204095,0.0-17.0-0.14,32389,List2A,black,man,,,,null,,,,,,,,,
null,"<img src=""stim_listA/touch4.gif""style=""height:400px;""></stim_listA>",,html-keyboard-response,283,2206108,0.0-17.0-1.14,32389,List2A,black,man,,,,null,,,,,,,,,
null,is being touched by,,html-keyboard-response,284,2208755,0.0-17.0-2.14,32389,List2A,black,man,,,,null,,,,,,,,,
10594.1,,,survey-text,285,2219366,0.0-17.0-3.14,32389,List2A,black,man,,,,,"{""Q0"":""Kate is being touched by beth""}","<img src=""stim_listA/touch4.gif""style=""height:400px;""></stim_listA>",is being touched by,,,,,,
null,"<div style=""font-size:60px;"">+</div>",,html-keyboard-response,286,2219873,0.0-17.0-0.15,32389,List2A,black,man,,,,null,,,,,,,,,
null,"<img src=""stim_listA/copy4.gif""style=""height:400px;""></stim_listA>",,html-keyboard-response,287,2221887,0.0-17.0-1.15,32389,List2A,black,man,,,,null,,,,,,,,,
null,is being copied by,,html-keyboard-response,288,2224754,0.0-17.0-2.15,32389,List2A,black,man,,,,null,,,,,,,,,
18572.5,,,survey-text,289,2243342,0.0-17.0-3.15,32389,List2A,black,man,,,,,"{""Q0"":""Fred is being copied by kate""}","<img src=""stim_listA/copy4.gif""style=""height:400px;""></stim_listA>",is being copied by,,,,,,
null,"<div style=""font-size:60px;"">+</div>",,html-keyboard-response,290,2243847,0.0-17.0-0.16,32389,List2A,black,man,,,,null,,,,,,,,,
null,"<img src=""stim_listA/copy3.gif""style=""height:400px;""></stim_listA>",,html-keyboard-response,291,2245860,0.0-17.0-1.16,32389,List2A,black,man,,,,null,,,,,,,,,
null,is copying,,html-keyboard-response,292,2248754,0.0-17.0-2.16,32389,List2A,black,man,,,,null,,,,,,,,,
10776.4,,,survey-text,293,2259547,0.0-17.0-3.16,32389,List2A,black,man,,,,,"{""Q0"":""Mike is copying beth""}","<img src=""stim_listA/copy3.gif""style=""height:400px;""></stim_listA>",is copying,,,,,,
null,"<div style=""font-size:60px;"">+</div>",,html-keyboard-response,294,2260055,0.0-17.0-0.17,32389,List2A,black,man,,,,null,,,,,,,,,
null,"<img src=""stim_listA/oppose8.gif""style=""height:400px;""></stim_listA>",,html-keyboard-response,295,2262067,0.0-17.0-1.17,32389,List2A,black,man,,,,null,,,,,,,,,
null,is being opposed by,,html-keyboard-response,296,2264754,0.0-17.0-2.17,32389,List2A,black,man,,,,null,,,,,,,,,
12336.8,,,survey-text,297,2277112,0.0-17.0-3.17,32389,List2A,black,man,,,,,"{""Q0"":""Beth is being opposed by ruth""}","<img src=""stim_listA/oppose8.gif""style=""height:400px;""></stim_listA>",is being opposed by,,,,,,
null,"<div style=""font-size:60px;"">+</div>",,html-keyboard-response,298,2277619,0.0-17.0-0.18,32389,List2A,black,man,,,,null,,,,,,,,,
null,"<img src=""stim_listA/kiss7.gif""style=""height:400px;""></stim_listA>",,html-keyboard-response,299,2279632,0.0-17.0-1.18,32389,List2A,black,man,,,,null,,,,,,,,,
null,is kissing,,html-keyboard-response,300,2281755,0.0-17.0-2.18,32389,List2A,black,man,,,,null,,,,,,,,,
20353.7,,,survey-text,301,2302131,0.0-17.0-3.18,32389,List2A,black,man,,,,,"{""Q0"":""Beth is kissing ruth""}","<img src=""stim_listA/kiss7.gif""style=""height:400px;""></stim_listA>",is kissing,,,,,,
null,"<div style=""font-size:60px;"">+</div>",,html-keyboard-response,302,2302638,0.0-17.0-0.19,32389,List2A,black,man,,,,null,,,,,,,,,
null,"<img src=""stim_listA/look3.gif""style=""height:400px;""></stim_listA>",,html-keyboard-response,303,2304652,0.0-17.0-1.19,32389,List2A,black,man,,,,null,,,,,,,,,
null,is looking at,,html-keyboard-response,304,2306757,0.0-17.0-2.19,32389,List2A,black,man,,,,null,,,,,,,,,
10627.9,,,survey-text,305,2317410,0.0-17.0-3.19,32389,List2A,black,man,,,,,"{""Q0"":""Beth is looking at fred""}","<img src=""stim_listA/look3.gif""style=""height:400px;""></stim_listA>",is looking at,,,,,,
12739.7,"<img src='img/portrait_matrix_list2.jpg' style='width:900px;height:500px;''></img><p>If you have memorised all the portraits and names and are ready to start, press Continue.</p><p><strong>Please note: Your memory of these faces will be tested 4 times during this experiment.</strong></p>",0,html-button-response,306,2330158,0.0-18.0-0.0,32389,List2A,black,man,,,,,,,,,,,,,
4317.4,"<img src=""portrait/WW1.jpg""style=""height:400px;""></img>",1,html-button-response,307,2335489,0.0-18.0-1.0,32389,List2A,black,man,,TRUE,1,,,,,,,,,,
null,CORRECT,,html-keyboard-response,308,2336999,0.0-18.0-2.0-0.0,32389,List2A,black,man,,,,null,,,,,,,,,
6668.2,"<img src=""portrait/BM2.jpg""style=""height:400px;""></img>",5,html-button-response,309,2343681,0.0-18.0-4.0,32389,List2A,black,man,,TRUE,5,,,,,,,,,,
null,CORRECT,,html-keyboard-response,310,2345191,0.0-18.0-5.0-0.0,32389,List2A,black,man,,,,null,,,,,,,,,
5995.5,"<img src=""portrait/WM2.jpg""style=""height:400px;""></img>",7,html-button-response,311,2351201,0.0-18.0-7.0,32389,List2A,black,man,,TRUE,7,,,,,,,,,,
null,CORRECT,,html-keyboard-response,312,2352711,0.0-18.0-8.0-0.0,32389,List2A,black,man,,,,null,,,,,,,,,
5243.8,"<img src=""portrait/BW1.jpg""style=""height:400px;""></img>",0,html-button-response,313,2357970,0.0-18.0-10.0,32389,List2A,black,man,,TRUE,0,,,,,,,,,,
null,CORRECT,,html-keyboard-response,314,2359479,0.0-18.0-11.0-0.0,32389,List2A,black,man,,,,null,,,,,,,,,
4726.1,"<img src=""portrait/BW2.jpg""style=""height:400px;""></img>",2,html-button-response,315,2364220,0.0-18.0-13.0,32389,List2A,black,man,,TRUE,2,,,,,,,,,,
null,CORRECT,,html-keyboard-response,316,2365730,0.0-18.0-14.0-0.0,32389,List2A,black,man,,,,null,,,,,,,,,
4394.6,"<img src=""portrait/WM1.jpg""style=""height:400px;""></img>",6,html-button-response,317,2370139,0.0-18.0-16.0,32389,List2A,black,man,,TRUE,6,,,,,,,,,,
null,CORRECT,,html-keyboard-response,318,2371648,0.0-18.0-17.0-0.0,32389,List2A,black,man,,,,null,,,,,,,,,
4993,"<img src=""portrait/WW2.jpg""style=""height:400px;""></img>",3,html-button-response,319,2376657,0.0-18.0-19.0,32389,List2A,black,man,,TRUE,3,,,,,,,,,,
null,CORRECT,,html-keyboard-response,320,2378167,0.0-18.0-20.0-0.0,32389,List2A,black,man,,,,null,,,,,,,,,
4575.7,"<img src=""portrait/BM1.jpg""style=""height:400px;""></img>",4,html-button-response,321,2382757,0.0-18.0-22.0,32389,List2A,black,man,,TRUE,4,,,,,,,,,,
null,CORRECT,,html-keyboard-response,322,2384266,0.0-18.0-23.0-0.0,32389,List2A,black,man,,,,null,,,,,,,,,
1838.1,<p>You got 8 out of 8 right first time. Press Continue.</p>,0,html-button-response,323,2386116,0.0-18.0-25.0,32389,List2A,black,man,,,,,,,,,,,,,
null,"<div style=""font-size:60px;"">+</div>",,html-keyboard-response,324,2387631,0.0-19.0-0.0,32389,List2A,black,man,,,,null,,,,,,,,,
null,"<img src=""stim_listA/greet1.gif""style=""height:400px;""></stim_listA>",,html-keyboard-response,325,2389645,0.0-19.0-1.0,32389,List2A,black,man,,,,null,,,,,,,,,
null,is greeting,,html-keyboard-response,326,2391754,0.0-19.0-2.0,32389,List2A,black,man,,,,null,,,,,,,,,
20673.5,,,survey-text,327,2412442,0.0-19.0-3.0,32389,List2A,black,man,,,,,"{""Q0"":""Dave is greeting Ruth""}","<img src=""stim_listA/greet1.gif""style=""height:400px;""></stim_listA>",is greeting,,,,,,
null,"<div style=""font-size:60px;"">+</div>",,html-keyboard-response,328,2412949,0.0-19.0-0.1,32389,List2A,black,man,,,,null,,,,,,,,,
null,"<img src=""stim_listA/hug1.gif""style=""height:400px;""></stim_listA>",,html-keyboard-response,329,2414962,0.0-19.0-1.1,32389,List2A,black,man,,,,null,,,,,,,,,
null,is hugging,,html-keyboard-response,330,2416969,0.0-19.0-2.1,32389,List2A,black,man,,,,null,,,,,,,,,
44231.5,,,survey-text,331,2461215,0.0-19.0-3.1,32389,List2A,black,man,,,,,"{""Q0"":""Ruth is hugging luke""}","<img src=""stim_listA/hug1.gif""style=""height:400px;""></stim_listA>",is hugging,,,,,,
null,"<div style=""font-size:60px;"">+</div>",,html-keyboard-response,332,2461722,0.0-19.0-0.2,32389,List2A,black,man,,,,null,,,,,,,,,
null,"<img src=""stim_listA/touch7.gif""style=""height:400px;""></stim_listA>",,html-keyboard-response,333,2463737,0.0-19.0-1.2,32389,List2A,black,man,,,,null,,,,,,,,,
null,is touching,,html-keyboard-response,334,2465756,0.0-19.0-2.2,32389,List2A,black,man,,,,null,,,,,,,,,
16946.5,,,survey-text,335,2482729,0.0-19.0-3.2,32389,List2A,black,man,,,,,"{""Q0"":""Jane is touching Kate""}","<img src=""stim_listA/touch7.gif""style=""height:400px;""></stim_listA>",is touching,,,,,,
null,"<div style=""font-size:60px;"">+</div>",,html-keyboard-response,336,2483236,0.0-19.0-0.3,32389,List2A,black,man,,,,null,,,,,,,,,
null,"<img src=""stim_listA/touch3.gif""style=""height:400px;""></stim_listA>",,html-keyboard-response,337,2485250,0.0-19.0-1.3,32389,List2A,black,man,,,,null,,,,,,,,,
null,is touching,,html-keyboard-response,338,2487756,0.0-19.0-2.3,32389,List2A,black,man,,,,null,,,,,,,,,
29606.2,,,survey-text,339,2517392,0.0-19.0-3.3,32389,List2A,black,man,,,,,"{""Q0"":""Kate is touching mike""}","<img src=""stim_listA/touch3.gif""style=""height:400px;""></stim_listA>",is touching,,,,,,
null,"<div style=""font-size:60px;"">+</div>",,html-keyboard-response,340,2517896,0.0-19.0-0.4,32389,List2A,black,man,,,,null,,,,,,,,,
null,"<img src=""stim_listA/look2.gif""style=""height:400px;""></stim_listA>",,html-keyboard-response,341,2519903,0.0-19.0-1.4,32389,List2A,black,man,,,,null,,,,,,,,,
null,is being looked at by,,html-keyboard-response,342,2522754,0.0-19.0-2.4,32389,List2A,black,man,,,,null,,,,,,,,,
23617.9,,,survey-text,343,2546388,0.0-19.0-3.4,32389,List2A,black,man,,,,,"{""Q0"":""Dave is being looked at by jane""}","<img src=""stim_listA/look2.gif""style=""height:400px;""></stim_listA>",is being looked at by,,,,,,
null,"<div style=""font-size:60px;"">+</div>",,html-keyboard-response,344,2546895,0.0-19.0-0.5,32389,List2A,black,man,,,,null,,,,,,,,,
null,"<img src=""stim_listA/oppose6.gif""style=""height:400px;""></stim_listA>",,html-keyboard-response,345,2548909,0.0-19.0-1.5,32389,List2A,black,man,,,,null,,,,,,,,,
null,is being opposed by,,html-keyboard-response,346,2551753,0.0-19.0-2.5,32389,List2A,black,man,,,,null,,,,,,,,,
11471.5,,,survey-text,347,2563238,0.0-19.0-3.5,32389,List2A,black,man,,,,,"{""Q0"":""Luke is being opposed by fred""}","<img src=""stim_listA/oppose6.gif""style=""height:400px;""></stim_listA>",is being opposed by,,,,,,
null,"<div style=""font-size:60px;"">+</div>",,html-keyboard-response,348,2563745,0.0-19.0-0.6,32389,List2A,black,man,,,,null,,,,,,,,,
null,"<img src=""stim_listA/seduce6.gif""style=""height:400px;""></stim_listA>",,html-keyboard-response,349,2565757,0.0-19.0-1.6,32389,List2A,black,man,,,,null,,,,,,,,,
null,is being seduced by,,html-keyboard-response,350,2568089,0.0-19.0-2.6,32389,List2A,black,man,,,,null,,,,,,,,,
21555.6,,,survey-text,351,2589657,0.0-19.0-3.6,32389,List2A,black,man,,,,,"{""Q0"":""Fred is copying dave""}","<img src=""stim_listA/seduce6.gif""style=""height:400px;""></stim_listA>",is being seduced by,,,,,,
null,"<div style=""font-size:60px;"">+</div>",,html-keyboard-response,352,2590164,0.0-19.0-0.7,32389,List2A,black,man,,,,null,,,,,,,,,
null,"<img src=""stim_listA/kiss3.gif""style=""height:400px;""></stim_listA>",,html-keyboard-response,353,2592179,0.0-19.0-1.7,32389,List2A,black,man,,,,null,,,,,,,,,
null,is kissing,,html-keyboard-response,354,2594756,0.0-19.0-2.7,32389,List2A,black,man,,,,null,,,,,,,,,
9899.1,,,survey-text,355,2604684,0.0-19.0-3.7,32389,List2A,black,man,,,,,"{""Q0"":""Fred is kissing beth""}","<img src=""stim_listA/kiss3.gif""style=""height:400px;""></stim_listA>",is kissing,,,,,,
null,"<div style=""font-size:60px;"">+</div>",,html-keyboard-response,356,2605191,0.0-19.0-0.8,32389,List2A,black,man,,,,null,,,,,,,,,
null,"<img src=""stim_listA/greet7.gif""style=""height:400px;""></stim_listA>",,html-keyboard-response,357,2607205,0.0-19.0-1.8,32389,List2A,black,man,,,,null,,,,,,,,,
null,is greeting,,html-keyboard-response,358,2609756,0.0-19.0-2.8,32389,List2A,black,man,,,,null,,,,,,,,,
9076,,,survey-text,359,2618863,0.0-19.0-3.8,32389,List2A,black,man,,,,,"{""Q0"":""Jane is greeting beth""}","<img src=""stim_listA/greet7.gif""style=""height:400px;""></stim_listA>",is greeting,,,,,,
null,"<div style=""font-size:60px;"">+</div>",,html-keyboard-response,360,2619371,0.0-19.0-0.9,32389,List2A,black,man,,,,null,,,,,,,,,
null,"<img src=""stim_listA/touch1.gif""style=""height:400px;""></stim_listA>",,html-keyboard-response,361,2621387,0.0-19.0-1.9,32389,List2A,black,man,,,,null,,,,,,,,,
null,is touching,,html-keyboard-response,362,2623755,0.0-19.0-2.9,32389,List2A,black,man,,,,null,,,,,,,,,
12162.2,,,survey-text,363,2635943,0.0-19.0-3.9,32389,List2A,black,man,,,,,"{""Q0"":""Dave is touching jane""}","<img src=""stim_listA/touch1.gif""style=""height:400px;""></stim_listA>",is touching,,,,,,
null,"<div style=""font-size:60px;"">+</div>",,html-keyboard-response,364,2636451,0.0-19.0-0.10,32389,List2A,black,man,,,,null,,,,,,,,,
null,"<img src=""stim_listA/hug5.gif""style=""height:400px;""></stim_listA>",,html-keyboard-response,365,2638465,0.0-19.0-1.10,32389,List2A,black,man,,,,null,,,,,,,,,
null,is hugging,,html-keyboard-response,366,2640755,0.0-19.0-2.10,32389,List2A,black,man,,,,null,,,,,,,,,
13464.8,,,survey-text,367,2654241,0.0-19.0-3.10,32389,List2A,black,man,,,,,"{""Q0"":""Luke is hugging fred""}","<img src=""stim_listA/hug5.gif""style=""height:400px;""></stim_listA>",is hugging,,,,,,
null,"<div style=""font-size:60px;"">+</div>",,html-keyboard-response,368,2654747,0.0-19.0-0.11,32389,List2A,black,man,,,,null,,,,,,,,,
null,"<img src=""stim_listA/greet6.gif""style=""height:400px;""></stim_listA>",,html-keyboard-response,369,2656760,0.0-19.0-1.11,32389,List2A,black,man,,,,null,,,,,,,,,
null,is being greeted by,,html-keyboard-response,370,2659757,0.0-19.0-2.11,32389,List2A,black,man,,,,null,,,,,,,,,
15520.3,,,survey-text,371,2675304,0.0-19.0-3.11,32389,List2A,black,man,,,,,"{""Q0"":""Luke is greeted by mike""}","<img src=""stim_listA/greet6.gif""style=""height:400px;""></stim_listA>",is being greeted by,,,,,,
null,"<div style=""font-size:60px;"">+</div>",,html-keyboard-response,372,2675811,0.0-19.0-0.12,32389,List2A,black,man,,,,null,,,,,,,,,
null,"<img src=""stim_listA/greet4.gif""style=""height:400px;""></stim_listA>",,html-keyboard-response,373,2677824,0.0-19.0-1.12,32389,List2A,black,man,,,,null,,,,,,,,,
null,is being greeted by,,html-keyboard-response,374,2680754,0.0-19.0-2.12,32389,List2A,black,man,,,,null,,,,,,,,,
19005.9,,,survey-text,375,2699775,0.0-19.0-3.12,32389,List2A,black,man,,,,,"{""Q0"":""Fred is being greeted by Kate ""}","<img src=""stim_listA/greet4.gif""style=""height:400px;""></stim_listA>",is being greeted by,,,,,,
null,"<div style=""font-size:60px;"">+</div>",,html-keyboard-response,376,2700282,0.0-19.0-0.13,32389,List2A,black,man,,,,null,,,,,,,,,
null,"<img src=""stim_listA/look6.gif""style=""height:400px;""></stim_listA>",,html-keyboard-response,377,2702295,0.0-19.0-1.13,32389,List2A,black,man,,,,null,,,,,,,,,
null,is being looked at by,,html-keyboard-response,378,2704758,0.0-19.0-2.13,32389,List2A,black,man,,,,null,,,,,,,,,
14142.6,,,survey-text,379,2718927,0.0-19.0-3.13,32389,List2A,black,man,,,,,"{""Q0"":""Mike is being looked at by dave""}","<img src=""stim_listA/look6.gif""style=""height:400px;""></stim_listA>",is being looked at by,,,,,,
null,"<div style=""font-size:60px;"">+</div>",,html-keyboard-response,380,2719435,0.0-19.0-0.14,32389,List2A,black,man,,,,null,,,,,,,,,
null,"<img src=""stim_listA/look4.gif""style=""height:400px;""></stim_listA>",,html-keyboard-response,381,2721450,0.0-19.0-1.14,32389,List2A,black,man,,,,null,,,,,,,,,
null,is being looked at by,,html-keyboard-response,382,2723756,0.0-19.0-2.14,32389,List2A,black,man,,,,null,,,,,,,,,
14782.2,,,survey-text,383,2738585,0.0-19.0-3.14,32389,List2A,black,man,,,,,"{""Q0"":""Mike is being looked at by Kate""}","<img src=""stim_listA/look4.gif""style=""height:400px;""></stim_listA>",is being looked at by,,,,,,
null,"<div style=""font-size:60px;"">+</div>",,html-keyboard-response,384,2739092,0.0-19.0-0.15,32389,List2A,black,man,,,,null,,,,,,,,,
null,"<img src=""stim_listA/seduce8.gif""style=""height:400px;""></stim_listA>",,html-keyboard-response,385,2741100,0.0-19.0-1.15,32389,List2A,black,man,,,,null,,,,,,,,,
null,is being seduced by,,html-keyboard-response,386,2743754,0.0-19.0-2.15,32389,List2A,black,man,,,,null,,,,,,,,,
22636.1,,,survey-text,387,2766409,0.0-19.0-3.15,32389,List2A,black,man,,,,,"{""Q0"":""Beth is being seduced by Jane""}","<img src=""stim_listA/seduce8.gif""style=""height:400px;""></stim_listA>",is being seduced by,,,,,,
null,"<div style=""font-size:60px;"">+</div>",,html-keyboard-response,388,2766916,0.0-19.0-0.16,32389,List2A,black,man,,,,null,,,,,,,,,
null,"<img src=""stim_listA/kiss4.gif""style=""height:400px;""></stim_listA>",,html-keyboard-response,389,2768928,0.0-19.0-1.16,32389,List2A,black,man,,,,null,,,,,,,,,
null,is being kissed by,,html-keyboard-response,390,2771754,0.0-19.0-2.16,32389,List2A,black,man,,,,null,,,,,,,,,
11538.2,,,survey-text,391,2783308,0.0-19.0-3.16,32389,List2A,black,man,,,,,"{""Q0"":""Mike is being kissed by kate""}","<img src=""stim_listA/kiss4.gif""style=""height:400px;""></stim_listA>",is being kissed by,,,,,,
null,"<div style=""font-size:60px;"">+</div>",,html-keyboard-response,392,2783814,0.0-19.0-0.17,32389,List2A,black,man,,,,null,,,,,,,,,
null,"<img src=""stim_listA/oppose3.gif""style=""height:400px;""></stim_listA>",,html-keyboard-response,393,2785823,0.0-19.0-1.17,32389,List2A,black,man,,,,null,,,,,,,,,
null,is opposing,,html-keyboard-response,394,2788754,0.0-19.0-2.17,32389,List2A,black,man,,,,null,,,,,,,,,
9595.9,,,survey-text,395,2798363,0.0-19.0-3.17,32389,List2A,black,man,,,,,"{""Q0"":""Mike is opposing kate""}","<img src=""stim_listA/oppose3.gif""style=""height:400px;""></stim_listA>",is opposing,,,,,,
null,"<div style=""font-size:60px;"">+</div>",,html-keyboard-response,396,2798869,0.0-19.0-0.18,32389,List2A,black,man,,,,null,,,,,,,,,
null,"<img src=""stim_listA/shout2.gif""style=""height:400px;""></stim_listA>",,html-keyboard-response,397,2800880,0.0-19.0-1.18,32389,List2A,black,man,,,,null,,,,,,,,,
null,is being shouted at by,,html-keyboard-response,398,2803754,0.0-19.0-2.18,32389,List2A,black,man,,,,null,,,,,,,,,
17982.4,,,survey-text,399,2821752,0.0-19.0-3.18,32389,List2A,black,man,,,,,"{""Q0"":""Dave is being shouted at by jane""}","<img src=""stim_listA/shout2.gif""style=""height:400px;""></stim_listA>",is being shouted at by,,,,,,
null,"<div style=""font-size:60px;"">+</div>",,html-keyboard-response,400,2822258,0.0-19.0-0.19,32389,List2A,black,man,,,,null,,,,,,,,,
null,"<img src=""stim_listA/seduce5.gif""style=""height:400px;""></stim_listA>",,html-keyboard-response,401,2824268,0.0-19.0-1.19,32389,List2A,black,man,,,,null,,,,,,,,,
null,is seducing,,html-keyboard-response,402,2826754,0.0-19.0-2.19,32389,List2A,black,man,,,,null,,,,,,,,,
14856.6,,,survey-text,403,2841624,0.0-19.0-3.19,32389,List2A,black,man,,,,,"{""Q0"":""Mike is seducing luke""}","<img src=""stim_listA/seduce5.gif""style=""height:400px;""></stim_listA>",is seducing,,,,,,
8846.8,<p>Thank you for completing that task.</p><p>The final part of this session is a questionnaire that will take about 4 minutes.</p><p>Press Continue.</p>,0,html-button-response,404,2850476,0.0-20.0,32389,List2A,black,man,,,,,,,,,,,,,
51896.5,,,survey-text,405,2903452,0.0-21.0,32389,List2A,black,man,,,,,"{""Q0"":""34"",""Q1"":""English"",""Q2"":""English"",""Q3"":""United State of America"",""Q4"":""United State of America"",""Q5"":""Black America"",""Q6"":""Male""}",,,demographics,,,,,
6700.3,<p>Have you lived in the USA for the last 5 years or more?</p>,0,html-button-response,406,2910165,0.0-22.0,32389,List2A,black,man,,,,,,,,fiveyears,,,,,
9732.4,<p>Move the slider to show the extent to which you agree with the following statements.</p>,0,html-button-response,407,2920907,0.0-23.0,32389,List2A,black,man,,,,,,,,,,,,,
7889.5,,,html-slider-response,408,2929818,0.0-24.0-0.0-0.0,32389,List2A,black,man,,,,,,,,survey_race,85,,,I feel solidarity with people the same age as me.,filler
6420.6,,,html-slider-response,409,2936248,0.0-24.0-0.0-0.1,32389,List2A,black,man,,,,,,,,survey_race,100,,,The fact that I am my race is an important part of my identity.,identity
9244.7,,,html-slider-response,410,2945500,0.0-24.0-0.0-0.2,32389,List2A,black,man,,,,,,,,survey_race,17,,,My age is not an important part of who I am.,filler
9548.4,,,html-slider-response,411,2955058,0.0-24.0-0.0-0.3,32389,List2A,black,man,,,,,,,,survey_race,89,,,I often think about the fact that I am my race.,often
3947.4,,,html-slider-response,412,2959015,0.0-24.0-0.0-0.4,32389,List2A,black,man,,,,,,,,survey_race,83,,,I often think about the fact that I am my age.,filler
3705,,,html-slider-response,413,2962728,0.0-24.0-0.0-0.5,32389,List2A,black,man,,,,,,,,survey_race,100,,,It is pleasant to be my race.,pleasant
3371.2,,,html-slider-response,414,2966107,0.0-24.0-0.0-0.6,32389,List2A,black,man,,,,,,,,survey_race,87,,,I feel solidarity with my race.,solidarity
3880.6,,,html-slider-response,415,2969996,0.0-24.0-0.0-0.7,32389,List2A,black,man,,,,,,,,survey_race,100,,,I think that my race has a lot to be proud of.,proud
7564.7,,,html-slider-response,416,2977568,0.0-24.0-0.0-0.8,32389,List2A,black,man,,,,,,,,survey_race,35,,,I have a lot in common with the average person of my race.,average
6309.6,,,html-slider-response,417,2983886,0.0-24.0-0.0-0.9,32389,List2A,black,man,,,,,,,,survey_race,71,,,Being my age gives me a good feeling.,filler
6094.7,,,html-slider-response,418,2989989,0.0-24.0-0.0-0.10,32389,List2A,black,man,,,,,,,,survey_race,70,,,I am glad to be the age I am.,filler
4534.5,,,html-slider-response,419,2994531,0.0-24.0-0.0-0.11,32389,List2A,black,man,,,,,,,,survey_race,76,,,People my age have a lot in common with each other.,filler
2496.2,,,html-slider-response,420,2997035,0.0-24.0-0.0-0.12,32389,List2A,black,man,,,,,,,,survey_race,100,,,I feel a bond with my race.,bond
2585.8,,,html-slider-response,421,2999627,0.0-24.0-0.0-0.13,32389,List2A,black,man,,,,,,,,survey_race,100,,,I am glad to be my race.,glad
2069.1,,,html-slider-response,422,3001702,0.0-24.0-0.0-0.14,32389,List2A,black,man,,,,,,,,survey_race,100,,,I feel committed to my race.,committed
4205.9,,,html-slider-response,423,3005915,0.0-24.0-0.0-0.15,32389,List2A,black,man,,,,,,,,survey_race,90,,,"The older I get, the wiser I feel.",filler
26029.8,,,html-slider-response,424,3031952,0.0-24.0-0.0-0.16,32389,List2A,black,man,,,,,,,,survey_race,25,,,I consider myself an introvert.,filler
4462.6,,,html-slider-response,425,3036423,0.0-24.0-0.0-0.17,32389,List2A,black,man,,,,,,,,survey_race,81,,,Being my race is an important part of how I see myself.,important
2892,,,html-slider-response,426,3039323,0.0-24.0-0.0-0.18,32389,List2A,black,man,,,,,,,,survey_race,79,,,I feel a bond with people the same age as me.,filler
3423,,,html-slider-response,427,3042752,0.0-24.0-0.0-0.19,32389,List2A,black,man,,,,,,,,survey_race,100,,,Being my race gives me a good feeling.,feeling
3166.5,,,html-slider-response,428,3045927,0.0-24.0-0.0-0.20,32389,List2A,black,man,,,,,,,,survey_race,81,,,I enjoy being in large groups.,filler
5260.3,,,html-slider-response,429,3051194,0.0-24.0-0.0-0.21,32389,List2A,black,man,,,,,,,,survey_race,75,,,People of my race have a lot in common with each other.,common
2877.9,,,html-slider-response,430,3054081,0.0-24.0-0.0-0.22,32389,List2A,black,man,,,,,,,,survey_race,37,,,I am similar to the average person of my race.,similar
3271.8,,,html-slider-response,431,3057360,0.0-24.0-0.0-0.23,32389,List2A,black,man,,,,,,,,survey_race,70,,,Getting older does not worry me.,filler
2081,,,html-slider-response,432,3059448,0.0-24.0-0.0-0.24,32389,List2A,black,man,,,,,,,,survey_race,80,,,I am glad to be my age.,filler
3754.4,,,html-slider-response,433,3063210,0.0-24.0-0.0-0.25,32389,List2A,black,man,,,,,,,,survey_race,84,,,People of my race are very similar to each other.,verysimilar
3702.4,,,html-slider-response,434,3066921,0.0-24.0-0.0-0.26,32389,List2A,black,man,,,,,,,,survey_race,79,,,I have a lot in common with people of a similar age to me.,filler
20830.8,,,html-slider-response,435,3087759,0.0-24.0-0.0-0.27,32389,List2A,black,man,,,,,,,,survey_race,91,,,I consider myself an extrovert.,filler
4843.6,,,html-slider-response,436,3092611,0.0-24.0-1.0-0.0,32389,List2A,black,man,,,,,,,,survey_gender,81,,,People of my gender have a lot in common with each other.,common
2699.6,,,html-slider-response,437,3095319,0.0-24.0-1.0-0.1,32389,List2A,black,man,,,,,,,,survey_gender,67,,,I feel a bond with my friends.,filler
2982.8,,,html-slider-response,438,3098310,0.0-24.0-1.0-0.2,32389,List2A,black,man,,,,,,,,survey_gender,76,,,My friends have a lot in common with each other.,filler
2313.5,,,html-slider-response,439,3100633,0.0-24.0-1.0-0.3,32389,List2A,black,man,,,,,,,,survey_gender,77,,,I often think about my actions.,filler
7832.2,,,html-slider-response,440,3108472,0.0-24.0-1.0-0.4,32389,List2A,black,man,,,,,,,,survey_gender,80,,,I have a lot in common with the average person of my gender.,average
3383.8,,,html-slider-response,441,3111865,0.0-24.0-1.0-0.5,32389,List2A,black,man,,,,,,,,survey_gender,100,,,Being my gender is an important part of how I see myself.,important
6307.7,,,html-slider-response,442,3118179,0.0-24.0-1.0-0.6,32389,List2A,black,man,,,,,,,,survey_gender,4,,,Family is not more important to me than friendship.,filler
5577,,,html-slider-response,443,3123764,0.0-24.0-1.0-0.7,32389,List2A,black,man,,,,,,,,survey_gender,83,,,I have a lot in common with my friends.,filler
3373.5,,,html-slider-response,444,3127157,0.0-24.0-1.0-0.8,32389,List2A,black,man,,,,,,,,survey_gender,25,,,Routine is not important to me.,filler
2431.9,,,html-slider-response,445,3129597,0.0-24.0-1.0-0.9,32389,List2A,black,man,,,,,,,,survey_gender,74,,,It is pleasant to be my gender.,pleasant
2950.7,,,html-slider-response,446,3132554,0.0-24.0-1.0-0.10,32389,List2A,black,man,,,,,,,,survey_gender,86,,,I feel a bond with my gender.,bond
4073.2,,,html-slider-response,447,3136635,0.0-24.0-1.0-0.11,32389,List2A,black,man,,,,,,,,survey_gender,98,,,I think that my gender has a lot to be proud of.,proud
2950.6,,,html-slider-response,448,3139594,0.0-24.0-1.0-0.12,32389,List2A,black,man,,,,,,,,survey_gender,99,,,I feel committed to my gender.,committed
3201,,,html-slider-response,449,3142801,0.0-24.0-1.0-0.13,32389,List2A,black,man,,,,,,,,survey_gender,86,,,Most of the friends in my life are very similar to me.,filler
3268.2,,,html-slider-response,450,3146078,0.0-24.0-1.0-0.14,32389,List2A,black,man,,,,,,,,survey_gender,85,,,I feel solidarity with my gender.,solidarity
3551.2,,,html-slider-response,451,3149635,0.0-24.0-1.0-0.15,32389,List2A,black,man,,,,,,,,survey_gender,97,,,My friends understand me.,filler
6028.4,,,html-slider-response,452,3155671,0.0-24.0-1.0-0.16,32389,List2A,black,man,,,,,,,,survey_gender,14,,,I would say I am an animal person.,filler
4239.5,,,html-slider-response,453,3159918,0.0-24.0-1.0-0.17,32389,List2A,black,man,,,,,,,,survey_gender,83,,,I am glad to have the friends that I have.,filler
3131.3,,,html-slider-response,454,3163058,0.0-24.0-1.0-0.18,32389,List2A,black,man,,,,,,,,survey_gender,82,,,Being around my friends gives me a good feeling.,filler
3485.7,,,html-slider-response,455,3166552,0.0-24.0-1.0-0.19,32389,List2A,black,man,,,,,,,,survey_gender,83,,,People of my gender are very similar to each other.,verysimilar
1898.3,,,html-slider-response,456,3168458,0.0-24.0-1.0-0.20,32389,List2A,black,man,,,,,,,,survey_gender,84,,,I am glad to be my gender.,glad
2767.8,,,html-slider-response,457,3171234,0.0-24.0-1.0-0.21,32389,List2A,black,man,,,,,,,,survey_gender,82,,,I feel solidarity with my friends.,filler
5135.4,,,html-slider-response,458,3176380,0.0-24.0-1.0-0.22,32389,List2A,black,man,,,,,,,,survey_gender,93,,,The fact that I am my gender is an important part of my identity.,identity
2635.1,,,html-slider-response,459,3179023,0.0-24.0-1.0-0.23,32389,List2A,black,man,,,,,,,,survey_gender,84,,,I consider myself a highly empathetic person.,filler
3833.9,,,html-slider-response,460,3182864,0.0-24.0-1.0-0.24,32389,List2A,black,man,,,,,,,,survey_gender,81,,,I often think about the fact that I am my gender.,often
3305.5,,,html-slider-response,461,3186176,0.0-24.0-1.0-0.25,32389,List2A,black,man,,,,,,,,survey_gender,83,,,Being my gender gives me a good feeling.,feeling
7380.9,,,html-slider-response,462,3193564,0.0-24.0-1.0-0.26,32389,List2A,black,man,,,,,,,,survey_gender,81,,,It is not always easy for people to know what I am thinking.,filler
4017.4,,,html-slider-response,463,3197590,0.0-24.0-1.0-0.27,32389,List2A,black,man,,,,,,,,survey_gender,81,,,I am similar to the average person of my gender.,similar
15629.5,,,survey-text,464,3213257,0.0-25.0,32389,List2A,black,man,,,,,"{""Q0"":""ccc""}",,,worker_id,,,,,
23693.6,,,external-html,465,3237639,0.0-26.0,32389,List2A,black,man,debrief.html,,,,,,,,,,,,
