"rt","stimulus","button_pressed","trial_type","trial_index","time_elapsed","internal_node_id","subject","list","ppt_race","ppt_gender","url","first_guess","correct","key_press","responses","image_type","phrase_type","test_part","response","stimulus1","stimulus2","question_type","survey_item"
"2881","Welcome to the experiment. Press Continue to begin.","0","html-button-response","0","2885","0.0-0.0","33529","List2B","black","woman","","","","","","","","","","","","",""
"16976.10000000056","","","external-html","1","21002","0.0-1.0","33529","List2B","black","woman","consent.html","","","","","","","","","","","",""
"9717.099999999627","<p>On the next page, you will see portraits of 8 people and their names.</p><p>Your first task is to take a few minutes to memorise the names of these people.</p><p>You will have to recall their names during the rest of the experiment, so it is</p><p>essential that you try to memorise these people and their names as best as you can.</p><br><p><strong>You will then be tested on your memory of these names and portraits.</strong></p><br><p>The experiment will start after you have completed this memory test.</p><br><p>Ready?</p>","0","html-button-response","2","30722","0.0-2.0","33529","List2B","black","woman","","","","","","","","","","","","",""
"61256.10000000056","<img src='img/portrait_matrix_list2.jpg' style='width:900px;height:500px;''></img><p>If you have memorised all the portraits and names and are ready to start, press Continue.</p><p><strong>Please note: Your memory of these faces will be tested 4 times during this experiment.</strong></p>","0","html-button-response","3","92988","0.0-3.0-0.0","33529","List2B","black","woman","","","","","","","","","","","","",""
"5640.700000000186","<img src=""portrait/WM1.jpg""style=""height:400px;""></img>","6","html-button-response","4","99637","0.0-3.0-1.0","33529","List2B","black","woman","","true","6","","","","","","","","","",""
"null","CORRECT","","html-keyboard-response","5","101148","0.0-3.0-2.0-0.0","33529","List2B","black","woman","","","","null","","","","","","","","",""
"2193.7000000001863","<img src=""portrait/BM2.jpg""style=""height:400px;""></img>","5","html-button-response","6","103345","0.0-3.0-4.0","33529","List2B","black","woman","","true","5","","","","","","","","","",""
"null","CORRECT","","html-keyboard-response","7","104859","0.0-3.0-5.0-0.0","33529","List2B","black","woman","","","","null","","","","","","","","",""
"4602.399999999441","<img src=""portrait/BW2.jpg""style=""height:400px;""></img>","1","html-button-response","8","109464","0.0-3.0-7.0","33529","List2B","black","woman","","true","2","","","","","","","","","",""
"2892.5","<img src=""portrait/BW2.jpg""style=""height:400px;""></img>","2","html-button-response","9","113365","0.0-3.0-9.0-0.0","33529","List2B","black","woman","","false","2","","","","","","","","","",""
"null","CORRECT","","html-keyboard-response","10","114873","0.0-3.0-9.0-1.0-0.0","33529","List2B","black","woman","","","","null","","","","","","","","",""
"2749.5","<img src=""portrait/BW1.jpg""style=""height:400px;""></img>","1","html-button-response","11","117625","0.0-3.0-10.0","33529","List2B","black","woman","","true","0","","","","","","","","","",""
"1559.3999999994412","<img src=""portrait/BW1.jpg""style=""height:400px;""></img>","0","html-button-response","12","120191","0.0-3.0-12.0-0.0","33529","List2B","black","woman","","false","0","","","","","","","","","",""
"null","CORRECT","","html-keyboard-response","13","121703","0.0-3.0-12.0-1.0-0.0","33529","List2B","black","woman","","","","null","","","","","","","","",""
"1625.2999999998137","<img src=""portrait/WW1.jpg""style=""height:400px;""></img>","1","html-button-response","14","123331","0.0-3.0-13.0","33529","List2B","black","woman","","true","1","","","","","","","","","",""
"null","CORRECT","","html-keyboard-response","15","124840","0.0-3.0-14.0-0.0","33529","List2B","black","woman","","","","null","","","","","","","","",""
"3298.5","<img src=""portrait/WW2.jpg""style=""height:400px;""></img>","3","html-button-response","16","128141","0.0-3.0-16.0","33529","List2B","black","woman","","true","3","","","","","","","","","",""
"null","CORRECT","","html-keyboard-response","17","129653","0.0-3.0-17.0-0.0","33529","List2B","black","woman","","","","null","","","","","","","","",""
"4176.0999999996275","<img src=""portrait/WM2.jpg""style=""height:400px;""></img>","7","html-button-response","18","133832","0.0-3.0-19.0","33529","List2B","black","woman","","true","7","","","","","","","","","",""
"null","CORRECT","","html-keyboard-response","19","135342","0.0-3.0-20.0-0.0","33529","List2B","black","woman","","","","null","","","","","","","","",""
"3316.5","<img src=""portrait/BM1.jpg""style=""height:400px;""></img>","4","html-button-response","20","138661","0.0-3.0-22.0","33529","List2B","black","woman","","true","4","","","","","","","","","",""
"null","CORRECT","","html-keyboard-response","21","140171","0.0-3.0-23.0-0.0","33529","List2B","black","woman","","","","null","","","","","","","","",""
"8007","<p>You got 6 out of 8 right first time. Press Continue.</p>","0","html-button-response","22","148181","0.0-3.0-25.0","33529","List2B","black","woman","","","","","","","","","","","","",""
"3240.800000000745","As you did not score 100%, the memory game will repeat. Press Continue.","0","html-button-response","23","152429","0.0-3.0-26.0-0.0","33529","List2B","black","woman","","","","","","","","","","","","",""
"8130.699999999255","<img src='img/portrait_matrix_list2.jpg' style='width:900px;height:500px;''></img><p>If you have memorised all the portraits and names and are ready to start, press Continue.</p><p><strong>Please note: Your memory of these faces will be tested 4 times during this experiment.</strong></p>","0","html-button-response","24","161569","0.0-3.1-0.1","33529","List2B","black","woman","","","","","","","","","","","","",""
"6427.799999999814","<img src=""portrait/WM1.jpg""style=""height:400px;""></img>","6","html-button-response","25","169006","0.0-3.1-1.1","33529","List2B","black","woman","","true","6","","","","","","","","","",""
"null","CORRECT","","html-keyboard-response","26","170513","0.0-3.1-2.1-0.1","33529","List2B","black","woman","","","","null","","","","","","","","",""
"3195.7999999998137","<img src=""portrait/BM2.jpg""style=""height:400px;""></img>","5","html-button-response","27","173712","0.0-3.1-4.1","33529","List2B","black","woman","","true","5","","","","","","","","","",""
"null","CORRECT","","html-keyboard-response","28","175222","0.0-3.1-5.1-0.1","33529","List2B","black","woman","","","","null","","","","","","","","",""
"4835.5","<img src=""portrait/BW2.jpg""style=""height:400px;""></img>","2","html-button-response","29","180060","0.0-3.1-7.1","33529","List2B","black","woman","","true","2","","","","","","","","","",""
"null","CORRECT","","html-keyboard-response","30","181571","0.0-3.1-8.1-0.1","33529","List2B","black","woman","","","","null","","","","","","","","",""
"7975.299999999814","<img src=""portrait/BW1.jpg""style=""height:400px;""></img>","0","html-button-response","31","189549","0.0-3.1-10.1","33529","List2B","black","woman","","true","0","","","","","","","","","",""
"null","CORRECT","","html-keyboard-response","32","191062","0.0-3.1-11.1-0.1","33529","List2B","black","woman","","","","null","","","","","","","","",""
"2605.9000000003725","<img src=""portrait/WW1.jpg""style=""height:400px;""></img>","1","html-button-response","33","193670","0.0-3.1-13.1","33529","List2B","black","woman","","true","1","","","","","","","","","",""
"null","CORRECT","","html-keyboard-response","34","195179","0.0-3.1-14.1-0.1","33529","List2B","black","woman","","","","null","","","","","","","","",""
"2785.800000000745","<img src=""portrait/WW2.jpg""style=""height:400px;""></img>","3","html-button-response","35","197968","0.0-3.1-16.1","33529","List2B","black","woman","","true","3","","","","","","","","","",""
"null","CORRECT","","html-keyboard-response","36","199480","0.0-3.1-17.1-0.1","33529","List2B","black","woman","","","","null","","","","","","","","",""
"15345","<img src=""portrait/WM2.jpg""style=""height:400px;""></img>","7","html-button-response","37","214828","0.0-3.1-19.1","33529","List2B","black","woman","","true","7","","","","","","","","","",""
"null","CORRECT","","html-keyboard-response","38","216336","0.0-3.1-20.1-0.1","33529","List2B","black","woman","","","","null","","","","","","","","",""
"7740.600000000559","<img src=""portrait/BM1.jpg""style=""height:400px;""></img>","4","html-button-response","39","224080","0.0-3.1-22.1","33529","List2B","black","woman","","true","4","","","","","","","","","",""
"null","CORRECT","","html-keyboard-response","40","225590","0.0-3.1-23.1-0.1","33529","List2B","black","woman","","","","null","","","","","","","","",""
"1045.2999999998137","<p>You got 8 out of 8 right first time. Press Continue.</p>","0","html-button-response","41","226637","0.0-3.1-25.1","33529","List2B","black","woman","","","","","","","","","","","","",""
"14203.899999999441","<p>In this experiment, you will view photographs of the people from the memory game interacting.</p><p>By using the <strong>exact</strong> phrase given <i>after</i> the photograph appears and recalling the correct names of the people in the photographs, form a sentence describing the interaction. You do not need to capitalise names.</p><p>Type your answer in the space provided. Please complete every sentence before moving onto the next trial.</p><p>You will only have a few seconds to memorise each given photograph and phrase before you can respond, so try your best to focus.</p><p>An example is given below. Press 'Continue' when you are ready.</p><img src='img/speaking_example.jpg' style='width:800px;height:460px;''></img>","0","html-button-response","42","241849","0.0-4.0","33529","List2B","black","woman","","","","","","","","","","","","",""
"1996.5","<p>Before the experiment starts, you will watch two example trials. Press 'Continue'.</p>","0","html-button-response","43","244853","0.0-5.0","33529","List2B","black","woman","","","","","","","","","","","","",""
"null","<img src='img/play_eg.gif' style='height:400px;''></img>","","html-keyboard-response","44","247865","0.0-6.0","33529","List2B","black","woman","","","","null","","","","","","","","",""
"null","<p>is playing with</p>","","html-keyboard-response","45","249871","0.0-7.0","33529","List2B","black","woman","","","","null","","","","","","","","",""
"2410.4000000003725","<p><b>Answer:</b> jane is playing with ruth</p>","0","html-button-response","46","252283","0.0-8.0","33529","List2B","black","woman","","","","","","","","","","","","",""
"null","<img src='img/dance_eg.gif' style='height:400px;''></img>","","html-keyboard-response","47","255293","0.0-9.0","33529","List2B","black","woman","","","","null","","","","","","","","",""
"null","<p>is being entertained by</p>","","html-keyboard-response","48","257299","0.0-10.0","33529","List2B","black","woman","","","","null","","","","","","","","",""
"1218","<p><b>Answer:</b> fred is being entertained by mike</p>","0","html-button-response","49","258518","0.0-11.0","33529","List2B","black","woman","","","","","","","","","","","","",""
"3792.2000000001863","<p>Ready to start the experiment?</p><br><p><strong>Remember to describe the picture using a full sentence,</strong></p><p><strong>that combines the names of the people with the <i>exact</i> phrase given.</strong></p><p><strong>To receive full payment you must do this correctly.</strong></p><p><strong> You do not need to capitalise names or use punctuation.</strong></p><br><p>Press 'Continue' to begin.</p>","0","html-button-response","50","263316","0.0-12.0","33529","List2B","black","woman","","","","","","","","","","","","",""
"null","<div style=""font-size:60px;"">+</div>","","html-keyboard-response","51","264822","0.0-13.0-0.0","33529","List2B","black","woman","","","","null","","","","","","","","",""
"null","<img src=""stim_listB/hug1.gif""style=""height:400px;""></stim_listB>","","html-keyboard-response","52","266829","0.0-13.0-1.0","33529","List2B","black","woman","","","","null","","","","","","","","",""
"null","is hugging","","html-keyboard-response","53","268830","0.0-13.0-2.0","33529","List2B","black","woman","","","","null","","","","","","","","",""
"7669.799999999814","","","survey-text","54","276505","0.0-13.0-3.0","33529","List2B","black","woman","","","","","{""Q0"":""Luke is hugging ruth""}","<img src=""stim_listB/hug1.gif""style=""height:400px;""></stim_listB>","is hugging","","","","","",""
"null","<div style=""font-size:60px;"">+</div>","","html-keyboard-response","55","277009","0.0-13.0-0.1","33529","List2B","black","woman","","","","null","","","","","","","","",""
"null","<img src=""stim_listB/shout8.gif""style=""height:400px;""></stim_listB>","","html-keyboard-response","56","279015","0.0-13.0-1.1","33529","List2B","black","woman","","","","null","","","","","","","","",""
"null","is being shouted at by","","html-keyboard-response","57","281021","0.0-13.0-2.1","33529","List2B","black","woman","","","","null","","","","","","","","",""
"7550.0999999996275","","","survey-text","58","288575","0.0-13.0-3.1","33529","List2B","black","woman","","","","","{""Q0"":""dave ruth""}","<img src=""stim_listB/shout8.gif""style=""height:400px;""></stim_listB>","is being shouted at by","","","","","",""
"null","<div style=""font-size:60px;"">+</div>","","html-keyboard-response","59","289078","0.0-13.0-0.2","33529","List2B","black","woman","","","","null","","","","","","","","",""
"null","<img src=""stim_listB/hug3.gif""style=""height:400px;""></stim_listB>","","html-keyboard-response","60","291086","0.0-13.0-1.2","33529","List2B","black","woman","","","","null","","","","","","","","",""
"null","is hugging","","html-keyboard-response","61","293091","0.0-13.0-2.2","33529","List2B","black","woman","","","","null","","","","","","","","",""
"7664","","","survey-text","62","300758","0.0-13.0-3.2","33529","List2B","black","woman","","","","","{""Q0"":""fred is hugging beth""}","<img src=""stim_listB/hug3.gif""style=""height:400px;""></stim_listB>","is hugging","","","","","",""
"null","<div style=""font-size:60px;"">+</div>","","html-keyboard-response","63","301262","0.0-13.0-0.3","33529","List2B","black","woman","","","","null","","","","","","","","",""
"null","<img src=""stim_listB/shout2.gif""style=""height:400px;""></stim_listB>","","html-keyboard-response","64","303268","0.0-13.0-1.3","33529","List2B","black","woman","","","","null","","","","","","","","",""
"null","is being shouted at by","","html-keyboard-response","65","305274","0.0-13.0-2.3","33529","List2B","black","woman","","","","null","","","","","","","","",""
"8450.099999999627","","","survey-text","66","313727","0.0-13.0-3.3","33529","List2B","black","woman","","","","","{""Q0"":""jane is shouted out by dave""}","<img src=""stim_listB/shout2.gif""style=""height:400px;""></stim_listB>","is being shouted at by","","","","","",""
"null","<div style=""font-size:60px;"">+</div>","","html-keyboard-response","67","314232","0.0-13.0-0.4","33529","List2B","black","woman","","","","null","","","","","","","","",""
"null","<img src=""stim_listB/hug2.gif""style=""height:400px;""></stim_listB>","","html-keyboard-response","68","316238","0.0-13.0-1.4","33529","List2B","black","woman","","","","null","","","","","","","","",""
"null","is being hugged by","","html-keyboard-response","69","318243","0.0-13.0-2.4","33529","List2B","black","woman","","","","null","","","","","","","","",""
"8614.200000000186","","","survey-text","70","326861","0.0-13.0-3.4","33529","List2B","black","woman","","","","","{""Q0"":""jane is hugged by dave""}","<img src=""stim_listB/hug2.gif""style=""height:400px;""></stim_listB>","is being hugged by","","","","","",""
"null","<div style=""font-size:60px;"">+</div>","","html-keyboard-response","71","327365","0.0-13.0-0.5","33529","List2B","black","woman","","","","null","","","","","","","","",""
"null","<img src=""stim_listB/seduce6.gif""style=""height:400px;""></stim_listB>","","html-keyboard-response","72","329372","0.0-13.0-1.5","33529","List2B","black","woman","","","","null","","","","","","","","",""
"null","is being seduced by","","html-keyboard-response","73","331377","0.0-13.0-2.5","33529","List2B","black","woman","","","","null","","","","","","","","",""
"10141.900000000373","","","survey-text","74","341523","0.0-13.0-3.5","33529","List2B","black","woman","","","","","{""Q0"":""fred is being seduced by dave""}","<img src=""stim_listB/seduce6.gif""style=""height:400px;""></stim_listB>","is being seduced by","","","","","",""
"null","<div style=""font-size:60px;"">+</div>","","html-keyboard-response","75","342027","0.0-13.0-0.6","33529","List2B","black","woman","","","","null","","","","","","","","",""
"null","<img src=""stim_listB/copy1.gif""style=""height:400px;""></stim_listB>","","html-keyboard-response","76","344033","0.0-13.0-1.6","33529","List2B","black","woman","","","","null","","","","","","","","",""
"null","is copying","","html-keyboard-response","77","346039","0.0-13.0-2.6","33529","List2B","black","woman","","","","null","","","","","","","","",""
"6768.200000000186","","","survey-text","78","352810","0.0-13.0-3.6","33529","List2B","black","woman","","","","","{""Q0"":""ruth is copying dave""}","<img src=""stim_listB/copy1.gif""style=""height:400px;""></stim_listB>","is copying","","","","","",""
"null","<div style=""font-size:60px;"">+</div>","","html-keyboard-response","79","353315","0.0-13.0-0.7","33529","List2B","black","woman","","","","null","","","","","","","","",""
"null","<img src=""stim_listB/look5.gif""style=""height:400px;""></stim_listB>","","html-keyboard-response","80","355323","0.0-13.0-1.7","33529","List2B","black","woman","","","","null","","","","","","","","",""
"null","is looking at","","html-keyboard-response","81","357329","0.0-13.0-2.7","33529","List2B","black","woman","","","","null","","","","","","","","",""
"3091.2000000001863","","","survey-text","82","360424","0.0-13.0-3.7","33529","List2B","black","woman","","","","","{""Q0"":""k""}","<img src=""stim_listB/look5.gif""style=""height:400px;""></stim_listB>","is looking at","","","","","",""
"null","<div style=""font-size:60px;"">+</div>","","html-keyboard-response","83","360928","0.0-13.0-0.8","33529","List2B","black","woman","","","","null","","","","","","","","",""
"null","<img src=""stim_listB/greet8.gif""style=""height:400px;""></stim_listB>","","html-keyboard-response","84","362935","0.0-13.0-1.8","33529","List2B","black","woman","","","","null","","","","","","","","",""
"null","is being greeted by","","html-keyboard-response","85","364941","0.0-13.0-2.8","33529","List2B","black","woman","","","","null","","","","","","","","",""
"9036.599999999627","","","survey-text","86","373982","0.0-13.0-3.8","33529","List2B","black","woman","","","","","{""Q0"":""kate is being greeted by ruth""}","<img src=""stim_listB/greet8.gif""style=""height:400px;""></stim_listB>","is being greeted by","","","","","",""
"null","<div style=""font-size:60px;"">+</div>","","html-keyboard-response","87","374486","0.0-13.0-0.9","33529","List2B","black","woman","","","","null","","","","","","","","",""
"null","<img src=""stim_listB/hug8.gif""style=""height:400px;""></stim_listB>","","html-keyboard-response","88","376493","0.0-13.0-1.9","33529","List2B","black","woman","","","","null","","","","","","","","",""
"null","is being hugged by","","html-keyboard-response","89","378498","0.0-13.0-2.9","33529","List2B","black","woman","","","","null","","","","","","","","",""
"7732.9000000003725","","","survey-text","90","386234","0.0-13.0-3.9","33529","List2B","black","woman","","","","","{""Q0"":""jane is being hugged by ruth""}","<img src=""stim_listB/hug8.gif""style=""height:400px;""></stim_listB>","is being hugged by","","","","","",""
"null","<div style=""font-size:60px;"">+</div>","","html-keyboard-response","91","386739","0.0-13.0-0.10","33529","List2B","black","woman","","","","null","","","","","","","","",""
"null","<img src=""stim_listB/shout6.gif""style=""height:400px;""></stim_listB>","","html-keyboard-response","92","388745","0.0-13.0-1.10","33529","List2B","black","woman","","","","null","","","","","","","","",""
"null","is being shouted at by","","html-keyboard-response","93","390751","0.0-13.0-2.10","33529","List2B","black","woman","","","","null","","","","","","","","",""
"5200.9000000003725","","","survey-text","94","395955","0.0-13.0-3.10","33529","List2B","black","woman","","","","","{""Q0"":""mike is being shouted by dave""}","<img src=""stim_listB/shout6.gif""style=""height:400px;""></stim_listB>","is being shouted at by","","","","","",""
"null","<div style=""font-size:60px;"">+</div>","","html-keyboard-response","95","396460","0.0-13.0-0.11","33529","List2B","black","woman","","","","null","","","","","","","","",""
"null","<img src=""stim_listB/seduce1.gif""style=""height:400px;""></stim_listB>","","html-keyboard-response","96","398467","0.0-13.0-1.11","33529","List2B","black","woman","","","","null","","","","","","","","",""
"null","is seducing","","html-keyboard-response","97","400473","0.0-13.0-2.11","33529","List2B","black","woman","","","","null","","","","","","","","",""
"8801","","","survey-text","98","409278","0.0-13.0-3.11","33529","List2B","black","woman","","","","","{""Q0"":""luke is seducing jane""}","<img src=""stim_listB/seduce1.gif""style=""height:400px;""></stim_listB>","is seducing","","","","","",""
"null","<div style=""font-size:60px;"">+</div>","","html-keyboard-response","99","409782","0.0-13.0-0.12","33529","List2B","black","woman","","","","null","","","","","","","","",""
"null","<img src=""stim_listB/touch3.gif""style=""height:400px;""></stim_listB>","","html-keyboard-response","100","411789","0.0-13.0-1.12","33529","List2B","black","woman","","","","null","","","","","","","","",""
"null","is touching","","html-keyboard-response","101","413792","0.0-13.0-2.12","33529","List2B","black","woman","","","","null","","","","","","","","",""
"6985.5","","","survey-text","102","420782","0.0-13.0-3.12","33529","List2B","black","woman","","","","","{""Q0"":""mike is touching jane""}","<img src=""stim_listB/touch3.gif""style=""height:400px;""></stim_listB>","is touching","","","","","",""
"null","<div style=""font-size:60px;"">+</div>","","html-keyboard-response","103","421286","0.0-13.0-0.13","33529","List2B","black","woman","","","","null","","","","","","","","",""
"null","<img src=""stim_listB/oppose3.gif""style=""height:400px;""></stim_listB>","","html-keyboard-response","104","423293","0.0-13.0-1.13","33529","List2B","black","woman","","","","null","","","","","","","","",""
"null","is opposing","","html-keyboard-response","105","425300","0.0-13.0-2.13","33529","List2B","black","woman","","","","null","","","","","","","","",""
"6906.899999999441","","","survey-text","106","432210","0.0-13.0-3.13","33529","List2B","black","woman","","","","","{""Q0"":""mike is opposing kate""}","<img src=""stim_listB/oppose3.gif""style=""height:400px;""></stim_listB>","is opposing","","","","","",""
"null","<div style=""font-size:60px;"">+</div>","","html-keyboard-response","107","432714","0.0-13.0-0.14","33529","List2B","black","woman","","","","null","","","","","","","","",""
"null","<img src=""stim_listB/kiss1.gif""style=""height:400px;""></stim_listB>","","html-keyboard-response","108","434721","0.0-13.0-1.14","33529","List2B","black","woman","","","","null","","","","","","","","",""
"null","is kissing","","html-keyboard-response","109","436721","0.0-13.0-2.14","33529","List2B","black","woman","","","","null","","","","","","","","",""
"7713.799999999814","","","survey-text","110","444438","0.0-13.0-3.14","33529","List2B","black","woman","","","","","{""Q0"":""jane is kssing like""}","<img src=""stim_listB/kiss1.gif""style=""height:400px;""></stim_listB>","is kissing","","","","","",""
"null","<div style=""font-size:60px;"">+</div>","","html-keyboard-response","111","444940","0.0-13.0-0.15","33529","List2B","black","woman","","","","null","","","","","","","","",""
"null","<img src=""stim_listB/copy4.gif""style=""height:400px;""></stim_listB>","","html-keyboard-response","112","446946","0.0-13.0-1.15","33529","List2B","black","woman","","","","null","","","","","","","","",""
"null","is being copied by","","html-keyboard-response","113","448951","0.0-13.0-2.15","33529","List2B","black","woman","","","","null","","","","","","","","",""
"1995.699999999255","","","survey-text","114","450950","0.0-13.0-3.15","33529","List2B","black","woman","","","","","{""Q0"":""jane""}","<img src=""stim_listB/copy4.gif""style=""height:400px;""></stim_listB>","is being copied by","","","","","",""
"null","<div style=""font-size:60px;"">+</div>","","html-keyboard-response","115","451454","0.0-13.0-0.16","33529","List2B","black","woman","","","","null","","","","","","","","",""
"null","<img src=""stim_listB/seduce2.gif""style=""height:400px;""></stim_listB>","","html-keyboard-response","116","453459","0.0-13.0-1.16","33529","List2B","black","woman","","","","null","","","","","","","","",""
"null","is being seduced by","","html-keyboard-response","117","455461","0.0-13.0-2.16","33529","List2B","black","woman","","","","null","","","","","","","","",""
"6772.9000000003725","","","survey-text","118","462237","0.0-13.0-3.16","33529","List2B","black","woman","","","","","{""Q0"":""ruth is being sduced by jake""}","<img src=""stim_listB/seduce2.gif""style=""height:400px;""></stim_listB>","is being seduced by","","","","","",""
"null","<div style=""font-size:60px;"">+</div>","","html-keyboard-response","119","462741","0.0-13.0-0.17","33529","List2B","black","woman","","","","null","","","","","","","","",""
"null","<img src=""stim_listB/seduce3.gif""style=""height:400px;""></stim_listB>","","html-keyboard-response","120","464748","0.0-13.0-1.17","33529","List2B","black","woman","","","","null","","","","","","","","",""
"null","is seducing","","html-keyboard-response","121","466754","0.0-13.0-2.17","33529","List2B","black","woman","","","","null","","","","","","","","",""
"16379.600000000559","","","survey-text","122","483138","0.0-13.0-3.17","33529","List2B","black","woman","","","","","{""Q0"":""jane""}","<img src=""stim_listB/seduce3.gif""style=""height:400px;""></stim_listB>","is seducing","","","","","",""
"null","<div style=""font-size:60px;"">+</div>","","html-keyboard-response","123","483642","0.0-13.0-0.18","33529","List2B","black","woman","","","","null","","","","","","","","",""
"null","<img src=""stim_listB/challenge4.gif""style=""height:400px;""></stim_listB>","","html-keyboard-response","124","485644","0.0-13.0-1.18","33529","List2B","black","woman","","","","null","","","","","","","","",""
"null","is being challenged by","","html-keyboard-response","125","487645","0.0-13.0-2.18","33529","List2B","black","woman","","","","null","","","","","","","","",""
"3890.7000000001863","","","survey-text","126","491539","0.0-13.0-3.18","33529","List2B","black","woman","","","","","{""Q0"":""kate""}","<img src=""stim_listB/challenge4.gif""style=""height:400px;""></stim_listB>","is being challenged by","","","","","",""
"null","<div style=""font-size:60px;"">+</div>","","html-keyboard-response","127","492043","0.0-13.0-0.19","33529","List2B","black","woman","","","","null","","","","","","","","",""
"null","<img src=""stim_listB/challenge5.gif""style=""height:400px;""></stim_listB>","","html-keyboard-response","128","494050","0.0-13.0-1.19","33529","List2B","black","woman","","","","null","","","","","","","","",""
"null","is challenging","","html-keyboard-response","129","496054","0.0-13.0-2.19","33529","List2B","black","woman","","","","null","","","","","","","","",""
"17689.900000000373","","","survey-text","130","513747","0.0-13.0-3.19","33529","List2B","black","woman","","","","","{""Q0"":""jane""}","<img src=""stim_listB/challenge5.gif""style=""height:400px;""></stim_listB>","is challenging","","","","","",""
"6488.800000000745","<img src='img/portrait_matrix_list2.jpg' style='width:900px;height:500px;''></img><p>If you have memorised all the portraits and names and are ready to start, press Continue.</p><p><strong>Please note: Your memory of these faces will be tested 4 times during this experiment.</strong></p>","0","html-button-response","131","520238","0.0-14.0-0.0","33529","List2B","black","woman","","","","","","","","","","","","",""
"9589.700000001118","<img src=""portrait/WW1.jpg""style=""height:400px;""></img>","1","html-button-response","132","530834","0.0-14.0-1.0","33529","List2B","black","woman","","true","1","","","","","","","","","",""
"null","CORRECT","","html-keyboard-response","133","532346","0.0-14.0-2.0-0.0","33529","List2B","black","woman","","","","null","","","","","","","","",""
"5877.0999999996275","<img src=""portrait/BM1.jpg""style=""height:400px;""></img>","4","html-button-response","134","538225","0.0-14.0-4.0","33529","List2B","black","woman","","true","4","","","","","","","","","",""
"null","CORRECT","","html-keyboard-response","135","539735","0.0-14.0-5.0-0.0","33529","List2B","black","woman","","","","null","","","","","","","","",""
"12782.799999998882","<img src=""portrait/WW2.jpg""style=""height:400px;""></img>","3","html-button-response","136","552520","0.0-14.0-7.0","33529","List2B","black","woman","","true","3","","","","","","","","","",""
"null","CORRECT","","html-keyboard-response","137","554031","0.0-14.0-8.0-0.0","33529","List2B","black","woman","","","","null","","","","","","","","",""
"13864.39999999851","<img src=""portrait/WM1.jpg""style=""height:400px;""></img>","6","html-button-response","138","567898","0.0-14.0-10.0","33529","List2B","black","woman","","true","6","","","","","","","","","",""
"null","CORRECT","","html-keyboard-response","139","569410","0.0-14.0-11.0-0.0","33529","List2B","black","woman","","","","null","","","","","","","","",""
"4518.800000000745","<img src=""portrait/BW2.jpg""style=""height:400px;""></img>","2","html-button-response","140","573931","0.0-14.0-13.0","33529","List2B","black","woman","","true","2","","","","","","","","","",""
"null","CORRECT","","html-keyboard-response","141","575443","0.0-14.0-14.0-0.0","33529","List2B","black","woman","","","","null","","","","","","","","",""
"2510.0999999996275","<img src=""portrait/BM2.jpg""style=""height:400px;""></img>","5","html-button-response","142","577955","0.0-14.0-16.0","33529","List2B","black","woman","","true","5","","","","","","","","","",""
"null","CORRECT","","html-keyboard-response","143","579467","0.0-14.0-17.0-0.0","33529","List2B","black","woman","","","","null","","","","","","","","",""
"3031.4000000003725","<img src=""portrait/WM2.jpg""style=""height:400px;""></img>","7","html-button-response","144","582501","0.0-14.0-19.0","33529","List2B","black","woman","","true","7","","","","","","","","","",""
"null","CORRECT","","html-keyboard-response","145","584013","0.0-14.0-20.0-0.0","33529","List2B","black","woman","","","","null","","","","","","","","",""
"3219.0999999996275","<img src=""portrait/BW1.jpg""style=""height:400px;""></img>","4","html-button-response","146","587235","0.0-14.0-22.0","33529","List2B","black","woman","","true","0","","","","","","","","","",""
"5607.39999999851","<img src=""portrait/BW1.jpg""style=""height:400px;""></img>","0","html-button-response","147","593850","0.0-14.0-24.0-0.0","33529","List2B","black","woman","","false","0","","","","","","","","","",""
"null","CORRECT","","html-keyboard-response","148","595363","0.0-14.0-24.0-1.0-0.0","33529","List2B","black","woman","","","","null","","","","","","","","",""
"1180.9000000003725","<p>You got 7 out of 8 right first time. Press Continue.</p>","0","html-button-response","149","596546","0.0-14.0-25.0","33529","List2B","black","woman","","","","","","","","","","","","",""
"1443.5","As you did not score 100%, the memory game will repeat. Press Continue.","0","html-button-response","150","598993","0.0-14.0-26.0-0.0","33529","List2B","black","woman","","","","","","","","","","","","",""
"1617.0999999996275","<img src='img/portrait_matrix_list2.jpg' style='width:900px;height:500px;''></img><p>If you have memorised all the portraits and names and are ready to start, press Continue.</p><p><strong>Please note: Your memory of these faces will be tested 4 times during this experiment.</strong></p>","0","html-button-response","151","601616","0.0-14.1-0.1","33529","List2B","black","woman","","","","","","","","","","","","",""
"2758.5","<img src=""portrait/WW1.jpg""style=""height:400px;""></img>","1","html-button-response","152","605380","0.0-14.1-1.1","33529","List2B","black","woman","","true","1","","","","","","","","","",""
"null","CORRECT","","html-keyboard-response","153","606893","0.0-14.1-2.1-0.1","33529","List2B","black","woman","","","","null","","","","","","","","",""
"3931.2999999988824","<img src=""portrait/BM1.jpg""style=""height:400px;""></img>","4","html-button-response","154","610827","0.0-14.1-4.1","33529","List2B","black","woman","","true","4","","","","","","","","","",""
"null","CORRECT","","html-keyboard-response","155","612337","0.0-14.1-5.1-0.1","33529","List2B","black","woman","","","","null","","","","","","","","",""
"3337.7000000011176","<img src=""portrait/WW2.jpg""style=""height:400px;""></img>","3","html-button-response","156","615678","0.0-14.1-7.1","33529","List2B","black","woman","","true","3","","","","","","","","","",""
"null","CORRECT","","html-keyboard-response","157","617190","0.0-14.1-8.1-0.1","33529","List2B","black","woman","","","","null","","","","","","","","",""
"4510.5999999996275","<img src=""portrait/WM1.jpg""style=""height:400px;""></img>","6","html-button-response","158","621703","0.0-14.1-10.1","33529","List2B","black","woman","","true","6","","","","","","","","","",""
"null","CORRECT","","html-keyboard-response","159","623215","0.0-14.1-11.1-0.1","33529","List2B","black","woman","","","","null","","","","","","","","",""
"7539.0999999996275","<img src=""portrait/BW2.jpg""style=""height:400px;""></img>","2","html-button-response","160","630757","0.0-14.1-13.1","33529","List2B","black","woman","","true","2","","","","","","","","","",""
"null","CORRECT","","html-keyboard-response","161","632270","0.0-14.1-14.1-0.1","33529","List2B","black","woman","","","","null","","","","","","","","",""
"3616.199999999255","<img src=""portrait/BM2.jpg""style=""height:400px;""></img>","5","html-button-response","162","635889","0.0-14.1-16.1","33529","List2B","black","woman","","true","5","","","","","","","","","",""
"null","CORRECT","","html-keyboard-response","163","637401","0.0-14.1-17.1-0.1","33529","List2B","black","woman","","","","null","","","","","","","","",""
"3618.800000000745","<img src=""portrait/WM2.jpg""style=""height:400px;""></img>","7","html-button-response","164","641023","0.0-14.1-19.1","33529","List2B","black","woman","","true","7","","","","","","","","","",""
"null","CORRECT","","html-keyboard-response","165","642534","0.0-14.1-20.1-0.1","33529","List2B","black","woman","","","","null","","","","","","","","",""
"5462","<img src=""portrait/BW1.jpg""style=""height:400px;""></img>","0","html-button-response","166","647999","0.0-14.1-22.1","33529","List2B","black","woman","","true","0","","","","","","","","","",""
"null","CORRECT","","html-keyboard-response","167","649509","0.0-14.1-23.1-0.1","33529","List2B","black","woman","","","","null","","","","","","","","",""
"3154.300000000745","<p>You got 8 out of 8 right first time. Press Continue.</p>","0","html-button-response","168","652665","0.0-14.1-25.1","33529","List2B","black","woman","","","","","","","","","","","","",""
"null","<div style=""font-size:60px;"">+</div>","","html-keyboard-response","169","654177","0.0-15.0-0.0","33529","List2B","black","woman","","","","null","","","","","","","","",""
"null","<img src=""stim_listB/challenge1.gif""style=""height:400px;""></stim_listB>","","html-keyboard-response","170","656184","0.0-15.0-1.0","33529","List2B","black","woman","","","","null","","","","","","","","",""
"null","is challenging","","html-keyboard-response","171","658186","0.0-15.0-2.0","33529","List2B","black","woman","","","","null","","","","","","","","",""
"5121.199999999255","","","survey-text","172","663311","0.0-15.0-3.0","33529","List2B","black","woman","","","","","{""Q0"":""jane and kate""}","<img src=""stim_listB/challenge1.gif""style=""height:400px;""></stim_listB>","is challenging","","","","","",""
"null","<div style=""font-size:60px;"">+</div>","","html-keyboard-response","173","663815","0.0-15.0-0.1","33529","List2B","black","woman","","","","null","","","","","","","","",""
"null","<img src=""stim_listB/greet3.gif""style=""height:400px;""></stim_listB>","","html-keyboard-response","174","665822","0.0-15.0-1.1","33529","List2B","black","woman","","","","null","","","","","","","","",""
"null","is greeting","","html-keyboard-response","175","667827","0.0-15.0-2.1","33529","List2B","black","woman","","","","null","","","","","","","","",""
"10612.5","","","survey-text","176","678443","0.0-15.0-3.1","33529","List2B","black","woman","","","","","{""Q0"":""mike is greeting beth""}","<img src=""stim_listB/greet3.gif""style=""height:400px;""></stim_listB>","is greeting","","","","","",""
"null","<div style=""font-size:60px;"">+</div>","","html-keyboard-response","177","678947","0.0-15.0-0.2","33529","List2B","black","woman","","","","null","","","","","","","","",""
"null","<img src=""stim_listB/seduce8.gif""style=""height:400px;""></stim_listB>","","html-keyboard-response","178","680953","0.0-15.0-1.2","33529","List2B","black","woman","","","","null","","","","","","","","",""
"null","is being seduced by","","html-keyboard-response","179","682955","0.0-15.0-2.2","33529","List2B","black","woman","","","","null","","","","","","","","",""
"9431.299999998882","","","survey-text","180","692389","0.0-15.0-3.2","33529","List2B","black","woman","","","","","{""Q0"":""beth is being seduced by jane""}","<img src=""stim_listB/seduce8.gif""style=""height:400px;""></stim_listB>","is being seduced by","","","","","",""
"null","<div style=""font-size:60px;"">+</div>","","html-keyboard-response","181","692894","0.0-15.0-0.3","33529","List2B","black","woman","","","","null","","","","","","","","",""
"null","<img src=""stim_listB/greet6.gif""style=""height:400px;""></stim_listB>","","html-keyboard-response","182","694896","0.0-15.0-1.3","33529","List2B","black","woman","","","","null","","","","","","","","",""
"null","is being greeted by","","html-keyboard-response","183","696900","0.0-15.0-2.3","33529","List2B","black","woman","","","","null","","","","","","","","",""
"7418.5","","","survey-text","184","704322","0.0-15.0-3.3","33529","List2B","black","woman","","","","","{""Q0"":""luke is bieng greeted by mike""}","<img src=""stim_listB/greet6.gif""style=""height:400px;""></stim_listB>","is being greeted by","","","","","",""
"null","<div style=""font-size:60px;"">+</div>","","html-keyboard-response","185","704827","0.0-15.0-0.4","33529","List2B","black","woman","","","","null","","","","","","","","",""
"null","<img src=""stim_listB/look7.gif""style=""height:400px;""></stim_listB>","","html-keyboard-response","186","706834","0.0-15.0-1.4","33529","List2B","black","woman","","","","null","","","","","","","","",""
"null","is looking at","","html-keyboard-response","187","708840","0.0-15.0-2.4","33529","List2B","black","woman","","","","null","","","","","","","","",""
"5992.300000000745","","","survey-text","188","714836","0.0-15.0-3.4","33529","List2B","black","woman","","","","","{""Q0"":""ruth is looking at beth""}","<img src=""stim_listB/look7.gif""style=""height:400px;""></stim_listB>","is looking at","","","","","",""
"null","<div style=""font-size:60px;"">+</div>","","html-keyboard-response","189","715340","0.0-15.0-0.5","33529","List2B","black","woman","","","","null","","","","","","","","",""
"null","<img src=""stim_listB/oppose7.gif""style=""height:400px;""></stim_listB>","","html-keyboard-response","190","717344","0.0-15.0-1.5","33529","List2B","black","woman","","","","null","","","","","","","","",""
"null","is opposing","","html-keyboard-response","191","719345","0.0-15.0-2.5","33529","List2B","black","woman","","","","null","","","","","","","","",""
"6887.200000001118","","","survey-text","192","726235","0.0-15.0-3.5","33529","List2B","black","woman","","","","","{""Q0"":""kate is opposing jane""}","<img src=""stim_listB/oppose7.gif""style=""height:400px;""></stim_listB>","is opposing","","","","","",""
"null","<div style=""font-size:60px;"">+</div>","","html-keyboard-response","193","726740","0.0-15.0-0.6","33529","List2B","black","woman","","","","null","","","","","","","","",""
"null","<img src=""stim_listB/challenge7.gif""style=""height:400px;""></stim_listB>","","html-keyboard-response","194","728744","0.0-15.0-1.6","33529","List2B","black","woman","","","","null","","","","","","","","",""
"null","is challenging","","html-keyboard-response","195","730746","0.0-15.0-2.6","33529","List2B","black","woman","","","","null","","","","","","","","",""
"1317.5999999996275","","","survey-text","196","732067","0.0-15.0-3.6","33529","List2B","black","woman","","","","","{""Q0"":""d""}","<img src=""stim_listB/challenge7.gif""style=""height:400px;""></stim_listB>","is challenging","","","","","",""
"null","<div style=""font-size:60px;"">+</div>","","html-keyboard-response","197","732570","0.0-15.0-0.7","33529","List2B","black","woman","","","","null","","","","","","","","",""
"null","<img src=""stim_listB/copy8.gif""style=""height:400px;""></stim_listB>","","html-keyboard-response","198","734572","0.0-15.0-1.7","33529","List2B","black","woman","","","","null","","","","","","","","",""
"null","is being copied by","","html-keyboard-response","199","736575","0.0-15.0-2.7","33529","List2B","black","woman","","","","null","","","","","","","","",""
"6751.199999999255","","","survey-text","200","743331","0.0-15.0-3.7","33529","List2B","black","woman","","","","","{""Q0"":""kate""}","<img src=""stim_listB/copy8.gif""style=""height:400px;""></stim_listB>","is being copied by","","","","","",""
"null","<div style=""font-size:60px;"">+</div>","","html-keyboard-response","201","743835","0.0-15.0-0.8","33529","List2B","black","woman","","","","null","","","","","","","","",""
"null","<img src=""stim_listB/oppose8.gif""style=""height:400px;""></stim_listB>","","html-keyboard-response","202","745841","0.0-15.0-1.8","33529","List2B","black","woman","","","","null","","","","","","","","",""
"null","is being opposed by","","html-keyboard-response","203","747847","0.0-15.0-2.8","33529","List2B","black","woman","","","","null","","","","","","","","",""
"6785.5999999996275","","","survey-text","204","754636","0.0-15.0-3.8","33529","List2B","black","woman","","","","","{""Q0"":""j""}","<img src=""stim_listB/oppose8.gif""style=""height:400px;""></stim_listB>","is being opposed by","","","","","",""
"null","<div style=""font-size:60px;"">+</div>","","html-keyboard-response","205","755138","0.0-15.0-0.9","33529","List2B","black","woman","","","","null","","","","","","","","",""
"null","<img src=""stim_listB/oppose6.gif""style=""height:400px;""></stim_listB>","","html-keyboard-response","206","757145","0.0-15.0-1.9","33529","List2B","black","woman","","","","null","","","","","","","","",""
"null","is being opposed by","","html-keyboard-response","207","759148","0.0-15.0-2.9","33529","List2B","black","woman","","","","null","","","","","","","","",""
"6883.5","","","survey-text","208","766035","0.0-15.0-3.9","33529","List2B","black","woman","","","","","{""Q0"":""luke""}","<img src=""stim_listB/oppose6.gif""style=""height:400px;""></stim_listB>","is being opposed by","","","","","",""
"null","<div style=""font-size:60px;"">+</div>","","html-keyboard-response","209","766538","0.0-15.0-0.10","33529","List2B","black","woman","","","","null","","","","","","","","",""
"null","<img src=""stim_listB/kiss3.gif""style=""height:400px;""></stim_listB>","","html-keyboard-response","210","768544","0.0-15.0-1.10","33529","List2B","black","woman","","","","null","","","","","","","","",""
"null","is kissing","","html-keyboard-response","211","770550","0.0-15.0-2.10","33529","List2B","black","woman","","","","null","","","","","","","","",""
"6952.9000000003725","","","survey-text","212","777506","0.0-15.0-3.10","33529","List2B","black","woman","","","","","{""Q0"":""is kissing ruth""}","<img src=""stim_listB/kiss3.gif""style=""height:400px;""></stim_listB>","is kissing","","","","","",""
"null","<div style=""font-size:60px;"">+</div>","","html-keyboard-response","213","778008","0.0-15.0-0.11","33529","List2B","black","woman","","","","null","","","","","","","","",""
"null","<img src=""stim_listB/look2.gif""style=""height:400px;""></stim_listB>","","html-keyboard-response","214","780016","0.0-15.0-1.11","33529","List2B","black","woman","","","","null","","","","","","","","",""
"null","is being looked at by","","html-keyboard-response","215","782022","0.0-15.0-2.11","33529","List2B","black","woman","","","","null","","","","","","","","",""
"1751.800000000745","","","survey-text","216","783777","0.0-15.0-3.11","33529","List2B","black","woman","","","","","{""Q0"":""jane""}","<img src=""stim_listB/look2.gif""style=""height:400px;""></stim_listB>","is being looked at by","","","","","",""
"null","<div style=""font-size:60px;"">+</div>","","html-keyboard-response","217","784282","0.0-15.0-0.12","33529","List2B","black","woman","","","","null","","","","","","","","",""
"null","<img src=""stim_listB/oppose2.gif""style=""height:400px;""></stim_listB>","","html-keyboard-response","218","786289","0.0-15.0-1.12","33529","List2B","black","woman","","","","null","","","","","","","","",""
"null","is being opposed by","","html-keyboard-response","219","788295","0.0-15.0-2.12","33529","List2B","black","woman","","","","null","","","","","","","","",""
"2309.0999999996275","","","survey-text","220","790608","0.0-15.0-3.12","33529","List2B","black","woman","","","","","{""Q0"":""ruth""}","<img src=""stim_listB/oppose2.gif""style=""height:400px;""></stim_listB>","is being opposed by","","","","","",""
"null","<div style=""font-size:60px;"">+</div>","","html-keyboard-response","221","791112","0.0-15.0-0.13","33529","List2B","black","woman","","","","null","","","","","","","","",""
"null","<img src=""stim_listB/copy5.gif""style=""height:400px;""></stim_listB>","","html-keyboard-response","222","793119","0.0-15.0-1.13","33529","List2B","black","woman","","","","null","","","","","","","","",""
"null","is copying","","html-keyboard-response","223","795126","0.0-15.0-2.13","33529","List2B","black","woman","","","","null","","","","","","","","",""
"8149.699999999255","","","survey-text","224","803279","0.0-15.0-3.13","33529","List2B","black","woman","","","","","{""Q0"":""dave is opposied""}","<img src=""stim_listB/copy5.gif""style=""height:400px;""></stim_listB>","is copying","","","","","",""
"null","<div style=""font-size:60px;"">+</div>","","html-keyboard-response","225","803782","0.0-15.0-0.14","33529","List2B","black","woman","","","","null","","","","","","","","",""
"null","<img src=""stim_listB/hug6.gif""style=""height:400px;""></stim_listB>","","html-keyboard-response","226","805786","0.0-15.0-1.14","33529","List2B","black","woman","","","","null","","","","","","","","",""
"null","is being hugged by","","html-keyboard-response","227","807790","0.0-15.0-2.14","33529","List2B","black","woman","","","","null","","","","","","","","",""
"2388.0999999996275","","","survey-text","228","810183","0.0-15.0-3.14","33529","List2B","black","woman","","","","","{""Q0"":""jane""}","<img src=""stim_listB/hug6.gif""style=""height:400px;""></stim_listB>","is being hugged by","","","","","",""
"null","<div style=""font-size:60px;"">+</div>","","html-keyboard-response","229","810685","0.0-15.0-0.15","33529","List2B","black","woman","","","","null","","","","","","","","",""
"null","<img src=""stim_listB/greet2.gif""style=""height:400px;""></stim_listB>","","html-keyboard-response","230","812690","0.0-15.0-1.15","33529","List2B","black","woman","","","","null","","","","","","","","",""
"null","is being greeted by","","html-keyboard-response","231","814696","0.0-15.0-2.15","33529","List2B","black","woman","","","","null","","","","","","","","",""
"2055.800000000745","","","survey-text","232","816754","0.0-15.0-3.15","33529","List2B","black","woman","","","","","{""Q0"":""kate""}","<img src=""stim_listB/greet2.gif""style=""height:400px;""></stim_listB>","is being greeted by","","","","","",""
"null","<div style=""font-size:60px;"">+</div>","","html-keyboard-response","233","817257","0.0-15.0-0.16","33529","List2B","black","woman","","","","null","","","","","","","","",""
"null","<img src=""stim_listB/oppose5.gif""style=""height:400px;""></stim_listB>","","html-keyboard-response","234","819265","0.0-15.0-1.16","33529","List2B","black","woman","","","","null","","","","","","","","",""
"null","is opposing","","html-keyboard-response","235","821267","0.0-15.0-2.16","33529","List2B","black","woman","","","","null","","","","","","","","",""
"8205.199999999255","","","survey-text","236","829476","0.0-15.0-3.16","33529","List2B","black","woman","","","","","{""Q0"":""mike is opposing dave""}","<img src=""stim_listB/oppose5.gif""style=""height:400px;""></stim_listB>","is opposing","","","","","",""
"null","<div style=""font-size:60px;"">+</div>","","html-keyboard-response","237","829980","0.0-15.0-0.17","33529","List2B","black","woman","","","","null","","","","","","","","",""
"null","<img src=""stim_listB/shout4.gif""style=""height:400px;""></stim_listB>","","html-keyboard-response","238","831987","0.0-15.0-1.17","33529","List2B","black","woman","","","","null","","","","","","","","",""
"null","is being shouted at by","","html-keyboard-response","239","833988","0.0-15.0-2.17","33529","List2B","black","woman","","","","null","","","","","","","","",""
"1947.5","","","survey-text","240","835938","0.0-15.0-3.17","33529","List2B","black","woman","","","","","{""Q0"":""mike""}","<img src=""stim_listB/shout4.gif""style=""height:400px;""></stim_listB>","is being shouted at by","","","","","",""
"null","<div style=""font-size:60px;"">+</div>","","html-keyboard-response","241","836442","0.0-15.0-0.18","33529","List2B","black","woman","","","","null","","","","","","","","",""
"null","<img src=""stim_listB/greet5.gif""style=""height:400px;""></stim_listB>","","html-keyboard-response","242","838449","0.0-15.0-1.18","33529","List2B","black","woman","","","","null","","","","","","","","",""
"null","is greeting","","html-keyboard-response","243","840455","0.0-15.0-2.18","33529","List2B","black","woman","","","","null","","","","","","","","",""
"4377.800000000745","","","survey-text","244","844836","0.0-15.0-3.18","33529","List2B","black","woman","","","","","{""Q0"":""fred""}","<img src=""stim_listB/greet5.gif""style=""height:400px;""></stim_listB>","is greeting","","","","","",""
"null","<div style=""font-size:60px;"">+</div>","","html-keyboard-response","245","845339","0.0-15.0-0.19","33529","List2B","black","woman","","","","null","","","","","","","","",""
"null","<img src=""stim_listB/touch2.gif""style=""height:400px;""></stim_listB>","","html-keyboard-response","246","847345","0.0-15.0-1.19","33529","List2B","black","woman","","","","null","","","","","","","","",""
"null","is being touched by","","html-keyboard-response","247","849352","0.0-15.0-2.19","33529","List2B","black","woman","","","","null","","","","","","","","",""
"1738.5999999996275","","","survey-text","248","851093","0.0-15.0-3.19","33529","List2B","black","woman","","","","","{""Q0"":""ruth""}","<img src=""stim_listB/touch2.gif""style=""height:400px;""></stim_listB>","is being touched by","","","","","",""
"2364.2999999988824","<img src='img/portrait_matrix_list2.jpg' style='width:900px;height:500px;''></img><p>If you have memorised all the portraits and names and are ready to start, press Continue.</p><p><strong>Please note: Your memory of these faces will be tested 4 times during this experiment.</strong></p>","0","html-button-response","249","853460","0.0-16.0-0.0","33529","List2B","black","woman","","","","","","","","","","","","",""
"3115.39999999851","<img src=""portrait/WM1.jpg""style=""height:400px;""></img>","6","html-button-response","250","857581","0.0-16.0-1.0","33529","List2B","black","woman","","true","6","","","","","","","","","",""
"null","CORRECT","","html-keyboard-response","251","859093","0.0-16.0-2.0-0.0","33529","List2B","black","woman","","","","null","","","","","","","","",""
"5679.699999999255","<img src=""portrait/BW2.jpg""style=""height:400px;""></img>","2","html-button-response","252","864774","0.0-16.0-4.0","33529","List2B","black","woman","","true","2","","","","","","","","","",""
"null","CORRECT","","html-keyboard-response","253","866286","0.0-16.0-5.0-0.0","33529","List2B","black","woman","","","","null","","","","","","","","",""
"5138.9000000003725","<img src=""portrait/WW2.jpg""style=""height:400px;""></img>","3","html-button-response","254","871427","0.0-16.0-7.0","33529","List2B","black","woman","","true","3","","","","","","","","","",""
"null","CORRECT","","html-keyboard-response","255","872937","0.0-16.0-8.0-0.0","33529","List2B","black","woman","","","","null","","","","","","","","",""
"2321.0999999996275","<img src=""portrait/BW1.jpg""style=""height:400px;""></img>","0","html-button-response","256","875260","0.0-16.0-10.0","33529","List2B","black","woman","","true","0","","","","","","","","","",""
"null","CORRECT","","html-keyboard-response","257","876767","0.0-16.0-11.0-0.0","33529","List2B","black","woman","","","","null","","","","","","","","",""
"1851.1000000014901","<img src=""portrait/WW1.jpg""style=""height:400px;""></img>","1","html-button-response","258","878620","0.0-16.0-13.0","33529","List2B","black","woman","","true","1","","","","","","","","","",""
"null","CORRECT","","html-keyboard-response","259","880132","0.0-16.0-14.0-0.0","33529","List2B","black","woman","","","","null","","","","","","","","",""
"1966.699999999255","<img src=""portrait/BM2.jpg""style=""height:400px;""></img>","5","html-button-response","260","882101","0.0-16.0-16.0","33529","List2B","black","woman","","true","5","","","","","","","","","",""
"null","CORRECT","","html-keyboard-response","261","883613","0.0-16.0-17.0-0.0","33529","List2B","black","woman","","","","null","","","","","","","","",""
"1974","<img src=""portrait/BM1.jpg""style=""height:400px;""></img>","4","html-button-response","262","885589","0.0-16.0-19.0","33529","List2B","black","woman","","true","4","","","","","","","","","",""
"null","CORRECT","","html-keyboard-response","263","887100","0.0-16.0-20.0-0.0","33529","List2B","black","woman","","","","null","","","","","","","","",""
"3921.5999999996275","<img src=""portrait/WM2.jpg""style=""height:400px;""></img>","7","html-button-response","264","891023","0.0-16.0-22.0","33529","List2B","black","woman","","true","7","","","","","","","","","",""
"null","CORRECT","","html-keyboard-response","265","892533","0.0-16.0-23.0-0.0","33529","List2B","black","woman","","","","null","","","","","","","","",""
"1214.5999999996275","<p>You got 8 out of 8 right first time. Press Continue.</p>","0","html-button-response","266","893750","0.0-16.0-25.0","33529","List2B","black","woman","","","","","","","","","","","","",""
"null","<div style=""font-size:60px;"">+</div>","","html-keyboard-response","267","895262","0.0-17.0-0.0","33529","List2B","black","woman","","","","null","","","","","","","","",""
"null","<img src=""stim_listB/seduce4.gif""style=""height:400px;""></stim_listB>","","html-keyboard-response","268","897269","0.0-17.0-1.0","33529","List2B","black","woman","","","","null","","","","","","","","",""
"null","is being seduced by","","html-keyboard-response","269","899276","0.0-17.0-2.0","33529","List2B","black","woman","","","","null","","","","","","","","",""
"1760.7000000011176","","","survey-text","270","901039","0.0-17.0-3.0","33529","List2B","black","woman","","","","","{""Q0"":""mike""}","<img src=""stim_listB/seduce4.gif""style=""height:400px;""></stim_listB>","is being seduced by","","","","","",""
"null","<div style=""font-size:60px;"">+</div>","","html-keyboard-response","271","901544","0.0-17.0-0.1","33529","List2B","black","woman","","","","null","","","","","","","","",""
"null","<img src=""stim_listB/hug4.gif""style=""height:400px;""></stim_listB>","","html-keyboard-response","272","903550","0.0-17.0-1.1","33529","List2B","black","woman","","","","null","","","","","","","","",""
"null","is being hugged by","","html-keyboard-response","273","905553","0.0-17.0-2.1","33529","List2B","black","woman","","","","null","","","","","","","","",""
"8089.5","","","survey-text","274","913646","0.0-17.0-3.1","33529","List2B","black","woman","","","","","{""Q0"":""mike""}","<img src=""stim_listB/hug4.gif""style=""height:400px;""></stim_listB>","is being hugged by","","","","","",""
"null","<div style=""font-size:60px;"">+</div>","","html-keyboard-response","275","914150","0.0-17.0-0.2","33529","List2B","black","woman","","","","null","","","","","","","","",""
"null","<img src=""stim_listB/oppose4.gif""style=""height:400px;""></stim_listB>","","html-keyboard-response","276","916157","0.0-17.0-1.2","33529","List2B","black","woman","","","","null","","","","","","","","",""
"null","is being opposed by","","html-keyboard-response","277","918162","0.0-17.0-2.2","33529","List2B","black","woman","","","","null","","","","","","","","",""
"3917.4000000003725","","","survey-text","278","922083","0.0-17.0-3.2","33529","List2B","black","woman","","","","","{""Q0"":""fred beth""}","<img src=""stim_listB/oppose4.gif""style=""height:400px;""></stim_listB>","is being opposed by","","","","","",""
"null","<div style=""font-size:60px;"">+</div>","","html-keyboard-response","279","922587","0.0-17.0-0.3","33529","List2B","black","woman","","","","null","","","","","","","","",""
"null","<img src=""stim_listB/touch8.gif""style=""height:400px;""></stim_listB>","","html-keyboard-response","280","924594","0.0-17.0-1.3","33529","List2B","black","woman","","","","null","","","","","","","","",""
"null","is being touched by","","html-keyboard-response","281","926599","0.0-17.0-2.3","33529","List2B","black","woman","","","","null","","","","","","","","",""
"2851.9000000003725","","","survey-text","282","929454","0.0-17.0-3.3","33529","List2B","black","woman","","","","","{""Q0"":""mike""}","<img src=""stim_listB/touch8.gif""style=""height:400px;""></stim_listB>","is being touched by","","","","","",""
"null","<div style=""font-size:60px;"">+</div>","","html-keyboard-response","283","929959","0.0-17.0-0.4","33529","List2B","black","woman","","","","null","","","","","","","","",""
"null","<img src=""stim_listB/seduce7.gif""style=""height:400px;""></stim_listB>","","html-keyboard-response","284","931965","0.0-17.0-1.4","33529","List2B","black","woman","","","","null","","","","","","","","",""
"null","is seducing","","html-keyboard-response","285","933970","0.0-17.0-2.4","33529","List2B","black","woman","","","","null","","","","","","","","",""
"3515","","","survey-text","286","937488","0.0-17.0-3.4","33529","List2B","black","woman","","","","","{""Q0"":""mike""}","<img src=""stim_listB/seduce7.gif""style=""height:400px;""></stim_listB>","is seducing","","","","","",""
"null","<div style=""font-size:60px;"">+</div>","","html-keyboard-response","287","937992","0.0-17.0-0.5","33529","List2B","black","woman","","","","null","","","","","","","","",""
"null","<img src=""stim_listB/greet1.gif""style=""height:400px;""></stim_listB>","","html-keyboard-response","288","939999","0.0-17.0-1.5","33529","List2B","black","woman","","","","null","","","","","","","","",""
"null","is greeting","","html-keyboard-response","289","942006","0.0-17.0-2.5","33529","List2B","black","woman","","","","null","","","","","","","","",""
"2559.5999999996275","","","survey-text","290","944569","0.0-17.0-3.5","33529","List2B","black","woman","","","","","{""Q0"":""jane""}","<img src=""stim_listB/greet1.gif""style=""height:400px;""></stim_listB>","is greeting","","","","","",""
"null","<div style=""font-size:60px;"">+</div>","","html-keyboard-response","291","945073","0.0-17.0-0.6","33529","List2B","black","woman","","","","null","","","","","","","","",""
"null","<img src=""stim_listB/challenge2.gif""style=""height:400px;""></stim_listB>","","html-keyboard-response","292","947080","0.0-17.0-1.6","33529","List2B","black","woman","","","","null","","","","","","","","",""
"null","is being challenged by","","html-keyboard-response","293","949087","0.0-17.0-2.6","33529","List2B","black","woman","","","","null","","","","","","","","",""
"25896.5","","","survey-text","294","974988","0.0-17.0-3.6","33529","List2B","black","woman","","","","","{""Q0"":""mike""}","<img src=""stim_listB/challenge2.gif""style=""height:400px;""></stim_listB>","is being challenged by","","","","","",""
"null","<div style=""font-size:60px;"">+</div>","","html-keyboard-response","295","975490","0.0-17.0-0.7","33529","List2B","black","woman","","","","null","","","","","","","","",""
"null","<img src=""stim_listB/challenge8.gif""style=""height:400px;""></stim_listB>","","html-keyboard-response","296","977497","0.0-17.0-1.7","33529","List2B","black","woman","","","","null","","","","","","","","",""
"null","is being challenged by","","html-keyboard-response","297","979499","0.0-17.0-2.7","33529","List2B","black","woman","","","","null","","","","","","","","",""
"5730.300000000745","","","survey-text","298","985233","0.0-17.0-3.7","33529","List2B","black","woman","","","","","{""Q0"":""ruth and fran""}","<img src=""stim_listB/challenge8.gif""style=""height:400px;""></stim_listB>","is being challenged by","","","","","",""
"null","<div style=""font-size:60px;"">+</div>","","html-keyboard-response","299","985737","0.0-17.0-0.8","33529","List2B","black","woman","","","","null","","","","","","","","",""
"null","<img src=""stim_listB/hug7.gif""style=""height:400px;""></stim_listB>","","html-keyboard-response","300","987745","0.0-17.0-1.8","33529","List2B","black","woman","","","","null","","","","","","","","",""
"null","is hugging","","html-keyboard-response","301","989750","0.0-17.0-2.8","33529","List2B","black","woman","","","","null","","","","","","","","",""
"2556.2999999988824","","","survey-text","302","992310","0.0-17.0-3.8","33529","List2B","black","woman","","","","","{""Q0"":""is hugging""}","<img src=""stim_listB/hug7.gif""style=""height:400px;""></stim_listB>","is hugging","","","","","",""
"null","<div style=""font-size:60px;"">+</div>","","html-keyboard-response","303","992814","0.0-17.0-0.9","33529","List2B","black","woman","","","","null","","","","","","","","",""
"null","<img src=""stim_listB/copy7.gif""style=""height:400px;""></stim_listB>","","html-keyboard-response","304","994821","0.0-17.0-1.9","33529","List2B","black","woman","","","","null","","","","","","","","",""
"null","is copying","","html-keyboard-response","305","996828","0.0-17.0-2.9","33529","List2B","black","woman","","","","null","","","","","","","","",""
"4368.4000000003725","","","survey-text","306","1001200","0.0-17.0-3.9","33529","List2B","black","woman","","","","","{""Q0"":""ruth jane""}","<img src=""stim_listB/copy7.gif""style=""height:400px;""></stim_listB>","is copying","","","","","",""
"null","<div style=""font-size:60px;"">+</div>","","html-keyboard-response","307","1001704","0.0-17.0-0.10","33529","List2B","black","woman","","","","null","","","","","","","","",""
"null","<img src=""stim_listB/greet4.gif""style=""height:400px;""></stim_listB>","","html-keyboard-response","308","1003708","0.0-17.0-1.10","33529","List2B","black","woman","","","","null","","","","","","","","",""
"null","is being greeted by","","html-keyboard-response","309","1005715","0.0-17.0-2.10","33529","List2B","black","woman","","","","null","","","","","","","","",""
"2837.9000000003725","","","survey-text","310","1008556","0.0-17.0-3.10","33529","List2B","black","woman","","","","","{""Q0"":""fred ""}","<img src=""stim_listB/greet4.gif""style=""height:400px;""></stim_listB>","is being greeted by","","","","","",""
"null","<div style=""font-size:60px;"">+</div>","","html-keyboard-response","311","1009058","0.0-17.0-0.11","33529","List2B","black","woman","","","","null","","","","","","","","",""
"null","<img src=""stim_listB/kiss2.gif""style=""height:400px;""></stim_listB>","","html-keyboard-response","312","1011060","0.0-17.0-1.11","33529","List2B","black","woman","","","","null","","","","","","","","",""
"null","is being kissed by","","html-keyboard-response","313","1013062","0.0-17.0-2.11","33529","List2B","black","woman","","","","null","","","","","","","","",""
"3297","","","survey-text","314","1016363","0.0-17.0-3.11","33529","List2B","black","woman","","","","","{""Q0"":""nuje""}","<img src=""stim_listB/kiss2.gif""style=""height:400px;""></stim_listB>","is being kissed by","","","","","",""
"null","<div style=""font-size:60px;"">+</div>","","html-keyboard-response","315","1016867","0.0-17.0-0.12","33529","List2B","black","woman","","","","null","","","","","","","","",""
"null","<img src=""stim_listB/touch6.gif""style=""height:400px;""></stim_listB>","","html-keyboard-response","316","1018870","0.0-17.0-1.12","33529","List2B","black","woman","","","","null","","","","","","","","",""
"null","is being touched by","","html-keyboard-response","317","1020877","0.0-17.0-2.12","33529","List2B","black","woman","","","","null","","","","","","","","",""
"6994.60000000149","","","survey-text","318","1027875","0.0-17.0-3.12","33529","List2B","black","woman","","","","","{""Q0"":""fred  luke""}","<img src=""stim_listB/touch6.gif""style=""height:400px;""></stim_listB>","is being touched by","","","","","",""
"null","<div style=""font-size:60px;"">+</div>","","html-keyboard-response","319","1028376","0.0-17.0-0.13","33529","List2B","black","woman","","","","null","","","","","","","","",""
"null","<img src=""stim_listB/shout3.gif""style=""height:400px;""></stim_listB>","","html-keyboard-response","320","1030383","0.0-17.0-1.13","33529","List2B","black","woman","","","","null","","","","","","","","",""
"null","is shouting at","","html-keyboard-response","321","1032388","0.0-17.0-2.13","33529","List2B","black","woman","","","","null","","","","","","","","",""
"5886.0999999996275","","","survey-text","322","1038277","0.0-17.0-3.13","33529","List2B","black","woman","","","","","{""Q0"":""fred beth""}","<img src=""stim_listB/shout3.gif""style=""height:400px;""></stim_listB>","is shouting at","","","","","",""
"null","<div style=""font-size:60px;"">+</div>","","html-keyboard-response","323","1038781","0.0-17.0-0.14","33529","List2B","black","woman","","","","null","","","","","","","","",""
"null","<img src=""stim_listB/kiss5.gif""style=""height:400px;""></stim_listB>","","html-keyboard-response","324","1040784","0.0-17.0-1.14","33529","List2B","black","woman","","","","null","","","","","","","","",""
"null","is kissing","","html-keyboard-response","325","1042790","0.0-17.0-2.14","33529","List2B","black","woman","","","","null","","","","","","","","",""
"4463.800000000745","","","survey-text","326","1047257","0.0-17.0-3.14","33529","List2B","black","woman","","","","","{""Q0"":""fred""}","<img src=""stim_listB/kiss5.gif""style=""height:400px;""></stim_listB>","is kissing","","","","","",""
"null","<div style=""font-size:60px;"">+</div>","","html-keyboard-response","327","1047761","0.0-17.0-0.15","33529","List2B","black","woman","","","","null","","","","","","","","",""
"null","<img src=""stim_listB/copy3.gif""style=""height:400px;""></stim_listB>","","html-keyboard-response","328","1049768","0.0-17.0-1.15","33529","List2B","black","woman","","","","null","","","","","","","","",""
"null","is copying","","html-keyboard-response","329","1051774","0.0-17.0-2.15","33529","List2B","black","woman","","","","null","","","","","","","","",""
"2692.2999999988824","","","survey-text","330","1054469","0.0-17.0-3.15","33529","List2B","black","woman","","","","","{""Q0"":""k""}","<img src=""stim_listB/copy3.gif""style=""height:400px;""></stim_listB>","is copying","","","","","",""
"null","<div style=""font-size:60px;"">+</div>","","html-keyboard-response","331","1054974","0.0-17.0-0.16","33529","List2B","black","woman","","","","null","","","","","","","","",""
"null","<img src=""stim_listB/kiss6.gif""style=""height:400px;""></stim_listB>","","html-keyboard-response","332","1056981","0.0-17.0-1.16","33529","List2B","black","woman","","","","null","","","","","","","","",""
"null","is being kissed by","","html-keyboard-response","333","1058985","0.0-17.0-2.16","33529","List2B","black","woman","","","","null","","","","","","","","",""
"6883.5999999996275","","","survey-text","334","1065871","0.0-17.0-3.16","33529","List2B","black","woman","","","","","{""Q0"":""dave is being kissed by mike""}","<img src=""stim_listB/kiss6.gif""style=""height:400px;""></stim_listB>","is being kissed by","","","","","",""
"null","<div style=""font-size:60px;"">+</div>","","html-keyboard-response","335","1066376","0.0-17.0-0.17","33529","List2B","black","woman","","","","null","","","","","","","","",""
"null","<img src=""stim_listB/greet7.gif""style=""height:400px;""></stim_listB>","","html-keyboard-response","336","1068381","0.0-17.0-1.17","33529","List2B","black","woman","","","","null","","","","","","","","",""
"null","is greeting","","html-keyboard-response","337","1070387","0.0-17.0-2.17","33529","List2B","black","woman","","","","null","","","","","","","","",""
"2255.2999999988824","","","survey-text","338","1072645","0.0-17.0-3.17","33529","List2B","black","woman","","","","","{""Q0"":""jane""}","<img src=""stim_listB/greet7.gif""style=""height:400px;""></stim_listB>","is greeting","","","","","",""
"null","<div style=""font-size:60px;"">+</div>","","html-keyboard-response","339","1073150","0.0-17.0-0.18","33529","List2B","black","woman","","","","null","","","","","","","","",""
"null","<img src=""stim_listB/look8.gif""style=""height:400px;""></stim_listB>","","html-keyboard-response","340","1075157","0.0-17.0-1.18","33529","List2B","black","woman","","","","null","","","","","","","","",""
"null","is being looked at by","","html-keyboard-response","341","1077161","0.0-17.0-2.18","33529","List2B","black","woman","","","","null","","","","","","","","",""
"1431.5","","","survey-text","342","1078596","0.0-17.0-3.18","33529","List2B","black","woman","","","","","{""Q0"":""jane""}","<img src=""stim_listB/look8.gif""style=""height:400px;""></stim_listB>","is being looked at by","","","","","",""
"null","<div style=""font-size:60px;"">+</div>","","html-keyboard-response","343","1079100","0.0-17.0-0.19","33529","List2B","black","woman","","","","null","","","","","","","","",""
"null","<img src=""stim_listB/touch7.gif""style=""height:400px;""></stim_listB>","","html-keyboard-response","344","1081107","0.0-17.0-1.19","33529","List2B","black","woman","","","","null","","","","","","","","",""
"null","is touching","","html-keyboard-response","345","1083113","0.0-17.0-2.19","33529","List2B","black","woman","","","","null","","","","","","","","",""
"2009.3999999985099","","","survey-text","346","1085125","0.0-17.0-3.19","33529","List2B","black","woman","","","","","{""Q0"":""s""}","<img src=""stim_listB/touch7.gif""style=""height:400px;""></stim_listB>","is touching","","","","","",""
"6730.5","<img src='img/portrait_matrix_list2.jpg' style='width:900px;height:500px;''></img><p>If you have memorised all the portraits and names and are ready to start, press Continue.</p><p><strong>Please note: Your memory of these faces will be tested 4 times during this experiment.</strong></p>","0","html-button-response","347","1091858","0.0-18.0-0.0","33529","List2B","black","woman","","","","","","","","","","","","",""
"5916.9000000003725","<img src=""portrait/BM2.jpg""style=""height:400px;""></img>","5","html-button-response","348","1098780","0.0-18.0-1.0","33529","List2B","black","woman","","true","5","","","","","","","","","",""
"null","CORRECT","","html-keyboard-response","349","1100290","0.0-18.0-2.0-0.0","33529","List2B","black","woman","","","","null","","","","","","","","",""
"4375.5","<img src=""portrait/BW2.jpg""style=""height:400px;""></img>","2","html-button-response","350","1104668","0.0-18.0-4.0","33529","List2B","black","woman","","true","2","","","","","","","","","",""
"null","CORRECT","","html-keyboard-response","351","1106180","0.0-18.0-5.0-0.0","33529","List2B","black","woman","","","","null","","","","","","","","",""
"2567.0999999996275","<img src=""portrait/WM1.jpg""style=""height:400px;""></img>","6","html-button-response","352","1108749","0.0-18.0-7.0","33529","List2B","black","woman","","true","6","","","","","","","","","",""
"null","CORRECT","","html-keyboard-response","353","1110261","0.0-18.0-8.0-0.0","33529","List2B","black","woman","","","","null","","","","","","","","",""
"3352.0999999996275","<img src=""portrait/WM2.jpg""style=""height:400px;""></img>","7","html-button-response","354","1113615","0.0-18.0-10.0","33529","List2B","black","woman","","true","7","","","","","","","","","",""
"null","CORRECT","","html-keyboard-response","355","1115126","0.0-18.0-11.0-0.0","33529","List2B","black","woman","","","","null","","","","","","","","",""
"3907.7999999988824","<img src=""portrait/BM1.jpg""style=""height:400px;""></img>","4","html-button-response","356","1119036","0.0-18.0-13.0","33529","List2B","black","woman","","true","4","","","","","","","","","",""
"null","CORRECT","","html-keyboard-response","357","1120546","0.0-18.0-14.0-0.0","33529","List2B","black","woman","","","","null","","","","","","","","",""
"3257.5999999996275","<img src=""portrait/WW1.jpg""style=""height:400px;""></img>","1","html-button-response","358","1123806","0.0-18.0-16.0","33529","List2B","black","woman","","true","1","","","","","","","","","",""
"null","CORRECT","","html-keyboard-response","359","1125314","0.0-18.0-17.0-0.0","33529","List2B","black","woman","","","","null","","","","","","","","",""
"2317.800000000745","<img src=""portrait/WW2.jpg""style=""height:400px;""></img>","3","html-button-response","360","1127634","0.0-18.0-19.0","33529","List2B","black","woman","","true","3","","","","","","","","","",""
"null","CORRECT","","html-keyboard-response","361","1129146","0.0-18.0-20.0-0.0","33529","List2B","black","woman","","","","null","","","","","","","","",""
"1725.5999999996275","<img src=""portrait/BW1.jpg""style=""height:400px;""></img>","4","html-button-response","362","1130874","0.0-18.0-22.0","33529","List2B","black","woman","","true","0","","","","","","","","","",""
"2760.4000000003725","<img src=""portrait/BW1.jpg""style=""height:400px;""></img>","0","html-button-response","363","1134642","0.0-18.0-24.0-0.0","33529","List2B","black","woman","","false","0","","","","","","","","","",""
"null","CORRECT","","html-keyboard-response","364","1136149","0.0-18.0-24.0-1.0-0.0","33529","List2B","black","woman","","","","null","","","","","","","","",""
"1666.5999999996275","<p>You got 7 out of 8 right first time. Press Continue.</p>","0","html-button-response","365","1137818","0.0-18.0-25.0","33529","List2B","black","woman","","","","","","","","","","","","",""
"1285","As you did not score 100%, the memory game will repeat. Press Continue.","0","html-button-response","366","1140105","0.0-18.0-26.0-0.0","33529","List2B","black","woman","","","","","","","","","","","","",""
"1361","<img src='img/portrait_matrix_list2.jpg' style='width:900px;height:500px;''></img><p>If you have memorised all the portraits and names and are ready to start, press Continue.</p><p><strong>Please note: Your memory of these faces will be tested 4 times during this experiment.</strong></p>","0","html-button-response","367","1142472","0.0-18.1-0.1","33529","List2B","black","woman","","","","","","","","","","","","",""
"2443.4000000003725","<img src=""portrait/BM2.jpg""style=""height:400px;""></img>","5","html-button-response","368","1145924","0.0-18.1-1.1","33529","List2B","black","woman","","true","5","","","","","","","","","",""
"null","CORRECT","","html-keyboard-response","369","1147429","0.0-18.1-2.1-0.1","33529","List2B","black","woman","","","","null","","","","","","","","",""
"3599","<img src=""portrait/BW2.jpg""style=""height:400px;""></img>","2","html-button-response","370","1151030","0.0-18.1-4.1","33529","List2B","black","woman","","true","2","","","","","","","","","",""
"null","CORRECT","","html-keyboard-response","371","1152538","0.0-18.1-5.1-0.1","33529","List2B","black","woman","","","","null","","","","","","","","",""
"2722.4000000003725","<img src=""portrait/WM1.jpg""style=""height:400px;""></img>","6","html-button-response","372","1155263","0.0-18.1-7.1","33529","List2B","black","woman","","true","6","","","","","","","","","",""
"null","CORRECT","","html-keyboard-response","373","1156770","0.0-18.1-8.1-0.1","33529","List2B","black","woman","","","","null","","","","","","","","",""
"4745.199999999255","<img src=""portrait/WM2.jpg""style=""height:400px;""></img>","7","html-button-response","374","1161518","0.0-18.1-10.1","33529","List2B","black","woman","","true","7","","","","","","","","","",""
"null","CORRECT","","html-keyboard-response","375","1163032","0.0-18.1-11.1-0.1","33529","List2B","black","woman","","","","null","","","","","","","","",""
"2612.699999999255","<img src=""portrait/BM1.jpg""style=""height:400px;""></img>","4","html-button-response","376","1165647","0.0-18.1-13.1","33529","List2B","black","woman","","true","4","","","","","","","","","",""
"null","CORRECT","","html-keyboard-response","377","1167156","0.0-18.1-14.1-0.1","33529","List2B","black","woman","","","","null","","","","","","","","",""
"3659","<img src=""portrait/WW1.jpg""style=""height:400px;""></img>","1","html-button-response","378","1170818","0.0-18.1-16.1","33529","List2B","black","woman","","true","1","","","","","","","","","",""
"null","CORRECT","","html-keyboard-response","379","1172330","0.0-18.1-17.1-0.1","33529","List2B","black","woman","","","","null","","","","","","","","",""
"3694.5999999996275","<img src=""portrait/WW2.jpg""style=""height:400px;""></img>","3","html-button-response","380","1176028","0.0-18.1-19.1","33529","List2B","black","woman","","true","3","","","","","","","","","",""
"null","CORRECT","","html-keyboard-response","381","1177540","0.0-18.1-20.1-0.1","33529","List2B","black","woman","","","","null","","","","","","","","",""
"4548.0999999996275","<img src=""portrait/BW1.jpg""style=""height:400px;""></img>","0","html-button-response","382","1182091","0.0-18.1-22.1","33529","List2B","black","woman","","true","0","","","","","","","","","",""
"null","CORRECT","","html-keyboard-response","383","1183601","0.0-18.1-23.1-0.1","33529","List2B","black","woman","","","","null","","","","","","","","",""
"1811.800000000745","<p>You got 8 out of 8 right first time. Press Continue.</p>","0","html-button-response","384","1185414","0.0-18.1-25.1","33529","List2B","black","woman","","","","","","","","","","","","",""
"null","<div style=""font-size:60px;"">+</div>","","html-keyboard-response","385","1186926","0.0-19.0-0.0","33529","List2B","black","woman","","","","null","","","","","","","","",""
"null","<img src=""stim_listB/shout5.gif""style=""height:400px;""></stim_listB>","","html-keyboard-response","386","1188933","0.0-19.0-1.0","33529","List2B","black","woman","","","","null","","","","","","","","",""
"null","is shouting at","","html-keyboard-response","387","1190939","0.0-19.0-2.0","33529","List2B","black","woman","","","","null","","","","","","","","",""
"34980.90000000037","","","survey-text","388","1225924","0.0-19.0-3.0","33529","List2B","black","woman","","","","","{""Q0"":""mike""}","<img src=""stim_listB/shout5.gif""style=""height:400px;""></stim_listB>","is shouting at","","","","","",""
"null","<div style=""font-size:60px;"">+</div>","","html-keyboard-response","389","1226429","0.0-19.0-0.1","33529","List2B","black","woman","","","","null","","","","","","","","",""
"null","<img src=""stim_listB/shout7.gif""style=""height:400px;""></stim_listB>","","html-keyboard-response","390","1228435","0.0-19.0-1.1","33529","List2B","black","woman","","","","null","","","","","","","","",""
"null","is shouting at","","html-keyboard-response","391","1230440","0.0-19.0-2.1","33529","List2B","black","woman","","","","null","","","","","","","","",""
"1724.3999999985099","","","survey-text","392","1232168","0.0-19.0-3.1","33529","List2B","black","woman","","","","","{""Q0"":""jane""}","<img src=""stim_listB/shout7.gif""style=""height:400px;""></stim_listB>","is shouting at","","","","","",""
"null","<div style=""font-size:60px;"">+</div>","","html-keyboard-response","393","1232672","0.0-19.0-0.2","33529","List2B","black","woman","","","","null","","","","","","","","",""
"null","<img src=""stim_listB/look1.gif""style=""height:400px;""></stim_listB>","","html-keyboard-response","394","1234679","0.0-19.0-1.2","33529","List2B","black","woman","","","","null","","","","","","","","",""
"null","is looking at","","html-keyboard-response","395","1236685","0.0-19.0-2.2","33529","List2B","black","woman","","","","null","","","","","","","","",""
"3230.9000000003725","","","survey-text","396","1239919","0.0-19.0-3.2","33529","List2B","black","woman","","","","","{""Q0"":""ruth is looking at""}","<img src=""stim_listB/look1.gif""style=""height:400px;""></stim_listB>","is looking at","","","","","",""
"null","<div style=""font-size:60px;"">+</div>","","html-keyboard-response","397","1240423","0.0-19.0-0.3","33529","List2B","black","woman","","","","null","","","","","","","","",""
"null","<img src=""stim_listB/look3.gif""style=""height:400px;""></stim_listB>","","html-keyboard-response","398","1242430","0.0-19.0-1.3","33529","List2B","black","woman","","","","null","","","","","","","","",""
"null","is looking at","","html-keyboard-response","399","1244434","0.0-19.0-2.3","33529","List2B","black","woman","","","","null","","","","","","","","",""
"2867.5","","","survey-text","400","1247304","0.0-19.0-3.3","33529","List2B","black","woman","","","","","{""Q0"":""s""}","<img src=""stim_listB/look3.gif""style=""height:400px;""></stim_listB>","is looking at","","","","","",""
"null","<div style=""font-size:60px;"">+</div>","","html-keyboard-response","401","1247809","0.0-19.0-0.4","33529","List2B","black","woman","","","","null","","","","","","","","",""
"null","<img src=""stim_listB/copy2.gif""style=""height:400px;""></stim_listB>","","html-keyboard-response","402","1249816","0.0-19.0-1.4","33529","List2B","black","woman","","","","null","","","","","","","","",""
"null","is being copied by","","html-keyboard-response","403","1251822","0.0-19.0-2.4","33529","List2B","black","woman","","","","null","","","","","","","","",""
"2400.5","","","survey-text","404","1254226","0.0-19.0-3.4","33529","List2B","black","woman","","","","","{""Q0"":""mike""}","<img src=""stim_listB/copy2.gif""style=""height:400px;""></stim_listB>","is being copied by","","","","","",""
"null","<div style=""font-size:60px;"">+</div>","","html-keyboard-response","405","1254730","0.0-19.0-0.5","33529","List2B","black","woman","","","","null","","","","","","","","",""
"null","<img src=""stim_listB/kiss7.gif""style=""height:400px;""></stim_listB>","","html-keyboard-response","406","1256732","0.0-19.0-1.5","33529","List2B","black","woman","","","","null","","","","","","","","",""
"null","is kissing","","html-keyboard-response","407","1258739","0.0-19.0-2.5","33529","List2B","black","woman","","","","null","","","","","","","","",""
"3283.7999999988824","","","survey-text","408","1262026","0.0-19.0-3.5","33529","List2B","black","woman","","","","","{""Q0"":""s""}","<img src=""stim_listB/kiss7.gif""style=""height:400px;""></stim_listB>","is kissing","","","","","",""
"null","<div style=""font-size:60px;"">+</div>","","html-keyboard-response","409","1262530","0.0-19.0-0.6","33529","List2B","black","woman","","","","null","","","","","","","","",""
"null","<img src=""stim_listB/look4.gif""style=""height:400px;""></stim_listB>","","html-keyboard-response","410","1264537","0.0-19.0-1.6","33529","List2B","black","woman","","","","null","","","","","","","","",""
"null","is being looked at by","","html-keyboard-response","411","1266543","0.0-19.0-2.6","33529","List2B","black","woman","","","","null","","","","","","","","",""
"1723.699999999255","","","survey-text","412","1268270","0.0-19.0-3.6","33529","List2B","black","woman","","","","","{""Q0"":""l""}","<img src=""stim_listB/look4.gif""style=""height:400px;""></stim_listB>","is being looked at by","","","","","",""
"null","<div style=""font-size:60px;"">+</div>","","html-keyboard-response","413","1268774","0.0-19.0-0.7","33529","List2B","black","woman","","","","null","","","","","","","","",""
"null","<img src=""stim_listB/seduce5.gif""style=""height:400px;""></stim_listB>","","html-keyboard-response","414","1270777","0.0-19.0-1.7","33529","List2B","black","woman","","","","null","","","","","","","","",""
"null","is seducing","","html-keyboard-response","415","1272783","0.0-19.0-2.7","33529","List2B","black","woman","","","","null","","","","","","","","",""
"13297.5","","","survey-text","416","1286084","0.0-19.0-3.7","33529","List2B","black","woman","","","","","{""Q0"":""j""}","<img src=""stim_listB/seduce5.gif""style=""height:400px;""></stim_listB>","is seducing","","","","","",""
"null","<div style=""font-size:60px;"">+</div>","","html-keyboard-response","417","1286588","0.0-19.0-0.8","33529","List2B","black","woman","","","","null","","","","","","","","",""
"null","<img src=""stim_listB/copy6.gif""style=""height:400px;""></stim_listB>","","html-keyboard-response","418","1288595","0.0-19.0-1.8","33529","List2B","black","woman","","","","null","","","","","","","","",""
"null","is being copied by","","html-keyboard-response","419","1290600","0.0-19.0-2.8","33529","List2B","black","woman","","","","null","","","","","","","","",""
"4654.5999999996275","","","survey-text","420","1295258","0.0-19.0-3.8","33529","List2B","black","woman","","","","","{""Q0"":""mike""}","<img src=""stim_listB/copy6.gif""style=""height:400px;""></stim_listB>","is being copied by","","","","","",""
"null","<div style=""font-size:60px;"">+</div>","","html-keyboard-response","421","1295762","0.0-19.0-0.9","33529","List2B","black","woman","","","","null","","","","","","","","",""
"null","<img src=""stim_listB/oppose1.gif""style=""height:400px;""></stim_listB>","","html-keyboard-response","422","1297769","0.0-19.0-1.9","33529","List2B","black","woman","","","","null","","","","","","","","",""
"null","is opposing","","html-keyboard-response","423","1299771","0.0-19.0-2.9","33529","List2B","black","woman","","","","null","","","","","","","","",""
"2575.9000000003725","","","survey-text","424","1302350","0.0-19.0-3.9","33529","List2B","black","woman","","","","","{""Q0"":""mike""}","<img src=""stim_listB/oppose1.gif""style=""height:400px;""></stim_listB>","is opposing","","","","","",""
"null","<div style=""font-size:60px;"">+</div>","","html-keyboard-response","425","1302852","0.0-19.0-0.10","33529","List2B","black","woman","","","","null","","","","","","","","",""
"null","<img src=""stim_listB/challenge3.gif""style=""height:400px;""></stim_listB>","","html-keyboard-response","426","1304859","0.0-19.0-1.10","33529","List2B","black","woman","","","","null","","","","","","","","",""
"null","is challenging","","html-keyboard-response","427","1306865","0.0-19.0-2.10","33529","List2B","black","woman","","","","null","","","","","","","","",""
"16205.800000000745","","","survey-text","428","1323075","0.0-19.0-3.10","33529","List2B","black","woman","","","","","{""Q0"":""jane""}","<img src=""stim_listB/challenge3.gif""style=""height:400px;""></stim_listB>","is challenging","","","","","",""
"null","<div style=""font-size:60px;"">+</div>","","html-keyboard-response","429","1323579","0.0-19.0-0.11","33529","List2B","black","woman","","","","null","","","","","","","","",""
"null","<img src=""stim_listB/touch4.gif""style=""height:400px;""></stim_listB>","","html-keyboard-response","430","1325586","0.0-19.0-1.11","33529","List2B","black","woman","","","","null","","","","","","","","",""
"null","is being touched by","","html-keyboard-response","431","1327587","0.0-19.0-2.11","33529","List2B","black","woman","","","","null","","","","","","","","",""
"3125.5","","","survey-text","432","1330716","0.0-19.0-3.11","33529","List2B","black","woman","","","","","{""Q0"":""ke""}","<img src=""stim_listB/touch4.gif""style=""height:400px;""></stim_listB>","is being touched by","","","","","",""
"null","<div style=""font-size:60px;"">+</div>","","html-keyboard-response","433","1331220","0.0-19.0-0.12","33529","List2B","black","woman","","","","null","","","","","","","","",""
"null","<img src=""stim_listB/shout1.gif""style=""height:400px;""></stim_listB>","","html-keyboard-response","434","1333227","0.0-19.0-1.12","33529","List2B","black","woman","","","","null","","","","","","","","",""
"null","is shouting at","","html-keyboard-response","435","1335233","0.0-19.0-2.12","33529","List2B","black","woman","","","","null","","","","","","","","",""
"1864.7000000011176","","","survey-text","436","1337100","0.0-19.0-3.12","33529","List2B","black","woman","","","","","{""Q0"":""ruth""}","<img src=""stim_listB/shout1.gif""style=""height:400px;""></stim_listB>","is shouting at","","","","","",""
"null","<div style=""font-size:60px;"">+</div>","","html-keyboard-response","437","1337604","0.0-19.0-0.13","33529","List2B","black","woman","","","","null","","","","","","","","",""
"null","<img src=""stim_listB/touch1.gif""style=""height:400px;""></stim_listB>","","html-keyboard-response","438","1339609","0.0-19.0-1.13","33529","List2B","black","woman","","","","null","","","","","","","","",""
"null","is touching","","html-keyboard-response","439","1341615","0.0-19.0-2.13","33529","List2B","black","woman","","","","null","","","","","","","","",""
"2705.60000000149","","","survey-text","440","1344324","0.0-19.0-3.13","33529","List2B","black","woman","","","","","{""Q0"":""ju""}","<img src=""stim_listB/touch1.gif""style=""height:400px;""></stim_listB>","is touching","","","","","",""
"null","<div style=""font-size:60px;"">+</div>","","html-keyboard-response","441","1344828","0.0-19.0-0.14","33529","List2B","black","woman","","","","null","","","","","","","","",""
"null","<img src=""stim_listB/look6.gif""style=""height:400px;""></stim_listB>","","html-keyboard-response","442","1346835","0.0-19.0-1.14","33529","List2B","black","woman","","","","null","","","","","","","","",""
"null","is being looked at by","","html-keyboard-response","443","1348841","0.0-19.0-2.14","33529","List2B","black","woman","","","","null","","","","","","","","",""
"1161.7000000011176","","","survey-text","444","1350007","0.0-19.0-3.14","33529","List2B","black","woman","","","","","{""Q0"":""e""}","<img src=""stim_listB/look6.gif""style=""height:400px;""></stim_listB>","is being looked at by","","","","","",""
"null","<div style=""font-size:60px;"">+</div>","","html-keyboard-response","445","1350511","0.0-19.0-0.15","33529","List2B","black","woman","","","","null","","","","","","","","",""
"null","<img src=""stim_listB/kiss8.gif""style=""height:400px;""></stim_listB>","","html-keyboard-response","446","1352518","0.0-19.0-1.15","33529","List2B","black","woman","","","","null","","","","","","","","",""
"null","is being kissed by","","html-keyboard-response","447","1354525","0.0-19.0-2.15","33529","List2B","black","woman","","","","null","","","","","","","","",""
"1105","","","survey-text","448","1355634","0.0-19.0-3.15","33529","List2B","black","woman","","","","","{""Q0"":""e""}","<img src=""stim_listB/kiss8.gif""style=""height:400px;""></stim_listB>","is being kissed by","","","","","",""
"null","<div style=""font-size:60px;"">+</div>","","html-keyboard-response","449","1356139","0.0-19.0-0.16","33529","List2B","black","woman","","","","null","","","","","","","","",""
"null","<img src=""stim_listB/kiss4.gif""style=""height:400px;""></stim_listB>","","html-keyboard-response","450","1358145","0.0-19.0-1.16","33529","List2B","black","woman","","","","null","","","","","","","","",""
"null","is being kissed by","","html-keyboard-response","451","1360147","0.0-19.0-2.16","33529","List2B","black","woman","","","","null","","","","","","","","",""
"2196","","","survey-text","452","1362346","0.0-19.0-3.16","33529","List2B","black","woman","","","","","{""Q0"":""e""}","<img src=""stim_listB/kiss4.gif""style=""height:400px;""></stim_listB>","is being kissed by","","","","","",""
"null","<div style=""font-size:60px;"">+</div>","","html-keyboard-response","453","1362850","0.0-19.0-0.17","33529","List2B","black","woman","","","","null","","","","","","","","",""
"null","<img src=""stim_listB/touch5.gif""style=""height:400px;""></stim_listB>","","html-keyboard-response","454","1364857","0.0-19.0-1.17","33529","List2B","black","woman","","","","null","","","","","","","","",""
"null","is touching","","html-keyboard-response","455","1366864","0.0-19.0-2.17","33529","List2B","black","woman","","","","null","","","","","","","","",""
"2248.4000000003725","","","survey-text","456","1369115","0.0-19.0-3.17","33529","List2B","black","woman","","","","","{""Q0"":""m""}","<img src=""stim_listB/touch5.gif""style=""height:400px;""></stim_listB>","is touching","","","","","",""
"null","<div style=""font-size:60px;"">+</div>","","html-keyboard-response","457","1369620","0.0-19.0-0.18","33529","List2B","black","woman","","","","null","","","","","","","","",""
"null","<img src=""stim_listB/challenge6.gif""style=""height:400px;""></stim_listB>","","html-keyboard-response","458","1371626","0.0-19.0-1.18","33529","List2B","black","woman","","","","null","","","","","","","","",""
"null","is being challenged by","","html-keyboard-response","459","1373633","0.0-19.0-2.18","33529","List2B","black","woman","","","","null","","","","","","","","",""
"6330.200000001118","","","survey-text","460","1379968","0.0-19.0-3.18","33529","List2B","black","woman","","","","","{""Q0"":""j""}","<img src=""stim_listB/challenge6.gif""style=""height:400px;""></stim_listB>","is being challenged by","","","","","",""
"null","<div style=""font-size:60px;"">+</div>","","html-keyboard-response","461","1380473","0.0-19.0-0.19","33529","List2B","black","woman","","","","null","","","","","","","","",""
"null","<img src=""stim_listB/hug5.gif""style=""height:400px;""></stim_listB>","","html-keyboard-response","462","1382479","0.0-19.0-1.19","33529","List2B","black","woman","","","","null","","","","","","","","",""
"null","is hugging","","html-keyboard-response","463","1384484","0.0-19.0-2.19","33529","List2B","black","woman","","","","null","","","","","","","","",""
"1748.2999999988824","","","survey-text","464","1386236","0.0-19.0-3.19","33529","List2B","black","woman","","","","","{""Q0"":""n""}","<img src=""stim_listB/hug5.gif""style=""height:400px;""></stim_listB>","is hugging","","","","","",""
"2632.9000000003725","<p>Thank you for completing that task.</p><p>The final part of this session is a questionnaire that will take about 4 minutes.</p><p>Press Continue.</p>","0","html-button-response","465","1388871","0.0-20.0","33529","List2B","black","woman","","","","","","","","","","","","",""
"23928.799999998882","","","survey-text","466","1413811","0.0-21.0","33529","List2B","black","woman","","","","","{""Q0"":""22"",""Q1"":""english"",""Q2"":""english"",""Q3"":""ameria"",""Q4"":""american"",""Q5"":""black"",""Q6"":""female""}","","","demographics","","","","",""
"1544.5","<p>Have you lived in the USA for the last 5 years or more?</p>","0","html-button-response","467","1415360","0.0-22.0","33529","List2B","black","woman","","","","","","","","fiveyears","","","","",""
"1903.9000000003725","<p>Move the slider to show the extent to which you agree with the following statements.</p>","0","html-button-response","468","1418272","0.0-23.0","33529","List2B","black","woman","","","","","","","","","","","","",""
"4007.699999999255","","","html-slider-response","469","1423288","0.0-24.0-0.0-0.0","33529","List2B","black","woman","","","","","","","","survey_gender","88","","","I have a lot in common with the average person of my gender.","average"
"2659.5","","","html-slider-response","470","1425950","0.0-24.0-0.0-0.1","33529","List2B","black","woman","","","","","","","","survey_gender","75","","","I would say I am an animal person.","filler"
"3077.5999999996275","","","html-slider-response","471","1429031","0.0-24.0-0.0-0.2","33529","List2B","black","woman","","","","","","","","survey_gender","76","","","I often think about the fact that I am my gender.","often"
"2850.0999999996275","","","html-slider-response","472","1431883","0.0-24.0-0.0-0.3","33529","List2B","black","woman","","","","","","","","survey_gender","97","","","It is pleasant to be my gender.","pleasant"
"3554.4000000003725","","","html-slider-response","473","1435440","0.0-24.0-0.0-0.4","33529","List2B","black","woman","","","","","","","","survey_gender","27","","","Being my gender gives me a good feeling.","feeling"
"2998","","","html-slider-response","474","1438440","0.0-24.0-0.0-0.5","33529","List2B","black","woman","","","","","","","","survey_gender","89","","","I feel committed to my gender.","committed"
"4174.4000000003725","","","html-slider-response","475","1442617","0.0-24.0-0.0-0.6","33529","List2B","black","woman","","","","","","","","survey_gender","88","","","Being my gender is an important part of how I see myself.","important"
"4395.300000000745","","","html-slider-response","476","1447015","0.0-24.0-0.0-0.7","33529","List2B","black","woman","","","","","","","","survey_gender","81","","","Most of the friends in my life are very similar to me.","filler"
"2103.9000000003725","","","html-slider-response","477","1449122","0.0-24.0-0.0-0.8","33529","List2B","black","woman","","","","","","","","survey_gender","69","","","It is not always easy for people to know what I am thinking.","filler"
"6366.300000000745","","","html-slider-response","478","1455491","0.0-24.0-0.0-0.9","33529","List2B","black","woman","","","","","","","","survey_gender","37","","","Routine is not important to me.","filler"
"2588.0999999996275","","","html-slider-response","479","1458082","0.0-24.0-0.0-0.10","33529","List2B","black","woman","","","","","","","","survey_gender","75","","","The fact that I am my gender is an important part of my identity.","identity"
"2780.5","","","html-slider-response","480","1460865","0.0-24.0-0.0-0.11","33529","List2B","black","woman","","","","","","","","survey_gender","95","","","Being around my friends gives me a good feeling.","filler"
"2348.7999999988824","","","html-slider-response","481","1463216","0.0-24.0-0.0-0.12","33529","List2B","black","woman","","","","","","","","survey_gender","93","","","I feel a bond with my gender.","bond"
"2717","","","html-slider-response","482","1465936","0.0-24.0-0.0-0.13","33529","List2B","black","woman","","","","","","","","survey_gender","96","","","Family is not more important to me than friendship.","filler"
"1863.5","","","html-slider-response","483","1467802","0.0-24.0-0.0-0.14","33529","List2B","black","woman","","","","","","","","survey_gender","91","","","I feel solidarity with my gender.","solidarity"
