rt,stimulus,button_pressed,trial_type,trial_index,time_elapsed,internal_node_id,subject,list,ppt_race,ppt_gender,url,first_guess,correct,key_press,responses,image_type,phrase_type,test_part,response,stimulus1,stimulus2,question_type,survey_item
3547.3,Welcome to the experiment. Press Continue to begin.,0,html-button-response,0,3551,0.0-0.0,33777,List2B,white,man,,,,,,,,,,,,,
14501.6,,,external-html,1,19726,0.0-1.0,33777,List2B,white,man,consent.html,,,,,,,,,,,,
3846.5,"<p>On the next page, you will see portraits of 8 people and their names.</p><p>Your first task is to take a few minutes to memorise the names of these people.</p><p>You will have to recall their names during the rest of the experiment, so it is</p><p>essential that you try to memorise these people and their names as best as you can.</p><br><p><strong>You will then be tested on your memory of these names and portraits.</strong></p><br><p>The experiment will start after you have completed this memory test.</p><br><p>Ready?</p>",0,html-button-response,2,23574,0.0-2.0,33777,List2B,white,man,,,,,,,,,,,,,
38492.2,"<img src='img/portrait_matrix_list2.jpg' style='width:900px;height:500px;''></img><p>If you have memorised all the portraits and names and are ready to start, press Continue.</p><p><strong>Please note: Your memory of these faces will be tested 4 times during this experiment.</strong></p>",0,html-button-response,3,63069,0.0-3.0-0.0,33777,List2B,white,man,,,,,,,,,,,,,
6037.4,"<img src=""portrait/WW1.jpg""style=""height:400px;""></img>",1,html-button-response,4,70117,0.0-3.0-1.0,33777,List2B,white,man,,TRUE,1,,,,,,,,,,
null,CORRECT,,html-keyboard-response,5,71637,0.0-3.0-2.0-0.0,33777,List2B,white,man,,,,null,,,,,,,,,
5597.9,"<img src=""portrait/BM1.jpg""style=""height:400px;""></img>",4,html-button-response,6,77237,0.0-3.0-4.0,33777,List2B,white,man,,TRUE,4,,,,,,,,,,
null,CORRECT,,html-keyboard-response,7,78750,0.0-3.0-5.0-0.0,33777,List2B,white,man,,,,null,,,,,,,,,
5356.1,"<img src=""portrait/WM1.jpg""style=""height:400px;""></img>",6,html-button-response,8,84109,0.0-3.0-7.0,33777,List2B,white,man,,TRUE,6,,,,,,,,,,
null,CORRECT,,html-keyboard-response,9,85625,0.0-3.0-8.0-0.0,33777,List2B,white,man,,,,null,,,,,,,,,
9130.2,"<img src=""portrait/BW2.jpg""style=""height:400px;""></img>",1,html-button-response,10,94757,0.0-3.0-10.0,33777,List2B,white,man,,TRUE,2,,,,,,,,,,
7680.2,"<img src=""portrait/BW2.jpg""style=""height:400px;""></img>",2,html-button-response,11,103445,0.0-3.0-12.0-0.0,33777,List2B,white,man,,FALSE,2,,,,,,,,,,
null,CORRECT,,html-keyboard-response,12,104949,0.0-3.0-12.0-1.0-0.0,33777,List2B,white,man,,,,null,,,,,,,,,
6861.9,"<img src=""portrait/WM2.jpg""style=""height:400px;""></img>",7,html-button-response,13,111813,0.0-3.0-13.0,33777,List2B,white,man,,TRUE,7,,,,,,,,,,
null,CORRECT,,html-keyboard-response,14,113316,0.0-3.0-14.0-0.0,33777,List2B,white,man,,,,null,,,,,,,,,
4623.4,"<img src=""portrait/BM2.jpg""style=""height:400px;""></img>",5,html-button-response,15,117941,0.0-3.0-16.0,33777,List2B,white,man,,TRUE,5,,,,,,,,,,
null,CORRECT,,html-keyboard-response,16,119447,0.0-3.0-17.0-0.0,33777,List2B,white,man,,,,null,,,,,,,,,
4804.1,"<img src=""portrait/BW1.jpg""style=""height:400px;""></img>",1,html-button-response,17,124253,0.0-3.0-19.0,33777,List2B,white,man,,TRUE,0,,,,,,,,,,
2941.7,"<img src=""portrait/BW1.jpg""style=""height:400px;""></img>",0,html-button-response,18,128197,0.0-3.0-21.0-0.0,33777,List2B,white,man,,FALSE,0,,,,,,,,,,
null,CORRECT,,html-keyboard-response,19,129710,0.0-3.0-21.0-1.0-0.0,33777,List2B,white,man,,,,null,,,,,,,,,
5845.5,"<img src=""portrait/WW2.jpg""style=""height:400px;""></img>",3,html-button-response,20,135557,0.0-3.0-22.0,33777,List2B,white,man,,TRUE,3,,,,,,,,,,
null,CORRECT,,html-keyboard-response,21,137083,0.0-3.0-23.0-0.0,33777,List2B,white,man,,,,null,,,,,,,,,
2102.8,<p>You got 6 out of 8 right first time. Press Continue.</p>,0,html-button-response,22,139189,0.0-3.0-25.0,33777,List2B,white,man,,,,,,,,,,,,,
4437.8,"As you did not score 100%, the memory game will repeat. Press Continue.",0,html-button-response,23,144629,0.0-3.0-26.0-0.0,33777,List2B,white,man,,,,,,,,,,,,,
26764.5,"<img src='img/portrait_matrix_list2.jpg' style='width:900px;height:500px;''></img><p>If you have memorised all the portraits and names and are ready to start, press Continue.</p><p><strong>Please note: Your memory of these faces will be tested 4 times during this experiment.</strong></p>",0,html-button-response,24,172413,0.0-3.1-0.1,33777,List2B,white,man,,,,,,,,,,,,,
7908.9,"<img src=""portrait/WW1.jpg""style=""height:400px;""></img>",1,html-button-response,25,181325,0.0-3.1-1.1,33777,List2B,white,man,,TRUE,1,,,,,,,,,,
null,CORRECT,,html-keyboard-response,26,182843,0.0-3.1-2.1-0.1,33777,List2B,white,man,,,,null,,,,,,,,,
2551.4,"<img src=""portrait/BM1.jpg""style=""height:400px;""></img>",4,html-button-response,27,185397,0.0-3.1-4.1,33777,List2B,white,man,,TRUE,4,,,,,,,,,,
null,CORRECT,,html-keyboard-response,28,186912,0.0-3.1-5.1-0.1,33777,List2B,white,man,,,,null,,,,,,,,,
2611,"<img src=""portrait/WM1.jpg""style=""height:400px;""></img>",6,html-button-response,29,189525,0.0-3.1-7.1,33777,List2B,white,man,,TRUE,6,,,,,,,,,,
null,CORRECT,,html-keyboard-response,30,191042,0.0-3.1-8.1-0.1,33777,List2B,white,man,,,,null,,,,,,,,,
2768.4,"<img src=""portrait/BW2.jpg""style=""height:400px;""></img>",2,html-button-response,31,193813,0.0-3.1-10.1,33777,List2B,white,man,,TRUE,2,,,,,,,,,,
null,CORRECT,,html-keyboard-response,32,195344,0.0-3.1-11.1-0.1,33777,List2B,white,man,,,,null,,,,,,,,,
9473.8,"<img src=""portrait/WM2.jpg""style=""height:400px;""></img>",6,html-button-response,33,204821,0.0-3.1-13.1,33777,List2B,white,man,,TRUE,7,,,,,,,,,,
1735.6,"<img src=""portrait/WM2.jpg""style=""height:400px;""></img>",7,html-button-response,34,207565,0.0-3.1-15.1-0.1,33777,List2B,white,man,,FALSE,7,,,,,,,,,,
null,CORRECT,,html-keyboard-response,35,209072,0.0-3.1-15.1-1.1-0.1,33777,List2B,white,man,,,,null,,,,,,,,,
1697.9,"<img src=""portrait/BM2.jpg""style=""height:400px;""></img>",5,html-button-response,36,210773,0.0-3.1-16.1,33777,List2B,white,man,,TRUE,5,,,,,,,,,,
null,CORRECT,,html-keyboard-response,37,212286,0.0-3.1-17.1-0.1,33777,List2B,white,man,,,,null,,,,,,,,,
5611.7,"<img src=""portrait/BW1.jpg""style=""height:400px;""></img>",0,html-button-response,38,217900,0.0-3.1-19.1,33777,List2B,white,man,,TRUE,0,,,,,,,,,,
null,CORRECT,,html-keyboard-response,39,219429,0.0-3.1-20.1-0.1,33777,List2B,white,man,,,,null,,,,,,,,,
2165.4,"<img src=""portrait/WW2.jpg""style=""height:400px;""></img>",3,html-button-response,40,221596,0.0-3.1-22.1,33777,List2B,white,man,,TRUE,3,,,,,,,,,,
null,CORRECT,,html-keyboard-response,41,223104,0.0-3.1-23.1-0.1,33777,List2B,white,man,,,,null,,,,,,,,,
1625.3,<p>You got 7 out of 8 right first time. Press Continue.</p>,0,html-button-response,42,224732,0.0-3.1-25.1,33777,List2B,white,man,,,,,,,,,,,,,
2055,"As you did not score 100%, the memory game will repeat. Press Continue.",0,html-button-response,43,227796,0.0-3.1-26.1-0.1,33777,List2B,white,man,,,,,,,,,,,,,
39710.6,"<img src='img/portrait_matrix_list2.jpg' style='width:900px;height:500px;''></img><p>If you have memorised all the portraits and names and are ready to start, press Continue.</p><p><strong>Please note: Your memory of these faces will be tested 4 times during this experiment.</strong></p>",0,html-button-response,44,268516,0.0-3.2-0.2,33777,List2B,white,man,,,,,,,,,,,,,
3810.7,"<img src=""portrait/WW1.jpg""style=""height:400px;""></img>",1,html-button-response,45,273340,0.0-3.2-1.2,33777,List2B,white,man,,TRUE,1,,,,,,,,,,
null,CORRECT,,html-keyboard-response,46,274853,0.0-3.2-2.2-0.2,33777,List2B,white,man,,,,null,,,,,,,,,
5965.7,"<img src=""portrait/BM1.jpg""style=""height:400px;""></img>",4,html-button-response,47,280820,0.0-3.2-4.2,33777,List2B,white,man,,TRUE,4,,,,,,,,,,
null,CORRECT,,html-keyboard-response,48,282332,0.0-3.2-5.2-0.2,33777,List2B,white,man,,,,null,,,,,,,,,
9622.9,"<img src=""portrait/WM1.jpg""style=""height:400px;""></img>",6,html-button-response,49,291956,0.0-3.2-7.2,33777,List2B,white,man,,TRUE,6,,,,,,,,,,
null,CORRECT,,html-keyboard-response,50,293470,0.0-3.2-8.2-0.2,33777,List2B,white,man,,,,null,,,,,,,,,
3220.1,"<img src=""portrait/BW2.jpg""style=""height:400px;""></img>",2,html-button-response,51,296692,0.0-3.2-10.2,33777,List2B,white,man,,TRUE,2,,,,,,,,,,
null,CORRECT,,html-keyboard-response,52,298203,0.0-3.2-11.2-0.2,33777,List2B,white,man,,,,null,,,,,,,,,
2223.3,"<img src=""portrait/WM2.jpg""style=""height:400px;""></img>",7,html-button-response,53,300428,0.0-3.2-13.2,33777,List2B,white,man,,TRUE,7,,,,,,,,,,
null,CORRECT,,html-keyboard-response,54,301945,0.0-3.2-14.2-0.2,33777,List2B,white,man,,,,null,,,,,,,,,
2750,"<img src=""portrait/BM2.jpg""style=""height:400px;""></img>",5,html-button-response,55,304701,0.0-3.2-16.2,33777,List2B,white,man,,TRUE,5,,,,,,,,,,
null,CORRECT,,html-keyboard-response,56,306209,0.0-3.2-17.2-0.2,33777,List2B,white,man,,,,null,,,,,,,,,
3289.6,"<img src=""portrait/BW1.jpg""style=""height:400px;""></img>",0,html-button-response,57,309500,0.0-3.2-19.2,33777,List2B,white,man,,TRUE,0,,,,,,,,,,
null,CORRECT,,html-keyboard-response,58,311014,0.0-3.2-20.2-0.2,33777,List2B,white,man,,,,null,,,,,,,,,
2124.1,"<img src=""portrait/WW2.jpg""style=""height:400px;""></img>",3,html-button-response,59,313140,0.0-3.2-22.2,33777,List2B,white,man,,TRUE,3,,,,,,,,,,
null,CORRECT,,html-keyboard-response,60,314668,0.0-3.2-23.2-0.2,33777,List2B,white,man,,,,null,,,,,,,,,
1422.4,<p>You got 8 out of 8 right first time. Press Continue.</p>,0,html-button-response,61,316092,0.0-3.2-25.2,33777,List2B,white,man,,,,,,,,,,,,,
30503.5,"<p>In this experiment, you will view photographs of the people from the memory game interacting.</p><p>By using the <strong>exact</strong> phrase given <i>after</i> the photograph appears and recalling the correct names of the people in the photographs, form a sentence describing the interaction. You do not need to capitalise names.</p><p>Type your answer in the space provided. Please complete every sentence before moving onto the next trial.</p><p>You will only have a few seconds to memorise each given photograph and phrase before you can respond, so try your best to focus.</p><p>An example is given below. Press 'Continue' when you are ready.</p><img src='img/speaking_example.jpg' style='width:800px;height:460px;''></img>",0,html-button-response,62,347612,0.0-4.0,33777,List2B,white,man,,,,,,,,,,,,,
3350,"<p>Before the experiment starts, you will watch two example trials. Press 'Continue'.</p>",0,html-button-response,63,351964,0.0-5.0,33777,List2B,white,man,,,,,,,,,,,,,
null,<img src='img/play_eg.gif' style='height:400px;''></img>,,html-keyboard-response,64,354997,0.0-6.0,33777,List2B,white,man,,,,null,,,,,,,,,
null,<p>is playing with</p>,,html-keyboard-response,65,357014,0.0-7.0,33777,List2B,white,man,,,,null,,,,,,,,,
4036.4,<p><b>Answer:</b> jane is playing with ruth</p>,0,html-button-response,66,361052,0.0-8.0,33777,List2B,white,man,,,,,,,,,,,,,
null,<img src='img/dance_eg.gif' style='height:400px;''></img>,,html-keyboard-response,67,364060,0.0-9.0,33777,List2B,white,man,,,,null,,,,,,,,,
null,<p>is being entertained by</p>,,html-keyboard-response,68,366077,0.0-10.0,33777,List2B,white,man,,,,null,,,,,,,,,
4989.3,<p><b>Answer:</b> fred is being entertained by mike</p>,0,html-button-response,69,371068,0.0-11.0,33777,List2B,white,man,,,,,,,,,,,,,
13124.9,"<p>Ready to start the experiment?</p><br><p><strong>Remember to describe the picture using a full sentence,</strong></p><p><strong>that combines the names of the people with the <i>exact</i> phrase given.</strong></p><p><strong>To receive full payment you must do this correctly.</strong></p><p><strong> You do not need to capitalise names or use punctuation.</strong></p><br><p>Press 'Continue' to begin.</p>",0,html-button-response,70,385211,0.0-12.0,33777,List2B,white,man,,,,,,,,,,,,,
null,"<div style=""font-size:60px;"">+</div>",,html-keyboard-response,71,386722,0.0-13.0-0.0,33777,List2B,white,man,,,,null,,,,,,,,,
null,"<img src=""stim_listB/hug6.gif""style=""height:400px;""></stim_listB>",,html-keyboard-response,72,388735,0.0-13.0-1.0,33777,List2B,white,man,,,,null,,,,,,,,,
null,is being hugged by,,html-keyboard-response,73,390752,0.0-13.0-2.0,33777,List2B,white,man,,,,null,,,,,,,,,
28401.6,,,survey-text,74,419159,0.0-13.0-3.0,33777,List2B,white,man,,,,,"{""Q0"":""luke is being hugged by dave""}","<img src=""stim_listB/hug6.gif""style=""height:400px;""></stim_listB>",is being hugged by,,,,,,
null,"<div style=""font-size:60px;"">+</div>",,html-keyboard-response,75,419673,0.0-13.0-0.1,33777,List2B,white,man,,,,null,,,,,,,,,
null,"<img src=""stim_listB/challenge5.gif""style=""height:400px;""></stim_listB>",,html-keyboard-response,76,421675,0.0-13.0-1.1,33777,List2B,white,man,,,,null,,,,,,,,,
null,is challenging,,html-keyboard-response,77,423678,0.0-13.0-2.1,33777,List2B,white,man,,,,null,,,,,,,,,
14720.2,,,survey-text,78,438402,0.0-13.0-3.1,33777,List2B,white,man,,,,,"{""Q0"":""fred is shaking dave""}","<img src=""stim_listB/challenge5.gif""style=""height:400px;""></stim_listB>",is challenging,,,,,,
null,"<div style=""font-size:60px;"">+</div>",,html-keyboard-response,79,438912,0.0-13.0-0.2,33777,List2B,white,man,,,,null,,,,,,,,,
null,"<img src=""stim_listB/look5.gif""style=""height:400px;""></stim_listB>",,html-keyboard-response,80,440922,0.0-13.0-1.2,33777,List2B,white,man,,,,null,,,,,,,,,
null,is looking at,,html-keyboard-response,81,442938,0.0-13.0-2.2,33777,List2B,white,man,,,,null,,,,,,,,,
13817.3,,,survey-text,82,456759,0.0-13.0-3.2,33777,List2B,white,man,,,,,"{""Q0"":""luke is looking at fred""}","<img src=""stim_listB/look5.gif""style=""height:400px;""></stim_listB>",is looking at,,,,,,
null,"<div style=""font-size:60px;"">+</div>",,html-keyboard-response,83,457270,0.0-13.0-0.3,33777,List2B,white,man,,,,null,,,,,,,,,
null,"<img src=""stim_listB/kiss7.gif""style=""height:400px;""></stim_listB>",,html-keyboard-response,84,459278,0.0-13.0-1.3,33777,List2B,white,man,,,,null,,,,,,,,,
null,is kissing,,html-keyboard-response,85,461287,0.0-13.0-2.3,33777,List2B,white,man,,,,null,,,,,,,,,
14707,,,survey-text,86,475997,0.0-13.0-3.3,33777,List2B,white,man,,,,,"{""Q0"":""ruth is kissing beth""}","<img src=""stim_listB/kiss7.gif""style=""height:400px;""></stim_listB>",is kissing,,,,,,
null,"<div style=""font-size:60px;"">+</div>",,html-keyboard-response,87,476503,0.0-13.0-0.4,33777,List2B,white,man,,,,null,,,,,,,,,
null,"<img src=""stim_listB/shout1.gif""style=""height:400px;""></stim_listB>",,html-keyboard-response,88,478515,0.0-13.0-1.4,33777,List2B,white,man,,,,null,,,,,,,,,
null,is shouting at,,html-keyboard-response,89,480531,0.0-13.0-2.4,33777,List2B,white,man,,,,null,,,,,,,,,
20593.9,,,survey-text,90,501129,0.0-13.0-3.4,33777,List2B,white,man,,,,,"{""Q0"":""ruth is shouting at luke""}","<img src=""stim_listB/shout1.gif""style=""height:400px;""></stim_listB>",is shouting at,,,,,,
null,"<div style=""font-size:60px;"">+</div>",,html-keyboard-response,91,501635,0.0-13.0-0.5,33777,List2B,white,man,,,,null,,,,,,,,,
null,"<img src=""stim_listB/seduce4.gif""style=""height:400px;""></stim_listB>",,html-keyboard-response,92,503652,0.0-13.0-1.5,33777,List2B,white,man,,,,null,,,,,,,,,
null,is being seduced by,,html-keyboard-response,93,505660,0.0-13.0-2.5,33777,List2B,white,man,,,,null,,,,,,,,,
21233.9,,,survey-text,94,526898,0.0-13.0-3.5,33777,List2B,white,man,,,,,"{""Q0"":""kate is being seduced by mike""}","<img src=""stim_listB/seduce4.gif""style=""height:400px;""></stim_listB>",is being seduced by,,,,,,
null,"<div style=""font-size:60px;"">+</div>",,html-keyboard-response,95,527414,0.0-13.0-0.6,33777,List2B,white,man,,,,null,,,,,,,,,
null,"<img src=""stim_listB/shout3.gif""style=""height:400px;""></stim_listB>",,html-keyboard-response,96,529422,0.0-13.0-1.6,33777,List2B,white,man,,,,null,,,,,,,,,
null,is shouting at,,html-keyboard-response,97,531430,0.0-13.0-2.6,33777,List2B,white,man,,,,null,,,,,,,,,
15589.2,,,survey-text,98,547022,0.0-13.0-3.6,33777,List2B,white,man,,,,,"{""Q0"":""beth is shouting at fred""}","<img src=""stim_listB/shout3.gif""style=""height:400px;""></stim_listB>",is shouting at,,,,,,
null,"<div style=""font-size:60px;"">+</div>",,html-keyboard-response,99,547528,0.0-13.0-0.7,33777,List2B,white,man,,,,null,,,,,,,,,
null,"<img src=""stim_listB/oppose6.gif""style=""height:400px;""></stim_listB>",,html-keyboard-response,100,549547,0.0-13.0-1.7,33777,List2B,white,man,,,,null,,,,,,,,,
null,is being opposed by,,html-keyboard-response,101,551552,0.0-13.0-2.7,33777,List2B,white,man,,,,null,,,,,,,,,
19338.3,,,survey-text,102,570894,0.0-13.0-3.7,33777,List2B,white,man,,,,,"{""Q0"":""fred is being opposed by luke""}","<img src=""stim_listB/oppose6.gif""style=""height:400px;""></stim_listB>",is being opposed by,,,,,,
null,"<div style=""font-size:60px;"">+</div>",,html-keyboard-response,103,571410,0.0-13.0-0.8,33777,List2B,white,man,,,,null,,,,,,,,,
null,"<img src=""stim_listB/look4.gif""style=""height:400px;""></stim_listB>",,html-keyboard-response,104,573419,0.0-13.0-1.8,33777,List2B,white,man,,,,null,,,,,,,,,
null,is being looked at by,,html-keyboard-response,105,575426,0.0-13.0-2.8,33777,List2B,white,man,,,,null,,,,,,,,,
30177.4,,,survey-text,106,605607,0.0-13.0-3.8,33777,List2B,white,man,,,,,"{""Q0"":""mike is being looked up by ruth""}","<img src=""stim_listB/look4.gif""style=""height:400px;""></stim_listB>",is being looked at by,,,,,,
null,"<div style=""font-size:60px;"">+</div>",,html-keyboard-response,107,606123,0.0-13.0-0.9,33777,List2B,white,man,,,,null,,,,,,,,,
null,"<img src=""stim_listB/hug3.gif""style=""height:400px;""></stim_listB>",,html-keyboard-response,108,608142,0.0-13.0-1.9,33777,List2B,white,man,,,,null,,,,,,,,,
null,is hugging,,html-keyboard-response,109,610152,0.0-13.0-2.9,33777,List2B,white,man,,,,null,,,,,,,,,
14292.5,,,survey-text,110,624449,0.0-13.0-3.9,33777,List2B,white,man,,,,,"{""Q0"":""fred is hugging kate""}","<img src=""stim_listB/hug3.gif""style=""height:400px;""></stim_listB>",is hugging,,,,,,
null,"<div style=""font-size:60px;"">+</div>",,html-keyboard-response,111,624958,0.0-13.0-0.10,33777,List2B,white,man,,,,null,,,,,,,,,
null,"<img src=""stim_listB/oppose2.gif""style=""height:400px;""></stim_listB>",,html-keyboard-response,112,626976,0.0-13.0-1.10,33777,List2B,white,man,,,,null,,,,,,,,,
null,is being opposed by,,html-keyboard-response,113,628989,0.0-13.0-2.10,33777,List2B,white,man,,,,null,,,,,,,,,
14203.3,,,survey-text,114,643196,0.0-13.0-3.10,33777,List2B,white,man,,,,,"{""Q0"":""ruth is being opposed by luke""}","<img src=""stim_listB/oppose2.gif""style=""height:400px;""></stim_listB>",is being opposed by,,,,,,
null,"<div style=""font-size:60px;"">+</div>",,html-keyboard-response,115,643704,0.0-13.0-0.11,33777,List2B,white,man,,,,null,,,,,,,,,
null,"<img src=""stim_listB/copy2.gif""style=""height:400px;""></stim_listB>",,html-keyboard-response,116,645721,0.0-13.0-1.11,33777,List2B,white,man,,,,null,,,,,,,,,
null,is being copied by,,html-keyboard-response,117,647735,0.0-13.0-2.11,33777,List2B,white,man,,,,null,,,,,,,,,
14909.3,,,survey-text,118,662648,0.0-13.0-3.11,33777,List2B,white,man,,,,,"{""Q0"":""luke is being copied by jane""}","<img src=""stim_listB/copy2.gif""style=""height:400px;""></stim_listB>",is being copied by,,,,,,
null,"<div style=""font-size:60px;"">+</div>",,html-keyboard-response,119,663163,0.0-13.0-0.12,33777,List2B,white,man,,,,null,,,,,,,,,
null,"<img src=""stim_listB/greet5.gif""style=""height:400px;""></stim_listB>",,html-keyboard-response,120,665177,0.0-13.0-1.12,33777,List2B,white,man,,,,null,,,,,,,,,
null,is greeting,,html-keyboard-response,121,667193,0.0-13.0-2.12,33777,List2B,white,man,,,,null,,,,,,,,,
10374.2,,,survey-text,122,677571,0.0-13.0-3.12,33777,List2B,white,man,,,,,"{""Q0"":""fred is greeting dave""}","<img src=""stim_listB/greet5.gif""style=""height:400px;""></stim_listB>",is greeting,,,,,,
null,"<div style=""font-size:60px;"">+</div>",,html-keyboard-response,123,678076,0.0-13.0-0.13,33777,List2B,white,man,,,,null,,,,,,,,,
null,"<img src=""stim_listB/hug8.gif""style=""height:400px;""></stim_listB>",,html-keyboard-response,124,680089,0.0-13.0-1.13,33777,List2B,white,man,,,,null,,,,,,,,,
null,is being hugged by,,html-keyboard-response,125,682092,0.0-13.0-2.13,33777,List2B,white,man,,,,null,,,,,,,,,
12656.5,,,survey-text,126,694753,0.0-13.0-3.13,33777,List2B,white,man,,,,,"{""Q0"":""jane is being hugged by kate""}","<img src=""stim_listB/hug8.gif""style=""height:400px;""></stim_listB>",is being hugged by,,,,,,
null,"<div style=""font-size:60px;"">+</div>",,html-keyboard-response,127,695266,0.0-13.0-0.14,33777,List2B,white,man,,,,null,,,,,,,,,
null,"<img src=""stim_listB/shout5.gif""style=""height:400px;""></stim_listB>",,html-keyboard-response,128,697277,0.0-13.0-1.14,33777,List2B,white,man,,,,null,,,,,,,,,
null,is shouting at,,html-keyboard-response,129,699286,0.0-13.0-2.14,33777,List2B,white,man,,,,null,,,,,,,,,
14458.9,,,survey-text,130,713748,0.0-13.0-3.14,33777,List2B,white,man,,,,,"{""Q0"":""fred is shouting at luke""}","<img src=""stim_listB/shout5.gif""style=""height:400px;""></stim_listB>",is shouting at,,,,,,
null,"<div style=""font-size:60px;"">+</div>",,html-keyboard-response,131,714253,0.0-13.0-0.15,33777,List2B,white,man,,,,null,,,,,,,,,
null,"<img src=""stim_listB/kiss6.gif""style=""height:400px;""></stim_listB>",,html-keyboard-response,132,716271,0.0-13.0-1.15,33777,List2B,white,man,,,,null,,,,,,,,,
null,is being kissed by,,html-keyboard-response,133,718287,0.0-13.0-2.15,33777,List2B,white,man,,,,null,,,,,,,,,
20130.3,,,survey-text,134,738421,0.0-13.0-3.15,33777,List2B,white,man,,,,,"{""Q0"":""dave is being kissed by mike""}","<img src=""stim_listB/kiss6.gif""style=""height:400px;""></stim_listB>",is being kissed by,,,,,,
null,"<div style=""font-size:60px;"">+</div>",,html-keyboard-response,135,738926,0.0-13.0-0.16,33777,List2B,white,man,,,,null,,,,,,,,,
null,"<img src=""stim_listB/shout7.gif""style=""height:400px;""></stim_listB>",,html-keyboard-response,136,740944,0.0-13.0-1.16,33777,List2B,white,man,,,,null,,,,,,,,,
null,is shouting at,,html-keyboard-response,137,742959,0.0-13.0-2.16,33777,List2B,white,man,,,,null,,,,,,,,,
16961.1,,,survey-text,138,759924,0.0-13.0-3.16,33777,List2B,white,man,,,,,"{""Q0"":""ruth is shouting at beth""}","<img src=""stim_listB/shout7.gif""style=""height:400px;""></stim_listB>",is shouting at,,,,,,
null,"<div style=""font-size:60px;"">+</div>",,html-keyboard-response,139,760426,0.0-13.0-0.17,33777,List2B,white,man,,,,null,,,,,,,,,
null,"<img src=""stim_listB/seduce8.gif""style=""height:400px;""></stim_listB>",,html-keyboard-response,140,762437,0.0-13.0-1.17,33777,List2B,white,man,,,,null,,,,,,,,,
null,is being seduced by,,html-keyboard-response,141,764453,0.0-13.0-2.17,33777,List2B,white,man,,,,null,,,,,,,,,
45711.2,,,survey-text,142,810168,0.0-13.0-3.17,33777,List2B,white,man,,,,,"{""Q0"":""kate is being seddled by jane""}","<img src=""stim_listB/seduce8.gif""style=""height:400px;""></stim_listB>",is being seduced by,,,,,,
null,"<div style=""font-size:60px;"">+</div>",,html-keyboard-response,143,810674,0.0-13.0-0.18,33777,List2B,white,man,,,,null,,,,,,,,,
null,"<img src=""stim_listB/hug5.gif""style=""height:400px;""></stim_listB>",,html-keyboard-response,144,812684,0.0-13.0-1.18,33777,List2B,white,man,,,,null,,,,,,,,,
null,is hugging,,html-keyboard-response,145,814689,0.0-13.0-2.18,33777,List2B,white,man,,,,null,,,,,,,,,
10975.2,,,survey-text,146,825667,0.0-13.0-3.18,33777,List2B,white,man,,,,,"{""Q0"":""fred is hugging luke""}","<img src=""stim_listB/hug5.gif""style=""height:400px;""></stim_listB>",is hugging,,,,,,
null,"<div style=""font-size:60px;"">+</div>",,html-keyboard-response,147,826168,0.0-13.0-0.19,33777,List2B,white,man,,,,null,,,,,,,,,
null,"<img src=""stim_listB/touch3.gif""style=""height:400px;""></stim_listB>",,html-keyboard-response,148,828183,0.0-13.0-1.19,33777,List2B,white,man,,,,null,,,,,,,,,
null,is touching,,html-keyboard-response,149,830197,0.0-13.0-2.19,33777,List2B,white,man,,,,null,,,,,,,,,
14713.1,,,survey-text,150,844913,0.0-13.0-3.19,33777,List2B,white,man,,,,,"{""Q0"":""mike is touching kate""}","<img src=""stim_listB/touch3.gif""style=""height:400px;""></stim_listB>",is touching,,,,,,
4503.8,"<img src='img/portrait_matrix_list2.jpg' style='width:900px;height:500px;''></img><p>If you have memorised all the portraits and names and are ready to start, press Continue.</p><p><strong>Please note: Your memory of these faces will be tested 4 times during this experiment.</strong></p>",0,html-button-response,151,849419,0.0-14.0-0.0,33777,List2B,white,man,,,,,,,,,,,,,
8454.4,"<img src=""portrait/BW1.jpg""style=""height:400px;""></img>",0,html-button-response,152,858890,0.0-14.0-1.0,33777,List2B,white,man,,TRUE,0,,,,,,,,,,
null,CORRECT,,html-keyboard-response,153,860400,0.0-14.0-2.0-0.0,33777,List2B,white,man,,,,null,,,,,,,,,
7088,"<img src=""portrait/BW2.jpg""style=""height:400px;""></img>",2,html-button-response,154,867490,0.0-14.0-4.0,33777,List2B,white,man,,TRUE,2,,,,,,,,,,
null,CORRECT,,html-keyboard-response,155,868993,0.0-14.0-5.0-0.0,33777,List2B,white,man,,,,null,,,,,,,,,
1918.3,"<img src=""portrait/BM2.jpg""style=""height:400px;""></img>",5,html-button-response,156,870914,0.0-14.0-7.0,33777,List2B,white,man,,TRUE,5,,,,,,,,,,
null,CORRECT,,html-keyboard-response,157,872427,0.0-14.0-8.0-0.0,33777,List2B,white,man,,,,null,,,,,,,,,
6292.9,"<img src=""portrait/WW1.jpg""style=""height:400px;""></img>",1,html-button-response,158,878722,0.0-14.0-10.0,33777,List2B,white,man,,TRUE,1,,,,,,,,,,
null,CORRECT,,html-keyboard-response,159,880243,0.0-14.0-11.0-0.0,33777,List2B,white,man,,,,null,,,,,,,,,
2796.5,"<img src=""portrait/BM1.jpg""style=""height:400px;""></img>",4,html-button-response,160,883042,0.0-14.0-13.0,33777,List2B,white,man,,TRUE,4,,,,,,,,,,
null,CORRECT,,html-keyboard-response,161,884561,0.0-14.0-14.0-0.0,33777,List2B,white,man,,,,null,,,,,,,,,
5918.7,"<img src=""portrait/WM1.jpg""style=""height:400px;""></img>",6,html-button-response,162,890482,0.0-14.0-16.0,33777,List2B,white,man,,TRUE,6,,,,,,,,,,
null,CORRECT,,html-keyboard-response,163,891997,0.0-14.0-17.0-0.0,33777,List2B,white,man,,,,null,,,,,,,,,
1866.1,"<img src=""portrait/WW2.jpg""style=""height:400px;""></img>",3,html-button-response,164,893866,0.0-14.0-19.0,33777,List2B,white,man,,TRUE,3,,,,,,,,,,
null,CORRECT,,html-keyboard-response,165,895396,0.0-14.0-20.0-0.0,33777,List2B,white,man,,,,null,,,,,,,,,
6770.8,"<img src=""portrait/WM2.jpg""style=""height:400px;""></img>",7,html-button-response,166,902170,0.0-14.0-22.0,33777,List2B,white,man,,TRUE,7,,,,,,,,,,
null,CORRECT,,html-keyboard-response,167,903672,0.0-14.0-23.0-0.0,33777,List2B,white,man,,,,null,,,,,,,,,
1279,<p>You got 8 out of 8 right first time. Press Continue.</p>,0,html-button-response,168,904953,0.0-14.0-25.0,33777,List2B,white,man,,,,,,,,,,,,,
null,"<div style=""font-size:60px;"">+</div>",,html-keyboard-response,169,906468,0.0-15.0-0.0,33777,List2B,white,man,,,,null,,,,,,,,,
null,"<img src=""stim_listB/seduce1.gif""style=""height:400px;""></stim_listB>",,html-keyboard-response,170,908475,0.0-15.0-1.0,33777,List2B,white,man,,,,null,,,,,,,,,
null,is seducing,,html-keyboard-response,171,910487,0.0-15.0-2.0,33777,List2B,white,man,,,,null,,,,,,,,,
16961.1,,,survey-text,172,927452,0.0-15.0-3.0,33777,List2B,white,man,,,,,"{""Q0"":""luke is seducing jane""}","<img src=""stim_listB/seduce1.gif""style=""height:400px;""></stim_listB>",is seducing,,,,,,
null,"<div style=""font-size:60px;"">+</div>",,html-keyboard-response,173,927960,0.0-15.0-0.1,33777,List2B,white,man,,,,null,,,,,,,,,
null,"<img src=""stim_listB/hug7.gif""style=""height:400px;""></stim_listB>",,html-keyboard-response,174,929978,0.0-15.0-1.1,33777,List2B,white,man,,,,null,,,,,,,,,
null,is hugging,,html-keyboard-response,175,931994,0.0-15.0-2.1,33777,List2B,white,man,,,,null,,,,,,,,,
12860.8,,,survey-text,176,944859,0.0-15.0-3.1,33777,List2B,white,man,,,,,"{""Q0"":""ruth is hugging kate""}","<img src=""stim_listB/hug7.gif""style=""height:400px;""></stim_listB>",is hugging,,,,,,
null,"<div style=""font-size:60px;"">+</div>",,html-keyboard-response,177,945375,0.0-15.0-0.2,33777,List2B,white,man,,,,null,,,,,,,,,
null,"<img src=""stim_listB/greet2.gif""style=""height:400px;""></stim_listB>",,html-keyboard-response,178,947393,0.0-15.0-1.2,33777,List2B,white,man,,,,null,,,,,,,,,
null,is being greeted by,,html-keyboard-response,179,949401,0.0-15.0-2.2,33777,List2B,white,man,,,,null,,,,,,,,,
12519.9,,,survey-text,180,961926,0.0-15.0-3.2,33777,List2B,white,man,,,,,"{""Q0"":""jane is being greeted by luke""}","<img src=""stim_listB/greet2.gif""style=""height:400px;""></stim_listB>",is being greeted by,,,,,,
null,"<div style=""font-size:60px;"">+</div>",,html-keyboard-response,181,962427,0.0-15.0-0.3,33777,List2B,white,man,,,,null,,,,,,,,,
null,"<img src=""stim_listB/greet7.gif""style=""height:400px;""></stim_listB>",,html-keyboard-response,182,964445,0.0-15.0-1.3,33777,List2B,white,man,,,,null,,,,,,,,,
null,is greeting,,html-keyboard-response,183,966461,0.0-15.0-2.3,33777,List2B,white,man,,,,null,,,,,,,,,
10784.4,,,survey-text,184,977248,0.0-15.0-3.3,33777,List2B,white,man,,,,,"{""Q0"":""jane is greeting ruth""}","<img src=""stim_listB/greet7.gif""style=""height:400px;""></stim_listB>",is greeting,,,,,,
null,"<div style=""font-size:60px;"">+</div>",,html-keyboard-response,185,977755,0.0-15.0-0.4,33777,List2B,white,man,,,,null,,,,,,,,,
null,"<img src=""stim_listB/touch5.gif""style=""height:400px;""></stim_listB>",,html-keyboard-response,186,979763,0.0-15.0-1.4,33777,List2B,white,man,,,,null,,,,,,,,,
null,is touching,,html-keyboard-response,187,981779,0.0-15.0-2.4,33777,List2B,white,man,,,,null,,,,,,,,,
17284.9,,,survey-text,188,999067,0.0-15.0-3.4,33777,List2B,white,man,,,,,"{""Q0"":""mike is touching dave""}","<img src=""stim_listB/touch5.gif""style=""height:400px;""></stim_listB>",is touching,,,,,,
null,"<div style=""font-size:60px;"">+</div>",,html-keyboard-response,189,999571,0.0-15.0-0.5,33777,List2B,white,man,,,,null,,,,,,,,,
null,"<img src=""stim_listB/greet6.gif""style=""height:400px;""></stim_listB>",,html-keyboard-response,190,1001589,0.0-15.0-1.5,33777,List2B,white,man,,,,null,,,,,,,,,
null,is being greeted by,,html-keyboard-response,191,1003599,0.0-15.0-2.5,33777,List2B,white,man,,,,null,,,,,,,,,
13972.2,,,survey-text,192,1017575,0.0-15.0-3.5,33777,List2B,white,man,,,,,"{""Q0"":""mike is being greeted by luke""}","<img src=""stim_listB/greet6.gif""style=""height:400px;""></stim_listB>",is being greeted by,,,,,,
null,"<div style=""font-size:60px;"">+</div>",,html-keyboard-response,193,1018085,0.0-15.0-0.6,33777,List2B,white,man,,,,null,,,,,,,,,
null,"<img src=""stim_listB/look6.gif""style=""height:400px;""></stim_listB>",,html-keyboard-response,194,1020101,0.0-15.0-1.6,33777,List2B,white,man,,,,null,,,,,,,,,
null,is being looked at by,,html-keyboard-response,195,1022115,0.0-15.0-2.6,33777,List2B,white,man,,,,null,,,,,,,,,
18938.6,,,survey-text,196,1041058,0.0-15.0-3.6,33777,List2B,white,man,,,,,"{""Q0"":""mike is being looked at by dave""}","<img src=""stim_listB/look6.gif""style=""height:400px;""></stim_listB>",is being looked at by,,,,,,
null,"<div style=""font-size:60px;"">+</div>",,html-keyboard-response,197,1041566,0.0-15.0-0.7,33777,List2B,white,man,,,,null,,,,,,,,,
null,"<img src=""stim_listB/oppose8.gif""style=""height:400px;""></stim_listB>",,html-keyboard-response,198,1043584,0.0-15.0-1.7,33777,List2B,white,man,,,,null,,,,,,,,,
null,is being opposed by,,html-keyboard-response,199,1045585,0.0-15.0-2.7,33777,List2B,white,man,,,,null,,,,,,,,,
14235.8,,,survey-text,200,1059825,0.0-15.0-3.7,33777,List2B,white,man,,,,,"{""Q0"":""beth is being opposed by ruth""}","<img src=""stim_listB/oppose8.gif""style=""height:400px;""></stim_listB>",is being opposed by,,,,,,
null,"<div style=""font-size:60px;"">+</div>",,html-keyboard-response,201,1060332,0.0-15.0-0.8,33777,List2B,white,man,,,,null,,,,,,,,,
null,"<img src=""stim_listB/look2.gif""style=""height:400px;""></stim_listB>",,html-keyboard-response,202,1062341,0.0-15.0-1.8,33777,List2B,white,man,,,,null,,,,,,,,,
null,is being looked at by,,html-keyboard-response,203,1064357,0.0-15.0-2.8,33777,List2B,white,man,,,,null,,,,,,,,,
16209.2,,,survey-text,204,1080570,0.0-15.0-3.8,33777,List2B,white,man,,,,,"{""Q0"":""dave is being looked at by jane""}","<img src=""stim_listB/look2.gif""style=""height:400px;""></stim_listB>",is being looked at by,,,,,,
null,"<div style=""font-size:60px;"">+</div>",,html-keyboard-response,205,1081080,0.0-15.0-0.9,33777,List2B,white,man,,,,null,,,,,,,,,
null,"<img src=""stim_listB/shout6.gif""style=""height:400px;""></stim_listB>",,html-keyboard-response,206,1083090,0.0-15.0-1.9,33777,List2B,white,man,,,,null,,,,,,,,,
null,is being shouted at by,,html-keyboard-response,207,1085107,0.0-15.0-2.9,33777,List2B,white,man,,,,null,,,,,,,,,
24625.7,,,survey-text,208,1109736,0.0-15.0-3.9,33777,List2B,white,man,,,,,"{""Q0"":""dave is being shouted at by mike""}","<img src=""stim_listB/shout6.gif""style=""height:400px;""></stim_listB>",is being shouted at by,,,,,,
null,"<div style=""font-size:60px;"">+</div>",,html-keyboard-response,209,1110243,0.0-15.0-0.10,33777,List2B,white,man,,,,null,,,,,,,,,
null,"<img src=""stim_listB/look7.gif""style=""height:400px;""></stim_listB>",,html-keyboard-response,210,1112251,0.0-15.0-1.10,33777,List2B,white,man,,,,null,,,,,,,,,
null,is looking at,,html-keyboard-response,211,1114267,0.0-15.0-2.10,33777,List2B,white,man,,,,null,,,,,,,,,
19185.4,,,survey-text,212,1133456,0.0-15.0-3.10,33777,List2B,white,man,,,,,"{""Q0"":""beth is looking at kate""}","<img src=""stim_listB/look7.gif""style=""height:400px;""></stim_listB>",is looking at,,,,,,
null,"<div style=""font-size:60px;"">+</div>",,html-keyboard-response,213,1133959,0.0-15.0-0.11,33777,List2B,white,man,,,,null,,,,,,,,,
null,"<img src=""stim_listB/greet4.gif""style=""height:400px;""></stim_listB>",,html-keyboard-response,214,1135974,0.0-15.0-1.11,33777,List2B,white,man,,,,null,,,,,,,,,
null,is being greeted by,,html-keyboard-response,215,1137980,0.0-15.0-2.11,33777,List2B,white,man,,,,null,,,,,,,,,
15300.7,,,survey-text,216,1153284,0.0-15.0-3.11,33777,List2B,white,man,,,,,"{""Q0"":""fred is being greeted by kate""}","<img src=""stim_listB/greet4.gif""style=""height:400px;""></stim_listB>",is being greeted by,,,,,,
null,"<div style=""font-size:60px;"">+</div>",,html-keyboard-response,217,1153790,0.0-15.0-0.12,33777,List2B,white,man,,,,null,,,,,,,,,
null,"<img src=""stim_listB/challenge6.gif""style=""height:400px;""></stim_listB>",,html-keyboard-response,218,1155804,0.0-15.0-1.12,33777,List2B,white,man,,,,null,,,,,,,,,
null,is being challenged by,,html-keyboard-response,219,1157821,0.0-15.0-2.12,33777,List2B,white,man,,,,null,,,,,,,,,
15596.4,,,survey-text,220,1173421,0.0-15.0-3.12,33777,List2B,white,man,,,,,"{""Q0"":""mike is being challenged by luke""}","<img src=""stim_listB/challenge6.gif""style=""height:400px;""></stim_listB>",is being challenged by,,,,,,
null,"<div style=""font-size:60px;"">+</div>",,html-keyboard-response,221,1173937,0.0-15.0-0.13,33777,List2B,white,man,,,,null,,,,,,,,,
null,"<img src=""stim_listB/oppose7.gif""style=""height:400px;""></stim_listB>",,html-keyboard-response,222,1175945,0.0-15.0-1.13,33777,List2B,white,man,,,,null,,,,,,,,,
null,is opposing,,html-keyboard-response,223,1177961,0.0-15.0-2.13,33777,List2B,white,man,,,,null,,,,,,,,,
9905.1,,,survey-text,224,1187870,0.0-15.0-3.13,33777,List2B,white,man,,,,,"{""Q0"":""kate is opposing jane""}","<img src=""stim_listB/oppose7.gif""style=""height:400px;""></stim_listB>",is opposing,,,,,,
null,"<div style=""font-size:60px;"">+</div>",,html-keyboard-response,225,1188377,0.0-15.0-0.14,33777,List2B,white,man,,,,null,,,,,,,,,
null,"<img src=""stim_listB/look1.gif""style=""height:400px;""></stim_listB>",,html-keyboard-response,226,1190383,0.0-15.0-1.14,33777,List2B,white,man,,,,null,,,,,,,,,
null,is looking at,,html-keyboard-response,227,1192385,0.0-15.0-2.14,33777,List2B,white,man,,,,null,,,,,,,,,
12943,,,survey-text,228,1205332,0.0-15.0-3.14,33777,List2B,white,man,,,,,"{""Q0"":""ruth is looking at luke""}","<img src=""stim_listB/look1.gif""style=""height:400px;""></stim_listB>",is looking at,,,,,,
null,"<div style=""font-size:60px;"">+</div>",,html-keyboard-response,229,1205836,0.0-15.0-0.15,33777,List2B,white,man,,,,null,,,,,,,,,
null,"<img src=""stim_listB/oppose3.gif""style=""height:400px;""></stim_listB>",,html-keyboard-response,230,1207853,0.0-15.0-1.15,33777,List2B,white,man,,,,null,,,,,,,,,
null,is opposing,,html-keyboard-response,231,1209870,0.0-15.0-2.15,33777,List2B,white,man,,,,null,,,,,,,,,
10238.1,,,survey-text,232,1220112,0.0-15.0-3.15,33777,List2B,white,man,,,,,"{""Q0"":""mike is opposing kate""}","<img src=""stim_listB/oppose3.gif""style=""height:400px;""></stim_listB>",is opposing,,,,,,
null,"<div style=""font-size:60px;"">+</div>",,html-keyboard-response,233,1220618,0.0-15.0-0.16,33777,List2B,white,man,,,,null,,,,,,,,,
null,"<img src=""stim_listB/greet1.gif""style=""height:400px;""></stim_listB>",,html-keyboard-response,234,1222623,0.0-15.0-1.16,33777,List2B,white,man,,,,null,,,,,,,,,
null,is greeting,,html-keyboard-response,235,1224636,0.0-15.0-2.16,33777,List2B,white,man,,,,null,,,,,,,,,
12821.3,,,survey-text,236,1237462,0.0-15.0-3.16,33777,List2B,white,man,,,,,"{""Q0"":""dave is greeting ruth""}","<img src=""stim_listB/greet1.gif""style=""height:400px;""></stim_listB>",is greeting,,,,,,
null,"<div style=""font-size:60px;"">+</div>",,html-keyboard-response,237,1237967,0.0-15.0-0.17,33777,List2B,white,man,,,,null,,,,,,,,,
null,"<img src=""stim_listB/seduce5.gif""style=""height:400px;""></stim_listB>",,html-keyboard-response,238,1239973,0.0-15.0-1.17,33777,List2B,white,man,,,,null,,,,,,,,,
null,is seducing,,html-keyboard-response,239,1241978,0.0-15.0-2.17,33777,List2B,white,man,,,,null,,,,,,,,,
20231.1,,,survey-text,240,1262213,0.0-15.0-3.17,33777,List2B,white,man,,,,,"{""Q0"":""mike is seducing luke""}","<img src=""stim_listB/seduce5.gif""style=""height:400px;""></stim_listB>",is seducing,,,,,,
null,"<div style=""font-size:60px;"">+</div>",,html-keyboard-response,241,1262729,0.0-15.0-0.18,33777,List2B,white,man,,,,null,,,,,,,,,
null,"<img src=""stim_listB/look3.gif""style=""height:400px;""></stim_listB>",,html-keyboard-response,242,1264747,0.0-15.0-1.18,33777,List2B,white,man,,,,null,,,,,,,,,
null,is looking at,,html-keyboard-response,243,1266757,0.0-15.0-2.18,33777,List2B,white,man,,,,null,,,,,,,,,
14167.5,,,survey-text,244,1280929,0.0-15.0-3.18,33777,List2B,white,man,,,,,"{""Q0"":""fred is looking at luke""}","<img src=""stim_listB/look3.gif""style=""height:400px;""></stim_listB>",is looking at,,,,,,
null,"<div style=""font-size:60px;"">+</div>",,html-keyboard-response,245,1281444,0.0-15.0-0.19,33777,List2B,white,man,,,,null,,,,,,,,,
null,"<img src=""stim_listB/kiss4.gif""style=""height:400px;""></stim_listB>",,html-keyboard-response,246,1283451,0.0-15.0-1.19,33777,List2B,white,man,,,,null,,,,,,,,,
null,is being kissed by,,html-keyboard-response,247,1285456,0.0-15.0-2.19,33777,List2B,white,man,,,,null,,,,,,,,,
10056.8,,,survey-text,248,1295516,0.0-15.0-3.19,33777,List2B,white,man,,,,,"{""Q0"":""mike is being kissed by kate""}","<img src=""stim_listB/kiss4.gif""style=""height:400px;""></stim_listB>",is being kissed by,,,,,,
4412.5,"<img src='img/portrait_matrix_list2.jpg' style='width:900px;height:500px;''></img><p>If you have memorised all the portraits and names and are ready to start, press Continue.</p><p><strong>Please note: Your memory of these faces will be tested 4 times during this experiment.</strong></p>",0,html-button-response,249,1299930,0.0-16.0-0.0,33777,List2B,white,man,,,,,,,,,,,,,
3451.4,"<img src=""portrait/BM2.jpg""style=""height:400px;""></img>",5,html-button-response,250,1304392,0.0-16.0-1.0,33777,List2B,white,man,,TRUE,5,,,,,,,,,,
null,CORRECT,,html-keyboard-response,251,1305912,0.0-16.0-2.0-0.0,33777,List2B,white,man,,,,null,,,,,,,,,
4638.6,"<img src=""portrait/BW1.jpg""style=""height:400px;""></img>",0,html-button-response,252,1310552,0.0-16.0-4.0,33777,List2B,white,man,,TRUE,0,,,,,,,,,,
null,CORRECT,,html-keyboard-response,253,1312071,0.0-16.0-5.0-0.0,33777,List2B,white,man,,,,null,,,,,,,,,
4005.5,"<img src=""portrait/WW1.jpg""style=""height:400px;""></img>",1,html-button-response,254,1316079,0.0-16.0-7.0,33777,List2B,white,man,,TRUE,1,,,,,,,,,,
null,CORRECT,,html-keyboard-response,255,1317611,0.0-16.0-8.0-0.0,33777,List2B,white,man,,,,null,,,,,,,,,
8557.6,"<img src=""portrait/WM2.jpg""style=""height:400px;""></img>",7,html-button-response,256,1326171,0.0-16.0-10.0,33777,List2B,white,man,,TRUE,7,,,,,,,,,,
null,CORRECT,,html-keyboard-response,257,1327688,0.0-16.0-11.0-0.0,33777,List2B,white,man,,,,null,,,,,,,,,
3437,"<img src=""portrait/WM1.jpg""style=""height:400px;""></img>",6,html-button-response,258,1331127,0.0-16.0-13.0,33777,List2B,white,man,,TRUE,6,,,,,,,,,,
null,CORRECT,,html-keyboard-response,259,1332656,0.0-16.0-14.0-0.0,33777,List2B,white,man,,,,null,,,,,,,,,
3798.5,"<img src=""portrait/BW2.jpg""style=""height:400px;""></img>",2,html-button-response,260,1336457,0.0-16.0-16.0,33777,List2B,white,man,,TRUE,2,,,,,,,,,,
null,CORRECT,,html-keyboard-response,261,1337965,0.0-16.0-17.0-0.0,33777,List2B,white,man,,,,null,,,,,,,,,
1930.6,"<img src=""portrait/BM1.jpg""style=""height:400px;""></img>",4,html-button-response,262,1339897,0.0-16.0-19.0,33777,List2B,white,man,,TRUE,4,,,,,,,,,,
null,CORRECT,,html-keyboard-response,263,1341421,0.0-16.0-20.0-0.0,33777,List2B,white,man,,,,null,,,,,,,,,
1751.1,"<img src=""portrait/WW2.jpg""style=""height:400px;""></img>",3,html-button-response,264,1343173,0.0-16.0-22.0,33777,List2B,white,man,,TRUE,3,,,,,,,,,,
null,CORRECT,,html-keyboard-response,265,1344677,0.0-16.0-23.0-0.0,33777,List2B,white,man,,,,null,,,,,,,,,
1688.8,<p>You got 8 out of 8 right first time. Press Continue.</p>,0,html-button-response,266,1346368,0.0-16.0-25.0,33777,List2B,white,man,,,,,,,,,,,,,
null,"<div style=""font-size:60px;"">+</div>",,html-keyboard-response,267,1347886,0.0-17.0-0.0,33777,List2B,white,man,,,,null,,,,,,,,,
null,"<img src=""stim_listB/kiss1.gif""style=""height:400px;""></stim_listB>",,html-keyboard-response,268,1349891,0.0-17.0-1.0,33777,List2B,white,man,,,,null,,,,,,,,,
null,is kissing,,html-keyboard-response,269,1351900,0.0-17.0-2.0,33777,List2B,white,man,,,,null,,,,,,,,,
11801.6,,,survey-text,270,1363706,0.0-17.0-3.0,33777,List2B,white,man,,,,,"{""Q0"":""luke is kissing ruth""}","<img src=""stim_listB/kiss1.gif""style=""height:400px;""></stim_listB>",is kissing,,,,,,
null,"<div style=""font-size:60px;"">+</div>",,html-keyboard-response,271,1364208,0.0-17.0-0.1,33777,List2B,white,man,,,,null,,,,,,,,,
null,"<img src=""stim_listB/challenge7.gif""style=""height:400px;""></stim_listB>",,html-keyboard-response,272,1366384,0.0-17.0-1.1,33777,List2B,white,man,,,,null,,,,,,,,,
null,is challenging,,html-keyboard-response,273,1368401,0.0-17.0-2.1,33777,List2B,white,man,,,,null,,,,,,,,,
13563.3,,,survey-text,274,1381968,0.0-17.0-3.1,33777,List2B,white,man,,,,,"{""Q0"":""beth is challenging ruth""}","<img src=""stim_listB/challenge7.gif""style=""height:400px;""></stim_listB>",is challenging,,,,,,
null,"<div style=""font-size:60px;"">+</div>",,html-keyboard-response,275,1382469,0.0-17.0-0.2,33777,List2B,white,man,,,,null,,,,,,,,,
null,"<img src=""stim_listB/touch6.gif""style=""height:400px;""></stim_listB>",,html-keyboard-response,276,1384484,0.0-17.0-1.2,33777,List2B,white,man,,,,null,,,,,,,,,
null,is being touched by,,html-keyboard-response,277,1386500,0.0-17.0-2.2,33777,List2B,white,man,,,,null,,,,,,,,,
13858.5,,,survey-text,278,1400362,0.0-17.0-3.2,33777,List2B,white,man,,,,,"{""Q0"":""luke is touching fred""}","<img src=""stim_listB/touch6.gif""style=""height:400px;""></stim_listB>",is being touched by,,,,,,
null,"<div style=""font-size:60px;"">+</div>",,html-keyboard-response,279,1400866,0.0-17.0-0.3,33777,List2B,white,man,,,,null,,,,,,,,,
null,"<img src=""stim_listB/greet8.gif""style=""height:400px;""></stim_listB>",,html-keyboard-response,280,1402870,0.0-17.0-1.3,33777,List2B,white,man,,,,null,,,,,,,,,
null,is being greeted by,,html-keyboard-response,281,1404877,0.0-17.0-2.3,33777,List2B,white,man,,,,null,,,,,,,,,
11348.2,,,survey-text,282,1416229,0.0-17.0-3.3,33777,List2B,white,man,,,,,"{""Q0"":""ruth is being greeted by kate""}","<img src=""stim_listB/greet8.gif""style=""height:400px;""></stim_listB>",is being greeted by,,,,,,
null,"<div style=""font-size:60px;"">+</div>",,html-keyboard-response,283,1416738,0.0-17.0-0.4,33777,List2B,white,man,,,,null,,,,,,,,,
null,"<img src=""stim_listB/kiss5.gif""style=""height:400px;""></stim_listB>",,html-keyboard-response,284,1418757,0.0-17.0-1.4,33777,List2B,white,man,,,,null,,,,,,,,,
null,is kissing,,html-keyboard-response,285,1420772,0.0-17.0-2.4,33777,List2B,white,man,,,,null,,,,,,,,,
7898.1,,,survey-text,286,1428674,0.0-17.0-3.4,33777,List2B,white,man,,,,,"{""Q0"":""fred is kissing luke""}","<img src=""stim_listB/kiss5.gif""style=""height:400px;""></stim_listB>",is kissing,,,,,,
null,"<div style=""font-size:60px;"">+</div>",,html-keyboard-response,287,1429180,0.0-17.0-0.5,33777,List2B,white,man,,,,null,,,,,,,,,
null,"<img src=""stim_listB/copy1.gif""style=""height:400px;""></stim_listB>",,html-keyboard-response,288,1431197,0.0-17.0-1.5,33777,List2B,white,man,,,,null,,,,,,,,,
null,is copying,,html-keyboard-response,289,1433202,0.0-17.0-2.5,33777,List2B,white,man,,,,null,,,,,,,,,
18075.3,,,survey-text,290,1451282,0.0-17.0-3.5,33777,List2B,white,man,,,,,"{""Q0"":""dave is copying ruth""}","<img src=""stim_listB/copy1.gif""style=""height:400px;""></stim_listB>",is copying,,,,,,
null,"<div style=""font-size:60px;"">+</div>",,html-keyboard-response,291,1451797,0.0-17.0-0.6,33777,List2B,white,man,,,,null,,,,,,,,,
null,"<img src=""stim_listB/hug4.gif""style=""height:400px;""></stim_listB>",,html-keyboard-response,292,1453815,0.0-17.0-1.6,33777,List2B,white,man,,,,null,,,,,,,,,
null,is being hugged by,,html-keyboard-response,293,1455818,0.0-17.0-2.6,33777,List2B,white,man,,,,null,,,,,,,,,
9836.7,,,survey-text,294,1465659,0.0-17.0-3.6,33777,List2B,white,man,,,,,"{""Q0"":""mike is being hugged by kate""}","<img src=""stim_listB/hug4.gif""style=""height:400px;""></stim_listB>",is being hugged by,,,,,,
null,"<div style=""font-size:60px;"">+</div>",,html-keyboard-response,295,1466162,0.0-17.0-0.7,33777,List2B,white,man,,,,null,,,,,,,,,
null,"<img src=""stim_listB/copy5.gif""style=""height:400px;""></stim_listB>",,html-keyboard-response,296,1468167,0.0-17.0-1.7,33777,List2B,white,man,,,,null,,,,,,,,,
null,is copying,,html-keyboard-response,297,1470169,0.0-17.0-2.7,33777,List2B,white,man,,,,null,,,,,,,,,
7840.2,,,survey-text,298,1478013,0.0-17.0-3.7,33777,List2B,white,man,,,,,"{""Q0"":""dave is copying fred""}","<img src=""stim_listB/copy5.gif""style=""height:400px;""></stim_listB>",is copying,,,,,,
null,"<div style=""font-size:60px;"">+</div>",,html-keyboard-response,299,1478520,0.0-17.0-0.8,33777,List2B,white,man,,,,null,,,,,,,,,
null,"<img src=""stim_listB/oppose5.gif""style=""height:400px;""></stim_listB>",,html-keyboard-response,300,1480529,0.0-17.0-1.8,33777,List2B,white,man,,,,null,,,,,,,,,
null,is opposing,,html-keyboard-response,301,1482541,0.0-17.0-2.8,33777,List2B,white,man,,,,null,,,,,,,,,
21221.4,,,survey-text,302,1503767,0.0-17.0-3.8,33777,List2B,white,man,,,,,"{""Q0"":""dave  is opposing mike""}","<img src=""stim_listB/oppose5.gif""style=""height:400px;""></stim_listB>",is opposing,,,,,,
null,"<div style=""font-size:60px;"">+</div>",,html-keyboard-response,303,1504273,0.0-17.0-0.9,33777,List2B,white,man,,,,null,,,,,,,,,
null,"<img src=""stim_listB/challenge1.gif""style=""height:400px;""></stim_listB>",,html-keyboard-response,304,1506288,0.0-17.0-1.9,33777,List2B,white,man,,,,null,,,,,,,,,
null,is challenging,,html-keyboard-response,305,1508304,0.0-17.0-2.9,33777,List2B,white,man,,,,null,,,,,,,,,
9118.4,,,survey-text,306,1517425,0.0-17.0-3.9,33777,List2B,white,man,,,,,"{""Q0"":""ruth is challenging dave""}","<img src=""stim_listB/challenge1.gif""style=""height:400px;""></stim_listB>",is challenging,,,,,,
null,"<div style=""font-size:60px;"">+</div>",,html-keyboard-response,307,1517939,0.0-17.0-0.10,33777,List2B,white,man,,,,null,,,,,,,,,
null,"<img src=""stim_listB/hug2.gif""style=""height:400px;""></stim_listB>",,html-keyboard-response,308,1519957,0.0-17.0-1.10,33777,List2B,white,man,,,,null,,,,,,,,,
null,is being hugged by,,html-keyboard-response,309,1521960,0.0-17.0-2.10,33777,List2B,white,man,,,,null,,,,,,,,,
15504.8,,,survey-text,310,1537468,0.0-17.0-3.10,33777,List2B,white,man,,,,,"{""Q0"":""dave is being hugged by ruth""}","<img src=""stim_listB/hug2.gif""style=""height:400px;""></stim_listB>",is being hugged by,,,,,,
null,"<div style=""font-size:60px;"">+</div>",,html-keyboard-response,311,1537972,0.0-17.0-0.11,33777,List2B,white,man,,,,null,,,,,,,,,
null,"<img src=""stim_listB/touch7.gif""style=""height:400px;""></stim_listB>",,html-keyboard-response,312,1539990,0.0-17.0-1.11,33777,List2B,white,man,,,,null,,,,,,,,,
null,is touching,,html-keyboard-response,313,1542004,0.0-17.0-2.11,33777,List2B,white,man,,,,null,,,,,,,,,
7360.8,,,survey-text,314,1549368,0.0-17.0-3.11,33777,List2B,white,man,,,,,"{""Q0"":""is touching jane""}","<img src=""stim_listB/touch7.gif""style=""height:400px;""></stim_listB>",is touching,,,,,,
null,"<div style=""font-size:60px;"">+</div>",,html-keyboard-response,315,1549870,0.0-17.0-0.12,33777,List2B,white,man,,,,null,,,,,,,,,
null,"<img src=""stim_listB/challenge4.gif""style=""height:400px;""></stim_listB>",,html-keyboard-response,316,1551883,0.0-17.0-1.12,33777,List2B,white,man,,,,null,,,,,,,,,
null,is being challenged by,,html-keyboard-response,317,1553899,0.0-17.0-2.12,33777,List2B,white,man,,,,null,,,,,,,,,
24943.9,,,survey-text,318,1578847,0.0-17.0-3.12,33777,List2B,white,man,,,,,"{""Q0"":""jane is touching kate""}","<img src=""stim_listB/challenge4.gif""style=""height:400px;""></stim_listB>",is being challenged by,,,,,,
null,"<div style=""font-size:60px;"">+</div>",,html-keyboard-response,319,1579353,0.0-17.0-0.13,33777,List2B,white,man,,,,null,,,,,,,,,
null,"<img src=""stim_listB/kiss3.gif""style=""height:400px;""></stim_listB>",,html-keyboard-response,320,1581358,0.0-17.0-1.13,33777,List2B,white,man,,,,null,,,,,,,,,
null,is kissing,,html-keyboard-response,321,1583368,0.0-17.0-2.13,33777,List2B,white,man,,,,null,,,,,,,,,
11762,,,survey-text,322,1595135,0.0-17.0-3.13,33777,List2B,white,man,,,,,"{""Q0"":""kate is kissing fred""}","<img src=""stim_listB/kiss3.gif""style=""height:400px;""></stim_listB>",is kissing,,,,,,
null,"<div style=""font-size:60px;"">+</div>",,html-keyboard-response,323,1595645,0.0-17.0-0.14,33777,List2B,white,man,,,,null,,,,,,,,,
null,"<img src=""stim_listB/seduce2.gif""style=""height:400px;""></stim_listB>",,html-keyboard-response,324,1597656,0.0-17.0-1.14,33777,List2B,white,man,,,,null,,,,,,,,,
null,is being seduced by,,html-keyboard-response,325,1599672,0.0-17.0-2.14,33777,List2B,white,man,,,,null,,,,,,,,,
15582.5,,,survey-text,326,1615258,0.0-17.0-3.14,33777,List2B,white,man,,,,,"{""Q0"":""dave is being settled by ruth""}","<img src=""stim_listB/seduce2.gif""style=""height:400px;""></stim_listB>",is being seduced by,,,,,,
null,"<div style=""font-size:60px;"">+</div>",,html-keyboard-response,327,1615769,0.0-17.0-0.15,33777,List2B,white,man,,,,null,,,,,,,,,
null,"<img src=""stim_listB/challenge3.gif""style=""height:400px;""></stim_listB>",,html-keyboard-response,328,1617787,0.0-17.0-1.15,33777,List2B,white,man,,,,null,,,,,,,,,
null,is challenging,,html-keyboard-response,329,1619803,0.0-17.0-2.15,33777,List2B,white,man,,,,null,,,,,,,,,
11491.8,,,survey-text,330,1631299,0.0-17.0-3.15,33777,List2B,white,man,,,,,"{""Q0"":""mike is challenging kate""}","<img src=""stim_listB/challenge3.gif""style=""height:400px;""></stim_listB>",is challenging,,,,,,
null,"<div style=""font-size:60px;"">+</div>",,html-keyboard-response,331,1631812,0.0-17.0-0.16,33777,List2B,white,man,,,,null,,,,,,,,,
null,"<img src=""stim_listB/touch2.gif""style=""height:400px;""></stim_listB>",,html-keyboard-response,332,1633827,0.0-17.0-1.16,33777,List2B,white,man,,,,null,,,,,,,,,
null,is being touched by,,html-keyboard-response,333,1635834,0.0-17.0-2.16,33777,List2B,white,man,,,,null,,,,,,,,,
10555,,,survey-text,334,1646393,0.0-17.0-3.16,33777,List2B,white,man,,,,,"{""Q0"":""ruth is being touched by luke""}","<img src=""stim_listB/touch2.gif""style=""height:400px;""></stim_listB>",is being touched by,,,,,,
null,"<div style=""font-size:60px;"">+</div>",,html-keyboard-response,335,1646895,0.0-17.0-0.17,33777,List2B,white,man,,,,null,,,,,,,,,
null,"<img src=""stim_listB/touch1.gif""style=""height:400px;""></stim_listB>",,html-keyboard-response,336,1648913,0.0-17.0-1.17,33777,List2B,white,man,,,,null,,,,,,,,,
null,is touching,,html-keyboard-response,337,1650918,0.0-17.0-2.17,33777,List2B,white,man,,,,null,,,,,,,,,
23322,,,survey-text,338,1674243,0.0-17.0-3.17,33777,List2B,white,man,,,,,"{""Q0"":""jane is being touched by luke""}","<img src=""stim_listB/touch1.gif""style=""height:400px;""></stim_listB>",is touching,,,,,,
null,"<div style=""font-size:60px;"">+</div>",,html-keyboard-response,339,1674757,0.0-17.0-0.18,33777,List2B,white,man,,,,null,,,,,,,,,
null,"<img src=""stim_listB/oppose4.gif""style=""height:400px;""></stim_listB>",,html-keyboard-response,340,1676774,0.0-17.0-1.18,33777,List2B,white,man,,,,null,,,,,,,,,
null,is being opposed by,,html-keyboard-response,341,1678781,0.0-17.0-2.18,33777,List2B,white,man,,,,null,,,,,,,,,
11310.2,,,survey-text,342,1690095,0.0-17.0-3.18,33777,List2B,white,man,,,,,"{""Q0"":""kate is being opposed by fred""}","<img src=""stim_listB/oppose4.gif""style=""height:400px;""></stim_listB>",is being opposed by,,,,,,
null,"<div style=""font-size:60px;"">+</div>",,html-keyboard-response,343,1690607,0.0-17.0-0.19,33777,List2B,white,man,,,,null,,,,,,,,,
null,"<img src=""stim_listB/challenge2.gif""style=""height:400px;""></stim_listB>",,html-keyboard-response,344,1692625,0.0-17.0-1.19,33777,List2B,white,man,,,,null,,,,,,,,,
null,is being challenged by,,html-keyboard-response,345,1694631,0.0-17.0-2.19,33777,List2B,white,man,,,,null,,,,,,,,,
48134.7,,,survey-text,346,1742769,0.0-17.0-3.19,33777,List2B,white,man,,,,,"{""Q0"":""fred is challenged by dave""}","<img src=""stim_listB/challenge2.gif""style=""height:400px;""></stim_listB>",is being challenged by,,,,,,
10256.4,"<img src='img/portrait_matrix_list2.jpg' style='width:900px;height:500px;''></img><p>If you have memorised all the portraits and names and are ready to start, press Continue.</p><p><strong>Please note: Your memory of these faces will be tested 4 times during this experiment.</strong></p>",0,html-button-response,347,1753027,0.0-18.0-0.0,33777,List2B,white,man,,,,,,,,,,,,,
5137.5,"<img src=""portrait/WM2.jpg""style=""height:400px;""></img>",7,html-button-response,348,1759178,0.0-18.0-1.0,33777,List2B,white,man,,TRUE,7,,,,,,,,,,
null,CORRECT,,html-keyboard-response,349,1760707,0.0-18.0-2.0-0.0,33777,List2B,white,man,,,,null,,,,,,,,,
2638.7,"<img src=""portrait/BM1.jpg""style=""height:400px;""></img>",4,html-button-response,350,1763349,0.0-18.0-4.0,33777,List2B,white,man,,TRUE,4,,,,,,,,,,
null,CORRECT,,html-keyboard-response,351,1764863,0.0-18.0-5.0-0.0,33777,List2B,white,man,,,,null,,,,,,,,,
2667.6,"<img src=""portrait/BW2.jpg""style=""height:400px;""></img>",2,html-button-response,352,1767533,0.0-18.0-7.0,33777,List2B,white,man,,TRUE,2,,,,,,,,,,
null,CORRECT,,html-keyboard-response,353,1769036,0.0-18.0-8.0-0.0,33777,List2B,white,man,,,,null,,,,,,,,,
4291.8,"<img src=""portrait/WM1.jpg""style=""height:400px;""></img>",6,html-button-response,354,1773330,0.0-18.0-10.0,33777,List2B,white,man,,TRUE,6,,,,,,,,,,
null,CORRECT,,html-keyboard-response,355,1774838,0.0-18.0-11.0-0.0,33777,List2B,white,man,,,,null,,,,,,,,,
3113.2,"<img src=""portrait/WW1.jpg""style=""height:400px;""></img>",1,html-button-response,356,1777954,0.0-18.0-13.0,33777,List2B,white,man,,TRUE,1,,,,,,,,,,
null,CORRECT,,html-keyboard-response,357,1779468,0.0-18.0-14.0-0.0,33777,List2B,white,man,,,,null,,,,,,,,,
2059.5,"<img src=""portrait/WW2.jpg""style=""height:400px;""></img>",3,html-button-response,358,1781529,0.0-18.0-16.0,33777,List2B,white,man,,TRUE,3,,,,,,,,,,
null,CORRECT,,html-keyboard-response,359,1783044,0.0-18.0-17.0-0.0,33777,List2B,white,man,,,,null,,,,,,,,,
1875.9,"<img src=""portrait/BM2.jpg""style=""height:400px;""></img>",5,html-button-response,360,1784922,0.0-18.0-19.0,33777,List2B,white,man,,TRUE,5,,,,,,,,,,
null,CORRECT,,html-keyboard-response,361,1786445,0.0-18.0-20.0-0.0,33777,List2B,white,man,,,,null,,,,,,,,,
2747.8,"<img src=""portrait/BW1.jpg""style=""height:400px;""></img>",0,html-button-response,362,1789195,0.0-18.0-22.0,33777,List2B,white,man,,TRUE,0,,,,,,,,,,
null,CORRECT,,html-keyboard-response,363,1790696,0.0-18.0-23.0-0.0,33777,List2B,white,man,,,,null,,,,,,,,,
2430,<p>You got 8 out of 8 right first time. Press Continue.</p>,0,html-button-response,364,1793129,0.0-18.0-25.0,33777,List2B,white,man,,,,,,,,,,,,,
null,"<div style=""font-size:60px;"">+</div>",,html-keyboard-response,365,1794642,0.0-19.0-0.0,33777,List2B,white,man,,,,null,,,,,,,,,
null,"<img src=""stim_listB/copy4.gif""style=""height:400px;""></stim_listB>",,html-keyboard-response,366,1796646,0.0-19.0-1.0,33777,List2B,white,man,,,,null,,,,,,,,,
null,is being copied by,,html-keyboard-response,367,1798662,0.0-19.0-2.0,33777,List2B,white,man,,,,null,,,,,,,,,
28049.5,,,survey-text,368,1826715,0.0-19.0-3.0,33777,List2B,white,man,,,,,"{""Q0"":""kate is being copied by fred""}","<img src=""stim_listB/copy4.gif""style=""height:400px;""></stim_listB>",is being copied by,,,,,,
null,"<div style=""font-size:60px;"">+</div>",,html-keyboard-response,369,1827228,0.0-19.0-0.1,33777,List2B,white,man,,,,null,,,,,,,,,
null,"<img src=""stim_listB/copy8.gif""style=""height:400px;""></stim_listB>",,html-keyboard-response,370,1829242,0.0-19.0-1.1,33777,List2B,white,man,,,,null,,,,,,,,,
null,is being copied by,,html-keyboard-response,371,1831256,0.0-19.0-2.1,33777,List2B,white,man,,,,null,,,,,,,,,
13687.9,,,survey-text,372,1844945,0.0-19.0-3.1,33777,List2B,white,man,,,,,"{""Q0"":""kate is being copied by ruth""}","<img src=""stim_listB/copy8.gif""style=""height:400px;""></stim_listB>",is being copied by,,,,,,
null,"<div style=""font-size:60px;"">+</div>",,html-keyboard-response,373,1845459,0.0-19.0-0.2,33777,List2B,white,man,,,,null,,,,,,,,,
null,"<img src=""stim_listB/copy7.gif""style=""height:400px;""></stim_listB>",,html-keyboard-response,374,1847474,0.0-19.0-1.2,33777,List2B,white,man,,,,null,,,,,,,,,
null,is copying,,html-keyboard-response,375,1849490,0.0-19.0-2.2,33777,List2B,white,man,,,,null,,,,,,,,,
29363.3,,,survey-text,376,1878857,0.0-19.0-3.2,33777,List2B,white,man,,,,,"{""Q0"":""kate is copying dave""}","<img src=""stim_listB/copy7.gif""style=""height:400px;""></stim_listB>",is copying,,,,,,
null,"<div style=""font-size:60px;"">+</div>",,html-keyboard-response,377,1879373,0.0-19.0-0.3,33777,List2B,white,man,,,,null,,,,,,,,,
null,"<img src=""stim_listB/hug1.gif""style=""height:400px;""></stim_listB>",,html-keyboard-response,378,1881378,0.0-19.0-1.3,33777,List2B,white,man,,,,null,,,,,,,,,
null,is hugging,,html-keyboard-response,379,1883391,0.0-19.0-2.3,33777,List2B,white,man,,,,null,,,,,,,,,
18303.3,,,survey-text,380,1901697,0.0-19.0-3.3,33777,List2B,white,man,,,,,"{""Q0"":""dave is working mike""}","<img src=""stim_listB/hug1.gif""style=""height:400px;""></stim_listB>",is hugging,,,,,,
null,"<div style=""font-size:60px;"">+</div>",,html-keyboard-response,381,1902206,0.0-19.0-0.4,33777,List2B,white,man,,,,null,,,,,,,,,
null,"<img src=""stim_listB/challenge8.gif""style=""height:400px;""></stim_listB>",,html-keyboard-response,382,1904217,0.0-19.0-1.4,33777,List2B,white,man,,,,null,,,,,,,,,
null,is being challenged by,,html-keyboard-response,383,1906231,0.0-19.0-2.4,33777,List2B,white,man,,,,null,,,,,,,,,
26926.5,,,survey-text,384,1933162,0.0-19.0-3.4,33777,List2B,white,man,,,,,"{""Q0"":""ruth is being settled  by dave""}","<img src=""stim_listB/challenge8.gif""style=""height:400px;""></stim_listB>",is being challenged by,,,,,,
null,"<div style=""font-size:60px;"">+</div>",,html-keyboard-response,385,1933668,0.0-19.0-0.5,33777,List2B,white,man,,,,null,,,,,,,,,
null,"<img src=""stim_listB/seduce6.gif""style=""height:400px;""></stim_listB>",,html-keyboard-response,386,1935687,0.0-19.0-1.5,33777,List2B,white,man,,,,null,,,,,,,,,
null,is being seduced by,,html-keyboard-response,387,1937704,0.0-19.0-2.5,33777,List2B,white,man,,,,null,,,,,,,,,
21512.7,,,survey-text,388,1959221,0.0-19.0-3.5,33777,List2B,white,man,,,,,"{""Q0"":""dave is reducing mike""}","<img src=""stim_listB/seduce6.gif""style=""height:400px;""></stim_listB>",is being seduced by,,,,,,
null,"<div style=""font-size:60px;"">+</div>",,html-keyboard-response,389,1959732,0.0-19.0-0.6,33777,List2B,white,man,,,,null,,,,,,,,,
null,"<img src=""stim_listB/copy3.gif""style=""height:400px;""></stim_listB>",,html-keyboard-response,390,1961741,0.0-19.0-1.6,33777,List2B,white,man,,,,null,,,,,,,,,
null,is copying,,html-keyboard-response,391,1963748,0.0-19.0-2.6,33777,List2B,white,man,,,,null,,,,,,,,,
106003.5,,,survey-text,392,2069755,0.0-19.0-3.6,33777,List2B,white,man,,,,,"{""Q0"":""kate is challenged""}","<img src=""stim_listB/copy3.gif""style=""height:400px;""></stim_listB>",is copying,,,,,,
null,"<div style=""font-size:60px;"">+</div>",,html-keyboard-response,393,2070271,0.0-19.0-0.7,33777,List2B,white,man,,,,null,,,,,,,,,
null,"<img src=""stim_listB/touch8.gif""style=""height:400px;""></stim_listB>",,html-keyboard-response,394,2072284,0.0-19.0-1.7,33777,List2B,white,man,,,,null,,,,,,,,,
null,is being touched by,,html-keyboard-response,395,2074299,0.0-19.0-2.7,33777,List2B,white,man,,,,null,,,,,,,,,
42140.6,,,survey-text,396,2116444,0.0-19.0-3.7,33777,List2B,white,man,,,,,"{""Q0"":""kate is challenged by ruth""}","<img src=""stim_listB/touch8.gif""style=""height:400px;""></stim_listB>",is being touched by,,,,,,
null,"<div style=""font-size:60px;"">+</div>",,html-keyboard-response,397,2116950,0.0-19.0-0.8,33777,List2B,white,man,,,,null,,,,,,,,,
null,"<img src=""stim_listB/greet3.gif""style=""height:400px;""></stim_listB>",,html-keyboard-response,398,2118964,0.0-19.0-1.8,33777,List2B,white,man,,,,null,,,,,,,,,
null,is greeting,,html-keyboard-response,399,2120977,0.0-19.0-2.8,33777,List2B,white,man,,,,null,,,,,,,,,
10742.9,,,survey-text,400,2131724,0.0-19.0-3.8,33777,List2B,white,man,,,,,"{""Q0"":""ruth is greeting mike""}","<img src=""stim_listB/greet3.gif""style=""height:400px;""></stim_listB>",is greeting,,,,,,
null,"<div style=""font-size:60px;"">+</div>",,html-keyboard-response,401,2132233,0.0-19.0-0.9,33777,List2B,white,man,,,,null,,,,,,,,,
null,"<img src=""stim_listB/kiss2.gif""style=""height:400px;""></stim_listB>",,html-keyboard-response,402,2134237,0.0-19.0-1.9,33777,List2B,white,man,,,,null,,,,,,,,,
null,is being kissed by,,html-keyboard-response,403,2136250,0.0-19.0-2.9,33777,List2B,white,man,,,,null,,,,,,,,,
15858.3,,,survey-text,404,2152112,0.0-19.0-3.9,33777,List2B,white,man,,,,,"{""Q0"":""jane is kissed by jane""}","<img src=""stim_listB/kiss2.gif""style=""height:400px;""></stim_listB>",is being kissed by,,,,,,
null,"<div style=""font-size:60px;"">+</div>",,html-keyboard-response,405,2152615,0.0-19.0-0.10,33777,List2B,white,man,,,,null,,,,,,,,,
null,"<img src=""stim_listB/touch4.gif""style=""height:400px;""></stim_listB>",,html-keyboard-response,406,2154634,0.0-19.0-1.10,33777,List2B,white,man,,,,null,,,,,,,,,
null,is being touched by,,html-keyboard-response,407,2156642,0.0-19.0-2.10,33777,List2B,white,man,,,,null,,,,,,,,,
34996.2,,,survey-text,408,2191644,0.0-19.0-3.10,33777,List2B,white,man,,,,,"{""Q0"":""kate is being touched by mike""}","<img src=""stim_listB/touch4.gif""style=""height:400px;""></stim_listB>",is being touched by,,,,,,
null,"<div style=""font-size:60px;"">+</div>",,html-keyboard-response,409,2192145,0.0-19.0-0.11,33777,List2B,white,man,,,,null,,,,,,,,,
null,"<img src=""stim_listB/seduce7.gif""style=""height:400px;""></stim_listB>",,html-keyboard-response,410,2194164,0.0-19.0-1.11,33777,List2B,white,man,,,,null,,,,,,,,,
null,is seducing,,html-keyboard-response,411,2196182,0.0-19.0-2.11,33777,List2B,white,man,,,,null,,,,,,,,,
20716.2,,,survey-text,412,2216902,0.0-19.0-3.11,33777,List2B,white,man,,,,,"{""Q0"":""ruth is seducing kate""}","<img src=""stim_listB/seduce7.gif""style=""height:400px;""></stim_listB>",is seducing,,,,,,
null,"<div style=""font-size:60px;"">+</div>",,html-keyboard-response,413,2217409,0.0-19.0-0.12,33777,List2B,white,man,,,,null,,,,,,,,,
null,"<img src=""stim_listB/oppose1.gif""style=""height:400px;""></stim_listB>",,html-keyboard-response,414,2219425,0.0-19.0-1.12,33777,List2B,white,man,,,,null,,,,,,,,,
null,is opposing,,html-keyboard-response,415,2221441,0.0-19.0-2.12,33777,List2B,white,man,,,,null,,,,,,,,,
42467.2,,,survey-text,416,2263911,0.0-19.0-3.12,33777,List2B,white,man,,,,,"{""Q0"":""kate is hugged by jane""}","<img src=""stim_listB/oppose1.gif""style=""height:400px;""></stim_listB>",is opposing,,,,,,
null,"<div style=""font-size:60px;"">+</div>",,html-keyboard-response,417,2264420,0.0-19.0-0.13,33777,List2B,white,man,,,,null,,,,,,,,,
null,"<img src=""stim_listB/kiss8.gif""style=""height:400px;""></stim_listB>",,html-keyboard-response,418,2266431,0.0-19.0-1.13,33777,List2B,white,man,,,,null,,,,,,,,,
null,is being kissed by,,html-keyboard-response,419,2268442,0.0-19.0-2.13,33777,List2B,white,man,,,,null,,,,,,,,,
17378.4,,,survey-text,420,2285824,0.0-19.0-3.13,33777,List2B,white,man,,,,,"{""Q0"":""jane is being kissed by kate""}","<img src=""stim_listB/kiss8.gif""style=""height:400px;""></stim_listB>",is being kissed by,,,,,,
null,"<div style=""font-size:60px;"">+</div>",,html-keyboard-response,421,2286334,0.0-19.0-0.14,33777,List2B,white,man,,,,null,,,,,,,,,
null,"<img src=""stim_listB/shout8.gif""style=""height:400px;""></stim_listB>",,html-keyboard-response,422,2288349,0.0-19.0-1.14,33777,List2B,white,man,,,,null,,,,,,,,,
null,is being shouted at by,,html-keyboard-response,423,2290359,0.0-19.0-2.14,33777,List2B,white,man,,,,null,,,,,,,,,
27591.7,,,survey-text,424,2317955,0.0-19.0-3.14,33777,List2B,white,man,,,,,"{""Q0"":""kate is seducing jane""}","<img src=""stim_listB/shout8.gif""style=""height:400px;""></stim_listB>",is being shouted at by,,,,,,
null,"<div style=""font-size:60px;"">+</div>",,html-keyboard-response,425,2318465,0.0-19.0-0.15,33777,List2B,white,man,,,,null,,,,,,,,,
null,"<img src=""stim_listB/seduce3.gif""style=""height:400px;""></stim_listB>",,html-keyboard-response,426,2320473,0.0-19.0-1.15,33777,List2B,white,man,,,,null,,,,,,,,,
null,is seducing,,html-keyboard-response,427,2322484,0.0-19.0-2.15,33777,List2B,white,man,,,,null,,,,,,,,,
10289.3,,,survey-text,428,2332777,0.0-19.0-3.15,33777,List2B,white,man,,,,,"{""Q0"":""fred is looking at kate""}","<img src=""stim_listB/seduce3.gif""style=""height:400px;""></stim_listB>",is seducing,,,,,,
null,"<div style=""font-size:60px;"">+</div>",,html-keyboard-response,429,2333283,0.0-19.0-0.16,33777,List2B,white,man,,,,null,,,,,,,,,
null,"<img src=""stim_listB/copy6.gif""style=""height:400px;""></stim_listB>",,html-keyboard-response,430,2335298,0.0-19.0-1.16,33777,List2B,white,man,,,,null,,,,,,,,,
null,is being copied by,,html-keyboard-response,431,2337305,0.0-19.0-2.16,33777,List2B,white,man,,,,null,,,,,,,,,
21252,,,survey-text,432,2358561,0.0-19.0-3.16,33777,List2B,white,man,,,,,"{""Q0"":""mike is looking at luke""}","<img src=""stim_listB/copy6.gif""style=""height:400px;""></stim_listB>",is being copied by,,,,,,
null,"<div style=""font-size:60px;"">+</div>",,html-keyboard-response,433,2359063,0.0-19.0-0.17,33777,List2B,white,man,,,,null,,,,,,,,,
null,"<img src=""stim_listB/shout2.gif""style=""height:400px;""></stim_listB>",,html-keyboard-response,434,2361080,0.0-19.0-1.17,33777,List2B,white,man,,,,null,,,,,,,,,
null,is being shouted at by,,html-keyboard-response,435,2363090,0.0-19.0-2.17,33777,List2B,white,man,,,,null,,,,,,,,,
16836.5,,,survey-text,436,2379929,0.0-19.0-3.17,33777,List2B,white,man,,,,,"{""Q0"":""jane is being shouted at by kate""}","<img src=""stim_listB/shout2.gif""style=""height:400px;""></stim_listB>",is being shouted at by,,,,,,
null,"<div style=""font-size:60px;"">+</div>",,html-keyboard-response,437,2380443,0.0-19.0-0.18,33777,List2B,white,man,,,,null,,,,,,,,,
null,"<img src=""stim_listB/look8.gif""style=""height:400px;""></stim_listB>",,html-keyboard-response,438,2382447,0.0-19.0-1.18,33777,List2B,white,man,,,,null,,,,,,,,,
null,is being looked at by,,html-keyboard-response,439,2384450,0.0-19.0-2.18,33777,List2B,white,man,,,,null,,,,,,,,,
15088.8,,,survey-text,440,2399540,0.0-19.0-3.18,33777,List2B,white,man,,,,,"{""Q0"":""jane is looked at by kate""}","<img src=""stim_listB/look8.gif""style=""height:400px;""></stim_listB>",is being looked at by,,,,,,
null,"<div style=""font-size:60px;"">+</div>",,html-keyboard-response,441,2400049,0.0-19.0-0.19,33777,List2B,white,man,,,,null,,,,,,,,,
null,"<img src=""stim_listB/shout4.gif""style=""height:400px;""></stim_listB>",,html-keyboard-response,442,2402057,0.0-19.0-1.19,33777,List2B,white,man,,,,null,,,,,,,,,
null,is being shouted at by,,html-keyboard-response,443,2404063,0.0-19.0-2.19,33777,List2B,white,man,,,,null,,,,,,,,,
39468.2,,,survey-text,444,2443535,0.0-19.0-3.19,33777,List2B,white,man,,,,,"{""Q0"":""kate is looking at beth""}","<img src=""stim_listB/shout4.gif""style=""height:400px;""></stim_listB>",is being shouted at by,,,,,,
5310,<p>Thank you for completing that task.</p><p>The final part of this session is a questionnaire that will take about 4 minutes.</p><p>Press Continue.</p>,0,html-button-response,445,2448846,0.0-20.0,33777,List2B,white,man,,,,,,,,,,,,,
44742.7,,,survey-text,446,2494598,0.0-21.0,33777,List2B,white,man,,,,,"{""Q0"":""34"",""Q1"":""english"",""Q2"":""english"",""Q3"":""united state of america"",""Q4"":""united state of america"",""Q5"":""white"",""Q6"":""male""}",,,demographics,,,,,
3528.8,<p>Have you lived in the USA for the last 5 years or more?</p>,0,html-button-response,447,2498130,0.0-22.0,33777,List2B,white,man,,,,,,,,fiveyears,,,,,
2551.6,<p>Move the slider to show the extent to which you agree with the following statements.</p>,0,html-button-response,448,2501684,0.0-23.0,33777,List2B,white,man,,,,,,,,,,,,,
13637.9,,,html-slider-response,449,2516338,0.0-24.0-0.0-0.0,33777,List2B,white,man,,,,,,,,survey_gender,100,,,People of my gender are very similar to each other.,verysimilar
4462.3,,,html-slider-response,450,2520802,0.0-24.0-0.0-0.1,33777,List2B,white,man,,,,,,,,survey_gender,100,,,The fact that I am my gender is an important part of my identity.,identity
3335,,,html-slider-response,451,2524138,0.0-24.0-0.0-0.2,33777,List2B,white,man,,,,,,,,survey_gender,100,,,It is not always easy for people to know what I am thinking.,filler
33340.1,,,html-slider-response,452,2557479,0.0-24.0-0.0-0.3,33777,List2B,white,man,,,,,,,,survey_gender,100,,,Being my gender gives me a good feeling.,feeling
3765.2,,,html-slider-response,453,2561246,0.0-24.0-0.0-0.4,33777,List2B,white,man,,,,,,,,survey_gender,63,,,My friends have a lot in common with each other.,filler
3612.7,,,html-slider-response,454,2564860,0.0-24.0-0.0-0.5,33777,List2B,white,man,,,,,,,,survey_gender,97,,,It is pleasant to be my gender.,pleasant
3235.4,,,html-slider-response,455,2568097,0.0-24.0-0.0-0.6,33777,List2B,white,man,,,,,,,,survey_gender,98,,,I feel committed to my gender.,committed
13794.1,,,html-slider-response,456,2581893,0.0-24.0-0.0-0.7,33777,List2B,white,man,,,,,,,,survey_gender,82,,,I think that my gender has a lot to be proud of.,proud
5159,,,html-slider-response,457,2587054,0.0-24.0-0.0-0.8,33777,List2B,white,man,,,,,,,,survey_gender,80,,,People of my gender have a lot in common with each other.,common
22952.3,,,html-slider-response,458,2610008,0.0-24.0-0.0-0.9,33777,List2B,white,man,,,,,,,,survey_gender,80,,,I have a lot in common with the average person of my gender.,average
3225.3,,,html-slider-response,459,2613236,0.0-24.0-0.0-0.10,33777,List2B,white,man,,,,,,,,survey_gender,78,,,Routine is not important to me.,filler
4110.8,,,html-slider-response,460,2617348,0.0-24.0-0.0-0.11,33777,List2B,white,man,,,,,,,,survey_gender,89,,,I feel a bond with my gender.,bond
4395.6,,,html-slider-response,461,2621745,0.0-24.0-0.0-0.12,33777,List2B,white,man,,,,,,,,survey_gender,26,,,I would say I am an animal person.,filler
3886.4,,,html-slider-response,462,2625633,0.0-24.0-0.0-0.13,33777,List2B,white,man,,,,,,,,survey_gender,92,,,My friends understand me.,filler
3773.7,,,html-slider-response,463,2629408,0.0-24.0-0.0-0.14,33777,List2B,white,man,,,,,,,,survey_gender,84,,,I feel solidarity with my friends.,filler
3835.3,,,html-slider-response,464,2633245,0.0-24.0-0.0-0.15,33777,List2B,white,man,,,,,,,,survey_gender,92,,,I feel solidarity with my gender.,solidarity
4594.8,,,html-slider-response,465,2637841,0.0-24.0-0.0-0.16,33777,List2B,white,man,,,,,,,,survey_gender,100,,,I consider myself a highly empathetic person.,filler
7927,,,html-slider-response,466,2645770,0.0-24.0-0.0-0.17,33777,List2B,white,man,,,,,,,,survey_gender,97,,,Most of the friends in my life are very similar to me.,filler
3142.7,,,html-slider-response,467,2648914,0.0-24.0-0.0-0.18,33777,List2B,white,man,,,,,,,,survey_gender,100,,,I am glad to be my gender.,glad
4089.6,,,html-slider-response,468,2653005,0.0-24.0-0.0-0.19,33777,List2B,white,man,,,,,,,,survey_gender,94,,,I feel a bond with my friends.,filler
3783.8,,,html-slider-response,469,2656791,0.0-24.0-0.0-0.20,33777,List2B,white,man,,,,,,,,survey_gender,91,,,I often think about the fact that I am my gender.,often
4384.3,,,html-slider-response,470,2661177,0.0-24.0-0.0-0.21,33777,List2B,white,man,,,,,,,,survey_gender,100,,,Family is not more important to me than friendship.,filler
4312.9,,,html-slider-response,471,2665491,0.0-24.0-0.0-0.22,33777,List2B,white,man,,,,,,,,survey_gender,100,,,I often think about my actions.,filler
5351,,,html-slider-response,472,2670844,0.0-24.0-0.0-0.23,33777,List2B,white,man,,,,,,,,survey_gender,100,,,I have a lot in common with my friends.,filler
5412.1,,,html-slider-response,473,2676258,0.0-24.0-0.0-0.24,33777,List2B,white,man,,,,,,,,survey_gender,97,,,I am glad to have the friends that I have.,filler
3671.6,,,html-slider-response,474,2679931,0.0-24.0-0.0-0.25,33777,List2B,white,man,,,,,,,,survey_gender,100,,,Being my gender is an important part of how I see myself.,important
3935.9,,,html-slider-response,475,2683868,0.0-24.0-0.0-0.26,33777,List2B,white,man,,,,,,,,survey_gender,97,,,Being around my friends gives me a good feeling.,filler
3885.5,,,html-slider-response,476,2687755,0.0-24.0-0.0-0.27,33777,List2B,white,man,,,,,,,,survey_gender,96,,,I am similar to the average person of my gender.,similar
9656.9,,,html-slider-response,477,2697413,0.0-24.0-1.0-0.0,33777,List2B,white,man,,,,,,,,survey_race,88,,,I am similar to the average person of my race.,similar
9308,,,html-slider-response,478,2706723,0.0-24.0-1.0-0.1,33777,List2B,white,man,,,,,,,,survey_race,100,,,I enjoy being in large groups.,filler
4363.1,,,html-slider-response,479,2711088,0.0-24.0-1.0-0.2,33777,List2B,white,man,,,,,,,,survey_race,90,,,"The older I get, the wiser I feel.",filler
4037.6,,,html-slider-response,480,2715127,0.0-24.0-1.0-0.3,33777,List2B,white,man,,,,,,,,survey_race,93,,,Getting older does not worry me.,filler
3986.7,,,html-slider-response,481,2719115,0.0-24.0-1.0-0.4,33777,List2B,white,man,,,,,,,,survey_race,100,,,I am glad to be the age I am.,filler
6954.5,,,html-slider-response,482,2726072,0.0-24.0-1.0-0.5,33777,List2B,white,man,,,,,,,,survey_race,100,,,I think that my race has a lot to be proud of.,proud
3549.1,,,html-slider-response,483,2729622,0.0-24.0-1.0-0.6,33777,List2B,white,man,,,,,,,,survey_race,68,,,I consider myself an introvert.,filler
3203.5,,,html-slider-response,484,2732828,0.0-24.0-1.0-0.7,33777,List2B,white,man,,,,,,,,survey_race,88,,,Being my age gives me a good feeling.,filler
3468.6,,,html-slider-response,485,2736297,0.0-24.0-1.0-0.8,33777,List2B,white,man,,,,,,,,survey_race,65,,,I have a lot in common with the average person of my race.,average
2054.3,,,html-slider-response,486,2738353,0.0-24.0-1.0-0.9,33777,List2B,white,man,,,,,,,,survey_race,78,,,I feel solidarity with my race.,solidarity
1847,,,html-slider-response,487,2740201,0.0-24.0-1.0-0.10,33777,List2B,white,man,,,,,,,,survey_race,87,,,I feel a bond with my race.,bond
2374.9,,,html-slider-response,488,2742577,0.0-24.0-1.0-0.11,33777,List2B,white,man,,,,,,,,survey_race,22,,,I consider myself an extrovert.,filler
2014.7,,,html-slider-response,489,2744593,0.0-24.0-1.0-0.12,33777,List2B,white,man,,,,,,,,survey_race,70,,,I have a lot in common with people of a similar age to me.,filler
2591.1,,,html-slider-response,490,2747185,0.0-24.0-1.0-0.13,33777,List2B,white,man,,,,,,,,survey_race,82,,,Being my race is an important part of how I see myself.,important
2830.8,,,html-slider-response,491,2750017,0.0-24.0-1.0-0.14,33777,List2B,white,man,,,,,,,,survey_race,57,,,I am glad to be my age.,filler
3287.1,,,html-slider-response,492,2753305,0.0-24.0-1.0-0.15,33777,List2B,white,man,,,,,,,,survey_race,87,,,I feel solidarity with people the same age as me.,filler
2846.5,,,html-slider-response,493,2756153,0.0-24.0-1.0-0.16,33777,List2B,white,man,,,,,,,,survey_race,86,,,People my age have a lot in common with each other.,filler
2623,,,html-slider-response,494,2758777,0.0-24.0-1.0-0.17,33777,List2B,white,man,,,,,,,,survey_race,83,,,People of my race are very similar to each other.,verysimilar
2031.1,,,html-slider-response,495,2760809,0.0-24.0-1.0-0.18,33777,List2B,white,man,,,,,,,,survey_race,86,,,My age is not an important part of who I am.,filler
2559,,,html-slider-response,496,2763369,0.0-24.0-1.0-0.19,33777,List2B,white,man,,,,,,,,survey_race,98,,,It is pleasant to be my race.,pleasant
3366.4,,,html-slider-response,497,2766737,0.0-24.0-1.0-0.20,33777,List2B,white,man,,,,,,,,survey_race,89,,,People of my race have a lot in common with each other.,common
2558.1,,,html-slider-response,498,2769297,0.0-24.0-1.0-0.21,33777,List2B,white,man,,,,,,,,survey_race,86,,,Being my race gives me a good feeling.,feeling
2702.3,,,html-slider-response,499,2772001,0.0-24.0-1.0-0.22,33777,List2B,white,man,,,,,,,,survey_race,93,,,The fact that I am my race is an important part of my identity.,identity
4535,,,html-slider-response,500,2776537,0.0-24.0-1.0-0.23,33777,List2B,white,man,,,,,,,,survey_race,88,,,I am glad to be my race.,glad
2734.3,,,html-slider-response,501,2779273,0.0-24.0-1.0-0.24,33777,List2B,white,man,,,,,,,,survey_race,81,,,I often think about the fact that I am my race.,often
2950.4,,,html-slider-response,502,2782225,0.0-24.0-1.0-0.25,33777,List2B,white,man,,,,,,,,survey_race,89,,,I feel committed to my race.,committed
5815.1,,,html-slider-response,503,2788041,0.0-24.0-1.0-0.26,33777,List2B,white,man,,,,,,,,survey_race,76,,,I feel a bond with people the same age as me.,filler
3238.7,,,html-slider-response,504,2791281,0.0-24.0-1.0-0.27,33777,List2B,white,man,,,,,,,,survey_race,80,,,I often think about the fact that I am my age.,filler
9605,,,survey-text,505,2800889,0.0-25.0,33777,List2B,white,man,,,,,"{""Q0"":""ccc""}",,,worker_id,,,,,
5780.4,,,external-html,506,2808169,0.0-26.0,33777,List2B,white,man,debrief.html,,,,,,,,,,,,
