rt,stimulus,button_pressed,trial_type,trial_index,time_elapsed,internal_node_id,subject,list,ppt_race,ppt_gender,url,first_guess,correct,key_press,responses,image_type,phrase_type,test_part,response,stimulus1,stimulus2,question_type,survey_item
5341.7,Welcome to the experiment. Press Continue to begin.,0,html-button-response,0,5350,0.0-0.0,33790,List1A,black,man,,,,,,,,,,,,,
4025.7,,,external-html,1,11404,0.0-1.0,33790,List1A,black,man,consent.html,,,,,,,,,,,,
1148,"<p>On the next page, you will see portraits of 8 people and their names.</p><p>Your first task is to take a few minutes to memorise the names of these people.</p><p>You will have to recall their names during the rest of the experiment, so it is</p><p>essential that you try to memorise these people and their names as best as you can.</p><br><p><strong>You will then be tested on your memory of these names and portraits.</strong></p><br><p>The experiment will start after you have completed this memory test.</p><br><p>Ready?</p>",0,html-button-response,2,12556,0.0-2.0,33790,List1A,black,man,,,,,,,,,,,,,
4392.5,"<img src='img/portrait_matrix_list1.jpg' style='width:900px;height:500px;''></img><p>If you have memorised all the portraits and names and are ready to start, press Continue.</p><p><strong>Please note: Your memory of these faces will be tested 4 times during this experiment.</strong></p>",0,html-button-response,3,17955,0.0-3.0-0.0,33790,List1A,black,man,,,,,,,,,,,,,
8678.6,"<img src=""portrait/WM2.jpg""style=""height:400px;""></img>",5,html-button-response,4,27644,0.0-3.0-1.0,33790,List1A,black,man,,TRUE,7,,,,,,,,,,
7703.5,"<img src=""portrait/WM2.jpg""style=""height:400px;""></img>",7,html-button-response,5,36356,0.0-3.0-3.0-0.0,33790,List1A,black,man,,FALSE,7,,,,,,,,,,
null,CORRECT,,html-keyboard-response,6,37869,0.0-3.0-3.0-1.0-0.0,33790,List1A,black,man,,,,null,,,,,,,,,
6091.3,"<img src=""portrait/WW2.jpg""style=""height:400px;""></img>",2,html-button-response,7,43966,0.0-3.0-4.0,33790,List1A,black,man,,TRUE,3,,,,,,,,,,
4231.7,"<img src=""portrait/WW2.jpg""style=""height:400px;""></img>",3,html-button-response,8,49204,0.0-3.0-6.0-0.0,33790,List1A,black,man,,FALSE,3,,,,,,,,,,
null,CORRECT,,html-keyboard-response,9,50710,0.0-3.0-6.0-1.0-0.0,33790,List1A,black,man,,,,null,,,,,,,,,
7635.5,"<img src=""portrait/WW1.jpg""style=""height:400px;""></img>",1,html-button-response,10,58348,0.0-3.0-7.0,33790,List1A,black,man,,TRUE,1,,,,,,,,,,
null,CORRECT,,html-keyboard-response,11,59852,0.0-3.0-8.0-0.0,33790,List1A,black,man,,,,null,,,,,,,,,
5509.1,"<img src=""portrait/BW2.jpg""style=""height:400px;""></img>",2,html-button-response,12,65364,0.0-3.0-10.0,33790,List1A,black,man,,TRUE,2,,,,,,,,,,
null,CORRECT,,html-keyboard-response,13,66877,0.0-3.0-11.0-0.0,33790,List1A,black,man,,,,null,,,,,,,,,
5268.4,"<img src=""portrait/BW1.jpg""style=""height:400px;""></img>",0,html-button-response,14,72148,0.0-3.0-13.0,33790,List1A,black,man,,TRUE,0,,,,,,,,,,
null,CORRECT,,html-keyboard-response,15,73651,0.0-3.0-14.0-0.0,33790,List1A,black,man,,,,null,,,,,,,,,
6158,"<img src=""portrait/BM1.jpg""style=""height:400px;""></img>",4,html-button-response,16,79812,0.0-3.0-16.0,33790,List1A,black,man,,TRUE,4,,,,,,,,,,
null,CORRECT,,html-keyboard-response,17,81324,0.0-3.0-17.0-0.0,33790,List1A,black,man,,,,null,,,,,,,,,
16677.3,"<img src=""portrait/BM2.jpg""style=""height:400px;""></img>",5,html-button-response,18,98004,0.0-3.0-19.0,33790,List1A,black,man,,TRUE,5,,,,,,,,,,
null,CORRECT,,html-keyboard-response,19,99513,0.0-3.0-20.0-0.0,33790,List1A,black,man,,,,null,,,,,,,,,
6471.8,"<img src=""portrait/WM1.jpg""style=""height:400px;""></img>",7,html-button-response,20,105988,0.0-3.0-22.0,33790,List1A,black,man,,TRUE,6,,,,,,,,,,
2407.5,"<img src=""portrait/WM1.jpg""style=""height:400px;""></img>",6,html-button-response,21,109404,0.0-3.0-24.0-0.0,33790,List1A,black,man,,FALSE,6,,,,,,,,,,
null,CORRECT,,html-keyboard-response,22,110908,0.0-3.0-24.0-1.0-0.0,33790,List1A,black,man,,,,null,,,,,,,,,
2195.6,<p>You got 5 out of 8 right first time. Press Continue.</p>,0,html-button-response,23,113107,0.0-3.0-25.0,33790,List1A,black,man,,,,,,,,,,,,,
1917,"As you did not score 100%, the memory game will repeat. Press Continue.",0,html-button-response,24,116027,0.0-3.0-26.0-0.0,33790,List1A,black,man,,,,,,,,,,,,,
27897.7,"<img src='img/portrait_matrix_list1.jpg' style='width:900px;height:500px;''></img><p>If you have memorised all the portraits and names and are ready to start, press Continue.</p><p><strong>Please note: Your memory of these faces will be tested 4 times during this experiment.</strong></p>",0,html-button-response,25,144931,0.0-3.1-0.1,33790,List1A,black,man,,,,,,,,,,,,,
4849.8,"<img src=""portrait/WM2.jpg""style=""height:400px;""></img>",7,html-button-response,26,150789,0.0-3.1-1.1,33790,List1A,black,man,,TRUE,7,,,,,,,,,,
null,CORRECT,,html-keyboard-response,27,152293,0.0-3.1-2.1-0.1,33790,List1A,black,man,,,,null,,,,,,,,,
2251.9,"<img src=""portrait/WW2.jpg""style=""height:400px;""></img>",3,html-button-response,28,154547,0.0-3.1-4.1,33790,List1A,black,man,,TRUE,3,,,,,,,,,,
null,CORRECT,,html-keyboard-response,29,156053,0.0-3.1-5.1-0.1,33790,List1A,black,man,,,,null,,,,,,,,,
4116,"<img src=""portrait/WW1.jpg""style=""height:400px;""></img>",1,html-button-response,30,160172,0.0-3.1-7.1,33790,List1A,black,man,,TRUE,1,,,,,,,,,,
null,CORRECT,,html-keyboard-response,31,161680,0.0-3.1-8.1-0.1,33790,List1A,black,man,,,,null,,,,,,,,,
4888.8,"<img src=""portrait/BW2.jpg""style=""height:400px;""></img>",2,html-button-response,32,166572,0.0-3.1-10.1,33790,List1A,black,man,,TRUE,2,,,,,,,,,,
null,CORRECT,,html-keyboard-response,33,168074,0.0-3.1-11.1-0.1,33790,List1A,black,man,,,,null,,,,,,,,,
3254.3,"<img src=""portrait/BW1.jpg""style=""height:400px;""></img>",0,html-button-response,34,171331,0.0-3.1-13.1,33790,List1A,black,man,,TRUE,0,,,,,,,,,,
null,CORRECT,,html-keyboard-response,35,172837,0.0-3.1-14.1-0.1,33790,List1A,black,man,,,,null,,,,,,,,,
3451.5,"<img src=""portrait/BM1.jpg""style=""height:400px;""></img>",4,html-button-response,36,176292,0.0-3.1-16.1,33790,List1A,black,man,,TRUE,4,,,,,,,,,,
null,CORRECT,,html-keyboard-response,37,177795,0.0-3.1-17.1-0.1,33790,List1A,black,man,,,,null,,,,,,,,,
3749.2,"<img src=""portrait/BM2.jpg""style=""height:400px;""></img>",5,html-button-response,38,181548,0.0-3.1-19.1,33790,List1A,black,man,,TRUE,5,,,,,,,,,,
null,CORRECT,,html-keyboard-response,39,183060,0.0-3.1-20.1-0.1,33790,List1A,black,man,,,,null,,,,,,,,,
3629.3,"<img src=""portrait/WM1.jpg""style=""height:400px;""></img>",6,html-button-response,40,186692,0.0-3.1-22.1,33790,List1A,black,man,,TRUE,6,,,,,,,,,,
null,CORRECT,,html-keyboard-response,41,188196,0.0-3.1-23.1-0.1,33790,List1A,black,man,,,,null,,,,,,,,,
1915.9,<p>You got 8 out of 8 right first time. Press Continue.</p>,0,html-button-response,42,190115,0.0-3.1-25.1,33790,List1A,black,man,,,,,,,,,,,,,
27340.7,"<p>In this experiment, you will view photographs of the people from the memory game interacting.</p><p>By using the <strong>exact</strong> phrase given <i>after</i> the photograph appears and recalling the correct names of the people in the photographs, form a sentence describing the interaction. You do not need to capitalise names.</p><p>Type your answer in the space provided. Please complete every sentence before moving onto the next trial.</p><p>You will only have a few seconds to memorise each given photograph and phrase before you can respond, so try your best to focus.</p><p>An example is given below. Press 'Continue' when you are ready.</p><img src='img/speaking_example.jpg' style='width:800px;height:460px;''></img>",0,html-button-response,43,218458,0.0-4.0,33790,List1A,black,man,,,,,,,,,,,,,
1716.5,"<p>Before the experiment starts, you will watch two example trials. Press 'Continue'.</p>",0,html-button-response,44,221179,0.0-5.0,33790,List1A,black,man,,,,,,,,,,,,,
null,<img src='img/play_eg.gif' style='height:400px;''></img>,,html-keyboard-response,45,224187,0.0-6.0,33790,List1A,black,man,,,,null,,,,,,,,,
null,<p>is playing with</p>,,html-keyboard-response,46,226190,0.0-7.0,33790,List1A,black,man,,,,null,,,,,,,,,
5659.5,<p><b>Answer:</b> kate is playing with beth</p>,0,html-button-response,47,231851,0.0-8.0,33790,List1A,black,man,,,,,,,,,,,,,
null,<img src='img/dance_eg.gif' style='height:400px;''></img>,,html-keyboard-response,48,234859,0.0-9.0,33790,List1A,black,man,,,,null,,,,,,,,,
null,<p>is being entertained by</p>,,html-keyboard-response,49,236864,0.0-10.0,33790,List1A,black,man,,,,null,,,,,,,,,
6368.7,<p><b>Answer:</b> luke is being entertained by dave</p>,0,html-button-response,50,243235,0.0-11.0,33790,List1A,black,man,,,,,,,,,,,,,
9244.3,"<p>Ready to start the experiment?</p><br><p><strong>Remember to describe the picture using a full sentence,</strong></p><p><strong>that combines the names of the people with the <i>exact</i> phrase given.</strong></p><p><strong>To receive full payment you must do this correctly.</strong></p><p><strong> You do not need to capitalise names or use punctuation.</strong></p><br><p>Press 'Continue' to begin.</p>",0,html-button-response,51,253483,0.0-12.0,33790,List1A,black,man,,,,,,,,,,,,,
null,"<div style=""font-size:60px;"">+</div>",,html-keyboard-response,52,254990,0.0-13.0-0.0,33790,List1A,black,man,,,,null,,,,,,,,,
null,"<img src=""stim_listA/kiss5.gif""style=""height:400px;""></stim_listA>",,html-keyboard-response,53,256994,0.0-13.0-1.0,33790,List1A,black,man,,,,null,,,,,,,,,
null,is kissing,,html-keyboard-response,54,258997,0.0-13.0-2.0,33790,List1A,black,man,,,,null,,,,,,,,,
10487.5,,,survey-text,55,269492,0.0-13.0-3.0,33790,List1A,black,man,,,,,"{""Q0"":""fred is kissing luke""}","<img src=""stim_listA/kiss5.gif""style=""height:400px;""></stim_listA>",is kissing,,,,,,
null,"<div style=""font-size:60px;"">+</div>",,html-keyboard-response,56,270000,0.0-13.0-0.1,33790,List1A,black,man,,,,null,,,,,,,,,
null,"<img src=""stim_listA/kiss3.gif""style=""height:400px;""></stim_listA>",,html-keyboard-response,57,272007,0.0-13.0-1.1,33790,List1A,black,man,,,,null,,,,,,,,,
null,is kissing,,html-keyboard-response,58,274009,0.0-13.0-2.1,33790,List1A,black,man,,,,null,,,,,,,,,
52510.1,,,survey-text,59,326524,0.0-13.0-3.1,33790,List1A,black,man,,,,,"{""Q0"":""luke is kissing ruth""}","<img src=""stim_listA/kiss3.gif""style=""height:400px;""></stim_listA>",is kissing,,,,,,
null,"<div style=""font-size:60px;"">+</div>",,html-keyboard-response,60,327033,0.0-13.0-0.2,33790,List1A,black,man,,,,null,,,,,,,,,
null,"<img src=""stim_listA/copy4.gif""style=""height:400px;""></stim_listA>",,html-keyboard-response,61,329038,0.0-13.0-1.2,33790,List1A,black,man,,,,null,,,,,,,,,
null,is being copied by,,html-keyboard-response,62,331041,0.0-13.0-2.2,33790,List1A,black,man,,,,null,,,,,,,,,
14149.6,,,survey-text,63,345196,0.0-13.0-3.2,33790,List1A,black,man,,,,,"{""Q0"":""jane is being copied by luke""}","<img src=""stim_listA/copy4.gif""style=""height:400px;""></stim_listA>",is being copied by,,,,,,
null,"<div style=""font-size:60px;"">+</div>",,html-keyboard-response,64,345704,0.0-13.0-0.3,33790,List1A,black,man,,,,null,,,,,,,,,
null,"<img src=""stim_listA/kiss2.gif""style=""height:400px;""></stim_listA>",,html-keyboard-response,65,347711,0.0-13.0-1.3,33790,List1A,black,man,,,,null,,,,,,,,,
null,is being kissed by,,html-keyboard-response,66,349714,0.0-13.0-2.3,33790,List1A,black,man,,,,null,,,,,,,,,
14805,,,survey-text,67,364524,0.0-13.0-3.3,33790,List1A,black,man,,,,,"{""Q0"":""mike is being kissed by kate""}","<img src=""stim_listA/kiss2.gif""style=""height:400px;""></stim_listA>",is being kissed by,,,,,,
null,"<div style=""font-size:60px;"">+</div>",,html-keyboard-response,68,365030,0.0-13.0-0.4,33790,List1A,black,man,,,,null,,,,,,,,,
null,"<img src=""stim_listA/hug8.gif""style=""height:400px;""></stim_listA>",,html-keyboard-response,69,367034,0.0-13.0-1.4,33790,List1A,black,man,,,,null,,,,,,,,,
null,is being hugged by,,html-keyboard-response,70,369037,0.0-13.0-2.4,33790,List1A,black,man,,,,null,,,,,,,,,
11020.2,,,survey-text,71,380063,0.0-13.0-3.4,33790,List1A,black,man,,,,,"{""Q0"":""kate is being hugged by jane""}","<img src=""stim_listA/hug8.gif""style=""height:400px;""></stim_listA>",is being hugged by,,,,,,
null,"<div style=""font-size:60px;"">+</div>",,html-keyboard-response,72,380569,0.0-13.0-0.5,33790,List1A,black,man,,,,null,,,,,,,,,
null,"<img src=""stim_listA/hug7.gif""style=""height:400px;""></stim_listA>",,html-keyboard-response,73,382572,0.0-13.0-1.5,33790,List1A,black,man,,,,null,,,,,,,,,
null,is hugging,,html-keyboard-response,74,384575,0.0-13.0-2.5,33790,List1A,black,man,,,,null,,,,,,,,,
7751.8,,,survey-text,75,392332,0.0-13.0-3.5,33790,List1A,black,man,,,,,"{""Q0"":""beth is hugging ruth""}","<img src=""stim_listA/hug7.gif""style=""height:400px;""></stim_listA>",is hugging,,,,,,
null,"<div style=""font-size:60px;"">+</div>",,html-keyboard-response,76,392835,0.0-13.0-0.6,33790,List1A,black,man,,,,null,,,,,,,,,
null,"<img src=""stim_listA/look6.gif""style=""height:400px;""></stim_listA>",,html-keyboard-response,77,394842,0.0-13.0-1.6,33790,List1A,black,man,,,,null,,,,,,,,,
null,is being looked at by,,html-keyboard-response,78,396848,0.0-13.0-2.6,33790,List1A,black,man,,,,null,,,,,,,,,
16351.7,,,survey-text,79,413205,0.0-13.0-3.6,33790,List1A,black,man,,,,,"{""Q0"":""mike is being looked at by dave""}","<img src=""stim_listA/look6.gif""style=""height:400px;""></stim_listA>",is being looked at by,,,,,,
null,"<div style=""font-size:60px;"">+</div>",,html-keyboard-response,80,413710,0.0-13.0-0.7,33790,List1A,black,man,,,,null,,,,,,,,,
null,"<img src=""stim_listA/oppose1.gif""style=""height:400px;""></stim_listA>",,html-keyboard-response,81,415719,0.0-13.0-1.7,33790,List1A,black,man,,,,null,,,,,,,,,
null,is opposing,,html-keyboard-response,82,417722,0.0-13.0-2.7,33790,List1A,black,man,,,,null,,,,,,,,,
16588.4,,,survey-text,83,434316,0.0-13.0-3.7,33790,List1A,black,man,,,,,"{""Q0"":""mike is opposing kate""}","<img src=""stim_listA/oppose1.gif""style=""height:400px;""></stim_listA>",is opposing,,,,,,
null,"<div style=""font-size:60px;"">+</div>",,html-keyboard-response,84,434821,0.0-13.0-0.8,33790,List1A,black,man,,,,null,,,,,,,,,
null,"<img src=""stim_listA/oppose6.gif""style=""height:400px;""></stim_listA>",,html-keyboard-response,85,436826,0.0-13.0-1.8,33790,List1A,black,man,,,,null,,,,,,,,,
null,is being opposed by,,html-keyboard-response,86,438830,0.0-13.0-2.8,33790,List1A,black,man,,,,null,,,,,,,,,
21193.7,,,survey-text,87,460028,0.0-13.0-3.8,33790,List1A,black,man,,,,,"{""Q0"":""luke is being opposed by fred""}","<img src=""stim_listA/oppose6.gif""style=""height:400px;""></stim_listA>",is being opposed by,,,,,,
null,"<div style=""font-size:60px;"">+</div>",,html-keyboard-response,88,460531,0.0-13.0-0.9,33790,List1A,black,man,,,,null,,,,,,,,,
null,"<img src=""stim_listA/challenge8.gif""style=""height:400px;""></stim_listA>",,html-keyboard-response,89,462535,0.0-13.0-1.9,33790,List1A,black,man,,,,null,,,,,,,,,
null,is being challenged by,,html-keyboard-response,90,464537,0.0-13.0-2.9,33790,List1A,black,man,,,,null,,,,,,,,,
12814.1,,,survey-text,91,477357,0.0-13.0-3.9,33790,List1A,black,man,,,,,"{""Q0"":""jane is being challenged by beth""}","<img src=""stim_listA/challenge8.gif""style=""height:400px;""></stim_listA>",is being challenged by,,,,,,
null,"<div style=""font-size:60px;"">+</div>",,html-keyboard-response,92,477860,0.0-13.0-0.10,33790,List1A,black,man,,,,null,,,,,,,,,
null,"<img src=""stim_listA/greet8.gif""style=""height:400px;""></stim_listA>",,html-keyboard-response,93,479864,0.0-13.0-1.10,33790,List1A,black,man,,,,null,,,,,,,,,
null,is being greeted by,,html-keyboard-response,94,481867,0.0-13.0-2.10,33790,List1A,black,man,,,,null,,,,,,,,,
14867.5,,,survey-text,95,496739,0.0-13.0-3.10,33790,List1A,black,man,,,,,"{""Q0"":""jane is being greeted by beth""}","<img src=""stim_listA/greet8.gif""style=""height:400px;""></stim_listA>",is being greeted by,,,,,,
null,"<div style=""font-size:60px;"">+</div>",,html-keyboard-response,96,497242,0.0-13.0-0.11,33790,List1A,black,man,,,,null,,,,,,,,,
null,"<img src=""stim_listA/copy2.gif""style=""height:400px;""></stim_listA>",,html-keyboard-response,97,499249,0.0-13.0-1.11,33790,List1A,black,man,,,,null,,,,,,,,,
null,is being copied by,,html-keyboard-response,98,501254,0.0-13.0-2.11,33790,List1A,black,man,,,,null,,,,,,,,,
13608.8,,,survey-text,99,514869,0.0-13.0-3.11,33790,List1A,black,man,,,,,"{""Q0"":""kate is being copied by fred""}","<img src=""stim_listA/copy2.gif""style=""height:400px;""></stim_listA>",is being copied by,,,,,,
null,"<div style=""font-size:60px;"">+</div>",,html-keyboard-response,100,515371,0.0-13.0-0.12,33790,List1A,black,man,,,,null,,,,,,,,,
null,"<img src=""stim_listA/challenge2.gif""style=""height:400px;""></stim_listA>",,html-keyboard-response,101,517379,0.0-13.0-1.12,33790,List1A,black,man,,,,null,,,,,,,,,
null,is being challenged by,,html-keyboard-response,102,519382,0.0-13.0-2.12,33790,List1A,black,man,,,,null,,,,,,,,,
11713.6,,,survey-text,103,531101,0.0-13.0-3.12,33790,List1A,black,man,,,,,"{""Q0"":""kate is being challenged by fred""}","<img src=""stim_listA/challenge2.gif""style=""height:400px;""></stim_listA>",is being challenged by,,,,,,
null,"<div style=""font-size:60px;"">+</div>",,html-keyboard-response,104,531606,0.0-13.0-0.13,33790,List1A,black,man,,,,null,,,,,,,,,
null,"<img src=""stim_listA/touch2.gif""style=""height:400px;""></stim_listA>",,html-keyboard-response,105,533611,0.0-13.0-1.13,33790,List1A,black,man,,,,null,,,,,,,,,
null,is being touched by,,html-keyboard-response,106,535612,0.0-13.0-2.13,33790,List1A,black,man,,,,null,,,,,,,,,
9571.7,,,survey-text,107,545188,0.0-13.0-3.13,33790,List1A,black,man,,,,,"{""Q0"":""beth is being touched by fred""}","<img src=""stim_listA/touch2.gif""style=""height:400px;""></stim_listA>",is being touched by,,,,,,
null,"<div style=""font-size:60px;"">+</div>",,html-keyboard-response,108,545694,0.0-13.0-0.14,33790,List1A,black,man,,,,null,,,,,,,,,
null,"<img src=""stim_listA/shout2.gif""style=""height:400px;""></stim_listA>",,html-keyboard-response,109,547698,0.0-13.0-1.14,33790,List1A,black,man,,,,null,,,,,,,,,
null,is being shouted at by,,html-keyboard-response,110,549700,0.0-13.0-2.14,33790,List1A,black,man,,,,null,,,,,,,,,
11004.3,,,survey-text,111,560709,0.0-13.0-3.14,33790,List1A,black,man,,,,,"{""Q0"":""kate is being shouted at by mike""}","<img src=""stim_listA/shout2.gif""style=""height:400px;""></stim_listA>",is being shouted at by,,,,,,
null,"<div style=""font-size:60px;"">+</div>",,html-keyboard-response,112,561213,0.0-13.0-0.15,33790,List1A,black,man,,,,null,,,,,,,,,
null,"<img src=""stim_listA/greet6.gif""style=""height:400px;""></stim_listA>",,html-keyboard-response,113,563218,0.0-13.0-1.15,33790,List1A,black,man,,,,null,,,,,,,,,
null,is being greeted by,,html-keyboard-response,114,565221,0.0-13.0-2.15,33790,List1A,black,man,,,,null,,,,,,,,,
11666.9,,,survey-text,115,576892,0.0-13.0-3.15,33790,List1A,black,man,,,,,"{""Q0"":""dave is being greeted by fred""}","<img src=""stim_listA/greet6.gif""style=""height:400px;""></stim_listA>",is being greeted by,,,,,,
null,"<div style=""font-size:60px;"">+</div>",,html-keyboard-response,116,577394,0.0-13.0-0.16,33790,List1A,black,man,,,,null,,,,,,,,,
null,"<img src=""stim_listA/oppose5.gif""style=""height:400px;""></stim_listA>",,html-keyboard-response,117,579400,0.0-13.0-1.16,33790,List1A,black,man,,,,null,,,,,,,,,
null,is opposing,,html-keyboard-response,118,581404,0.0-13.0-2.16,33790,List1A,black,man,,,,null,,,,,,,,,
15953.3,,,survey-text,119,597364,0.0-13.0-3.16,33790,List1A,black,man,,,,,"{""Q0"":""mike is opposing dave""}","<img src=""stim_listA/oppose5.gif""style=""height:400px;""></stim_listA>",is opposing,,,,,,
null,"<div style=""font-size:60px;"">+</div>",,html-keyboard-response,120,597870,0.0-13.0-0.17,33790,List1A,black,man,,,,null,,,,,,,,,
null,"<img src=""stim_listA/challenge3.gif""style=""height:400px;""></stim_listA>",,html-keyboard-response,121,599876,0.0-13.0-1.17,33790,List1A,black,man,,,,null,,,,,,,,,
null,is challenging,,html-keyboard-response,122,601878,0.0-13.0-2.17,33790,List1A,black,man,,,,null,,,,,,,,,
11047.7,,,survey-text,123,612932,0.0-13.0-3.17,33790,List1A,black,man,,,,,"{""Q0"":""dave is challenging ruth""}","<img src=""stim_listA/challenge3.gif""style=""height:400px;""></stim_listA>",is challenging,,,,,,
null,"<div style=""font-size:60px;"">+</div>",,html-keyboard-response,124,613436,0.0-13.0-0.18,33790,List1A,black,man,,,,null,,,,,,,,,
null,"<img src=""stim_listA/look7.gif""style=""height:400px;""></stim_listA>",,html-keyboard-response,125,615441,0.0-13.0-1.18,33790,List1A,black,man,,,,null,,,,,,,,,
null,is looking at,,html-keyboard-response,126,617443,0.0-13.0-2.18,33790,List1A,black,man,,,,null,,,,,,,,,
7620.9,,,survey-text,127,625069,0.0-13.0-3.18,33790,List1A,black,man,,,,,"{""Q0"":""beth is looking at ruth""}","<img src=""stim_listA/look7.gif""style=""height:400px;""></stim_listA>",is looking at,,,,,,
null,"<div style=""font-size:60px;"">+</div>",,html-keyboard-response,128,625573,0.0-13.0-0.19,33790,List1A,black,man,,,,null,,,,,,,,,
null,"<img src=""stim_listA/look8.gif""style=""height:400px;""></stim_listA>",,html-keyboard-response,129,627579,0.0-13.0-1.19,33790,List1A,black,man,,,,null,,,,,,,,,
null,is being looked at by,,html-keyboard-response,130,629582,0.0-13.0-2.19,33790,List1A,black,man,,,,null,,,,,,,,,
12841.6,,,survey-text,131,642428,0.0-13.0-3.19,33790,List1A,black,man,,,,,"{""Q0"":""jane is being looked at by kate""}","<img src=""stim_listA/look8.gif""style=""height:400px;""></stim_listA>",is being looked at by,,,,,,
5147.9,"<img src='img/portrait_matrix_list1.jpg' style='width:900px;height:500px;''></img><p>If you have memorised all the portraits and names and are ready to start, press Continue.</p><p><strong>Please note: Your memory of these faces will be tested 4 times during this experiment.</strong></p>",0,html-button-response,132,647579,0.0-14.0-0.0,33790,List1A,black,man,,,,,,,,,,,,,
2376.9,"<img src=""portrait/BW1.jpg""style=""height:400px;""></img>",0,html-button-response,133,650964,0.0-14.0-1.0,33790,List1A,black,man,,TRUE,0,,,,,,,,,,
null,CORRECT,,html-keyboard-response,134,652468,0.0-14.0-2.0-0.0,33790,List1A,black,man,,,,null,,,,,,,,,
2308.9,"<img src=""portrait/WM2.jpg""style=""height:400px;""></img>",7,html-button-response,135,654780,0.0-14.0-4.0,33790,List1A,black,man,,TRUE,7,,,,,,,,,,
null,CORRECT,,html-keyboard-response,136,656287,0.0-14.0-5.0-0.0,33790,List1A,black,man,,,,null,,,,,,,,,
2257,"<img src=""portrait/BW2.jpg""style=""height:400px;""></img>",2,html-button-response,137,658548,0.0-14.0-7.0,33790,List1A,black,man,,TRUE,2,,,,,,,,,,
null,CORRECT,,html-keyboard-response,138,660054,0.0-14.0-8.0-0.0,33790,List1A,black,man,,,,null,,,,,,,,,
1331.2,"<img src=""portrait/WW2.jpg""style=""height:400px;""></img>",3,html-button-response,139,661389,0.0-14.0-10.0,33790,List1A,black,man,,TRUE,3,,,,,,,,,,
null,CORRECT,,html-keyboard-response,140,662897,0.0-14.0-11.0-0.0,33790,List1A,black,man,,,,null,,,,,,,,,
2391.6,"<img src=""portrait/WM1.jpg""style=""height:400px;""></img>",6,html-button-response,141,665293,0.0-14.0-13.0,33790,List1A,black,man,,TRUE,6,,,,,,,,,,
null,CORRECT,,html-keyboard-response,142,666801,0.0-14.0-14.0-0.0,33790,List1A,black,man,,,,null,,,,,,,,,
1895.1,"<img src=""portrait/BM2.jpg""style=""height:400px;""></img>",5,html-button-response,143,668700,0.0-14.0-16.0,33790,List1A,black,man,,TRUE,5,,,,,,,,,,
null,CORRECT,,html-keyboard-response,144,670210,0.0-14.0-17.0-0.0,33790,List1A,black,man,,,,null,,,,,,,,,
3647,"<img src=""portrait/WW1.jpg""style=""height:400px;""></img>",1,html-button-response,145,673861,0.0-14.0-19.0,33790,List1A,black,man,,TRUE,1,,,,,,,,,,
null,CORRECT,,html-keyboard-response,146,675367,0.0-14.0-20.0-0.0,33790,List1A,black,man,,,,null,,,,,,,,,
2032.9,"<img src=""portrait/BM1.jpg""style=""height:400px;""></img>",4,html-button-response,147,677404,0.0-14.0-22.0,33790,List1A,black,man,,TRUE,4,,,,,,,,,,
null,CORRECT,,html-keyboard-response,148,678911,0.0-14.0-23.0-0.0,33790,List1A,black,man,,,,null,,,,,,,,,
1615.7,<p>You got 8 out of 8 right first time. Press Continue.</p>,0,html-button-response,149,680531,0.0-14.0-25.0,33790,List1A,black,man,,,,,,,,,,,,,
null,"<div style=""font-size:60px;"">+</div>",,html-keyboard-response,150,682036,0.0-15.0-0.0,33790,List1A,black,man,,,,null,,,,,,,,,
null,"<img src=""stim_listA/touch6.gif""style=""height:400px;""></stim_listA>",,html-keyboard-response,151,684041,0.0-15.0-1.0,33790,List1A,black,man,,,,null,,,,,,,,,
null,is being touched by,,html-keyboard-response,152,686043,0.0-15.0-2.0,33790,List1A,black,man,,,,null,,,,,,,,,
13331,,,survey-text,153,699381,0.0-15.0-3.0,33790,List1A,black,man,,,,,"{""Q0"":""luke is being touched by fred""}","<img src=""stim_listA/touch6.gif""style=""height:400px;""></stim_listA>",is being touched by,,,,,,
null,"<div style=""font-size:60px;"">+</div>",,html-keyboard-response,154,699886,0.0-15.0-0.1,33790,List1A,black,man,,,,null,,,,,,,,,
null,"<img src=""stim_listA/challenge5.gif""style=""height:400px;""></stim_listA>",,html-keyboard-response,155,701891,0.0-15.0-1.1,33790,List1A,black,man,,,,null,,,,,,,,,
null,is challenging,,html-keyboard-response,156,703894,0.0-15.0-2.1,33790,List1A,black,man,,,,null,,,,,,,,,
11904.3,,,survey-text,157,715804,0.0-15.0-3.1,33790,List1A,black,man,,,,,"{""Q0"":""mike is challenging luke""}","<img src=""stim_listA/challenge5.gif""style=""height:400px;""></stim_listA>",is challenging,,,,,,
null,"<div style=""font-size:60px;"">+</div>",,html-keyboard-response,158,716310,0.0-15.0-0.2,33790,List1A,black,man,,,,null,,,,,,,,,
null,"<img src=""stim_listA/kiss4.gif""style=""height:400px;""></stim_listA>",,html-keyboard-response,159,718313,0.0-15.0-1.2,33790,List1A,black,man,,,,null,,,,,,,,,
null,is being kissed by,,html-keyboard-response,160,720316,0.0-15.0-2.2,33790,List1A,black,man,,,,null,,,,,,,,,
21354.8,,,survey-text,161,741676,0.0-15.0-3.2,33790,List1A,black,man,,,,,"{""Q0"":""jane is being kissed by dave""}","<img src=""stim_listA/kiss4.gif""style=""height:400px;""></stim_listA>",is being kissed by,,,,,,
null,"<div style=""font-size:60px;"">+</div>",,html-keyboard-response,162,742182,0.0-15.0-0.3,33790,List1A,black,man,,,,null,,,,,,,,,
null,"<img src=""stim_listA/copy8.gif""style=""height:400px;""></stim_listA>",,html-keyboard-response,163,744187,0.0-15.0-1.3,33790,List1A,black,man,,,,null,,,,,,,,,
null,is being copied by,,html-keyboard-response,164,746190,0.0-15.0-2.3,33790,List1A,black,man,,,,null,,,,,,,,,
14557.6,,,survey-text,165,760757,0.0-15.0-3.3,33790,List1A,black,man,,,,,"{""Q0"":""jane is being copied by beth""}","<img src=""stim_listA/copy8.gif""style=""height:400px;""></stim_listA>",is being copied by,,,,,,
null,"<div style=""font-size:60px;"">+</div>",,html-keyboard-response,166,761262,0.0-15.0-0.4,33790,List1A,black,man,,,,null,,,,,,,,,
null,"<img src=""stim_listA/hug2.gif""style=""height:400px;""></stim_listA>",,html-keyboard-response,167,763269,0.0-15.0-1.4,33790,List1A,black,man,,,,null,,,,,,,,,
null,is being hugged by,,html-keyboard-response,168,765272,0.0-15.0-2.4,33790,List1A,black,man,,,,null,,,,,,,,,
9270.2,,,survey-text,169,774549,0.0-15.0-3.4,33790,List1A,black,man,,,,,"{""Q0"":""kate is being hugged by mike""}","<img src=""stim_listA/hug2.gif""style=""height:400px;""></stim_listA>",is being hugged by,,,,,,
null,"<div style=""font-size:60px;"">+</div>",,html-keyboard-response,170,775053,0.0-15.0-0.5,33790,List1A,black,man,,,,null,,,,,,,,,
null,"<img src=""stim_listA/seduce3.gif""style=""height:400px;""></stim_listA>",,html-keyboard-response,171,777058,0.0-15.0-1.5,33790,List1A,black,man,,,,null,,,,,,,,,
null,is seducing,,html-keyboard-response,172,779061,0.0-15.0-2.5,33790,List1A,black,man,,,,null,,,,,,,,,
9178.8,,,survey-text,173,788245,0.0-15.0-3.5,33790,List1A,black,man,,,,,"{""Q0"":""luke is seducing jane""}","<img src=""stim_listA/seduce3.gif""style=""height:400px;""></stim_listA>",is seducing,,,,,,
null,"<div style=""font-size:60px;"">+</div>",,html-keyboard-response,174,788748,0.0-15.0-0.6,33790,List1A,black,man,,,,null,,,,,,,,,
null,"<img src=""stim_listA/touch3.gif""style=""height:400px;""></stim_listA>",,html-keyboard-response,175,790755,0.0-15.0-1.6,33790,List1A,black,man,,,,null,,,,,,,,,
null,is touching,,html-keyboard-response,176,792761,0.0-15.0-2.6,33790,List1A,black,man,,,,null,,,,,,,,,
17310.2,,,survey-text,177,810076,0.0-15.0-3.6,33790,List1A,black,man,,,,,"{""Q0"":""dave is touching jane""}","<img src=""stim_listA/touch3.gif""style=""height:400px;""></stim_listA>",is touching,,,,,,
null,"<div style=""font-size:60px;"">+</div>",,html-keyboard-response,178,810579,0.0-15.0-0.7,33790,List1A,black,man,,,,null,,,,,,,,,
null,"<img src=""stim_listA/greet5.gif""style=""height:400px;""></stim_listA>",,html-keyboard-response,179,812583,0.0-15.0-1.7,33790,List1A,black,man,,,,null,,,,,,,,,
null,is greeting,,html-keyboard-response,180,814586,0.0-15.0-2.7,33790,List1A,black,man,,,,null,,,,,,,,,
12925.5,,,survey-text,181,827517,0.0-15.0-3.7,33790,List1A,black,man,,,,,"{""Q0"":""mike is greeting luke""}","<img src=""stim_listA/greet5.gif""style=""height:400px;""></stim_listA>",is greeting,,,,,,
null,"<div style=""font-size:60px;"">+</div>",,html-keyboard-response,182,828020,0.0-15.0-0.8,33790,List1A,black,man,,,,null,,,,,,,,,
null,"<img src=""stim_listA/seduce2.gif""style=""height:400px;""></stim_listA>",,html-keyboard-response,183,830026,0.0-15.0-1.8,33790,List1A,black,man,,,,null,,,,,,,,,
null,is being seduced by,,html-keyboard-response,184,832028,0.0-15.0-2.8,33790,List1A,black,man,,,,null,,,,,,,,,
11489.7,,,survey-text,185,843524,0.0-15.0-3.8,33790,List1A,black,man,,,,,"{""Q0"":""beth is being seduced by mike""}","<img src=""stim_listA/seduce2.gif""style=""height:400px;""></stim_listA>",is being seduced by,,,,,,
null,"<div style=""font-size:60px;"">+</div>",,html-keyboard-response,186,844026,0.0-15.0-0.9,33790,List1A,black,man,,,,null,,,,,,,,,
null,"<img src=""stim_listA/touch7.gif""style=""height:400px;""></stim_listA>",,html-keyboard-response,187,846031,0.0-15.0-1.9,33790,List1A,black,man,,,,null,,,,,,,,,
null,is touching,,html-keyboard-response,188,848035,0.0-15.0-2.9,33790,List1A,black,man,,,,null,,,,,,,,,
8053.1,,,survey-text,189,856093,0.0-15.0-3.9,33790,List1A,black,man,,,,,"{""Q0"":""kate is touching jane""}","<img src=""stim_listA/touch7.gif""style=""height:400px;""></stim_listA>",is touching,,,,,,
null,"<div style=""font-size:60px;"">+</div>",,html-keyboard-response,190,856600,0.0-15.0-0.10,33790,List1A,black,man,,,,null,,,,,,,,,
null,"<img src=""stim_listA/challenge6.gif""style=""height:400px;""></stim_listA>",,html-keyboard-response,191,858606,0.0-15.0-1.10,33790,List1A,black,man,,,,null,,,,,,,,,
null,is being challenged by,,html-keyboard-response,192,860608,0.0-15.0-2.10,33790,List1A,black,man,,,,null,,,,,,,,,
12183.4,,,survey-text,193,872798,0.0-15.0-3.10,33790,List1A,black,man,,,,,"{""Q0"":""fred is being challenged by dave""}","<img src=""stim_listA/challenge6.gif""style=""height:400px;""></stim_listA>",is being challenged by,,,,,,
null,"<div style=""font-size:60px;"">+</div>",,html-keyboard-response,194,873301,0.0-15.0-0.11,33790,List1A,black,man,,,,null,,,,,,,,,
null,"<img src=""stim_listA/hug1.gif""style=""height:400px;""></stim_listA>",,html-keyboard-response,195,875306,0.0-15.0-1.11,33790,List1A,black,man,,,,null,,,,,,,,,
null,is hugging,,html-keyboard-response,196,877312,0.0-15.0-2.11,33790,List1A,black,man,,,,null,,,,,,,,,
7664,,,survey-text,197,884981,0.0-15.0-3.11,33790,List1A,black,man,,,,,"{""Q0"":""fred is hugging beth""}","<img src=""stim_listA/hug1.gif""style=""height:400px;""></stim_listA>",is hugging,,,,,,
null,"<div style=""font-size:60px;"">+</div>",,html-keyboard-response,198,885484,0.0-15.0-0.12,33790,List1A,black,man,,,,null,,,,,,,,,
null,"<img src=""stim_listA/seduce6.gif""style=""height:400px;""></stim_listA>",,html-keyboard-response,199,887488,0.0-15.0-1.12,33790,List1A,black,man,,,,null,,,,,,,,,
null,is being seduced by,,html-keyboard-response,200,889492,0.0-15.0-2.12,33790,List1A,black,man,,,,null,,,,,,,,,
14516.8,,,survey-text,201,904015,0.0-15.0-3.12,33790,List1A,black,man,,,,,"{""Q0"":""luke is being seduced by mike""}","<img src=""stim_listA/seduce6.gif""style=""height:400px;""></stim_listA>",is being seduced by,,,,,,
null,"<div style=""font-size:60px;"">+</div>",,html-keyboard-response,202,904520,0.0-15.0-0.13,33790,List1A,black,man,,,,null,,,,,,,,,
null,"<img src=""stim_listA/hug4.gif""style=""height:400px;""></stim_listA>",,html-keyboard-response,203,906527,0.0-15.0-1.13,33790,List1A,black,man,,,,null,,,,,,,,,
null,is being hugged by,,html-keyboard-response,204,908530,0.0-15.0-2.13,33790,List1A,black,man,,,,null,,,,,,,,,
18799.2,,,survey-text,205,927335,0.0-15.0-3.13,33790,List1A,black,man,,,,,"{""Q0"":""jane is being hugged by dave""}","<img src=""stim_listA/hug4.gif""style=""height:400px;""></stim_listA>",is being hugged by,,,,,,
null,"<div style=""font-size:60px;"">+</div>",,html-keyboard-response,206,927839,0.0-15.0-0.14,33790,List1A,black,man,,,,null,,,,,,,,,
null,"<img src=""stim_listA/shout5.gif""style=""height:400px;""></stim_listA>",,html-keyboard-response,207,929845,0.0-15.0-1.14,33790,List1A,black,man,,,,null,,,,,,,,,
null,is shouting at,,html-keyboard-response,208,931850,0.0-15.0-2.14,33790,List1A,black,man,,,,null,,,,,,,,,
9766.2,,,survey-text,209,941622,0.0-15.0-3.14,33790,List1A,black,man,,,,,"{""Q0"":""fred is shouting at luke""}","<img src=""stim_listA/shout5.gif""style=""height:400px;""></stim_listA>",is shouting at,,,,,,
null,"<div style=""font-size:60px;"">+</div>",,html-keyboard-response,210,942126,0.0-15.0-0.15,33790,List1A,black,man,,,,null,,,,,,,,,
null,"<img src=""stim_listA/oppose3.gif""style=""height:400px;""></stim_listA>",,html-keyboard-response,211,944131,0.0-15.0-1.15,33790,List1A,black,man,,,,null,,,,,,,,,
null,is opposing,,html-keyboard-response,212,946136,0.0-15.0-2.15,33790,List1A,black,man,,,,null,,,,,,,,,
9208.4,,,survey-text,213,955351,0.0-15.0-3.15,33790,List1A,black,man,,,,,"{""Q0"":""dave is opposing jane""}","<img src=""stim_listA/oppose3.gif""style=""height:400px;""></stim_listA>",is opposing,,,,,,
null,"<div style=""font-size:60px;"">+</div>",,html-keyboard-response,214,955857,0.0-15.0-0.16,33790,List1A,black,man,,,,null,,,,,,,,,
null,"<img src=""stim_listA/greet1.gif""style=""height:400px;""></stim_listA>",,html-keyboard-response,215,957862,0.0-15.0-1.16,33790,List1A,black,man,,,,null,,,,,,,,,
null,is greeting,,html-keyboard-response,216,959867,0.0-15.0-2.16,33790,List1A,black,man,,,,null,,,,,,,,,
10853.7,,,survey-text,217,970726,0.0-15.0-3.16,33790,List1A,black,man,,,,,"{""Q0"":""mike is greeting beth""}","<img src=""stim_listA/greet1.gif""style=""height:400px;""></stim_listA>",is greeting,,,,,,
null,"<div style=""font-size:60px;"">+</div>",,html-keyboard-response,218,971233,0.0-15.0-0.17,33790,List1A,black,man,,,,null,,,,,,,,,
null,"<img src=""stim_listA/shout7.gif""style=""height:400px;""></stim_listA>",,html-keyboard-response,219,973239,0.0-15.0-1.17,33790,List1A,black,man,,,,null,,,,,,,,,
null,is shouting at,,html-keyboard-response,220,975242,0.0-15.0-2.17,33790,List1A,black,man,,,,null,,,,,,,,,
10095.3,,,survey-text,221,985342,0.0-15.0-3.17,33790,List1A,black,man,,,,,"{""Q0"":""beth is shouting at ruth""}","<img src=""stim_listA/shout7.gif""style=""height:400px;""></stim_listA>",is shouting at,,,,,,
null,"<div style=""font-size:60px;"">+</div>",,html-keyboard-response,222,985848,0.0-15.0-0.18,33790,List1A,black,man,,,,null,,,,,,,,,
null,"<img src=""stim_listA/challenge1.gif""style=""height:400px;""></stim_listA>",,html-keyboard-response,223,987854,0.0-15.0-1.18,33790,List1A,black,man,,,,null,,,,,,,,,
null,is challenging,,html-keyboard-response,224,989858,0.0-15.0-2.18,33790,List1A,black,man,,,,null,,,,,,,,,
8318.9,,,survey-text,225,998183,0.0-15.0-3.18,33790,List1A,black,man,,,,,"{""Q0"":""mike is challenging beth""}","<img src=""stim_listA/challenge1.gif""style=""height:400px;""></stim_listA>",is challenging,,,,,,
null,"<div style=""font-size:60px;"">+</div>",,html-keyboard-response,226,998687,0.0-15.0-0.19,33790,List1A,black,man,,,,null,,,,,,,,,
null,"<img src=""stim_listA/shout8.gif""style=""height:400px;""></stim_listA>",,html-keyboard-response,227,1000695,0.0-15.0-1.19,33790,List1A,black,man,,,,null,,,,,,,,,
null,is being shouted at by,,html-keyboard-response,228,1002698,0.0-15.0-2.19,33790,List1A,black,man,,,,null,,,,,,,,,
13448,,,survey-text,229,1016151,0.0-15.0-3.19,33790,List1A,black,man,,,,,"{""Q0"":""jane is being shouted at by kate""}","<img src=""stim_listA/shout8.gif""style=""height:400px;""></stim_listA>",is being shouted at by,,,,,,
4609.5,"<img src='img/portrait_matrix_list1.jpg' style='width:900px;height:500px;''></img><p>If you have memorised all the portraits and names and are ready to start, press Continue.</p><p><strong>Please note: Your memory of these faces will be tested 4 times during this experiment.</strong></p>",0,html-button-response,230,1020764,0.0-16.0-0.0,33790,List1A,black,man,,,,,,,,,,,,,
2899.3,"<img src=""portrait/BM2.jpg""style=""height:400px;""></img>",5,html-button-response,231,1024669,0.0-16.0-1.0,33790,List1A,black,man,,TRUE,5,,,,,,,,,,
null,CORRECT,,html-keyboard-response,232,1026180,0.0-16.0-2.0-0.0,33790,List1A,black,man,,,,null,,,,,,,,,
2597.5,"<img src=""portrait/WM2.jpg""style=""height:400px;""></img>",7,html-button-response,233,1028781,0.0-16.0-4.0,33790,List1A,black,man,,TRUE,7,,,,,,,,,,
null,CORRECT,,html-keyboard-response,234,1030287,0.0-16.0-5.0-0.0,33790,List1A,black,man,,,,null,,,,,,,,,
2866.2,"<img src=""portrait/BW2.jpg""style=""height:400px;""></img>",2,html-button-response,235,1033157,0.0-16.0-7.0,33790,List1A,black,man,,TRUE,2,,,,,,,,,,
null,CORRECT,,html-keyboard-response,236,1034668,0.0-16.0-8.0-0.0,33790,List1A,black,man,,,,null,,,,,,,,,
3053.7,"<img src=""portrait/BW1.jpg""style=""height:400px;""></img>",0,html-button-response,237,1037724,0.0-16.0-10.0,33790,List1A,black,man,,TRUE,0,,,,,,,,,,
null,CORRECT,,html-keyboard-response,238,1039234,0.0-16.0-11.0-0.0,33790,List1A,black,man,,,,null,,,,,,,,,
2727.2,"<img src=""portrait/WM1.jpg""style=""height:400px;""></img>",6,html-button-response,239,1041965,0.0-16.0-13.0,33790,List1A,black,man,,TRUE,6,,,,,,,,,,
null,CORRECT,,html-keyboard-response,240,1043473,0.0-16.0-14.0-0.0,33790,List1A,black,man,,,,null,,,,,,,,,
2064.2,"<img src=""portrait/WW1.jpg""style=""height:400px;""></img>",1,html-button-response,241,1045540,0.0-16.0-16.0,33790,List1A,black,man,,TRUE,1,,,,,,,,,,
null,CORRECT,,html-keyboard-response,242,1047045,0.0-16.0-17.0-0.0,33790,List1A,black,man,,,,null,,,,,,,,,
6628.7,"<img src=""portrait/BM1.jpg""style=""height:400px;""></img>",4,html-button-response,243,1053677,0.0-16.0-19.0,33790,List1A,black,man,,TRUE,4,,,,,,,,,,
null,CORRECT,,html-keyboard-response,244,1055182,0.0-16.0-20.0-0.0,33790,List1A,black,man,,,,null,,,,,,,,,
2186.7,"<img src=""portrait/WW2.jpg""style=""height:400px;""></img>",3,html-button-response,245,1057373,0.0-16.0-22.0,33790,List1A,black,man,,TRUE,3,,,,,,,,,,
null,CORRECT,,html-keyboard-response,246,1058881,0.0-16.0-23.0-0.0,33790,List1A,black,man,,,,null,,,,,,,,,
1263.6,<p>You got 8 out of 8 right first time. Press Continue.</p>,0,html-button-response,247,1060148,0.0-16.0-25.0,33790,List1A,black,man,,,,,,,,,,,,,
null,"<div style=""font-size:60px;"">+</div>",,html-keyboard-response,248,1061656,0.0-17.0-0.0,33790,List1A,black,man,,,,null,,,,,,,,,
null,"<img src=""stim_listA/touch5.gif""style=""height:400px;""></stim_listA>",,html-keyboard-response,249,1063665,0.0-17.0-1.0,33790,List1A,black,man,,,,null,,,,,,,,,
null,is touching,,html-keyboard-response,250,1065672,0.0-17.0-2.0,33790,List1A,black,man,,,,null,,,,,,,,,
7593.1,,,survey-text,251,1073271,0.0-17.0-3.0,33790,List1A,black,man,,,,,"{""Q0"":""mike is touching dave""}","<img src=""stim_listA/touch5.gif""style=""height:400px;""></stim_listA>",is touching,,,,,,
null,"<div style=""font-size:60px;"">+</div>",,html-keyboard-response,252,1073778,0.0-17.0-0.1,33790,List1A,black,man,,,,null,,,,,,,,,
null,"<img src=""stim_listA/challenge4.gif""style=""height:400px;""></stim_listA>",,html-keyboard-response,253,1075784,0.0-17.0-1.1,33790,List1A,black,man,,,,null,,,,,,,,,
null,is being challenged by,,html-keyboard-response,254,1077787,0.0-17.0-2.1,33790,List1A,black,man,,,,null,,,,,,,,,
10787.6,,,survey-text,255,1088583,0.0-17.0-3.1,33790,List1A,black,man,,,,,"{""Q0"":""jane is being challenged by luke""}","<img src=""stim_listA/challenge4.gif""style=""height:400px;""></stim_listA>",is being challenged by,,,,,,
null,"<div style=""font-size:60px;"">+</div>",,html-keyboard-response,256,1089088,0.0-17.0-0.2,33790,List1A,black,man,,,,null,,,,,,,,,
null,"<img src=""stim_listA/oppose2.gif""style=""height:400px;""></stim_listA>",,html-keyboard-response,257,1091094,0.0-17.0-1.2,33790,List1A,black,man,,,,null,,,,,,,,,
null,is being opposed by,,html-keyboard-response,258,1093100,0.0-17.0-2.2,33790,List1A,black,man,,,,null,,,,,,,,,
7724.1,,,survey-text,259,1100831,0.0-17.0-3.2,33790,List1A,black,man,,,,,"{""Q0"":""beh is being opposed by fred""}","<img src=""stim_listA/oppose2.gif""style=""height:400px;""></stim_listA>",is being opposed by,,,,,,
null,"<div style=""font-size:60px;"">+</div>",,html-keyboard-response,260,1101339,0.0-17.0-0.3,33790,List1A,black,man,,,,null,,,,,,,,,
null,"<img src=""stim_listA/kiss6.gif""style=""height:400px;""></stim_listA>",,html-keyboard-response,261,1103347,0.0-17.0-1.3,33790,List1A,black,man,,,,null,,,,,,,,,
null,is being kissed by,,html-keyboard-response,262,1105354,0.0-17.0-2.3,33790,List1A,black,man,,,,null,,,,,,,,,
10798.3,,,survey-text,263,1116159,0.0-17.0-3.3,33790,List1A,black,man,,,,,"{""Q0"":""dave is being kissed by mike""}","<img src=""stim_listA/kiss6.gif""style=""height:400px;""></stim_listA>",is being kissed by,,,,,,
null,"<div style=""font-size:60px;"">+</div>",,html-keyboard-response,264,1116663,0.0-17.0-0.4,33790,List1A,black,man,,,,null,,,,,,,,,
null,"<img src=""stim_listA/copy1.gif""style=""height:400px;""></stim_listA>",,html-keyboard-response,265,1118668,0.0-17.0-1.4,33790,List1A,black,man,,,,null,,,,,,,,,
null,is copying,,html-keyboard-response,266,1120673,0.0-17.0-2.4,33790,List1A,black,man,,,,null,,,,,,,,,
6952.7,,,survey-text,267,1127631,0.0-17.0-3.4,33790,List1A,black,man,,,,,"{""Q0"":""mike is copying beth""}","<img src=""stim_listA/copy1.gif""style=""height:400px;""></stim_listA>",is copying,,,,,,
null,"<div style=""font-size:60px;"">+</div>",,html-keyboard-response,268,1128137,0.0-17.0-0.5,33790,List1A,black,man,,,,null,,,,,,,,,
null,"<img src=""stim_listA/shout3.gif""style=""height:400px;""></stim_listA>",,html-keyboard-response,269,1130141,0.0-17.0-1.5,33790,List1A,black,man,,,,null,,,,,,,,,
null,is shouting at,,html-keyboard-response,270,1132148,0.0-17.0-2.5,33790,List1A,black,man,,,,null,,,,,,,,,
20438,,,survey-text,271,1152592,0.0-17.0-3.5,33790,List1A,black,man,,,,,"{""Q0"":""luke is shouting at ruth""}","<img src=""stim_listA/shout3.gif""style=""height:400px;""></stim_listA>",is shouting at,,,,,,
null,"<div style=""font-size:60px;"">+</div>",,html-keyboard-response,272,1153096,0.0-17.0-0.6,33790,List1A,black,man,,,,null,,,,,,,,,
null,"<img src=""stim_listA/look5.gif""style=""height:400px;""></stim_listA>",,html-keyboard-response,273,1155103,0.0-17.0-1.6,33790,List1A,black,man,,,,null,,,,,,,,,
null,is looking at,,html-keyboard-response,274,1157107,0.0-17.0-2.6,33790,List1A,black,man,,,,null,,,,,,,,,
26679,,,survey-text,275,1183791,0.0-17.0-3.6,33790,List1A,black,man,,,,,"{""Q0"":""fred is looking at luke""}","<img src=""stim_listA/look5.gif""style=""height:400px;""></stim_listA>",is looking at,,,,,,
null,"<div style=""font-size:60px;"">+</div>",,html-keyboard-response,276,1184297,0.0-17.0-0.7,33790,List1A,black,man,,,,null,,,,,,,,,
null,"<img src=""stim_listA/look3.gif""style=""height:400px;""></stim_listA>",,html-keyboard-response,277,1186303,0.0-17.0-1.7,33790,List1A,black,man,,,,null,,,,,,,,,
null,is looking at,,html-keyboard-response,278,1188309,0.0-17.0-2.7,33790,List1A,black,man,,,,null,,,,,,,,,
10893.1,,,survey-text,279,1199208,0.0-17.0-3.7,33790,List1A,black,man,,,,,"{""Q0"":""luke is looking at ruth""}","<img src=""stim_listA/look3.gif""style=""height:400px;""></stim_listA>",is looking at,,,,,,
null,"<div style=""font-size:60px;"">+</div>",,html-keyboard-response,280,1199714,0.0-17.0-0.8,33790,List1A,black,man,,,,null,,,,,,,,,
null,"<img src=""stim_listA/shout4.gif""style=""height:400px;""></stim_listA>",,html-keyboard-response,281,1201719,0.0-17.0-1.8,33790,List1A,black,man,,,,null,,,,,,,,,
null,is being shouted at by,,html-keyboard-response,282,1203724,0.0-17.0-2.8,33790,List1A,black,man,,,,null,,,,,,,,,
12334.6,,,survey-text,283,1216064,0.0-17.0-3.8,33790,List1A,black,man,,,,,"{""Q0"":""jane is being shouted at by dave""}","<img src=""stim_listA/shout4.gif""style=""height:400px;""></stim_listA>",is being shouted at by,,,,,,
null,"<div style=""font-size:60px;"">+</div>",,html-keyboard-response,284,1216568,0.0-17.0-0.9,33790,List1A,black,man,,,,null,,,,,,,,,
null,"<img src=""stim_listA/oppose4.gif""style=""height:400px;""></stim_listA>",,html-keyboard-response,285,1218572,0.0-17.0-1.9,33790,List1A,black,man,,,,null,,,,,,,,,
null,is being opposed by,,html-keyboard-response,286,1220578,0.0-17.0-2.9,33790,List1A,black,man,,,,null,,,,,,,,,
11247.6,,,survey-text,287,1231831,0.0-17.0-3.9,33790,List1A,black,man,,,,,"{""Q0"":""ruth is being opposed by luke""}","<img src=""stim_listA/oppose4.gif""style=""height:400px;""></stim_listA>",is being opposed by,,,,,,
null,"<div style=""font-size:60px;"">+</div>",,html-keyboard-response,288,1232337,0.0-17.0-0.10,33790,List1A,black,man,,,,null,,,,,,,,,
null,"<img src=""stim_listA/kiss7.gif""style=""height:400px;""></stim_listA>",,html-keyboard-response,289,1234341,0.0-17.0-1.10,33790,List1A,black,man,,,,null,,,,,,,,,
null,is kissing,,html-keyboard-response,290,1236346,0.0-17.0-2.10,33790,List1A,black,man,,,,null,,,,,,,,,
21496.4,,,survey-text,291,1257848,0.0-17.0-3.10,33790,List1A,black,man,,,,,"{""Q0"":""beth is kissing ruth""}","<img src=""stim_listA/kiss7.gif""style=""height:400px;""></stim_listA>",is kissing,,,,,,
null,"<div style=""font-size:60px;"">+</div>",,html-keyboard-response,292,1258351,0.0-17.0-0.11,33790,List1A,black,man,,,,null,,,,,,,,,
null,"<img src=""stim_listA/touch1.gif""style=""height:400px;""></stim_listA>",,html-keyboard-response,293,1260359,0.0-17.0-1.11,33790,List1A,black,man,,,,null,,,,,,,,,
null,is touching,,html-keyboard-response,294,1262361,0.0-17.0-2.11,33790,List1A,black,man,,,,null,,,,,,,,,
11911.8,,,survey-text,295,1274280,0.0-17.0-3.11,33790,List1A,black,man,,,,,"{""Q0"":""mike is touching kate""}","<img src=""stim_listA/touch1.gif""style=""height:400px;""></stim_listA>",is touching,,,,,,
null,"<div style=""font-size:60px;"">+</div>",,html-keyboard-response,296,1274785,0.0-17.0-0.12,33790,List1A,black,man,,,,null,,,,,,,,,
null,"<img src=""stim_listA/challenge7.gif""style=""height:400px;""></stim_listA>",,html-keyboard-response,297,1276791,0.0-17.0-1.12,33790,List1A,black,man,,,,null,,,,,,,,,
null,is challenging,,html-keyboard-response,298,1278797,0.0-17.0-2.12,33790,List1A,black,man,,,,null,,,,,,,,,
58692.9,,,survey-text,299,1337496,0.0-17.0-3.12,33790,List1A,black,man,,,,,"{""Q0"":""kate is challenging ruth ""}","<img src=""stim_listA/challenge7.gif""style=""height:400px;""></stim_listA>",is challenging,,,,,,
null,"<div style=""font-size:60px;"">+</div>",,html-keyboard-response,300,1338001,0.0-17.0-0.13,33790,List1A,black,man,,,,null,,,,,,,,,
null,"<img src=""stim_listA/touch8.gif""style=""height:400px;""></stim_listA>",,html-keyboard-response,301,1340010,0.0-17.0-1.13,33790,List1A,black,man,,,,null,,,,,,,,,
null,is being touched by,,html-keyboard-response,302,1342016,0.0-17.0-2.13,33790,List1A,black,man,,,,null,,,,,,,,,
7857.7,,,survey-text,303,1349880,0.0-17.0-3.13,33790,List1A,black,man,,,,,"{""Q0"":""ruth is being touched by beth""}","<img src=""stim_listA/touch8.gif""style=""height:400px;""></stim_listA>",is being touched by,,,,,,
null,"<div style=""font-size:60px;"">+</div>",,html-keyboard-response,304,1350384,0.0-17.0-0.14,33790,List1A,black,man,,,,null,,,,,,,,,
null,"<img src=""stim_listA/hug3.gif""style=""height:400px;""></stim_listA>",,html-keyboard-response,305,1352389,0.0-17.0-1.14,33790,List1A,black,man,,,,null,,,,,,,,,
null,is hugging,,html-keyboard-response,306,1354395,0.0-17.0-2.14,33790,List1A,black,man,,,,null,,,,,,,,,
6078.2,,,survey-text,307,1360479,0.0-17.0-3.14,33790,List1A,black,man,,,,,"{""Q0"":""luke is hugging ruth""}","<img src=""stim_listA/hug3.gif""style=""height:400px;""></stim_listA>",is hugging,,,,,,
null,"<div style=""font-size:60px;"">+</div>",,html-keyboard-response,308,1360985,0.0-17.0-0.15,33790,List1A,black,man,,,,null,,,,,,,,,
null,"<img src=""stim_listA/hug5.gif""style=""height:400px;""></stim_listA>",,html-keyboard-response,309,1362988,0.0-17.0-1.15,33790,List1A,black,man,,,,null,,,,,,,,,
null,is hugging,,html-keyboard-response,310,1364995,0.0-17.0-2.15,33790,List1A,black,man,,,,null,,,,,,,,,
5238,,,survey-text,311,1370239,0.0-17.0-3.15,33790,List1A,black,man,,,,,"{""Q0"":""fred is hugging luke""}","<img src=""stim_listA/hug5.gif""style=""height:400px;""></stim_listA>",is hugging,,,,,,
null,"<div style=""font-size:60px;"">+</div>",,html-keyboard-response,312,1370745,0.0-17.0-0.16,33790,List1A,black,man,,,,null,,,,,,,,,
null,"<img src=""stim_listA/greet3.gif""style=""height:400px;""></stim_listA>",,html-keyboard-response,313,1372753,0.0-17.0-1.16,33790,List1A,black,man,,,,null,,,,,,,,,
null,is greeting,,html-keyboard-response,314,1374757,0.0-17.0-2.16,33790,List1A,black,man,,,,null,,,,,,,,,
11579.7,,,survey-text,315,1386342,0.0-17.0-3.16,33790,List1A,black,man,,,,,"{""Q0"":""dave is greeting luke""}","<img src=""stim_listA/greet3.gif""style=""height:400px;""></stim_listA>",is greeting,,,,,,
null,"<div style=""font-size:60px;"">+</div>",,html-keyboard-response,316,1386845,0.0-17.0-0.17,33790,List1A,black,man,,,,null,,,,,,,,,
null,"<img src=""stim_listA/hug6.gif""style=""height:400px;""></stim_listA>",,html-keyboard-response,317,1388853,0.0-17.0-1.17,33790,List1A,black,man,,,,null,,,,,,,,,
null,is being hugged by,,html-keyboard-response,318,1390859,0.0-17.0-2.17,33790,List1A,black,man,,,,null,,,,,,,,,
7189.8,,,survey-text,319,1398055,0.0-17.0-3.17,33790,List1A,black,man,,,,,"{""Q0"":""dave is being hugged by mike""}","<img src=""stim_listA/hug6.gif""style=""height:400px;""></stim_listA>",is being hugged by,,,,,,
null,"<div style=""font-size:60px;"">+</div>",,html-keyboard-response,320,1398560,0.0-17.0-0.18,33790,List1A,black,man,,,,null,,,,,,,,,
null,"<img src=""stim_listA/greet7.gif""style=""height:400px;""></stim_listA>",,html-keyboard-response,321,1400565,0.0-17.0-1.18,33790,List1A,black,man,,,,null,,,,,,,,,
null,is greeting,,html-keyboard-response,322,1402568,0.0-17.0-2.18,33790,List1A,black,man,,,,null,,,,,,,,,
8033,,,survey-text,323,1410607,0.0-17.0-3.18,33790,List1A,black,man,,,,,"{""Q0"":""kate is greeting ruth""}","<img src=""stim_listA/greet7.gif""style=""height:400px;""></stim_listA>",is greeting,,,,,,
null,"<div style=""font-size:60px;"">+</div>",,html-keyboard-response,324,1411112,0.0-17.0-0.19,33790,List1A,black,man,,,,null,,,,,,,,,
null,"<img src=""stim_listA/seduce5.gif""style=""height:400px;""></stim_listA>",,html-keyboard-response,325,1413117,0.0-17.0-1.19,33790,List1A,black,man,,,,null,,,,,,,,,
null,is seducing,,html-keyboard-response,326,1415121,0.0-17.0-2.19,33790,List1A,black,man,,,,null,,,,,,,,,
11727.1,,,survey-text,327,1426854,0.0-17.0-3.19,33790,List1A,black,man,,,,,"{""Q0"":""dave is seducing fred""}","<img src=""stim_listA/seduce5.gif""style=""height:400px;""></stim_listA>",is seducing,,,,,,
3362.3,"<img src='img/portrait_matrix_list1.jpg' style='width:900px;height:500px;''></img><p>If you have memorised all the portraits and names and are ready to start, press Continue.</p><p><strong>Please note: Your memory of these faces will be tested 4 times during this experiment.</strong></p>",0,html-button-response,328,1430220,0.0-18.0-0.0,33790,List1A,black,man,,,,,,,,,,,,,
3098.2,"<img src=""portrait/WW2.jpg""style=""height:400px;""></img>",3,html-button-response,329,1434325,0.0-18.0-1.0,33790,List1A,black,man,,TRUE,3,,,,,,,,,,
null,CORRECT,,html-keyboard-response,330,1435829,0.0-18.0-2.0-0.0,33790,List1A,black,man,,,,null,,,,,,,,,
2163.1,"<img src=""portrait/BW2.jpg""style=""height:400px;""></img>",2,html-button-response,331,1437996,0.0-18.0-4.0,33790,List1A,black,man,,TRUE,2,,,,,,,,,,
null,CORRECT,,html-keyboard-response,332,1439501,0.0-18.0-5.0-0.0,33790,List1A,black,man,,,,null,,,,,,,,,
1755.1,"<img src=""portrait/BM1.jpg""style=""height:400px;""></img>",4,html-button-response,333,1441260,0.0-18.0-7.0,33790,List1A,black,man,,TRUE,4,,,,,,,,,,
null,CORRECT,,html-keyboard-response,334,1442768,0.0-18.0-8.0-0.0,33790,List1A,black,man,,,,null,,,,,,,,,
2743.8,"<img src=""portrait/WM1.jpg""style=""height:400px;""></img>",6,html-button-response,335,1445516,0.0-18.0-10.0,33790,List1A,black,man,,TRUE,6,,,,,,,,,,
null,CORRECT,,html-keyboard-response,336,1447025,0.0-18.0-11.0-0.0,33790,List1A,black,man,,,,null,,,,,,,,,
2127.1,"<img src=""portrait/WW1.jpg""style=""height:400px;""></img>",1,html-button-response,337,1449157,0.0-18.0-13.0,33790,List1A,black,man,,TRUE,1,,,,,,,,,,
null,CORRECT,,html-keyboard-response,338,1450666,0.0-18.0-14.0-0.0,33790,List1A,black,man,,,,null,,,,,,,,,
1629.4,"<img src=""portrait/BW1.jpg""style=""height:400px;""></img>",0,html-button-response,339,1452300,0.0-18.0-16.0,33790,List1A,black,man,,TRUE,0,,,,,,,,,,
null,CORRECT,,html-keyboard-response,340,1453804,0.0-18.0-17.0-0.0,33790,List1A,black,man,,,,null,,,,,,,,,
2764.5,"<img src=""portrait/BM2.jpg""style=""height:400px;""></img>",5,html-button-response,341,1456572,0.0-18.0-19.0,33790,List1A,black,man,,TRUE,5,,,,,,,,,,
null,CORRECT,,html-keyboard-response,342,1458079,0.0-18.0-20.0-0.0,33790,List1A,black,man,,,,null,,,,,,,,,
922.1,"<img src=""portrait/WM2.jpg""style=""height:400px;""></img>",7,html-button-response,343,1459004,0.0-18.0-22.0,33790,List1A,black,man,,TRUE,7,,,,,,,,,,
null,CORRECT,,html-keyboard-response,344,1460511,0.0-18.0-23.0-0.0,33790,List1A,black,man,,,,null,,,,,,,,,
1056.8,<p>You got 8 out of 8 right first time. Press Continue.</p>,0,html-button-response,345,1461571,0.0-18.0-25.0,33790,List1A,black,man,,,,,,,,,,,,,
null,"<div style=""font-size:60px;"">+</div>",,html-keyboard-response,346,1463076,0.0-19.0-0.0,33790,List1A,black,man,,,,null,,,,,,,,,
null,"<img src=""stim_listA/seduce1.gif""style=""height:400px;""></stim_listA>",,html-keyboard-response,347,1465084,0.0-19.0-1.0,33790,List1A,black,man,,,,null,,,,,,,,,
null,is seducing,,html-keyboard-response,348,1467092,0.0-19.0-2.0,33790,List1A,black,man,,,,null,,,,,,,,,
7869.1,,,survey-text,349,1474966,0.0-19.0-3.0,33790,List1A,black,man,,,,,"{""Q0"":""fred is seducing kate""}","<img src=""stim_listA/seduce1.gif""style=""height:400px;""></stim_listA>",is seducing,,,,,,
null,"<div style=""font-size:60px;"">+</div>",,html-keyboard-response,350,1475471,0.0-19.0-0.1,33790,List1A,black,man,,,,null,,,,,,,,,
null,"<img src=""stim_listA/greet4.gif""style=""height:400px;""></stim_listA>",,html-keyboard-response,351,1477475,0.0-19.0-1.1,33790,List1A,black,man,,,,null,,,,,,,,,
null,is being greeted by,,html-keyboard-response,352,1479477,0.0-19.0-2.1,33790,List1A,black,man,,,,null,,,,,,,,,
7740,,,survey-text,353,1487222,0.0-19.0-3.1,33790,List1A,black,man,,,,,"{""Q0"":""jane is being greeted by luke""}","<img src=""stim_listA/greet4.gif""style=""height:400px;""></stim_listA>",is being greeted by,,,,,,
null,"<div style=""font-size:60px;"">+</div>",,html-keyboard-response,354,1487729,0.0-19.0-0.2,33790,List1A,black,man,,,,null,,,,,,,,,
null,"<img src=""stim_listA/look4.gif""style=""height:400px;""></stim_listA>",,html-keyboard-response,355,1489733,0.0-19.0-1.2,33790,List1A,black,man,,,,null,,,,,,,,,
null,is being looked at by,,html-keyboard-response,356,1491735,0.0-19.0-2.2,33790,List1A,black,man,,,,null,,,,,,,,,
8041.5,,,survey-text,357,1499782,0.0-19.0-3.2,33790,List1A,black,man,,,,,"{""Q0"":""jane is being looked at by dave""}","<img src=""stim_listA/look4.gif""style=""height:400px;""></stim_listA>",is being looked at by,,,,,,
null,"<div style=""font-size:60px;"">+</div>",,html-keyboard-response,358,1500289,0.0-19.0-0.3,33790,List1A,black,man,,,,null,,,,,,,,,
null,"<img src=""stim_listA/kiss1.gif""style=""height:400px;""></stim_listA>",,html-keyboard-response,359,1502292,0.0-19.0-1.3,33790,List1A,black,man,,,,null,,,,,,,,,
null,is kissing,,html-keyboard-response,360,1504295,0.0-19.0-2.3,33790,List1A,black,man,,,,null,,,,,,,,,
6402.1,,,survey-text,361,1510703,0.0-19.0-3.3,33790,List1A,black,man,,,,,"{""Q0"":""fred is kissing beth""}","<img src=""stim_listA/kiss1.gif""style=""height:400px;""></stim_listA>",is kissing,,,,,,
null,"<div style=""font-size:60px;"">+</div>",,html-keyboard-response,362,1511211,0.0-19.0-0.4,33790,List1A,black,man,,,,null,,,,,,,,,
null,"<img src=""stim_listA/copy5.gif""style=""height:400px;""></stim_listA>",,html-keyboard-response,363,1513218,0.0-19.0-1.4,33790,List1A,black,man,,,,null,,,,,,,,,
null,is copying,,html-keyboard-response,364,1515225,0.0-19.0-2.4,33790,List1A,black,man,,,,null,,,,,,,,,
5840.5,,,survey-text,365,1521071,0.0-19.0-3.4,33790,List1A,black,man,,,,,"{""Q0"":""mike is copying luke""}","<img src=""stim_listA/copy5.gif""style=""height:400px;""></stim_listA>",is copying,,,,,,
null,"<div style=""font-size:60px;"">+</div>",,html-keyboard-response,366,1521573,0.0-19.0-0.5,33790,List1A,black,man,,,,null,,,,,,,,,
null,"<img src=""stim_listA/greet2.gif""style=""height:400px;""></stim_listA>",,html-keyboard-response,367,1523582,0.0-19.0-1.5,33790,List1A,black,man,,,,null,,,,,,,,,
null,is being greeted by,,html-keyboard-response,368,1525586,0.0-19.0-2.5,33790,List1A,black,man,,,,null,,,,,,,,,
9199.5,,,survey-text,369,1534791,0.0-19.0-3.5,33790,List1A,black,man,,,,,"{""Q0"":""kate is being greeted by fred""}","<img src=""stim_listA/greet2.gif""style=""height:400px;""></stim_listA>",is being greeted by,,,,,,
null,"<div style=""font-size:60px;"">+</div>",,html-keyboard-response,370,1535296,0.0-19.0-0.6,33790,List1A,black,man,,,,null,,,,,,,,,
null,"<img src=""stim_listA/copy7.gif""style=""height:400px;""></stim_listA>",,html-keyboard-response,371,1537305,0.0-19.0-1.6,33790,List1A,black,man,,,,null,,,,,,,,,
null,is copying,,html-keyboard-response,372,1539307,0.0-19.0-2.6,33790,List1A,black,man,,,,null,,,,,,,,,
9734.4,,,survey-text,373,1549047,0.0-19.0-3.6,33790,List1A,black,man,,,,,"{""Q0"":""kate is copying ruth""}","<img src=""stim_listA/copy7.gif""style=""height:400px;""></stim_listA>",is copying,,,,,,
null,"<div style=""font-size:60px;"">+</div>",,html-keyboard-response,374,1549554,0.0-19.0-0.7,33790,List1A,black,man,,,,null,,,,,,,,,
null,"<img src=""stim_listA/shout6.gif""style=""height:400px;""></stim_listA>",,html-keyboard-response,375,1551558,0.0-19.0-1.7,33790,List1A,black,man,,,,null,,,,,,,,,
null,is being shouted at by,,html-keyboard-response,376,1553564,0.0-19.0-2.7,33790,List1A,black,man,,,,null,,,,,,,,,
7421.1,,,survey-text,377,1560991,0.0-19.0-3.7,33790,List1A,black,man,,,,,"{""Q0"":""dave is being shouted at by mike""}","<img src=""stim_listA/shout6.gif""style=""height:400px;""></stim_listA>",is being shouted at by,,,,,,
null,"<div style=""font-size:60px;"">+</div>",,html-keyboard-response,378,1561494,0.0-19.0-0.8,33790,List1A,black,man,,,,null,,,,,,,,,
null,"<img src=""stim_listA/copy3.gif""style=""height:400px;""></stim_listA>",,html-keyboard-response,379,1563499,0.0-19.0-1.8,33790,List1A,black,man,,,,null,,,,,,,,,
null,is copying,,html-keyboard-response,380,1565502,0.0-19.0-2.8,33790,List1A,black,man,,,,null,,,,,,,,,
5578.8,,,survey-text,381,1571087,0.0-19.0-3.8,33790,List1A,black,man,,,,,"{""Q0"":""dave is copying ruth""}","<img src=""stim_listA/copy3.gif""style=""height:400px;""></stim_listA>",is copying,,,,,,
null,"<div style=""font-size:60px;"">+</div>",,html-keyboard-response,382,1571590,0.0-19.0-0.9,33790,List1A,black,man,,,,null,,,,,,,,,
null,"<img src=""stim_listA/seduce7.gif""style=""height:400px;""></stim_listA>",,html-keyboard-response,383,1573598,0.0-19.0-1.9,33790,List1A,black,man,,,,null,,,,,,,,,
null,is seducing,,html-keyboard-response,384,1575605,0.0-19.0-2.9,33790,List1A,black,man,,,,null,,,,,,,,,
19157.3,,,survey-text,385,1594768,0.0-19.0-3.9,33790,List1A,black,man,,,,,"{""Q0"":""beth is seducing jane""}","<img src=""stim_listA/seduce7.gif""style=""height:400px;""></stim_listA>",is seducing,,,,,,
null,"<div style=""font-size:60px;"">+</div>",,html-keyboard-response,386,1595277,0.0-19.0-0.10,33790,List1A,black,man,,,,null,,,,,,,,,
null,"<img src=""stim_listA/oppose8.gif""style=""height:400px;""></stim_listA>",,html-keyboard-response,387,1597281,0.0-19.0-1.10,33790,List1A,black,man,,,,null,,,,,,,,,
null,is being opposed by,,html-keyboard-response,388,1599284,0.0-19.0-2.10,33790,List1A,black,man,,,,null,,,,,,,,,
8877.3,,,survey-text,389,1608167,0.0-19.0-3.10,33790,List1A,black,man,,,,,"{""Q0"":""beth is being opposed by ruth""}","<img src=""stim_listA/oppose8.gif""style=""height:400px;""></stim_listA>",is being opposed by,,,,,,
null,"<div style=""font-size:60px;"">+</div>",,html-keyboard-response,390,1608674,0.0-19.0-0.11,33790,List1A,black,man,,,,null,,,,,,,,,
null,"<img src=""stim_listA/shout1.gif""style=""height:400px;""></stim_listA>",,html-keyboard-response,391,1610678,0.0-19.0-1.11,33790,List1A,black,man,,,,null,,,,,,,,,
null,is shouting at,,html-keyboard-response,392,1612681,0.0-19.0-2.11,33790,List1A,black,man,,,,null,,,,,,,,,
9999.5,,,survey-text,393,1622687,0.0-19.0-3.11,33790,List1A,black,man,,,,,"{""Q0"":""fred is shouting at beth""}","<img src=""stim_listA/shout1.gif""style=""height:400px;""></stim_listA>",is shouting at,,,,,,
null,"<div style=""font-size:60px;"">+</div>",,html-keyboard-response,394,1623190,0.0-19.0-0.12,33790,List1A,black,man,,,,null,,,,,,,,,
null,"<img src=""stim_listA/touch4.gif""style=""height:400px;""></stim_listA>",,html-keyboard-response,395,1625197,0.0-19.0-1.12,33790,List1A,black,man,,,,null,,,,,,,,,
null,is being touched by,,html-keyboard-response,396,1627200,0.0-19.0-2.12,33790,List1A,black,man,,,,null,,,,,,,,,
9425.1,,,survey-text,397,1636631,0.0-19.0-3.12,33790,List1A,black,man,,,,,"{""Q0"":""ruth is being touched by luke""}","<img src=""stim_listA/touch4.gif""style=""height:400px;""></stim_listA>",is being touched by,,,,,,
null,"<div style=""font-size:60px;"">+</div>",,html-keyboard-response,398,1637135,0.0-19.0-0.13,33790,List1A,black,man,,,,null,,,,,,,,,
null,"<img src=""stim_listA/seduce4.gif""style=""height:400px;""></stim_listA>",,html-keyboard-response,399,1639141,0.0-19.0-1.13,33790,List1A,black,man,,,,null,,,,,,,,,
null,is being seduced by,,html-keyboard-response,400,1641148,0.0-19.0-2.13,33790,List1A,black,man,,,,null,,,,,,,,,
9356.8,,,survey-text,401,1650511,0.0-19.0-3.13,33790,List1A,black,man,,,,,"{""Q0"":""dave is being seduced by ruth""}","<img src=""stim_listA/seduce4.gif""style=""height:400px;""></stim_listA>",is being seduced by,,,,,,
null,"<div style=""font-size:60px;"">+</div>",,html-keyboard-response,402,1651018,0.0-19.0-0.14,33790,List1A,black,man,,,,null,,,,,,,,,
null,"<img src=""stim_listA/copy6.gif""style=""height:400px;""></stim_listA>",,html-keyboard-response,403,1653025,0.0-19.0-1.14,33790,List1A,black,man,,,,null,,,,,,,,,
null,is being copied by,,html-keyboard-response,404,1655029,0.0-19.0-2.14,33790,List1A,black,man,,,,null,,,,,,,,,
10660.6,,,survey-text,405,1665695,0.0-19.0-3.14,33790,List1A,black,man,,,,,"{""Q0"":""dave is being copied by fred""}","<img src=""stim_listA/copy6.gif""style=""height:400px;""></stim_listA>",is being copied by,,,,,,
null,"<div style=""font-size:60px;"">+</div>",,html-keyboard-response,406,1666199,0.0-19.0-0.15,33790,List1A,black,man,,,,null,,,,,,,,,
null,"<img src=""stim_listA/oppose7.gif""style=""height:400px;""></stim_listA>",,html-keyboard-response,407,1668207,0.0-19.0-1.15,33790,List1A,black,man,,,,null,,,,,,,,,
null,is opposing,,html-keyboard-response,408,1670210,0.0-19.0-2.15,33790,List1A,black,man,,,,null,,,,,,,,,
5190.8,,,survey-text,409,1675407,0.0-19.0-3.15,33790,List1A,black,man,,,,,"{""Q0"":""jane is opposing kate""}","<img src=""stim_listA/oppose7.gif""style=""height:400px;""></stim_listA>",is opposing,,,,,,
null,"<div style=""font-size:60px;"">+</div>",,html-keyboard-response,410,1675912,0.0-19.0-0.16,33790,List1A,black,man,,,,null,,,,,,,,,
null,"<img src=""stim_listA/seduce8.gif""style=""height:400px;""></stim_listA>",,html-keyboard-response,411,1677919,0.0-19.0-1.16,33790,List1A,black,man,,,,null,,,,,,,,,
null,is being seduced by,,html-keyboard-response,412,1679922,0.0-19.0-2.16,33790,List1A,black,man,,,,null,,,,,,,,,
22327.7,,,survey-text,413,1702255,0.0-19.0-3.16,33790,List1A,black,man,,,,,"{""Q0"":""ruth is being seduced by kate""}","<img src=""stim_listA/seduce8.gif""style=""height:400px;""></stim_listA>",is being seduced by,,,,,,
null,"<div style=""font-size:60px;"">+</div>",,html-keyboard-response,414,1702760,0.0-19.0-0.17,33790,List1A,black,man,,,,null,,,,,,,,,
null,"<img src=""stim_listA/look2.gif""style=""height:400px;""></stim_listA>",,html-keyboard-response,415,1704768,0.0-19.0-1.17,33790,List1A,black,man,,,,null,,,,,,,,,
null,is being looked at by,,html-keyboard-response,416,1706771,0.0-19.0-2.17,33790,List1A,black,man,,,,null,,,,,,,,,
13195.5,,,survey-text,417,1719975,0.0-19.0-3.17,33790,List1A,black,man,,,,,"{""Q0"":""mike is being looked at by kate""}","<img src=""stim_listA/look2.gif""style=""height:400px;""></stim_listA>",is being looked at by,,,,,,
null,"<div style=""font-size:60px;"">+</div>",,html-keyboard-response,418,1720480,0.0-19.0-0.18,33790,List1A,black,man,,,,null,,,,,,,,,
null,"<img src=""stim_listA/kiss8.gif""style=""height:400px;""></stim_listA>",,html-keyboard-response,419,1722488,0.0-19.0-1.18,33790,List1A,black,man,,,,null,,,,,,,,,
null,is being kissed by,,html-keyboard-response,420,1724491,0.0-19.0-2.18,33790,List1A,black,man,,,,null,,,,,,,,,
7760.4,,,survey-text,421,1732258,0.0-19.0-3.18,33790,List1A,black,man,,,,,"{""Q0"":""kate is being kissed by jane""}","<img src=""stim_listA/kiss8.gif""style=""height:400px;""></stim_listA>",is being kissed by,,,,,,
null,"<div style=""font-size:60px;"">+</div>",,html-keyboard-response,422,1732762,0.0-19.0-0.19,33790,List1A,black,man,,,,null,,,,,,,,,
null,"<img src=""stim_listA/look1.gif""style=""height:400px;""></stim_listA>",,html-keyboard-response,423,1734770,0.0-19.0-1.19,33790,List1A,black,man,,,,null,,,,,,,,,
null,is looking at,,html-keyboard-response,424,1736775,0.0-19.0-2.19,33790,List1A,black,man,,,,null,,,,,,,,,
9849.7,,,survey-text,425,1746631,0.0-19.0-3.19,33790,List1A,black,man,,,,,"{""Q0"":""fred is looking at beth""}","<img src=""stim_listA/look1.gif""style=""height:400px;""></stim_listA>",is looking at,,,,,,
2713.4,<p>Thank you for completing that task.</p><p>The final part of this session is a questionnaire that will take about 4 minutes.</p><p>Press Continue.</p>,0,html-button-response,426,1749348,0.0-20.0,33790,List1A,black,man,,,,,,,,,,,,,
114427.5,,,survey-text,427,1864791,0.0-21.0,33790,List1A,black,man,,,,,"{""Q0"":""37"",""Q1"":""ENGLISH"",""Q2"":""ENGLISH"",""Q3"":""UNITED STATES"",""Q4"":""GHANAIAN"",""Q5"":""BLACK"",""Q6"":""MALE""}",,,demographics,,,,,
1540.1,<p>Have you lived in the USA for the last 5 years or more?</p>,0,html-button-response,428,1866340,0.0-22.0,33790,List1A,black,man,,,,,,,,fiveyears,,,,,
1867,<p>Move the slider to show the extent to which you agree with the following statements.</p>,0,html-button-response,429,1869211,0.0-23.0,33790,List1A,black,man,,,,,,,,,,,,,
2045.5,,,html-slider-response,430,1872269,0.0-24.0-0.0-0.0,33790,List1A,black,man,,,,,,,,survey_gender,98,,,I am glad to be my gender.,glad
1731.6,,,html-slider-response,431,1874004,0.0-24.0-0.0-0.1,33790,List1A,black,man,,,,,,,,survey_gender,99,,,My friends have a lot in common with each other.,filler
2371.9,,,html-slider-response,432,1876380,0.0-24.0-0.0-0.2,33790,List1A,black,man,,,,,,,,survey_gender,100,,,I often think about the fact that I am my gender.,often
2325.2,,,html-slider-response,433,1878709,0.0-24.0-0.0-0.3,33790,List1A,black,man,,,,,,,,survey_gender,100,,,I would say I am an animal person.,filler
1907.6,,,html-slider-response,434,1880619,0.0-24.0-0.0-0.4,33790,List1A,black,man,,,,,,,,survey_gender,100,,,It is pleasant to be my gender.,pleasant
2549.3,,,html-slider-response,435,1883172,0.0-24.0-0.0-0.5,33790,List1A,black,man,,,,,,,,survey_gender,99,,,I think that my gender has a lot to be proud of.,proud
3595.7,,,html-slider-response,436,1886772,0.0-24.0-0.0-0.6,33790,List1A,black,man,,,,,,,,survey_gender,99,,,Being around my friends gives me a good feeling.,filler
1636.8,,,html-slider-response,437,1888412,0.0-24.0-0.0-0.7,33790,List1A,black,man,,,,,,,,survey_gender,100,,,Family is not more important to me than friendship.,filler
4308,,,html-slider-response,438,1892724,0.0-24.0-0.0-0.8,33790,List1A,black,man,,,,,,,,survey_gender,82,,,I am glad to have the friends that I have.,filler
2116.6,,,html-slider-response,439,1894845,0.0-24.0-0.0-0.9,33790,List1A,black,man,,,,,,,,survey_gender,100,,,I consider myself a highly empathetic person.,filler
2266.2,,,html-slider-response,440,1897116,0.0-24.0-0.0-0.10,33790,List1A,black,man,,,,,,,,survey_gender,100,,,Being my gender is an important part of how I see myself.,important
1605.1,,,html-slider-response,441,1898724,0.0-24.0-0.0-0.11,33790,List1A,black,man,,,,,,,,survey_gender,100,,,I feel committed to my gender.,committed
3395.2,,,html-slider-response,442,1902123,0.0-24.0-0.0-0.12,33790,List1A,black,man,,,,,,,,survey_gender,100,,,The fact that I am my gender is an important part of my identity.,identity
2916.9,,,html-slider-response,443,1905045,0.0-24.0-0.0-0.13,33790,List1A,black,man,,,,,,,,survey_gender,100,,,I feel a bond with my gender.,bond
2409.9,,,html-slider-response,444,1907460,0.0-24.0-0.0-0.14,33790,List1A,black,man,,,,,,,,survey_gender,97,,,I feel solidarity with my gender.,solidarity
1852,,,html-slider-response,445,1909315,0.0-24.0-0.0-0.15,33790,List1A,black,man,,,,,,,,survey_gender,99,,,I often think about my actions.,filler
2693.3,,,html-slider-response,446,1912012,0.0-24.0-0.0-0.16,33790,List1A,black,man,,,,,,,,survey_gender,82,,,My friends understand me.,filler
2324.8,,,html-slider-response,447,1914339,0.0-24.0-0.0-0.17,33790,List1A,black,man,,,,,,,,survey_gender,96,,,I feel solidarity with my friends.,filler
2884.8,,,html-slider-response,448,1917227,0.0-24.0-0.0-0.18,33790,List1A,black,man,,,,,,,,survey_gender,62,,,Routine is not important to me.,filler
2355.9,,,html-slider-response,449,1919587,0.0-24.0-0.0-0.19,33790,List1A,black,man,,,,,,,,survey_gender,90,,,I am similar to the average person of my gender.,similar
1628.1,,,html-slider-response,450,1921219,0.0-24.0-0.0-0.20,33790,List1A,black,man,,,,,,,,survey_gender,97,,,I feel a bond with my friends.,filler
1932.8,,,html-slider-response,451,1923155,0.0-24.0-0.0-0.21,33790,List1A,black,man,,,,,,,,survey_gender,96,,,Being my gender gives me a good feeling.,feeling
3036.5,,,html-slider-response,452,1926196,0.0-24.0-0.0-0.22,33790,List1A,black,man,,,,,,,,survey_gender,69,,,I have a lot in common with my friends.,filler
2484.6,,,html-slider-response,453,1928684,0.0-24.0-0.0-0.23,33790,List1A,black,man,,,,,,,,survey_gender,70,,,Most of the friends in my life are very similar to me.,filler
2973.4,,,html-slider-response,454,1931661,0.0-24.0-0.0-0.24,33790,List1A,black,man,,,,,,,,survey_gender,81,,,People of my gender are very similar to each other.,verysimilar
1819.1,,,html-slider-response,455,1933484,0.0-24.0-0.0-0.25,33790,List1A,black,man,,,,,,,,survey_gender,79,,,I have a lot in common with the average person of my gender.,average
2684,,,html-slider-response,456,1936172,0.0-24.0-0.0-0.26,33790,List1A,black,man,,,,,,,,survey_gender,83,,,People of my gender have a lot in common with each other.,common
3771.7,,,html-slider-response,457,1939948,0.0-24.0-0.0-0.27,33790,List1A,black,man,,,,,,,,survey_gender,89,,,It is not always easy for people to know what I am thinking.,filler
3091.7,,,html-slider-response,458,1943045,0.0-24.0-1.0-0.0,33790,List1A,black,man,,,,,,,,survey_race,100,,,I am glad to be my race.,glad
5993.9,,,html-slider-response,459,1949044,0.0-24.0-1.0-0.1,33790,List1A,black,man,,,,,,,,survey_race,32,,,Being my age gives me a good feeling.,filler
2683.4,,,html-slider-response,460,1951733,0.0-24.0-1.0-0.2,33790,List1A,black,man,,,,,,,,survey_race,88,,,The fact that I am my race is an important part of my identity.,identity
2644.1,,,html-slider-response,461,1954380,0.0-24.0-1.0-0.3,33790,List1A,black,man,,,,,,,,survey_race,100,,,I feel committed to my race.,committed
4180.7,,,html-slider-response,462,1958564,0.0-24.0-1.0-0.4,33790,List1A,black,man,,,,,,,,survey_race,34,,,My age is not an important part of who I am.,filler
3371.3,,,html-slider-response,463,1961940,0.0-24.0-1.0-0.5,33790,List1A,black,man,,,,,,,,survey_race,100,,,Being my race is an important part of how I see myself.,important
2506.9,,,html-slider-response,464,1964452,0.0-24.0-1.0-0.6,33790,List1A,black,man,,,,,,,,survey_race,100,,,I am glad to be my age.,filler
2164.9,,,html-slider-response,465,1966621,0.0-24.0-1.0-0.7,33790,List1A,black,man,,,,,,,,survey_race,99,,,I feel a bond with my race.,bond
2427.8,,,html-slider-response,466,1969052,0.0-24.0-1.0-0.8,33790,List1A,black,man,,,,,,,,survey_race,100,,,I think that my race has a lot to be proud of.,proud
4186.5,,,html-slider-response,467,1973244,0.0-24.0-1.0-0.9,33790,List1A,black,man,,,,,,,,survey_race,35,,,I am glad to be the age I am.,filler
2762.3,,,html-slider-response,468,1976012,0.0-24.0-1.0-0.10,33790,List1A,black,man,,,,,,,,survey_race,100,,,I feel solidarity with people the same age as me.,filler
2219.6,,,html-slider-response,469,1978236,0.0-24.0-1.0-0.11,33790,List1A,black,man,,,,,,,,survey_race,100,,,I have a lot in common with the average person of my race.,average
2532.8,,,html-slider-response,470,1980772,0.0-24.0-1.0-0.12,33790,List1A,black,man,,,,,,,,survey_race,100,,,I have a lot in common with people of a similar age to me.,filler
2004.6,,,html-slider-response,471,1982780,0.0-24.0-1.0-0.13,33790,List1A,black,man,,,,,,,,survey_race,100,,,I often think about the fact that I am my race.,often
2301.4,,,html-slider-response,472,1985085,0.0-24.0-1.0-0.14,33790,List1A,black,man,,,,,,,,survey_race,99,,,I am similar to the average person of my race.,similar
2115.2,,,html-slider-response,473,1987204,0.0-24.0-1.0-0.15,33790,List1A,black,man,,,,,,,,survey_race,100,,,I enjoy being in large groups.,filler
1701.2,,,html-slider-response,474,1988908,0.0-24.0-1.0-0.16,33790,List1A,black,man,,,,,,,,survey_race,100,,,People my age have a lot in common with each other.,filler
3373.1,,,html-slider-response,475,1992285,0.0-24.0-1.0-0.17,33790,List1A,black,man,,,,,,,,survey_race,100,,,I feel solidarity with my race.,solidarity
2923.8,,,html-slider-response,476,1995212,0.0-24.0-1.0-0.18,33790,List1A,black,man,,,,,,,,survey_race,100,,,"The older I get, the wiser I feel.",filler
1924,,,html-slider-response,477,1997141,0.0-24.0-1.0-0.19,33790,List1A,black,man,,,,,,,,survey_race,98,,,It is pleasant to be my race.,pleasant
3403.5,,,html-slider-response,478,2000548,0.0-24.0-1.0-0.20,33790,List1A,black,man,,,,,,,,survey_race,32,,,Getting older does not worry me.,filler
4092.1,,,html-slider-response,479,2004644,0.0-24.0-1.0-0.21,33790,List1A,black,man,,,,,,,,survey_race,99,,,Being my race gives me a good feeling.,feeling
2539.4,,,html-slider-response,480,2007188,0.0-24.0-1.0-0.22,33790,List1A,black,man,,,,,,,,survey_race,100,,,I consider myself an extrovert.,filler
2371.1,,,html-slider-response,481,2009563,0.0-24.0-1.0-0.23,33790,List1A,black,man,,,,,,,,survey_race,7,,,I consider myself an introvert.,filler
2916.8,,,html-slider-response,482,2012483,0.0-24.0-1.0-0.24,33790,List1A,black,man,,,,,,,,survey_race,99,,,I feel a bond with people the same age as me.,filler
2972.3,,,html-slider-response,483,2015460,0.0-24.0-1.0-0.25,33790,List1A,black,man,,,,,,,,survey_race,98,,,People of my race are very similar to each other.,verysimilar
2403.4,,,html-slider-response,484,2017868,0.0-24.0-1.0-0.26,33790,List1A,black,man,,,,,,,,survey_race,100,,,I often think about the fact that I am my age.,filler
2267.3,,,html-slider-response,485,2020140,0.0-24.0-1.0-0.27,33790,List1A,black,man,,,,,,,,survey_race,100,,,People of my race have a lot in common with each other.,common
7785.5,,,survey-text,486,2027933,0.0-25.0,33790,List1A,black,man,,,,,"{""Q0"":""ccc""}",,,worker_id,,,,,
2083.8,,,external-html,487,2034692,0.0-26.0,33790,List1A,black,man,debrief.html,,,,,,,,,,,,
