rt,stimulus,button_pressed,trial_type,trial_index,time_elapsed,internal_node_id,subject,list,ppt_race,ppt_gender,url,first_guess,correct,key_press,responses,image_type,phrase_type,test_part,response,stimulus1,stimulus2,question_type,survey_item
3083.6,Welcome to the experiment. Press Continue to begin.,0,html-button-response,0,3092,0.0-0.0,33851,List2B,white,man,,,,,,,,,,,,,
14422.9,,,external-html,1,18961,0.0-1.0,33851,List2B,white,man,consent.html,,,,,,,,,,,,
15261.9,"<p>On the next page, you will see portraits of 8 people and their names.</p><p>Your first task is to take a few minutes to memorise the names of these people.</p><p>You will have to recall their names during the rest of the experiment, so it is</p><p>essential that you try to memorise these people and their names as best as you can.</p><br><p><strong>You will then be tested on your memory of these names and portraits.</strong></p><br><p>The experiment will start after you have completed this memory test.</p><br><p>Ready?</p>",0,html-button-response,2,34231,0.0-2.0,33851,List2B,white,man,,,,,,,,,,,,,
35381.3,"<img src='img/portrait_matrix_list2.jpg' style='width:900px;height:500px;''></img><p>If you have memorised all the portraits and names and are ready to start, press Continue.</p><p><strong>Please note: Your memory of these faces will be tested 4 times during this experiment.</strong></p>",0,html-button-response,3,70619,0.0-3.0-0.0,33851,List2B,white,man,,,,,,,,,,,,,
7619.4,"<img src=""portrait/WW1.jpg""style=""height:400px;""></img>",1,html-button-response,4,79252,0.0-3.0-1.0,33851,List2B,white,man,,TRUE,1,,,,,,,,,,
null,CORRECT,,html-keyboard-response,5,80784,0.0-3.0-2.0-0.0,33851,List2B,white,man,,,,null,,,,,,,,,
5712.5,"<img src=""portrait/BW1.jpg""style=""height:400px;""></img>",0,html-button-response,6,86501,0.0-3.0-4.0,33851,List2B,white,man,,TRUE,0,,,,,,,,,,
null,CORRECT,,html-keyboard-response,7,88032,0.0-3.0-5.0-0.0,33851,List2B,white,man,,,,null,,,,,,,,,
4683.6,"<img src=""portrait/BW2.jpg""style=""height:400px;""></img>",2,html-button-response,8,92719,0.0-3.0-7.0,33851,List2B,white,man,,TRUE,2,,,,,,,,,,
null,CORRECT,,html-keyboard-response,9,94249,0.0-3.0-8.0-0.0,33851,List2B,white,man,,,,null,,,,,,,,,
5932.2,"<img src=""portrait/BM1.jpg""style=""height:400px;""></img>",4,html-button-response,10,100185,0.0-3.0-10.0,33851,List2B,white,man,,TRUE,4,,,,,,,,,,
null,CORRECT,,html-keyboard-response,11,101698,0.0-3.0-11.0-0.0,33851,List2B,white,man,,,,null,,,,,,,,,
5816,"<img src=""portrait/BM2.jpg""style=""height:400px;""></img>",5,html-button-response,12,107518,0.0-3.0-13.0,33851,List2B,white,man,,TRUE,5,,,,,,,,,,
null,CORRECT,,html-keyboard-response,13,109044,0.0-3.0-14.0-0.0,33851,List2B,white,man,,,,null,,,,,,,,,
5219.3,"<img src=""portrait/WM2.jpg""style=""height:400px;""></img>",7,html-button-response,14,114268,0.0-3.0-16.0,33851,List2B,white,man,,TRUE,7,,,,,,,,,,
null,CORRECT,,html-keyboard-response,15,115781,0.0-3.0-17.0-0.0,33851,List2B,white,man,,,,null,,,,,,,,,
5267.7,"<img src=""portrait/WW2.jpg""style=""height:400px;""></img>",3,html-button-response,16,121053,0.0-3.0-19.0,33851,List2B,white,man,,TRUE,3,,,,,,,,,,
null,CORRECT,,html-keyboard-response,17,122578,0.0-3.0-20.0-0.0,33851,List2B,white,man,,,,null,,,,,,,,,
5662.5,"<img src=""portrait/WM1.jpg""style=""height:400px;""></img>",6,html-button-response,18,128251,0.0-3.0-22.0,33851,List2B,white,man,,TRUE,6,,,,,,,,,,
null,CORRECT,,html-keyboard-response,19,129769,0.0-3.0-23.0-0.0,33851,List2B,white,man,,,,null,,,,,,,,,
2035.1,<p>You got 8 out of 8 right first time. Press Continue.</p>,0,html-button-response,20,131808,0.0-3.0-25.0,33851,List2B,white,man,,,,,,,,,,,,,
52749.5,"<p>In this experiment, you will view photographs of the people from the memory game interacting.</p><p>By using the <strong>exact</strong> phrase given <i>after</i> the photograph appears and recalling the correct names of the people in the photographs, form a sentence describing the interaction. You do not need to capitalise names.</p><p>Type your answer in the space provided. Please complete every sentence before moving onto the next trial.</p><p>You will only have a few seconds to memorise each given photograph and phrase before you can respond, so try your best to focus.</p><p>An example is given below. Press 'Continue' when you are ready.</p><img src='img/speaking_example.jpg' style='width:800px;height:460px;''></img>",0,html-button-response,21,185573,0.0-4.0,33851,List2B,white,man,,,,,,,,,,,,,
4437.7,"<p>Before the experiment starts, you will watch two example trials. Press 'Continue'.</p>",0,html-button-response,22,191024,0.0-5.0,33851,List2B,white,man,,,,,,,,,,,,,
null,<img src='img/play_eg.gif' style='height:400px;''></img>,,html-keyboard-response,23,194039,0.0-6.0,33851,List2B,white,man,,,,null,,,,,,,,,
null,<p>is playing with</p>,,html-keyboard-response,24,196042,0.0-7.0,33851,List2B,white,man,,,,null,,,,,,,,,
11629.6,<p><b>Answer:</b> jane is playing with ruth</p>,0,html-button-response,25,207673,0.0-8.0,33851,List2B,white,man,,,,,,,,,,,,,
null,<img src='img/dance_eg.gif' style='height:400px;''></img>,,html-keyboard-response,26,210690,0.0-9.0,33851,List2B,white,man,,,,null,,,,,,,,,
null,<p>is being entertained by</p>,,html-keyboard-response,27,212700,0.0-10.0,33851,List2B,white,man,,,,null,,,,,,,,,
5638.2,<p><b>Answer:</b> fred is being entertained by mike</p>,0,html-button-response,28,218340,0.0-11.0,33851,List2B,white,man,,,,,,,,,,,,,
6295.2,"<p>Ready to start the experiment?</p><br><p><strong>Remember to describe the picture using a full sentence,</strong></p><p><strong>that combines the names of the people with the <i>exact</i> phrase given.</strong></p><p><strong>To receive full payment you must do this correctly.</strong></p><p><strong> You do not need to capitalise names or use punctuation.</strong></p><br><p>Press 'Continue' to begin.</p>",0,html-button-response,29,225641,0.0-12.0,33851,List2B,white,man,,,,,,,,,,,,,
null,"<div style=""font-size:60px;"">+</div>",,html-keyboard-response,30,227152,0.0-13.0-0.0,33851,List2B,white,man,,,,null,,,,,,,,,
null,"<img src=""stim_listB/shout2.gif""style=""height:400px;""></stim_listB>",,html-keyboard-response,31,229171,0.0-13.0-1.0,33851,List2B,white,man,,,,null,,,,,,,,,
null,is being shouted at by,,html-keyboard-response,32,231173,0.0-13.0-2.0,33851,List2B,white,man,,,,null,,,,,,,,,
10671.8,,,survey-text,33,241868,0.0-13.0-3.0,33851,List2B,white,man,,,,,"{""Q0"":""jane is shouting at dave""}","<img src=""stim_listB/shout2.gif""style=""height:400px;""></stim_listB>",is being shouted at by,,,,,,
null,"<div style=""font-size:60px;"">+</div>",,html-keyboard-response,34,242376,0.0-13.0-0.1,33851,List2B,white,man,,,,null,,,,,,,,,
null,"<img src=""stim_listB/challenge8.gif""style=""height:400px;""></stim_listB>",,html-keyboard-response,35,244392,0.0-13.0-1.1,33851,List2B,white,man,,,,null,,,,,,,,,
null,is being challenged by,,html-keyboard-response,36,246400,0.0-13.0-2.1,33851,List2B,white,man,,,,null,,,,,,,,,
12736.4,,,survey-text,37,259142,0.0-13.0-3.1,33851,List2B,white,man,,,,,"{""Q0"":""kate is being challenged by ruth""}","<img src=""stim_listB/challenge8.gif""style=""height:400px;""></stim_listB>",is being challenged by,,,,,,
null,"<div style=""font-size:60px;"">+</div>",,html-keyboard-response,38,259659,0.0-13.0-0.2,33851,List2B,white,man,,,,null,,,,,,,,,
null,"<img src=""stim_listB/kiss5.gif""style=""height:400px;""></stim_listB>",,html-keyboard-response,39,261667,0.0-13.0-1.2,33851,List2B,white,man,,,,null,,,,,,,,,
null,is kissing,,html-keyboard-response,40,263669,0.0-13.0-2.2,33851,List2B,white,man,,,,null,,,,,,,,,
22064.3,,,survey-text,41,285740,0.0-13.0-3.2,33851,List2B,white,man,,,,,"{""Q0"":""luke is kissing fred""}","<img src=""stim_listB/kiss5.gif""style=""height:400px;""></stim_listB>",is kissing,,,,,,
null,"<div style=""font-size:60px;"">+</div>",,html-keyboard-response,42,286256,0.0-13.0-0.3,33851,List2B,white,man,,,,null,,,,,,,,,
null,"<img src=""stim_listB/look7.gif""style=""height:400px;""></stim_listB>",,html-keyboard-response,43,288265,0.0-13.0-1.3,33851,List2B,white,man,,,,null,,,,,,,,,
null,is looking at,,html-keyboard-response,44,290275,0.0-13.0-2.3,33851,List2B,white,man,,,,null,,,,,,,,,
17844,,,survey-text,45,308126,0.0-13.0-3.3,33851,List2B,white,man,,,,,"{""Q0"":""ruth is talking to beth""}","<img src=""stim_listB/look7.gif""style=""height:400px;""></stim_listB>",is looking at,,,,,,
null,"<div style=""font-size:60px;"">+</div>",,html-keyboard-response,46,308634,0.0-13.0-0.4,33851,List2B,white,man,,,,null,,,,,,,,,
null,"<img src=""stim_listB/greet7.gif""style=""height:400px;""></stim_listB>",,html-keyboard-response,47,310651,0.0-13.0-1.4,33851,List2B,white,man,,,,null,,,,,,,,,
null,is greeting,,html-keyboard-response,48,312653,0.0-13.0-2.4,33851,List2B,white,man,,,,null,,,,,,,,,
11071.1,,,survey-text,49,323733,0.0-13.0-3.4,33851,List2B,white,man,,,,,"{""Q0"":""beth is high fiving jane""}","<img src=""stim_listB/greet7.gif""style=""height:400px;""></stim_listB>",is greeting,,,,,,
null,"<div style=""font-size:60px;"">+</div>",,html-keyboard-response,50,324248,0.0-13.0-0.5,33851,List2B,white,man,,,,null,,,,,,,,,
null,"<img src=""stim_listB/kiss4.gif""style=""height:400px;""></stim_listB>",,html-keyboard-response,51,326252,0.0-13.0-1.5,33851,List2B,white,man,,,,null,,,,,,,,,
null,is being kissed by,,html-keyboard-response,52,328255,0.0-13.0-2.5,33851,List2B,white,man,,,,null,,,,,,,,,
8489.8,,,survey-text,53,336753,0.0-13.0-3.5,33851,List2B,white,man,,,,,"{""Q0"":""mike is kissing kate""}","<img src=""stim_listB/kiss4.gif""style=""height:400px;""></stim_listB>",is being kissed by,,,,,,
null,"<div style=""font-size:60px;"">+</div>",,html-keyboard-response,54,337264,0.0-13.0-0.6,33851,List2B,white,man,,,,null,,,,,,,,,
null,"<img src=""stim_listB/shout3.gif""style=""height:400px;""></stim_listB>",,html-keyboard-response,55,339284,0.0-13.0-1.6,33851,List2B,white,man,,,,null,,,,,,,,,
null,is shouting at,,html-keyboard-response,56,341292,0.0-13.0-2.6,33851,List2B,white,man,,,,null,,,,,,,,,
12426.3,,,survey-text,57,353726,0.0-13.0-3.6,33851,List2B,white,man,,,,,"{""Q0"":""beth is challenging fred""}","<img src=""stim_listB/shout3.gif""style=""height:400px;""></stim_listB>",is shouting at,,,,,,
null,"<div style=""font-size:60px;"">+</div>",,html-keyboard-response,58,354234,0.0-13.0-0.7,33851,List2B,white,man,,,,null,,,,,,,,,
null,"<img src=""stim_listB/copy6.gif""style=""height:400px;""></stim_listB>",,html-keyboard-response,59,356250,0.0-13.0-1.7,33851,List2B,white,man,,,,null,,,,,,,,,
null,is being copied by,,html-keyboard-response,60,358252,0.0-13.0-2.7,33851,List2B,white,man,,,,null,,,,,,,,,
16321.8,,,survey-text,61,374582,0.0-13.0-3.7,33851,List2B,white,man,,,,,"{""Q0"":""luke is being copied by mike""}","<img src=""stim_listB/copy6.gif""style=""height:400px;""></stim_listB>",is being copied by,,,,,,
null,"<div style=""font-size:60px;"">+</div>",,html-keyboard-response,62,375101,0.0-13.0-0.8,33851,List2B,white,man,,,,null,,,,,,,,,
null,"<img src=""stim_listB/kiss2.gif""style=""height:400px;""></stim_listB>",,html-keyboard-response,63,377106,0.0-13.0-1.8,33851,List2B,white,man,,,,null,,,,,,,,,
null,is being kissed by,,html-keyboard-response,64,379115,0.0-13.0-2.8,33851,List2B,white,man,,,,null,,,,,,,,,
17891.5,,,survey-text,65,397016,0.0-13.0-3.8,33851,List2B,white,man,,,,,"{""Q0"":""dave is being kissed by jane""}","<img src=""stim_listB/kiss2.gif""style=""height:400px;""></stim_listB>",is being kissed by,,,,,,
null,"<div style=""font-size:60px;"">+</div>",,html-keyboard-response,66,397532,0.0-13.0-0.9,33851,List2B,white,man,,,,null,,,,,,,,,
null,"<img src=""stim_listB/look2.gif""style=""height:400px;""></stim_listB>",,html-keyboard-response,67,399546,0.0-13.0-1.9,33851,List2B,white,man,,,,null,,,,,,,,,
null,is being looked at by,,html-keyboard-response,68,401557,0.0-13.0-2.9,33851,List2B,white,man,,,,null,,,,,,,,,
9343.8,,,survey-text,69,410909,0.0-13.0-3.9,33851,List2B,white,man,,,,,"{""Q0"":""dave is being looked at by jane""}","<img src=""stim_listB/look2.gif""style=""height:400px;""></stim_listB>",is being looked at by,,,,,,
null,"<div style=""font-size:60px;"">+</div>",,html-keyboard-response,70,411419,0.0-13.0-0.10,33851,List2B,white,man,,,,null,,,,,,,,,
null,"<img src=""stim_listB/greet3.gif""style=""height:400px;""></stim_listB>",,html-keyboard-response,71,413438,0.0-13.0-1.10,33851,List2B,white,man,,,,null,,,,,,,,,
null,is greeting,,html-keyboard-response,72,415448,0.0-13.0-2.10,33851,List2B,white,man,,,,null,,,,,,,,,
9540.2,,,survey-text,73,424998,0.0-13.0-3.10,33851,List2B,white,man,,,,,"{""Q0"":""beth is greeting mike""}","<img src=""stim_listB/greet3.gif""style=""height:400px;""></stim_listB>",is greeting,,,,,,
null,"<div style=""font-size:60px;"">+</div>",,html-keyboard-response,74,425515,0.0-13.0-0.11,33851,List2B,white,man,,,,null,,,,,,,,,
null,"<img src=""stim_listB/touch1.gif""style=""height:400px;""></stim_listB>",,html-keyboard-response,75,427523,0.0-13.0-1.11,33851,List2B,white,man,,,,null,,,,,,,,,
null,is touching,,html-keyboard-response,76,429531,0.0-13.0-2.11,33851,List2B,white,man,,,,null,,,,,,,,,
9265.4,,,survey-text,77,438806,0.0-13.0-3.11,33851,List2B,white,man,,,,,"{""Q0"":""dave is touching jane""}","<img src=""stim_listB/touch1.gif""style=""height:400px;""></stim_listB>",is touching,,,,,,
null,"<div style=""font-size:60px;"">+</div>",,html-keyboard-response,78,439315,0.0-13.0-0.12,33851,List2B,white,man,,,,null,,,,,,,,,
null,"<img src=""stim_listB/hug4.gif""style=""height:400px;""></stim_listB>",,html-keyboard-response,79,441333,0.0-13.0-1.12,33851,List2B,white,man,,,,null,,,,,,,,,
null,is being hugged by,,html-keyboard-response,80,443351,0.0-13.0-2.12,33851,List2B,white,man,,,,null,,,,,,,,,
5416,,,survey-text,81,448775,0.0-13.0-3.12,33851,List2B,white,man,,,,,"{""Q0"":""kate is hugging mike""}","<img src=""stim_listB/hug4.gif""style=""height:400px;""></stim_listB>",is being hugged by,,,,,,
null,"<div style=""font-size:60px;"">+</div>",,html-keyboard-response,82,449283,0.0-13.0-0.13,33851,List2B,white,man,,,,null,,,,,,,,,
null,"<img src=""stim_listB/hug5.gif""style=""height:400px;""></stim_listB>",,html-keyboard-response,83,451298,0.0-13.0-1.13,33851,List2B,white,man,,,,null,,,,,,,,,
null,is hugging,,html-keyboard-response,84,453307,0.0-13.0-2.13,33851,List2B,white,man,,,,null,,,,,,,,,
7550.9,,,survey-text,85,460868,0.0-13.0-3.13,33851,List2B,white,man,,,,,"{""Q0"":""luke is hugging fred""}","<img src=""stim_listB/hug5.gif""style=""height:400px;""></stim_listB>",is hugging,,,,,,
null,"<div style=""font-size:60px;"">+</div>",,html-keyboard-response,86,461380,0.0-13.0-0.14,33851,List2B,white,man,,,,null,,,,,,,,,
null,"<img src=""stim_listB/seduce5.gif""style=""height:400px;""></stim_listB>",,html-keyboard-response,87,463399,0.0-13.0-1.14,33851,List2B,white,man,,,,null,,,,,,,,,
null,is seducing,,html-keyboard-response,88,465403,0.0-13.0-2.14,33851,List2B,white,man,,,,null,,,,,,,,,
5940.3,,,survey-text,89,471351,0.0-13.0-3.14,33851,List2B,white,man,,,,,"{""Q0"":""luke is seducing mike""}","<img src=""stim_listB/seduce5.gif""style=""height:400px;""></stim_listB>",is seducing,,,,,,
null,"<div style=""font-size:60px;"">+</div>",,html-keyboard-response,90,471863,0.0-13.0-0.15,33851,List2B,white,man,,,,null,,,,,,,,,
null,"<img src=""stim_listB/kiss6.gif""style=""height:400px;""></stim_listB>",,html-keyboard-response,91,473871,0.0-13.0-1.15,33851,List2B,white,man,,,,null,,,,,,,,,
null,is being kissed by,,html-keyboard-response,92,475884,0.0-13.0-2.15,33851,List2B,white,man,,,,null,,,,,,,,,
7979.4,,,survey-text,93,483870,0.0-13.0-3.15,33851,List2B,white,man,,,,,"{""Q0"":""mike is being kissed by dave""}","<img src=""stim_listB/kiss6.gif""style=""height:400px;""></stim_listB>",is being kissed by,,,,,,
null,"<div style=""font-size:60px;"">+</div>",,html-keyboard-response,94,484388,0.0-13.0-0.16,33851,List2B,white,man,,,,null,,,,,,,,,
null,"<img src=""stim_listB/seduce8.gif""style=""height:400px;""></stim_listB>",,html-keyboard-response,95,486405,0.0-13.0-1.16,33851,List2B,white,man,,,,null,,,,,,,,,
null,is being seduced by,,html-keyboard-response,96,488413,0.0-13.0-2.16,33851,List2B,white,man,,,,null,,,,,,,,,
8322.2,,,survey-text,97,496743,0.0-13.0-3.16,33851,List2B,white,man,,,,,"{""Q0"":""jane is being seduced by beth""}","<img src=""stim_listB/seduce8.gif""style=""height:400px;""></stim_listB>",is being seduced by,,,,,,
null,"<div style=""font-size:60px;"">+</div>",,html-keyboard-response,98,497252,0.0-13.0-0.17,33851,List2B,white,man,,,,null,,,,,,,,,
null,"<img src=""stim_listB/look3.gif""style=""height:400px;""></stim_listB>",,html-keyboard-response,99,499266,0.0-13.0-1.17,33851,List2B,white,man,,,,null,,,,,,,,,
null,is looking at,,html-keyboard-response,100,501268,0.0-13.0-2.17,33851,List2B,white,man,,,,null,,,,,,,,,
4745.2,,,survey-text,101,506022,0.0-13.0-3.17,33851,List2B,white,man,,,,,"{""Q0"":""beth is looking at fred""}","<img src=""stim_listB/look3.gif""style=""height:400px;""></stim_listB>",is looking at,,,,,,
null,"<div style=""font-size:60px;"">+</div>",,html-keyboard-response,102,506530,0.0-13.0-0.18,33851,List2B,white,man,,,,null,,,,,,,,,
null,"<img src=""stim_listB/copy1.gif""style=""height:400px;""></stim_listB>",,html-keyboard-response,103,508547,0.0-13.0-1.18,33851,List2B,white,man,,,,null,,,,,,,,,
null,is copying,,html-keyboard-response,104,510549,0.0-13.0-2.18,33851,List2B,white,man,,,,null,,,,,,,,,
4350.4,,,survey-text,105,514907,0.0-13.0-3.18,33851,List2B,white,man,,,,,"{""Q0"":""dave is copying beth""}","<img src=""stim_listB/copy1.gif""style=""height:400px;""></stim_listB>",is copying,,,,,,
null,"<div style=""font-size:60px;"">+</div>",,html-keyboard-response,106,515416,0.0-13.0-0.19,33851,List2B,white,man,,,,null,,,,,,,,,
null,"<img src=""stim_listB/oppose1.gif""style=""height:400px;""></stim_listB>",,html-keyboard-response,107,517429,0.0-13.0-1.19,33851,List2B,white,man,,,,null,,,,,,,,,
null,is opposing,,html-keyboard-response,108,519431,0.0-13.0-2.19,33851,List2B,white,man,,,,null,,,,,,,,,
3637.3,,,survey-text,109,523077,0.0-13.0-3.19,33851,List2B,white,man,,,,,"{""Q0"":""dave is opposing jane""}","<img src=""stim_listB/oppose1.gif""style=""height:400px;""></stim_listB>",is opposing,,,,,,
13885.6,"<img src='img/portrait_matrix_list2.jpg' style='width:900px;height:500px;''></img><p>If you have memorised all the portraits and names and are ready to start, press Continue.</p><p><strong>Please note: Your memory of these faces will be tested 4 times during this experiment.</strong></p>",0,html-button-response,110,536968,0.0-14.0-0.0,33851,List2B,white,man,,,,,,,,,,,,,
4262.2,"<img src=""portrait/WM2.jpg""style=""height:400px;""></img>",7,html-button-response,111,542235,0.0-14.0-1.0,33851,List2B,white,man,,TRUE,7,,,,,,,,,,
null,CORRECT,,html-keyboard-response,112,543762,0.0-14.0-2.0-0.0,33851,List2B,white,man,,,,null,,,,,,,,,
2069.2,"<img src=""portrait/WW2.jpg""style=""height:400px;""></img>",3,html-button-response,113,545835,0.0-14.0-4.0,33851,List2B,white,man,,TRUE,3,,,,,,,,,,
null,CORRECT,,html-keyboard-response,114,547371,0.0-14.0-5.0-0.0,33851,List2B,white,man,,,,null,,,,,,,,,
5127,"<img src=""portrait/BW1.jpg""style=""height:400px;""></img>",0,html-button-response,115,552504,0.0-14.0-7.0,33851,List2B,white,man,,TRUE,0,,,,,,,,,,
null,CORRECT,,html-keyboard-response,116,554031,0.0-14.0-8.0-0.0,33851,List2B,white,man,,,,null,,,,,,,,,
2170.1,"<img src=""portrait/BM1.jpg""style=""height:400px;""></img>",4,html-button-response,117,556205,0.0-14.0-10.0,33851,List2B,white,man,,TRUE,4,,,,,,,,,,
null,CORRECT,,html-keyboard-response,118,557732,0.0-14.0-11.0-0.0,33851,List2B,white,man,,,,null,,,,,,,,,
7249.9,"<img src=""portrait/BW2.jpg""style=""height:400px;""></img>",2,html-button-response,119,564985,0.0-14.0-13.0,33851,List2B,white,man,,TRUE,2,,,,,,,,,,
null,CORRECT,,html-keyboard-response,120,566505,0.0-14.0-14.0-0.0,33851,List2B,white,man,,,,null,,,,,,,,,
2451.4,"<img src=""portrait/WM1.jpg""style=""height:400px;""></img>",6,html-button-response,121,568962,0.0-14.0-16.0,33851,List2B,white,man,,TRUE,6,,,,,,,,,,
null,CORRECT,,html-keyboard-response,122,570481,0.0-14.0-17.0-0.0,33851,List2B,white,man,,,,null,,,,,,,,,
2585.4,"<img src=""portrait/WW1.jpg""style=""height:400px;""></img>",1,html-button-response,123,573070,0.0-14.0-19.0,33851,List2B,white,man,,TRUE,1,,,,,,,,,,
null,CORRECT,,html-keyboard-response,124,574583,0.0-14.0-20.0-0.0,33851,List2B,white,man,,,,null,,,,,,,,,
2683.5,"<img src=""portrait/BM2.jpg""style=""height:400px;""></img>",5,html-button-response,125,577270,0.0-14.0-22.0,33851,List2B,white,man,,TRUE,5,,,,,,,,,,
null,CORRECT,,html-keyboard-response,126,578797,0.0-14.0-23.0-0.0,33851,List2B,white,man,,,,null,,,,,,,,,
1853.4,<p>You got 8 out of 8 right first time. Press Continue.</p>,0,html-button-response,127,580654,0.0-14.0-25.0,33851,List2B,white,man,,,,,,,,,,,,,
null,"<div style=""font-size:60px;"">+</div>",,html-keyboard-response,128,582171,0.0-15.0-0.0,33851,List2B,white,man,,,,null,,,,,,,,,
null,"<img src=""stim_listB/greet2.gif""style=""height:400px;""></stim_listB>",,html-keyboard-response,129,584187,0.0-15.0-1.0,33851,List2B,white,man,,,,null,,,,,,,,,
null,is being greeted by,,html-keyboard-response,130,586197,0.0-15.0-2.0,33851,List2B,white,man,,,,null,,,,,,,,,
11490.2,,,survey-text,131,597695,0.0-15.0-3.0,33851,List2B,white,man,,,,,"{""Q0"":""jane is being greeted by luke""}","<img src=""stim_listB/greet2.gif""style=""height:400px;""></stim_listB>",is being greeted by,,,,,,
null,"<div style=""font-size:60px;"">+</div>",,html-keyboard-response,132,598206,0.0-15.0-0.1,33851,List2B,white,man,,,,null,,,,,,,,,
null,"<img src=""stim_listB/challenge2.gif""style=""height:400px;""></stim_listB>",,html-keyboard-response,133,600217,0.0-15.0-1.1,33851,List2B,white,man,,,,null,,,,,,,,,
null,is being challenged by,,html-keyboard-response,134,602219,0.0-15.0-2.1,33851,List2B,white,man,,,,null,,,,,,,,,
4936.6,,,survey-text,135,607164,0.0-15.0-3.1,33851,List2B,white,man,,,,,"{""Q0"":""luke is being challenged by jane""}","<img src=""stim_listB/challenge2.gif""style=""height:400px;""></stim_listB>",is being challenged by,,,,,,
null,"<div style=""font-size:60px;"">+</div>",,html-keyboard-response,136,607673,0.0-15.0-0.2,33851,List2B,white,man,,,,null,,,,,,,,,
null,"<img src=""stim_listB/look6.gif""style=""height:400px;""></stim_listB>",,html-keyboard-response,137,609684,0.0-15.0-1.2,33851,List2B,white,man,,,,null,,,,,,,,,
null,is being looked at by,,html-keyboard-response,138,611690,0.0-15.0-2.2,33851,List2B,white,man,,,,null,,,,,,,,,
5994.6,,,survey-text,139,617693,0.0-15.0-3.2,33851,List2B,white,man,,,,,"{""Q0"":""mike is being looked at by dave""}","<img src=""stim_listB/look6.gif""style=""height:400px;""></stim_listB>",is being looked at by,,,,,,
null,"<div style=""font-size:60px;"">+</div>",,html-keyboard-response,140,618199,0.0-15.0-0.3,33851,List2B,white,man,,,,null,,,,,,,,,
null,"<img src=""stim_listB/challenge6.gif""style=""height:400px;""></stim_listB>",,html-keyboard-response,141,620218,0.0-15.0-1.3,33851,List2B,white,man,,,,null,,,,,,,,,
null,is being challenged by,,html-keyboard-response,142,622229,0.0-15.0-2.3,33851,List2B,white,man,,,,null,,,,,,,,,
5211.2,,,survey-text,143,627448,0.0-15.0-3.3,33851,List2B,white,man,,,,,"{""Q0"":""luke is being challenged by mike""}","<img src=""stim_listB/challenge6.gif""style=""height:400px;""></stim_listB>",is being challenged by,,,,,,
null,"<div style=""font-size:60px;"">+</div>",,html-keyboard-response,144,627963,0.0-15.0-0.4,33851,List2B,white,man,,,,null,,,,,,,,,
null,"<img src=""stim_listB/oppose6.gif""style=""height:400px;""></stim_listB>",,html-keyboard-response,145,629972,0.0-15.0-1.4,33851,List2B,white,man,,,,null,,,,,,,,,
null,is being opposed by,,html-keyboard-response,146,631982,0.0-15.0-2.4,33851,List2B,white,man,,,,null,,,,,,,,,
6040,,,survey-text,147,638032,0.0-15.0-3.4,33851,List2B,white,man,,,,,"{""Q0"":""fred is being opposed by luke""}","<img src=""stim_listB/oppose6.gif""style=""height:400px;""></stim_listB>",is being opposed by,,,,,,
null,"<div style=""font-size:60px;"">+</div>",,html-keyboard-response,148,638545,0.0-15.0-0.5,33851,List2B,white,man,,,,null,,,,,,,,,
null,"<img src=""stim_listB/greet6.gif""style=""height:400px;""></stim_listB>",,html-keyboard-response,149,640559,0.0-15.0-1.5,33851,List2B,white,man,,,,null,,,,,,,,,
null,is being greeted by,,html-keyboard-response,150,642572,0.0-15.0-2.5,33851,List2B,white,man,,,,null,,,,,,,,,
4851,,,survey-text,151,647433,0.0-15.0-3.5,33851,List2B,white,man,,,,,"{""Q0"":""luke is being greeted by mike""}","<img src=""stim_listB/greet6.gif""style=""height:400px;""></stim_listB>",is being greeted by,,,,,,
null,"<div style=""font-size:60px;"">+</div>",,html-keyboard-response,152,647946,0.0-15.0-0.6,33851,List2B,white,man,,,,null,,,,,,,,,
null,"<img src=""stim_listB/hug2.gif""style=""height:400px;""></stim_listB>",,html-keyboard-response,153,649955,0.0-15.0-1.6,33851,List2B,white,man,,,,null,,,,,,,,,
null,is being hugged by,,html-keyboard-response,154,651965,0.0-15.0-2.6,33851,List2B,white,man,,,,null,,,,,,,,,
7193.1,,,survey-text,155,659167,0.0-15.0-3.6,33851,List2B,white,man,,,,,"{""Q0"":""jane is being hugged by dave""}","<img src=""stim_listB/hug2.gif""style=""height:400px;""></stim_listB>",is being hugged by,,,,,,
null,"<div style=""font-size:60px;"">+</div>",,html-keyboard-response,156,659679,0.0-15.0-0.7,33851,List2B,white,man,,,,null,,,,,,,,,
null,"<img src=""stim_listB/seduce7.gif""style=""height:400px;""></stim_listB>",,html-keyboard-response,157,661698,0.0-15.0-1.7,33851,List2B,white,man,,,,null,,,,,,,,,
null,is seducing,,html-keyboard-response,158,663702,0.0-15.0-2.7,33851,List2B,white,man,,,,null,,,,,,,,,
7488.2,,,survey-text,159,671196,0.0-15.0-3.7,33851,List2B,white,man,,,,,"{""Q0"":""ruth is seducing kate""}","<img src=""stim_listB/seduce7.gif""style=""height:400px;""></stim_listB>",is seducing,,,,,,
null,"<div style=""font-size:60px;"">+</div>",,html-keyboard-response,160,671704,0.0-15.0-0.8,33851,List2B,white,man,,,,null,,,,,,,,,
null,"<img src=""stim_listB/touch7.gif""style=""height:400px;""></stim_listB>",,html-keyboard-response,161,673712,0.0-15.0-1.8,33851,List2B,white,man,,,,null,,,,,,,,,
null,is touching,,html-keyboard-response,162,675714,0.0-15.0-2.8,33851,List2B,white,man,,,,null,,,,,,,,,
4132.9,,,survey-text,163,679856,0.0-15.0-3.8,33851,List2B,white,man,,,,,"{""Q0"":""kate is touching jane""}","<img src=""stim_listB/touch7.gif""style=""height:400px;""></stim_listB>",is touching,,,,,,
null,"<div style=""font-size:60px;"">+</div>",,html-keyboard-response,164,680372,0.0-15.0-0.9,33851,List2B,white,man,,,,null,,,,,,,,,
null,"<img src=""stim_listB/copy8.gif""style=""height:400px;""></stim_listB>",,html-keyboard-response,165,682387,0.0-15.0-1.9,33851,List2B,white,man,,,,null,,,,,,,,,
null,is being copied by,,html-keyboard-response,166,684395,0.0-15.0-2.9,33851,List2B,white,man,,,,null,,,,,,,,,
5049.9,,,survey-text,167,689452,0.0-15.0-3.9,33851,List2B,white,man,,,,,"{""Q0"":""ruth is being copied by kate""}","<img src=""stim_listB/copy8.gif""style=""height:400px;""></stim_listB>",is being copied by,,,,,,
null,"<div style=""font-size:60px;"">+</div>",,html-keyboard-response,168,689970,0.0-15.0-0.10,33851,List2B,white,man,,,,null,,,,,,,,,
null,"<img src=""stim_listB/seduce1.gif""style=""height:400px;""></stim_listB>",,html-keyboard-response,169,691981,0.0-15.0-1.10,33851,List2B,white,man,,,,null,,,,,,,,,
null,is seducing,,html-keyboard-response,170,693999,0.0-15.0-2.10,33851,List2B,white,man,,,,null,,,,,,,,,
6682.7,,,survey-text,171,700690,0.0-15.0-3.10,33851,List2B,white,man,,,,,"{""Q0"":""jane is seducing luke""}","<img src=""stim_listB/seduce1.gif""style=""height:400px;""></stim_listB>",is seducing,,,,,,
null,"<div style=""font-size:60px;"">+</div>",,html-keyboard-response,172,701198,0.0-15.0-0.11,33851,List2B,white,man,,,,null,,,,,,,,,
null,"<img src=""stim_listB/look4.gif""style=""height:400px;""></stim_listB>",,html-keyboard-response,173,703214,0.0-15.0-1.11,33851,List2B,white,man,,,,null,,,,,,,,,
null,is being looked at by,,html-keyboard-response,174,705231,0.0-15.0-2.11,33851,List2B,white,man,,,,null,,,,,,,,,
5004.4,,,survey-text,175,710244,0.0-15.0-3.11,33851,List2B,white,man,,,,,"{""Q0"":""mike is being looked at by kate""}","<img src=""stim_listB/look4.gif""style=""height:400px;""></stim_listB>",is being looked at by,,,,,,
null,"<div style=""font-size:60px;"">+</div>",,html-keyboard-response,176,710755,0.0-15.0-0.12,33851,List2B,white,man,,,,null,,,,,,,,,
null,"<img src=""stim_listB/challenge1.gif""style=""height:400px;""></stim_listB>",,html-keyboard-response,177,712768,0.0-15.0-1.12,33851,List2B,white,man,,,,null,,,,,,,,,
null,is challenging,,html-keyboard-response,178,714780,0.0-15.0-2.12,33851,List2B,white,man,,,,null,,,,,,,,,
3989.6,,,survey-text,179,718779,0.0-15.0-3.12,33851,List2B,white,man,,,,,"{""Q0"":""ruth is challenging dave""}","<img src=""stim_listB/challenge1.gif""style=""height:400px;""></stim_listB>",is challenging,,,,,,
null,"<div style=""font-size:60px;"">+</div>",,html-keyboard-response,180,719295,0.0-15.0-0.13,33851,List2B,white,man,,,,null,,,,,,,,,
null,"<img src=""stim_listB/hug7.gif""style=""height:400px;""></stim_listB>",,html-keyboard-response,181,721300,0.0-15.0-1.13,33851,List2B,white,man,,,,null,,,,,,,,,
null,is hugging,,html-keyboard-response,182,723303,0.0-15.0-2.13,33851,List2B,white,man,,,,null,,,,,,,,,
5820.2,,,survey-text,183,729133,0.0-15.0-3.13,33851,List2B,white,man,,,,,"{""Q0"":""beth is being hugged by ruth""}","<img src=""stim_listB/hug7.gif""style=""height:400px;""></stim_listB>",is hugging,,,,,,
null,"<div style=""font-size:60px;"">+</div>",,html-keyboard-response,184,729646,0.0-15.0-0.14,33851,List2B,white,man,,,,null,,,,,,,,,
null,"<img src=""stim_listB/oppose7.gif""style=""height:400px;""></stim_listB>",,html-keyboard-response,185,731654,0.0-15.0-1.14,33851,List2B,white,man,,,,null,,,,,,,,,
null,is opposing,,html-keyboard-response,186,733669,0.0-15.0-2.14,33851,List2B,white,man,,,,null,,,,,,,,,
5048,,,survey-text,187,738727,0.0-15.0-3.14,33851,List2B,white,man,,,,,"{""Q0"":""jane is opposing kate""}","<img src=""stim_listB/oppose7.gif""style=""height:400px;""></stim_listB>",is opposing,,,,,,
null,"<div style=""font-size:60px;"">+</div>",,html-keyboard-response,188,739232,0.0-15.0-0.15,33851,List2B,white,man,,,,null,,,,,,,,,
null,"<img src=""stim_listB/touch8.gif""style=""height:400px;""></stim_listB>",,html-keyboard-response,189,741246,0.0-15.0-1.15,33851,List2B,white,man,,,,null,,,,,,,,,
null,is being touched by,,html-keyboard-response,190,743247,0.0-15.0-2.15,33851,List2B,white,man,,,,null,,,,,,,,,
6071,,,survey-text,191,749327,0.0-15.0-3.15,33851,List2B,white,man,,,,,"{""Q0"":""ruth is being touched by beth""}","<img src=""stim_listB/touch8.gif""style=""height:400px;""></stim_listB>",is being touched by,,,,,,
null,"<div style=""font-size:60px;"">+</div>",,html-keyboard-response,192,749838,0.0-15.0-0.16,33851,List2B,white,man,,,,null,,,,,,,,,
null,"<img src=""stim_listB/copy3.gif""style=""height:400px;""></stim_listB>",,html-keyboard-response,193,751845,0.0-15.0-1.16,33851,List2B,white,man,,,,null,,,,,,,,,
null,is copying,,html-keyboard-response,194,753847,0.0-15.0-2.16,33851,List2B,white,man,,,,null,,,,,,,,,
3150.6,,,survey-text,195,757006,0.0-15.0-3.16,33851,List2B,white,man,,,,,"{""Q0"":""beth is copying mike""}","<img src=""stim_listB/copy3.gif""style=""height:400px;""></stim_listB>",is copying,,,,,,
null,"<div style=""font-size:60px;"">+</div>",,html-keyboard-response,196,757515,0.0-15.0-0.17,33851,List2B,white,man,,,,null,,,,,,,,,
null,"<img src=""stim_listB/kiss8.gif""style=""height:400px;""></stim_listB>",,html-keyboard-response,197,759529,0.0-15.0-1.17,33851,List2B,white,man,,,,null,,,,,,,,,
null,is being kissed by,,html-keyboard-response,198,761546,0.0-15.0-2.17,33851,List2B,white,man,,,,null,,,,,,,,,
4943.3,,,survey-text,199,766497,0.0-15.0-3.17,33851,List2B,white,man,,,,,"{""Q0"":""jane is being kissed by kate""}","<img src=""stim_listB/kiss8.gif""style=""height:400px;""></stim_listB>",is being kissed by,,,,,,
null,"<div style=""font-size:60px;"">+</div>",,html-keyboard-response,200,767012,0.0-15.0-0.18,33851,List2B,white,man,,,,null,,,,,,,,,
null,"<img src=""stim_listB/touch3.gif""style=""height:400px;""></stim_listB>",,html-keyboard-response,201,769017,0.0-15.0-1.18,33851,List2B,white,man,,,,null,,,,,,,,,
null,is touching,,html-keyboard-response,202,771019,0.0-15.0-2.18,33851,List2B,white,man,,,,null,,,,,,,,,
4241.6,,,survey-text,203,775271,0.0-15.0-3.18,33851,List2B,white,man,,,,,"{""Q0"":""kate is touching mike""}","<img src=""stim_listB/touch3.gif""style=""height:400px;""></stim_listB>",is touching,,,,,,
null,"<div style=""font-size:60px;"">+</div>",,html-keyboard-response,204,775780,0.0-15.0-0.19,33851,List2B,white,man,,,,null,,,,,,,,,
null,"<img src=""stim_listB/greet8.gif""style=""height:400px;""></stim_listB>",,html-keyboard-response,205,777784,0.0-15.0-1.19,33851,List2B,white,man,,,,null,,,,,,,,,
null,is being greeted by,,html-keyboard-response,206,779795,0.0-15.0-2.19,33851,List2B,white,man,,,,null,,,,,,,,,
6802.8,,,survey-text,207,786605,0.0-15.0-3.19,33851,List2B,white,man,,,,,"{""Q0"":""ruth is being greeted by kate""}","<img src=""stim_listB/greet8.gif""style=""height:400px;""></stim_listB>",is being greeted by,,,,,,
3339.4,"<img src='img/portrait_matrix_list2.jpg' style='width:900px;height:500px;''></img><p>If you have memorised all the portraits and names and are ready to start, press Continue.</p><p><strong>Please note: Your memory of these faces will be tested 4 times during this experiment.</strong></p>",0,html-button-response,208,789952,0.0-16.0-0.0,33851,List2B,white,man,,,,,,,,,,,,,
3946.8,"<img src=""portrait/BM1.jpg""style=""height:400px;""></img>",4,html-button-response,209,794911,0.0-16.0-1.0,33851,List2B,white,man,,TRUE,4,,,,,,,,,,
null,CORRECT,,html-keyboard-response,210,796431,0.0-16.0-2.0-0.0,33851,List2B,white,man,,,,null,,,,,,,,,
3733.1,"<img src=""portrait/BW1.jpg""style=""height:400px;""></img>",0,html-button-response,211,800168,0.0-16.0-4.0,33851,List2B,white,man,,TRUE,0,,,,,,,,,,
null,CORRECT,,html-keyboard-response,212,801681,0.0-16.0-5.0-0.0,33851,List2B,white,man,,,,null,,,,,,,,,
3415.5,"<img src=""portrait/WW2.jpg""style=""height:400px;""></img>",3,html-button-response,213,805100,0.0-16.0-7.0,33851,List2B,white,man,,TRUE,3,,,,,,,,,,
null,CORRECT,,html-keyboard-response,214,806627,0.0-16.0-8.0-0.0,33851,List2B,white,man,,,,null,,,,,,,,,
2270,"<img src=""portrait/WM1.jpg""style=""height:400px;""></img>",6,html-button-response,215,808901,0.0-16.0-10.0,33851,List2B,white,man,,TRUE,6,,,,,,,,,,
null,CORRECT,,html-keyboard-response,216,810428,0.0-16.0-11.0-0.0,33851,List2B,white,man,,,,null,,,,,,,,,
2118.6,"<img src=""portrait/WM2.jpg""style=""height:400px;""></img>",7,html-button-response,217,812551,0.0-16.0-13.0,33851,List2B,white,man,,TRUE,7,,,,,,,,,,
null,CORRECT,,html-keyboard-response,218,814065,0.0-16.0-14.0-0.0,33851,List2B,white,man,,,,null,,,,,,,,,
3015,"<img src=""portrait/BW2.jpg""style=""height:400px;""></img>",2,html-button-response,219,817084,0.0-16.0-16.0,33851,List2B,white,man,,TRUE,2,,,,,,,,,,
null,CORRECT,,html-keyboard-response,220,818610,0.0-16.0-17.0-0.0,33851,List2B,white,man,,,,null,,,,,,,,,
2018.8,"<img src=""portrait/BM2.jpg""style=""height:400px;""></img>",5,html-button-response,221,820633,0.0-16.0-19.0,33851,List2B,white,man,,TRUE,5,,,,,,,,,,
null,CORRECT,,html-keyboard-response,222,822161,0.0-16.0-20.0-0.0,33851,List2B,white,man,,,,null,,,,,,,,,
1835.1,"<img src=""portrait/WW1.jpg""style=""height:400px;""></img>",1,html-button-response,223,824000,0.0-16.0-22.0,33851,List2B,white,man,,TRUE,1,,,,,,,,,,
null,CORRECT,,html-keyboard-response,224,825527,0.0-16.0-23.0-0.0,33851,List2B,white,man,,,,null,,,,,,,,,
2152.7,<p>You got 8 out of 8 right first time. Press Continue.</p>,0,html-button-response,225,827684,0.0-16.0-25.0,33851,List2B,white,man,,,,,,,,,,,,,
null,"<div style=""font-size:60px;"">+</div>",,html-keyboard-response,226,829212,0.0-17.0-0.0,33851,List2B,white,man,,,,null,,,,,,,,,
null,"<img src=""stim_listB/shout5.gif""style=""height:400px;""></stim_listB>",,html-keyboard-response,227,831228,0.0-17.0-1.0,33851,List2B,white,man,,,,null,,,,,,,,,
null,is shouting at,,html-keyboard-response,228,833246,0.0-17.0-2.0,33851,List2B,white,man,,,,null,,,,,,,,,
4395.1,,,survey-text,229,837652,0.0-17.0-3.0,33851,List2B,white,man,,,,,"{""Q0"":""fred is shouting at luke""}","<img src=""stim_listB/shout5.gif""style=""height:400px;""></stim_listB>",is shouting at,,,,,,
null,"<div style=""font-size:60px;"">+</div>",,html-keyboard-response,230,838161,0.0-17.0-0.1,33851,List2B,white,man,,,,null,,,,,,,,,
null,"<img src=""stim_listB/shout7.gif""style=""height:400px;""></stim_listB>",,html-keyboard-response,231,840165,0.0-17.0-1.1,33851,List2B,white,man,,,,null,,,,,,,,,
null,is shouting at,,html-keyboard-response,232,842177,0.0-17.0-2.1,33851,List2B,white,man,,,,null,,,,,,,,,
3863.2,,,survey-text,233,846046,0.0-17.0-3.1,33851,List2B,white,man,,,,,"{""Q0"":""beth is shouting at ruth""}","<img src=""stim_listB/shout7.gif""style=""height:400px;""></stim_listB>",is shouting at,,,,,,
null,"<div style=""font-size:60px;"">+</div>",,html-keyboard-response,234,846550,0.0-17.0-0.2,33851,List2B,white,man,,,,null,,,,,,,,,
null,"<img src=""stim_listB/copy4.gif""style=""height:400px;""></stim_listB>",,html-keyboard-response,235,848563,0.0-17.0-1.2,33851,List2B,white,man,,,,null,,,,,,,,,
null,is being copied by,,html-keyboard-response,236,850573,0.0-17.0-2.2,33851,List2B,white,man,,,,null,,,,,,,,,
7365.8,,,survey-text,237,857947,0.0-17.0-3.2,33851,List2B,white,man,,,,,"{""Q0"":""fred is being copied by kate""}","<img src=""stim_listB/copy4.gif""style=""height:400px;""></stim_listB>",is being copied by,,,,,,
null,"<div style=""font-size:60px;"">+</div>",,html-keyboard-response,238,858459,0.0-17.0-0.3,33851,List2B,white,man,,,,null,,,,,,,,,
null,"<img src=""stim_listB/kiss3.gif""style=""height:400px;""></stim_listB>",,html-keyboard-response,239,860463,0.0-17.0-1.3,33851,List2B,white,man,,,,null,,,,,,,,,
null,is kissing,,html-keyboard-response,240,862465,0.0-17.0-2.3,33851,List2B,white,man,,,,null,,,,,,,,,
5338.1,,,survey-text,241,867811,0.0-17.0-3.3,33851,List2B,white,man,,,,,"{""Q0"":""fred is kissing beth""}","<img src=""stim_listB/kiss3.gif""style=""height:400px;""></stim_listB>",is kissing,,,,,,
null,"<div style=""font-size:60px;"">+</div>",,html-keyboard-response,242,868327,0.0-17.0-0.4,33851,List2B,white,man,,,,null,,,,,,,,,
null,"<img src=""stim_listB/seduce3.gif""style=""height:400px;""></stim_listB>",,html-keyboard-response,243,870345,0.0-17.0-1.4,33851,List2B,white,man,,,,null,,,,,,,,,
null,is seducing,,html-keyboard-response,244,872347,0.0-17.0-2.4,33851,List2B,white,man,,,,null,,,,,,,,,
4643.4,,,survey-text,245,876999,0.0-17.0-3.4,33851,List2B,white,man,,,,,"{""Q0"":""jane is seducing fred""}","<img src=""stim_listB/seduce3.gif""style=""height:400px;""></stim_listB>",is seducing,,,,,,
null,"<div style=""font-size:60px;"">+</div>",,html-keyboard-response,246,877516,0.0-17.0-0.5,33851,List2B,white,man,,,,null,,,,,,,,,
null,"<img src=""stim_listB/look5.gif""style=""height:400px;""></stim_listB>",,html-keyboard-response,247,879524,0.0-17.0-1.5,33851,List2B,white,man,,,,null,,,,,,,,,
null,is looking at,,html-keyboard-response,248,881529,0.0-17.0-2.5,33851,List2B,white,man,,,,null,,,,,,,,,
3553.4,,,survey-text,249,885091,0.0-17.0-3.5,33851,List2B,white,man,,,,,"{""Q0"":""luke is looking at fred""}","<img src=""stim_listB/look5.gif""style=""height:400px;""></stim_listB>",is looking at,,,,,,
null,"<div style=""font-size:60px;"">+</div>",,html-keyboard-response,250,885599,0.0-17.0-0.6,33851,List2B,white,man,,,,null,,,,,,,,,
null,"<img src=""stim_listB/seduce2.gif""style=""height:400px;""></stim_listB>",,html-keyboard-response,251,887612,0.0-17.0-1.6,33851,List2B,white,man,,,,null,,,,,,,,,
null,is being seduced by,,html-keyboard-response,252,889615,0.0-17.0-2.6,33851,List2B,white,man,,,,null,,,,,,,,,
4185.4,,,survey-text,253,893809,0.0-17.0-3.6,33851,List2B,white,man,,,,,"{""Q0"":""dave is being seduced by ruth""}","<img src=""stim_listB/seduce2.gif""style=""height:400px;""></stim_listB>",is being seduced by,,,,,,
null,"<div style=""font-size:60px;"">+</div>",,html-keyboard-response,254,894317,0.0-17.0-0.7,33851,List2B,white,man,,,,null,,,,,,,,,
null,"<img src=""stim_listB/copy2.gif""style=""height:400px;""></stim_listB>",,html-keyboard-response,255,896325,0.0-17.0-1.7,33851,List2B,white,man,,,,null,,,,,,,,,
null,is being copied by,,html-keyboard-response,256,898327,0.0-17.0-2.7,33851,List2B,white,man,,,,null,,,,,,,,,
4523.6,,,survey-text,257,902858,0.0-17.0-3.7,33851,List2B,white,man,,,,,"{""Q0"":""jane is being copied by luke""}","<img src=""stim_listB/copy2.gif""style=""height:400px;""></stim_listB>",is being copied by,,,,,,
null,"<div style=""font-size:60px;"">+</div>",,html-keyboard-response,258,903374,0.0-17.0-0.8,33851,List2B,white,man,,,,null,,,,,,,,,
null,"<img src=""stim_listB/seduce4.gif""style=""height:400px;""></stim_listB>",,html-keyboard-response,259,905379,0.0-17.0-1.8,33851,List2B,white,man,,,,null,,,,,,,,,
null,is being seduced by,,html-keyboard-response,260,907381,0.0-17.0-2.8,33851,List2B,white,man,,,,null,,,,,,,,,
10188.5,,,survey-text,261,917580,0.0-17.0-3.8,33851,List2B,white,man,,,,,"{""Q0"":""mike is seducing beth""}","<img src=""stim_listB/seduce4.gif""style=""height:400px;""></stim_listB>",is being seduced by,,,,,,
null,"<div style=""font-size:60px;"">+</div>",,html-keyboard-response,262,918094,0.0-17.0-0.9,33851,List2B,white,man,,,,null,,,,,,,,,
null,"<img src=""stim_listB/shout6.gif""style=""height:400px;""></stim_listB>",,html-keyboard-response,263,920102,0.0-17.0-1.9,33851,List2B,white,man,,,,null,,,,,,,,,
null,is being shouted at by,,html-keyboard-response,264,922110,0.0-17.0-2.9,33851,List2B,white,man,,,,null,,,,,,,,,
6028.6,,,survey-text,265,928147,0.0-17.0-3.9,33851,List2B,white,man,,,,,"{""Q0"":""mike is being shouted at by dave""}","<img src=""stim_listB/shout6.gif""style=""height:400px;""></stim_listB>",is being shouted at by,,,,,,
null,"<div style=""font-size:60px;"">+</div>",,html-keyboard-response,266,928660,0.0-17.0-0.10,33851,List2B,white,man,,,,null,,,,,,,,,
null,"<img src=""stim_listB/copy5.gif""style=""height:400px;""></stim_listB>",,html-keyboard-response,267,930665,0.0-17.0-1.10,33851,List2B,white,man,,,,null,,,,,,,,,
null,is copying,,html-keyboard-response,268,932667,0.0-17.0-2.10,33851,List2B,white,man,,,,null,,,,,,,,,
6997.1,,,survey-text,269,939672,0.0-17.0-3.10,33851,List2B,white,man,,,,,"{""Q0"":""fred is copying dave""}","<img src=""stim_listB/copy5.gif""style=""height:400px;""></stim_listB>",is copying,,,,,,
null,"<div style=""font-size:60px;"">+</div>",,html-keyboard-response,270,940189,0.0-17.0-0.11,33851,List2B,white,man,,,,null,,,,,,,,,
null,"<img src=""stim_listB/touch4.gif""style=""height:400px;""></stim_listB>",,html-keyboard-response,271,942197,0.0-17.0-1.11,33851,List2B,white,man,,,,null,,,,,,,,,
null,is being touched by,,html-keyboard-response,272,944200,0.0-17.0-2.11,33851,List2B,white,man,,,,null,,,,,,,,,
6172.2,,,survey-text,273,950385,0.0-17.0-3.11,33851,List2B,white,man,,,,,"{""Q0"":""fred is being touched by beth""}","<img src=""stim_listB/touch4.gif""style=""height:400px;""></stim_listB>",is being touched by,,,,,,
null,"<div style=""font-size:60px;"">+</div>",,html-keyboard-response,274,950897,0.0-17.0-0.12,33851,List2B,white,man,,,,null,,,,,,,,,
null,"<img src=""stim_listB/oppose8.gif""style=""height:400px;""></stim_listB>",,html-keyboard-response,275,952910,0.0-17.0-1.12,33851,List2B,white,man,,,,null,,,,,,,,,
null,is being opposed by,,html-keyboard-response,276,954912,0.0-17.0-2.12,33851,List2B,white,man,,,,null,,,,,,,,,
6394.7,,,survey-text,277,961315,0.0-17.0-3.12,33851,List2B,white,man,,,,,"{""Q0"":""ruth is being opposed by beth""}","<img src=""stim_listB/oppose8.gif""style=""height:400px;""></stim_listB>",is being opposed by,,,,,,
null,"<div style=""font-size:60px;"">+</div>",,html-keyboard-response,278,961827,0.0-17.0-0.13,33851,List2B,white,man,,,,null,,,,,,,,,
null,"<img src=""stim_listB/hug6.gif""style=""height:400px;""></stim_listB>",,html-keyboard-response,279,963835,0.0-17.0-1.13,33851,List2B,white,man,,,,null,,,,,,,,,
null,is being hugged by,,html-keyboard-response,280,965843,0.0-17.0-2.13,33851,List2B,white,man,,,,null,,,,,,,,,
6028.3,,,survey-text,281,971879,0.0-17.0-3.13,33851,List2B,white,man,,,,,"{""Q0"":""dave is being hugged by mike""}","<img src=""stim_listB/hug6.gif""style=""height:400px;""></stim_listB>",is being hugged by,,,,,,
null,"<div style=""font-size:60px;"">+</div>",,html-keyboard-response,282,972393,0.0-17.0-0.14,33851,List2B,white,man,,,,null,,,,,,,,,
null,"<img src=""stim_listB/touch5.gif""style=""height:400px;""></stim_listB>",,html-keyboard-response,283,974401,0.0-17.0-1.14,33851,List2B,white,man,,,,null,,,,,,,,,
null,is touching,,html-keyboard-response,284,976410,0.0-17.0-2.14,33851,List2B,white,man,,,,null,,,,,,,,,
3666,,,survey-text,285,980083,0.0-17.0-3.14,33851,List2B,white,man,,,,,"{""Q0"":""dave is touching mike""}","<img src=""stim_listB/touch5.gif""style=""height:400px;""></stim_listB>",is touching,,,,,,
null,"<div style=""font-size:60px;"">+</div>",,html-keyboard-response,286,980600,0.0-17.0-0.15,33851,List2B,white,man,,,,null,,,,,,,,,
null,"<img src=""stim_listB/hug1.gif""style=""height:400px;""></stim_listB>",,html-keyboard-response,287,982614,0.0-17.0-1.15,33851,List2B,white,man,,,,null,,,,,,,,,
null,is hugging,,html-keyboard-response,288,984632,0.0-17.0-2.15,33851,List2B,white,man,,,,null,,,,,,,,,
3732.6,,,survey-text,289,988373,0.0-17.0-3.15,33851,List2B,white,man,,,,,"{""Q0"":""ruth is hugging luke""}","<img src=""stim_listB/hug1.gif""style=""height:400px;""></stim_listB>",is hugging,,,,,,
null,"<div style=""font-size:60px;"">+</div>",,html-keyboard-response,290,988882,0.0-17.0-0.16,33851,List2B,white,man,,,,null,,,,,,,,,
null,"<img src=""stim_listB/hug3.gif""style=""height:400px;""></stim_listB>",,html-keyboard-response,291,990894,0.0-17.0-1.16,33851,List2B,white,man,,,,null,,,,,,,,,
null,is hugging,,html-keyboard-response,292,992897,0.0-17.0-2.16,33851,List2B,white,man,,,,null,,,,,,,,,
4007.7,,,survey-text,293,996914,0.0-17.0-3.16,33851,List2B,white,man,,,,,"{""Q0"":""beth is hugging fred""}","<img src=""stim_listB/hug3.gif""style=""height:400px;""></stim_listB>",is hugging,,,,,,
null,"<div style=""font-size:60px;"">+</div>",,html-keyboard-response,294,997427,0.0-17.0-0.17,33851,List2B,white,man,,,,null,,,,,,,,,
null,"<img src=""stim_listB/greet1.gif""style=""height:400px;""></stim_listB>",,html-keyboard-response,295,999432,0.0-17.0-1.17,33851,List2B,white,man,,,,null,,,,,,,,,
null,is greeting,,html-keyboard-response,296,1001444,0.0-17.0-2.17,33851,List2B,white,man,,,,null,,,,,,,,,
3250.2,,,survey-text,297,1004702,0.0-17.0-3.17,33851,List2B,white,man,,,,,"{""Q0"":""ruth is greeting dave""}","<img src=""stim_listB/greet1.gif""style=""height:400px;""></stim_listB>",is greeting,,,,,,
null,"<div style=""font-size:60px;"">+</div>",,html-keyboard-response,298,1005218,0.0-17.0-0.18,33851,List2B,white,man,,,,null,,,,,,,,,
null,"<img src=""stim_listB/challenge7.gif""style=""height:400px;""></stim_listB>",,html-keyboard-response,299,1007236,0.0-17.0-1.18,33851,List2B,white,man,,,,null,,,,,,,,,
null,is challenging,,html-keyboard-response,300,1009246,0.0-17.0-2.18,33851,List2B,white,man,,,,null,,,,,,,,,
4200.9,,,survey-text,301,1013456,0.0-17.0-3.18,33851,List2B,white,man,,,,,"{""Q0"":""beth is challenging jane""}","<img src=""stim_listB/challenge7.gif""style=""height:400px;""></stim_listB>",is challenging,,,,,,
null,"<div style=""font-size:60px;"">+</div>",,html-keyboard-response,302,1013965,0.0-17.0-0.19,33851,List2B,white,man,,,,null,,,,,,,,,
null,"<img src=""stim_listB/oppose3.gif""style=""height:400px;""></stim_listB>",,html-keyboard-response,303,1015979,0.0-17.0-1.19,33851,List2B,white,man,,,,null,,,,,,,,,
null,is opposing,,html-keyboard-response,304,1017984,0.0-17.0-2.19,33851,List2B,white,man,,,,null,,,,,,,,,
4971.5,,,survey-text,305,1022966,0.0-17.0-3.19,33851,List2B,white,man,,,,,"{""Q0"":""jane is opposing mike""}","<img src=""stim_listB/oppose3.gif""style=""height:400px;""></stim_listB>",is opposing,,,,,,
2311.5,"<img src='img/portrait_matrix_list2.jpg' style='width:900px;height:500px;''></img><p>If you have memorised all the portraits and names and are ready to start, press Continue.</p><p><strong>Please note: Your memory of these faces will be tested 4 times during this experiment.</strong></p>",0,html-button-response,306,1025283,0.0-18.0-0.0,33851,List2B,white,man,,,,,,,,,,,,,
3022.1,"<img src=""portrait/BM1.jpg""style=""height:400px;""></img>",4,html-button-response,307,1029317,0.0-18.0-1.0,33851,List2B,white,man,,TRUE,4,,,,,,,,,,
null,CORRECT,,html-keyboard-response,308,1030843,0.0-18.0-2.0-0.0,33851,List2B,white,man,,,,null,,,,,,,,,
1736.5,"<img src=""portrait/WW2.jpg""style=""height:400px;""></img>",3,html-button-response,309,1032584,0.0-18.0-4.0,33851,List2B,white,man,,TRUE,3,,,,,,,,,,
null,CORRECT,,html-keyboard-response,310,1034096,0.0-18.0-5.0-0.0,33851,List2B,white,man,,,,null,,,,,,,,,
2249.5,"<img src=""portrait/WM1.jpg""style=""height:400px;""></img>",6,html-button-response,311,1036350,0.0-18.0-7.0,33851,List2B,white,man,,TRUE,6,,,,,,,,,,
null,CORRECT,,html-keyboard-response,312,1037874,0.0-18.0-8.0-0.0,33851,List2B,white,man,,,,null,,,,,,,,,
1720,"<img src=""portrait/WW1.jpg""style=""height:400px;""></img>",1,html-button-response,313,1039598,0.0-18.0-10.0,33851,List2B,white,man,,TRUE,1,,,,,,,,,,
null,CORRECT,,html-keyboard-response,314,1041109,0.0-18.0-11.0-0.0,33851,List2B,white,man,,,,null,,,,,,,,,
2704,"<img src=""portrait/BM2.jpg""style=""height:400px;""></img>",5,html-button-response,315,1043817,0.0-18.0-13.0,33851,List2B,white,man,,TRUE,5,,,,,,,,,,
null,CORRECT,,html-keyboard-response,316,1045326,0.0-18.0-14.0-0.0,33851,List2B,white,man,,,,null,,,,,,,,,
2083.5,"<img src=""portrait/BW1.jpg""style=""height:400px;""></img>",0,html-button-response,317,1047413,0.0-18.0-16.0,33851,List2B,white,man,,TRUE,0,,,,,,,,,,
null,CORRECT,,html-keyboard-response,318,1048940,0.0-18.0-17.0-0.0,33851,List2B,white,man,,,,null,,,,,,,,,
2170.4,"<img src=""portrait/BW2.jpg""style=""height:400px;""></img>",2,html-button-response,319,1051114,0.0-18.0-19.0,33851,List2B,white,man,,TRUE,2,,,,,,,,,,
null,CORRECT,,html-keyboard-response,320,1052625,0.0-18.0-20.0-0.0,33851,List2B,white,man,,,,null,,,,,,,,,
1334.7,"<img src=""portrait/WM2.jpg""style=""height:400px;""></img>",7,html-button-response,321,1053964,0.0-18.0-22.0,33851,List2B,white,man,,TRUE,7,,,,,,,,,,
null,CORRECT,,html-keyboard-response,322,1055490,0.0-18.0-23.0-0.0,33851,List2B,white,man,,,,null,,,,,,,,,
1218.9,<p>You got 8 out of 8 right first time. Press Continue.</p>,0,html-button-response,323,1056713,0.0-18.0-25.0,33851,List2B,white,man,,,,,,,,,,,,,
null,"<div style=""font-size:60px;"">+</div>",,html-keyboard-response,324,1058240,0.0-19.0-0.0,33851,List2B,white,man,,,,null,,,,,,,,,
null,"<img src=""stim_listB/kiss7.gif""style=""height:400px;""></stim_listB>",,html-keyboard-response,325,1060260,0.0-19.0-1.0,33851,List2B,white,man,,,,null,,,,,,,,,
null,is kissing,,html-keyboard-response,326,1062276,0.0-19.0-2.0,33851,List2B,white,man,,,,null,,,,,,,,,
9238.4,,,survey-text,327,1071523,0.0-19.0-3.0,33851,List2B,white,man,,,,,"{""Q0"":""beth and jane are kissing""}","<img src=""stim_listB/kiss7.gif""style=""height:400px;""></stim_listB>",is kissing,,,,,,
null,"<div style=""font-size:60px;"">+</div>",,html-keyboard-response,328,1072032,0.0-19.0-0.1,33851,List2B,white,man,,,,null,,,,,,,,,
null,"<img src=""stim_listB/shout1.gif""style=""height:400px;""></stim_listB>",,html-keyboard-response,329,1074048,0.0-19.0-1.1,33851,List2B,white,man,,,,null,,,,,,,,,
null,is shouting at,,html-keyboard-response,330,1076064,0.0-19.0-2.1,33851,List2B,white,man,,,,null,,,,,,,,,
5029,,,survey-text,331,1081103,0.0-19.0-3.1,33851,List2B,white,man,,,,,"{""Q0"":""luke is shouting at ruth""}","<img src=""stim_listB/shout1.gif""style=""height:400px;""></stim_listB>",is shouting at,,,,,,
null,"<div style=""font-size:60px;"">+</div>",,html-keyboard-response,332,1081611,0.0-19.0-0.2,33851,List2B,white,man,,,,null,,,,,,,,,
null,"<img src=""stim_listB/kiss1.gif""style=""height:400px;""></stim_listB>",,html-keyboard-response,333,1083630,0.0-19.0-1.2,33851,List2B,white,man,,,,null,,,,,,,,,
null,is kissing,,html-keyboard-response,334,1085640,0.0-19.0-2.2,33851,List2B,white,man,,,,null,,,,,,,,,
3085.5,,,survey-text,335,1088733,0.0-19.0-3.2,33851,List2B,white,man,,,,,"{""Q0"":""luke is kissing ruth""}","<img src=""stim_listB/kiss1.gif""style=""height:400px;""></stim_listB>",is kissing,,,,,,
null,"<div style=""font-size:60px;"">+</div>",,html-keyboard-response,336,1089241,0.0-19.0-0.3,33851,List2B,white,man,,,,null,,,,,,,,,
null,"<img src=""stim_listB/hug8.gif""style=""height:400px;""></stim_listB>",,html-keyboard-response,337,1091257,0.0-19.0-1.3,33851,List2B,white,man,,,,null,,,,,,,,,
null,is being hugged by,,html-keyboard-response,338,1093260,0.0-19.0-2.3,33851,List2B,white,man,,,,null,,,,,,,,,
4638.8,,,survey-text,339,1097907,0.0-19.0-3.3,33851,List2B,white,man,,,,,"{""Q0"":""jane is being hugged by kate""}","<img src=""stim_listB/hug8.gif""style=""height:400px;""></stim_listB>",is being hugged by,,,,,,
null,"<div style=""font-size:60px;"">+</div>",,html-keyboard-response,340,1098424,0.0-19.0-0.4,33851,List2B,white,man,,,,null,,,,,,,,,
null,"<img src=""stim_listB/seduce6.gif""style=""height:400px;""></stim_listB>",,html-keyboard-response,341,1100440,0.0-19.0-1.4,33851,List2B,white,man,,,,null,,,,,,,,,
null,is being seduced by,,html-keyboard-response,342,1102458,0.0-19.0-2.4,33851,List2B,white,man,,,,null,,,,,,,,,
5237.2,,,survey-text,343,1107703,0.0-19.0-3.4,33851,List2B,white,man,,,,,"{""Q0"":""fred is being seduced by dave""}","<img src=""stim_listB/seduce6.gif""style=""height:400px;""></stim_listB>",is being seduced by,,,,,,
null,"<div style=""font-size:60px;"">+</div>",,html-keyboard-response,344,1108213,0.0-19.0-0.5,33851,List2B,white,man,,,,null,,,,,,,,,
null,"<img src=""stim_listB/look1.gif""style=""height:400px;""></stim_listB>",,html-keyboard-response,345,1110223,0.0-19.0-1.5,33851,List2B,white,man,,,,null,,,,,,,,,
null,is looking at,,html-keyboard-response,346,1112241,0.0-19.0-2.5,33851,List2B,white,man,,,,null,,,,,,,,,
9104,,,survey-text,347,1121352,0.0-19.0-3.5,33851,List2B,white,man,,,,,"{""Q0"":""ruth is looking at luke""}","<img src=""stim_listB/look1.gif""style=""height:400px;""></stim_listB>",is looking at,,,,,,
null,"<div style=""font-size:60px;"">+</div>",,html-keyboard-response,348,1121861,0.0-19.0-0.6,33851,List2B,white,man,,,,null,,,,,,,,,
null,"<img src=""stim_listB/oppose4.gif""style=""height:400px;""></stim_listB>",,html-keyboard-response,349,1123878,0.0-19.0-1.6,33851,List2B,white,man,,,,null,,,,,,,,,
null,is being opposed by,,html-keyboard-response,350,1125881,0.0-19.0-2.6,33851,List2B,white,man,,,,null,,,,,,,,,
6041.4,,,survey-text,351,1131932,0.0-19.0-3.6,33851,List2B,white,man,,,,,"{""Q0"":""fred is being opposed by beth""}","<img src=""stim_listB/oppose4.gif""style=""height:400px;""></stim_listB>",is being opposed by,,,,,,
null,"<div style=""font-size:60px;"">+</div>",,html-keyboard-response,352,1132449,0.0-19.0-0.7,33851,List2B,white,man,,,,null,,,,,,,,,
null,"<img src=""stim_listB/greet5.gif""style=""height:400px;""></stim_listB>",,html-keyboard-response,353,1134460,0.0-19.0-1.7,33851,List2B,white,man,,,,null,,,,,,,,,
null,is greeting,,html-keyboard-response,354,1136478,0.0-19.0-2.7,33851,List2B,white,man,,,,null,,,,,,,,,
4271.4,,,survey-text,355,1140766,0.0-19.0-3.7,33851,List2B,white,man,,,,,"{""Q0"":""fred is greeting dave""}","<img src=""stim_listB/greet5.gif""style=""height:400px;""></stim_listB>",is greeting,,,,,,
null,"<div style=""font-size:60px;"">+</div>",,html-keyboard-response,356,1141274,0.0-19.0-0.8,33851,List2B,white,man,,,,null,,,,,,,,,
null,"<img src=""stim_listB/challenge4.gif""style=""height:400px;""></stim_listB>",,html-keyboard-response,357,1143282,0.0-19.0-1.8,33851,List2B,white,man,,,,null,,,,,,,,,
null,is being challenged by,,html-keyboard-response,358,1145292,0.0-19.0-2.8,33851,List2B,white,man,,,,null,,,,,,,,,
5835.2,,,survey-text,359,1151136,0.0-19.0-3.8,33851,List2B,white,man,,,,,"{""Q0"":""fred is being challenged by kate""}","<img src=""stim_listB/challenge4.gif""style=""height:400px;""></stim_listB>",is being challenged by,,,,,,
null,"<div style=""font-size:60px;"">+</div>",,html-keyboard-response,360,1151644,0.0-19.0-0.9,33851,List2B,white,man,,,,null,,,,,,,,,
null,"<img src=""stim_listB/greet4.gif""style=""height:400px;""></stim_listB>",,html-keyboard-response,361,1153663,0.0-19.0-1.9,33851,List2B,white,man,,,,null,,,,,,,,,
null,is being greeted by,,html-keyboard-response,362,1155673,0.0-19.0-2.9,33851,List2B,white,man,,,,null,,,,,,,,,
4967.8,,,survey-text,363,1160649,0.0-19.0-3.9,33851,List2B,white,man,,,,,"{""Q0"":""fred is being greeted by kate""}","<img src=""stim_listB/greet4.gif""style=""height:400px;""></stim_listB>",is being greeted by,,,,,,
null,"<div style=""font-size:60px;"">+</div>",,html-keyboard-response,364,1161158,0.0-19.0-0.10,33851,List2B,white,man,,,,null,,,,,,,,,
null,"<img src=""stim_listB/touch2.gif""style=""height:400px;""></stim_listB>",,html-keyboard-response,365,1163164,0.0-19.0-1.10,33851,List2B,white,man,,,,null,,,,,,,,,
null,is being touched by,,html-keyboard-response,366,1165168,0.0-19.0-2.10,33851,List2B,white,man,,,,null,,,,,,,,,
4397.4,,,survey-text,367,1169574,0.0-19.0-3.10,33851,List2B,white,man,,,,,"{""Q0"":""luke is being touched by ruth""}","<img src=""stim_listB/touch2.gif""style=""height:400px;""></stim_listB>",is being touched by,,,,,,
null,"<div style=""font-size:60px;"">+</div>",,html-keyboard-response,368,1170082,0.0-19.0-0.11,33851,List2B,white,man,,,,null,,,,,,,,,
null,"<img src=""stim_listB/touch6.gif""style=""height:400px;""></stim_listB>",,html-keyboard-response,369,1172094,0.0-19.0-1.11,33851,List2B,white,man,,,,null,,,,,,,,,
null,is being touched by,,html-keyboard-response,370,1174108,0.0-19.0-2.11,33851,List2B,white,man,,,,null,,,,,,,,,
5745.6,,,survey-text,371,1179863,0.0-19.0-3.11,33851,List2B,white,man,,,,,"{""Q0"":""luke is being touched by fred""}","<img src=""stim_listB/touch6.gif""style=""height:400px;""></stim_listB>",is being touched by,,,,,,
null,"<div style=""font-size:60px;"">+</div>",,html-keyboard-response,372,1180382,0.0-19.0-0.12,33851,List2B,white,man,,,,null,,,,,,,,,
null,"<img src=""stim_listB/look8.gif""style=""height:400px;""></stim_listB>",,html-keyboard-response,373,1182394,0.0-19.0-1.12,33851,List2B,white,man,,,,null,,,,,,,,,
null,is being looked at by,,html-keyboard-response,374,1184405,0.0-19.0-2.12,33851,List2B,white,man,,,,null,,,,,,,,,
4180.5,,,survey-text,375,1188594,0.0-19.0-3.12,33851,List2B,white,man,,,,,"{""Q0"":""kate is being looked at by jane""}","<img src=""stim_listB/look8.gif""style=""height:400px;""></stim_listB>",is being looked at by,,,,,,
null,"<div style=""font-size:60px;"">+</div>",,html-keyboard-response,376,1189106,0.0-19.0-0.13,33851,List2B,white,man,,,,null,,,,,,,,,
null,"<img src=""stim_listB/copy7.gif""style=""height:400px;""></stim_listB>",,html-keyboard-response,377,1191114,0.0-19.0-1.13,33851,List2B,white,man,,,,null,,,,,,,,,
null,is copying,,html-keyboard-response,378,1193132,0.0-19.0-2.13,33851,List2B,white,man,,,,null,,,,,,,,,
4838.8,,,survey-text,379,1197986,0.0-19.0-3.13,33851,List2B,white,man,,,,,"{""Q0"":""beth is copying jane""}","<img src=""stim_listB/copy7.gif""style=""height:400px;""></stim_listB>",is copying,,,,,,
null,"<div style=""font-size:60px;"">+</div>",,html-keyboard-response,380,1198495,0.0-19.0-0.14,33851,List2B,white,man,,,,null,,,,,,,,,
null,"<img src=""stim_listB/oppose5.gif""style=""height:400px;""></stim_listB>",,html-keyboard-response,381,1200507,0.0-19.0-1.14,33851,List2B,white,man,,,,null,,,,,,,,,
null,is opposing,,html-keyboard-response,382,1202509,0.0-19.0-2.14,33851,List2B,white,man,,,,null,,,,,,,,,
6179,,,survey-text,383,1208705,0.0-19.0-3.14,33851,List2B,white,man,,,,,"{""Q0"":""mike is opposing dave""}","<img src=""stim_listB/oppose5.gif""style=""height:400px;""></stim_listB>",is opposing,,,,,,
null,"<div style=""font-size:60px;"">+</div>",,html-keyboard-response,384,1209213,0.0-19.0-0.15,33851,List2B,white,man,,,,null,,,,,,,,,
null,"<img src=""stim_listB/shout4.gif""style=""height:400px;""></stim_listB>",,html-keyboard-response,385,1211225,0.0-19.0-1.15,33851,List2B,white,man,,,,null,,,,,,,,,
null,is being shouted at by,,html-keyboard-response,386,1213243,0.0-19.0-2.15,33851,List2B,white,man,,,,null,,,,,,,,,
5772.6,,,survey-text,387,1219027,0.0-19.0-3.15,33851,List2B,white,man,,,,,"{""Q0"":""mike is being shouted at by kate""}","<img src=""stim_listB/shout4.gif""style=""height:400px;""></stim_listB>",is being shouted at by,,,,,,
null,"<div style=""font-size:60px;"">+</div>",,html-keyboard-response,388,1219535,0.0-19.0-0.16,33851,List2B,white,man,,,,null,,,,,,,,,
null,"<img src=""stim_listB/shout8.gif""style=""height:400px;""></stim_listB>",,html-keyboard-response,389,1221551,0.0-19.0-1.16,33851,List2B,white,man,,,,null,,,,,,,,,
null,is being shouted at by,,html-keyboard-response,390,1223562,0.0-19.0-2.16,33851,List2B,white,man,,,,null,,,,,,,,,
5207.9,,,survey-text,391,1228811,0.0-19.0-3.16,33851,List2B,white,man,,,,,"{""Q0"":""kate is being shouted at by jane""}","<img src=""stim_listB/shout8.gif""style=""height:400px;""></stim_listB>",is being shouted at by,,,,,,
null,"<div style=""font-size:60px;"">+</div>",,html-keyboard-response,392,1229328,0.0-19.0-0.17,33851,List2B,white,man,,,,null,,,,,,,,,
null,"<img src=""stim_listB/challenge3.gif""style=""height:400px;""></stim_listB>",,html-keyboard-response,393,1231334,0.0-19.0-1.17,33851,List2B,white,man,,,,null,,,,,,,,,
null,is challenging,,html-keyboard-response,394,1233345,0.0-19.0-2.17,33851,List2B,white,man,,,,null,,,,,,,,,
5681.4,,,survey-text,395,1239035,0.0-19.0-3.17,33851,List2B,white,man,,,,,"{""Q0"":""beth is being challenged by mike""}","<img src=""stim_listB/challenge3.gif""style=""height:400px;""></stim_listB>",is challenging,,,,,,
null,"<div style=""font-size:60px;"">+</div>",,html-keyboard-response,396,1239543,0.0-19.0-0.18,33851,List2B,white,man,,,,null,,,,,,,,,
null,"<img src=""stim_listB/oppose2.gif""style=""height:400px;""></stim_listB>",,html-keyboard-response,397,1241560,0.0-19.0-1.18,33851,List2B,white,man,,,,null,,,,,,,,,
null,is being opposed by,,html-keyboard-response,398,1243562,0.0-19.0-2.18,33851,List2B,white,man,,,,null,,,,,,,,,
6957.7,,,survey-text,399,1250528,0.0-19.0-3.18,33851,List2B,white,man,,,,,"{""Q0"":""luke is being opposed by ruth""}","<img src=""stim_listB/oppose2.gif""style=""height:400px;""></stim_listB>",is being opposed by,,,,,,
null,"<div style=""font-size:60px;"">+</div>",,html-keyboard-response,400,1251042,0.0-19.0-0.19,33851,List2B,white,man,,,,null,,,,,,,,,
null,"<img src=""stim_listB/challenge5.gif""style=""height:400px;""></stim_listB>",,html-keyboard-response,401,1253047,0.0-19.0-1.19,33851,List2B,white,man,,,,null,,,,,,,,,
null,is challenging,,html-keyboard-response,402,1255056,0.0-19.0-2.19,33851,List2B,white,man,,,,null,,,,,,,,,
7106.1,,,survey-text,403,1262171,0.0-19.0-3.19,33851,List2B,white,man,,,,,"{""Q0"":""fred is challenging dave""}","<img src=""stim_listB/challenge5.gif""style=""height:400px;""></stim_listB>",is challenging,,,,,,
4548.7,<p>Thank you for completing that task.</p><p>The final part of this session is a questionnaire that will take about 4 minutes.</p><p>Press Continue.</p>,0,html-button-response,404,1266724,0.0-20.0,33851,List2B,white,man,,,,,,,,,,,,,
46032.2,,,survey-text,405,1313788,0.0-21.0,33851,List2B,white,man,,,,,"{""Q0"":""30"",""Q1"":""English"",""Q2"":""English"",""Q3"":""United States"",""Q4"":""White"",""Q5"":""White/Caucasion"",""Q6"":""Male""}",,,demographics,,,,,
3998.8,<p>Have you lived in the USA for the last 5 years or more?</p>,0,html-button-response,406,1317794,0.0-22.0,33851,List2B,white,man,,,,,,,,fiveyears,,,,,
4263.4,<p>Move the slider to show the extent to which you agree with the following statements.</p>,0,html-button-response,407,1323077,0.0-23.0,33851,List2B,white,man,,,,,,,,,,,,,
6520.1,,,html-slider-response,408,1330605,0.0-24.0-0.0-0.0,33851,List2B,white,man,,,,,,,,survey_race,52,,,Being my age gives me a good feeling.,filler
6083.2,,,html-slider-response,409,1336695,0.0-24.0-0.0-0.1,33851,List2B,white,man,,,,,,,,survey_race,74,,,I think that my race has a lot to be proud of.,proud
7513.8,,,html-slider-response,410,1344218,0.0-24.0-0.0-0.2,33851,List2B,white,man,,,,,,,,survey_race,70,,,The fact that I am my race is an important part of my identity.,identity
8095,,,html-slider-response,411,1352322,0.0-24.0-0.0-0.3,33851,List2B,white,man,,,,,,,,survey_race,49,,,I feel solidarity with people the same age as me.,filler
13227.7,,,html-slider-response,412,1365556,0.0-24.0-0.0-0.4,33851,List2B,white,man,,,,,,,,survey_race,60,,,I often think about the fact that I am my age.,filler
4655.3,,,html-slider-response,413,1370217,0.0-24.0-0.0-0.5,33851,List2B,white,man,,,,,,,,survey_race,51,,,I feel committed to my race.,committed
7912.8,,,html-slider-response,414,1378136,0.0-24.0-0.0-0.6,33851,List2B,white,man,,,,,,,,survey_race,54,,,I have a lot in common with people of a similar age to me.,filler
5210.6,,,html-slider-response,415,1383355,0.0-24.0-0.0-0.7,33851,List2B,white,man,,,,,,,,survey_race,91,,,I consider myself an introvert.,filler
4676.3,,,html-slider-response,416,1388038,0.0-24.0-0.0-0.8,33851,List2B,white,man,,,,,,,,survey_race,68,,,Getting older does not worry me.,filler
13491,,,html-slider-response,417,1401530,0.0-24.0-0.0-0.9,33851,List2B,white,man,,,,,,,,survey_race,47,,,I have a lot in common with the average person of my race.,average
5408.5,,,html-slider-response,418,1406946,0.0-24.0-0.0-0.10,33851,List2B,white,man,,,,,,,,survey_race,54,,,My age is not an important part of who I am.,filler
4543.1,,,html-slider-response,419,1411496,0.0-24.0-0.0-0.11,33851,List2B,white,man,,,,,,,,survey_race,55,,,People my age have a lot in common with each other.,filler
3455.1,,,html-slider-response,420,1414959,0.0-24.0-0.0-0.12,33851,List2B,white,man,,,,,,,,survey_race,69,,,"The older I get, the wiser I feel.",filler
6411.5,,,html-slider-response,421,1421376,0.0-24.0-0.0-0.13,33851,List2B,white,man,,,,,,,,survey_race,32,,,I enjoy being in large groups.,filler
5512.7,,,html-slider-response,422,1426894,0.0-24.0-0.0-0.14,33851,List2B,white,man,,,,,,,,survey_race,62,,,Being my race gives me a good feeling.,feeling
3602.3,,,html-slider-response,423,1430503,0.0-24.0-0.0-0.15,33851,List2B,white,man,,,,,,,,survey_race,56,,,I feel a bond with my race.,bond
5158.9,,,html-slider-response,424,1435668,0.0-24.0-0.0-0.16,33851,List2B,white,man,,,,,,,,survey_race,57,,,People of my race are very similar to each other.,verysimilar
7372.4,,,html-slider-response,425,1443045,0.0-24.0-0.0-0.17,33851,List2B,white,man,,,,,,,,survey_race,51,,,I am similar to the average person of my race.,similar
5563.3,,,html-slider-response,426,1448617,0.0-24.0-0.0-0.18,33851,List2B,white,man,,,,,,,,survey_race,52,,,It is pleasant to be my race.,pleasant
11740.4,,,html-slider-response,427,1460367,0.0-24.0-0.0-0.19,33851,List2B,white,man,,,,,,,,survey_race,51,,,Being my race is an important part of how I see myself.,important
4488.8,,,html-slider-response,428,1464864,0.0-24.0-0.0-0.20,33851,List2B,white,man,,,,,,,,survey_race,52,,,I am glad to be my age.,filler
4364.9,,,html-slider-response,429,1469234,0.0-24.0-0.0-0.21,33851,List2B,white,man,,,,,,,,survey_race,52,,,I am glad to be the age I am.,filler
3147.3,,,html-slider-response,430,1472389,0.0-24.0-0.0-0.22,33851,List2B,white,man,,,,,,,,survey_race,52,,,I feel solidarity with my race.,solidarity
5619.6,,,html-slider-response,431,1478012,0.0-24.0-0.0-0.23,33851,List2B,white,man,,,,,,,,survey_race,53,,,I feel a bond with people the same age as me.,filler
9211.3,,,html-slider-response,432,1487229,0.0-24.0-0.0-0.24,33851,List2B,white,man,,,,,,,,survey_race,45,,,I often think about the fact that I am my race.,often
6736.5,,,html-slider-response,433,1493971,0.0-24.0-0.0-0.25,33851,List2B,white,man,,,,,,,,survey_race,12,,,I consider myself an extrovert.,filler
6637.2,,,html-slider-response,434,1500614,0.0-24.0-0.0-0.26,33851,List2B,white,man,,,,,,,,survey_race,55,,,I am glad to be my race.,glad
5747.2,,,html-slider-response,435,1506367,0.0-24.0-0.0-0.27,33851,List2B,white,man,,,,,,,,survey_race,56,,,People of my race have a lot in common with each other.,common
6092.1,,,html-slider-response,436,1512468,0.0-24.0-1.0-0.0,33851,List2B,white,man,,,,,,,,survey_gender,69,,,I have a lot in common with my friends.,filler
6984.9,,,html-slider-response,437,1519463,0.0-24.0-1.0-0.1,33851,List2B,white,man,,,,,,,,survey_gender,71,,,I am glad to be my gender.,glad
4719.3,,,html-slider-response,438,1524188,0.0-24.0-1.0-0.2,33851,List2B,white,man,,,,,,,,survey_gender,71,,,I am similar to the average person of my gender.,similar
3319.1,,,html-slider-response,439,1527513,0.0-24.0-1.0-0.3,33851,List2B,white,man,,,,,,,,survey_gender,74,,,I feel committed to my gender.,committed
6526.8,,,html-slider-response,440,1534045,0.0-24.0-1.0-0.4,33851,List2B,white,man,,,,,,,,survey_gender,73,,,I feel a bond with my friends.,filler
3217.4,,,html-slider-response,441,1537268,0.0-24.0-1.0-0.5,33851,List2B,white,man,,,,,,,,survey_gender,70,,,My friends understand me.,filler
5462.4,,,html-slider-response,442,1542735,0.0-24.0-1.0-0.6,33851,List2B,white,man,,,,,,,,survey_gender,70,,,The fact that I am my gender is an important part of my identity.,identity
3172.8,,,html-slider-response,443,1545915,0.0-24.0-1.0-0.7,33851,List2B,white,man,,,,,,,,survey_gender,68,,,I often think about my actions.,filler
5618.3,,,html-slider-response,444,1551538,0.0-24.0-1.0-0.8,33851,List2B,white,man,,,,,,,,survey_gender,90,,,I would say I am an animal person.,filler
4451.7,,,html-slider-response,445,1555995,0.0-24.0-1.0-0.9,33851,List2B,white,man,,,,,,,,survey_gender,57,,,I often think about the fact that I am my gender.,often
5162.3,,,html-slider-response,446,1561163,0.0-24.0-1.0-0.10,33851,List2B,white,man,,,,,,,,survey_gender,53,,,Being my gender gives me a good feeling.,feeling
6177.8,,,html-slider-response,447,1567346,0.0-24.0-1.0-0.11,33851,List2B,white,man,,,,,,,,survey_gender,57,,,I have a lot in common with the average person of my gender.,average
5703.2,,,html-slider-response,448,1573055,0.0-24.0-1.0-0.12,33851,List2B,white,man,,,,,,,,survey_gender,54,,,Being my gender is an important part of how I see myself.,important
9002.8,,,html-slider-response,449,1582062,0.0-24.0-1.0-0.13,33851,List2B,white,man,,,,,,,,survey_gender,77,,,People of my gender are very similar to each other.,verysimilar
7436.1,,,html-slider-response,450,1589504,0.0-24.0-1.0-0.14,33851,List2B,white,man,,,,,,,,survey_gender,100,,,I think that my gender has a lot to be proud of.,proud
3989.4,,,html-slider-response,451,1593499,0.0-24.0-1.0-0.15,33851,List2B,white,man,,,,,,,,survey_gender,88,,,I feel a bond with my gender.,bond
6172.2,,,html-slider-response,452,1599678,0.0-24.0-1.0-0.16,33851,List2B,white,man,,,,,,,,survey_gender,54,,,It is not always easy for people to know what I am thinking.,filler
4377.7,,,html-slider-response,453,1604061,0.0-24.0-1.0-0.17,33851,List2B,white,man,,,,,,,,survey_gender,71,,,I am glad to have the friends that I have.,filler
4950.3,,,html-slider-response,454,1609016,0.0-24.0-1.0-0.18,33851,List2B,white,man,,,,,,,,survey_gender,71,,,I consider myself a highly empathetic person.,filler
11959.1,,,html-slider-response,455,1620982,0.0-24.0-1.0-0.19,33851,List2B,white,man,,,,,,,,survey_gender,63,,,Most of the friends in my life are very similar to me.,filler
5758.5,,,html-slider-response,456,1626748,0.0-24.0-1.0-0.20,33851,List2B,white,man,,,,,,,,survey_gender,97,,,It is pleasant to be my gender.,pleasant
5955.3,,,html-slider-response,457,1632711,0.0-24.0-1.0-0.21,33851,List2B,white,man,,,,,,,,survey_gender,78,,,People of my gender have a lot in common with each other.,common
5446.8,,,html-slider-response,458,1638163,0.0-24.0-1.0-0.22,33851,List2B,white,man,,,,,,,,survey_gender,44,,,Routine is not important to me.,filler
10276.9,,,html-slider-response,459,1648448,0.0-24.0-1.0-0.23,33851,List2B,white,man,,,,,,,,survey_gender,5,,,Family is not more important to me than friendship.,filler
4965,,,html-slider-response,460,1653420,0.0-24.0-1.0-0.24,33851,List2B,white,man,,,,,,,,survey_gender,94,,,I feel solidarity with my gender.,solidarity
4045.1,,,html-slider-response,461,1657471,0.0-24.0-1.0-0.25,33851,List2B,white,man,,,,,,,,survey_gender,68,,,My friends have a lot in common with each other.,filler
6262.3,,,html-slider-response,462,1663738,0.0-24.0-1.0-0.26,33851,List2B,white,man,,,,,,,,survey_gender,83,,,Being around my friends gives me a good feeling.,filler
5127.6,,,html-slider-response,463,1668871,0.0-24.0-1.0-0.27,33851,List2B,white,man,,,,,,,,survey_gender,85,,,I feel solidarity with my friends.,filler
11163.1,,,survey-text,464,1680048,0.0-25.0,33851,List2B,white,man,,,,,"{""Q0"":""ccc""}",,,worker_id,,,,,
7430.3,,,external-html,465,1687812,0.0-26.0,33851,List2B,white,man,debrief.html,,,,,,,,,,,,
