"rt","stimulus","button_pressed","trial_type","trial_index","time_elapsed","internal_node_id","subject","list","ppt_race","ppt_gender","url","first_guess","correct","key_press","responses","image_type","phrase_type","test_part","response","stimulus1","stimulus2","question_type","survey_item"
"30767.5","Welcome to the experiment. Press Continue to begin.","0","html-button-response","0","30803","0.0-0.0","34043","List1B","black","woman","","","","","","","","","","","","",""
"186285.10000002384","","","external-html","1","218592","0.0-1.0","34043","List1B","black","woman","consent.html","","","","","","","","","","","",""
"309219.2999999523","<p>On the next page, you will see portraits of 8 people and their names.</p><p>Your first task is to take a few minutes to memorise the names of these people.</p><p>You will have to recall their names during the rest of the experiment, so it is</p><p>essential that you try to memorise these people and their names as best as you can.</p><br><p><strong>You will then be tested on your memory of these names and portraits.</strong></p><br><p>The experiment will start after you have completed this memory test.</p><br><p>Ready?</p>","0","html-button-response","2","527814","0.0-2.0","34043","List1B","black","woman","","","","","","","","","","","","",""
"332041.5","<img src='img/portrait_matrix_list1.jpg' style='width:900px;height:500px;''></img><p>If you have memorised all the portraits and names and are ready to start, press Continue.</p><p><strong>Please note: Your memory of these faces will be tested 4 times during this experiment.</strong></p>","0","html-button-response","3","860858","0.0-3.0-0.0","34043","List1B","black","woman","","","","","","","","","","","","",""
"6174","<img src=""portrait/WM1.jpg""style=""height:400px;""></img>","6","html-button-response","4","868034","0.0-3.0-1.0","34043","List1B","black","woman","","true","6","","","","","","","","","",""
"null","CORRECT","","html-keyboard-response","5","869539","0.0-3.0-2.0-0.0","34043","List1B","black","woman","","","","null","","","","","","","","",""
"6333.399999976158","<img src=""portrait/BM2.jpg""style=""height:400px;""></img>","5","html-button-response","6","875874","0.0-3.0-4.0","34043","List1B","black","woman","","true","5","","","","","","","","","",""
"null","CORRECT","","html-keyboard-response","7","877377","0.0-3.0-5.0-0.0","34043","List1B","black","woman","","","","null","","","","","","","","",""
"5191.599999904633","<img src=""portrait/WW2.jpg""style=""height:400px;""></img>","3","html-button-response","8","882570","0.0-3.0-7.0","34043","List1B","black","woman","","true","3","","","","","","","","","",""
"null","CORRECT","","html-keyboard-response","9","884074","0.0-3.0-8.0-0.0","34043","List1B","black","woman","","","","null","","","","","","","","",""
"7846.699999928474","<img src=""portrait/BW1.jpg""style=""height:400px;""></img>","0","html-button-response","10","891922","0.0-3.0-10.0","34043","List1B","black","woman","","true","0","","","","","","","","","",""
"null","CORRECT","","html-keyboard-response","11","893426","0.0-3.0-11.0-0.0","34043","List1B","black","woman","","","","null","","","","","","","","",""
"8030.799999952316","<img src=""portrait/WW1.jpg""style=""height:400px;""></img>","1","html-button-response","12","901458","0.0-3.0-13.0","34043","List1B","black","woman","","true","1","","","","","","","","","",""
"null","CORRECT","","html-keyboard-response","13","902960","0.0-3.0-14.0-0.0","34043","List1B","black","woman","","","","null","","","","","","","","",""
"4608.200000047684","<img src=""portrait/BM1.jpg""style=""height:400px;""></img>","4","html-button-response","14","907570","0.0-3.0-16.0","34043","List1B","black","woman","","true","4","","","","","","","","","",""
"null","CORRECT","","html-keyboard-response","15","909072","0.0-3.0-17.0-0.0","34043","List1B","black","woman","","","","null","","","","","","","","",""
"3624.7999999523163","<img src=""portrait/WM2.jpg""style=""height:400px;""></img>","7","html-button-response","16","912698","0.0-3.0-19.0","34043","List1B","black","woman","","true","7","","","","","","","","","",""
"null","CORRECT","","html-keyboard-response","17","914201","0.0-3.0-20.0-0.0","34043","List1B","black","woman","","","","null","","","","","","","","",""
"4895.299999952316","<img src=""portrait/BW2.jpg""style=""height:400px;""></img>","2","html-button-response","18","919098","0.0-3.0-22.0","34043","List1B","black","woman","","true","2","","","","","","","","","",""
"null","CORRECT","","html-keyboard-response","19","920602","0.0-3.0-23.0-0.0","34043","List1B","black","woman","","","","null","","","","","","","","",""
"336180.2000000477","<p>You got 8 out of 8 right first time. Press Continue.</p>","0","html-button-response","20","1256784","0.0-3.0-25.0","34043","List1B","black","woman","","","","","","","","","","","","",""
"42279.59999990463","<p>In this experiment, you will view photographs of the people from the memory game interacting.</p><p>By using the <strong>exact</strong> phrase given <i>after</i> the photograph appears and recalling the correct names of the people in the photographs, form a sentence describing the interaction. You do not need to capitalise names.</p><p>Type your answer in the space provided. Please complete every sentence before moving onto the next trial.</p><p>You will only have a few seconds to memorise each given photograph and phrase before you can respond, so try your best to focus.</p><p>An example is given below. Press 'Continue' when you are ready.</p><img src='img/speaking_example.jpg' style='width:800px;height:460px;''></img>","0","html-button-response","21","1300070","0.0-4.0","34043","List1B","black","woman","","","","","","","","","","","","",""
"2733.600000023842","<p>Before the experiment starts, you will watch two example trials. Press 'Continue'.</p>","0","html-button-response","22","1303806","0.0-5.0","34043","List1B","black","woman","","","","","","","","","","","","",""
"null","<img src='img/play_eg.gif' style='height:400px;''></img>","","html-keyboard-response","23","1306808","0.0-6.0","34043","List1B","black","woman","","","","null","","","","","","","","",""
"null","<p>is playing with</p>","","html-keyboard-response","24","1308811","0.0-7.0","34043","List1B","black","woman","","","","null","","","","","","","","",""
"19577.399999976158","<p><b>Answer:</b> kate is playing with beth</p>","0","html-button-response","25","1328389","0.0-8.0","34043","List1B","black","woman","","","","","","","","","","","","",""
"null","<img src='img/dance_eg.gif' style='height:400px;''></img>","","html-keyboard-response","26","1331394","0.0-9.0","34043","List1B","black","woman","","","","null","","","","","","","","",""
"null","<p>is being entertained by</p>","","html-keyboard-response","27","1333396","0.0-10.0","34043","List1B","black","woman","","","","null","","","","","","","","",""
"4336.100000023842","<p><b>Answer:</b> luke is being entertained by dave</p>","0","html-button-response","28","1337733","0.0-11.0","34043","List1B","black","woman","","","","","","","","","","","","",""
"16453.599999904633","<p>Ready to start the experiment?</p><br><p><strong>Remember to describe the picture using a full sentence,</strong></p><p><strong>that combines the names of the people with the <i>exact</i> phrase given.</strong></p><p><strong>To receive full payment you must do this correctly.</strong></p><p><strong> You do not need to capitalise names or use punctuation.</strong></p><br><p>Press 'Continue' to begin.</p>","0","html-button-response","29","1355189","0.0-12.0","34043","List1B","black","woman","","","","","","","","","","","","",""
"null","<div style=""font-size:60px;"">+</div>","","html-keyboard-response","30","1356692","0.0-13.0-0.0","34043","List1B","black","woman","","","","null","","","","","","","","",""
"null","<img src=""stim_listB/greet1.gif""style=""height:400px;""></stim_listB>","","html-keyboard-response","31","1358695","0.0-13.0-1.0","34043","List1B","black","woman","","","","null","","","","","","","","",""
"null","is greeting","","html-keyboard-response","32","1360696","0.0-13.0-2.0","34043","List1B","black","woman","","","","null","","","","","","","","",""
"23906.299999952316","","","survey-text","33","1384605","0.0-13.0-3.0","34043","List1B","black","woman","","","","","{""Q0"":""beth is greeting mike""}","<img src=""stim_listB/greet1.gif""style=""height:400px;""></stim_listB>","is greeting","","","","","",""
"null","<div style=""font-size:60px;"">+</div>","","html-keyboard-response","34","1385109","0.0-13.0-0.1","34043","List1B","black","woman","","","","null","","","","","","","","",""
"null","<img src=""stim_listB/kiss3.gif""style=""height:400px;""></stim_listB>","","html-keyboard-response","35","1387111","0.0-13.0-1.1","34043","List1B","black","woman","","","","null","","","","","","","","",""
"null","is kissing","","html-keyboard-response","36","1389113","0.0-13.0-2.1","34043","List1B","black","woman","","","","null","","","","","","","","",""
"16193.200000047684","","","survey-text","37","1405309","0.0-13.0-3.1","34043","List1B","black","woman","","","","","{""Q0"":""ruth is kissing luke ""}","<img src=""stim_listB/kiss3.gif""style=""height:400px;""></stim_listB>","is kissing","","","","","",""
"null","<div style=""font-size:60px;"">+</div>","","html-keyboard-response","38","1405812","0.0-13.0-0.2","34043","List1B","black","woman","","","","null","","","","","","","","",""
"null","<img src=""stim_listB/challenge6.gif""style=""height:400px;""></stim_listB>","","html-keyboard-response","39","1407814","0.0-13.0-1.2","34043","List1B","black","woman","","","","null","","","","","","","","",""
"null","is being challenged by","","html-keyboard-response","40","1409815","0.0-13.0-2.2","34043","List1B","black","woman","","","","null","","","","","","","","",""
"138015.39999997616","","","survey-text","41","1547835","0.0-13.0-3.2","34043","List1B","black","woman","","","","","{""Q0"":""fred is challenge by dave""}","<img src=""stim_listB/challenge6.gif""style=""height:400px;""></stim_listB>","is being challenged by","","","","","",""
"null","<div style=""font-size:60px;"">+</div>","","html-keyboard-response","42","1548337","0.0-13.0-0.3","34043","List1B","black","woman","","","","null","","","","","","","","",""
"null","<img src=""stim_listB/seduce8.gif""style=""height:400px;""></stim_listB>","","html-keyboard-response","43","1550339","0.0-13.0-1.3","34043","List1B","black","woman","","","","null","","","","","","","","",""
"null","is being seduced by","","html-keyboard-response","44","1552341","0.0-13.0-2.3","34043","List1B","black","woman","","","","null","","","","","","","","",""
"37115.60000002384","","","survey-text","45","1589459","0.0-13.0-3.3","34043","List1B","black","woman","","","","","{""Q0"":""kate is being seduced by ruth ""}","<img src=""stim_listB/seduce8.gif""style=""height:400px;""></stim_listB>","is being seduced by","","","","","",""
"null","<div style=""font-size:60px;"">+</div>","","html-keyboard-response","46","1589962","0.0-13.0-0.4","34043","List1B","black","woman","","","","null","","","","","","","","",""
"null","<img src=""stim_listB/seduce4.gif""style=""height:400px;""></stim_listB>","","html-keyboard-response","47","1591964","0.0-13.0-1.4","34043","List1B","black","woman","","","","null","","","","","","","","",""
"null","is being seduced by","","html-keyboard-response","48","1593966","0.0-13.0-2.4","34043","List1B","black","woman","","","","null","","","","","","","","",""
"16234.800000071526","","","survey-text","49","1610203","0.0-13.0-3.4","34043","List1B","black","woman","","","","","{""Q0"":""ruth is being seduced by dave ""}","<img src=""stim_listB/seduce4.gif""style=""height:400px;""></stim_listB>","is being seduced by","","","","","",""
"null","<div style=""font-size:60px;"">+</div>","","html-keyboard-response","50","1610705","0.0-13.0-0.5","34043","List1B","black","woman","","","","null","","","","","","","","",""
"null","<img src=""stim_listB/copy1.gif""style=""height:400px;""></stim_listB>","","html-keyboard-response","51","1612708","0.0-13.0-1.5","34043","List1B","black","woman","","","","null","","","","","","","","",""
"null","is copying","","html-keyboard-response","52","1614711","0.0-13.0-2.5","34043","List1B","black","woman","","","","null","","","","","","","","",""
"18393.299999952316","","","survey-text","53","1633107","0.0-13.0-3.5","34043","List1B","black","woman","","","","","{""Q0"":""beth is copying mike""}","<img src=""stim_listB/copy1.gif""style=""height:400px;""></stim_listB>","is copying","","","","","",""
"null","<div style=""font-size:60px;"">+</div>","","html-keyboard-response","54","1633609","0.0-13.0-0.6","34043","List1B","black","woman","","","","null","","","","","","","","",""
"null","<img src=""stim_listB/kiss6.gif""style=""height:400px;""></stim_listB>","","html-keyboard-response","55","1635610","0.0-13.0-1.6","34043","List1B","black","woman","","","","null","","","","","","","","",""
"null","is being kissed by","","html-keyboard-response","56","1637613","0.0-13.0-2.6","34043","List1B","black","woman","","","","null","","","","","","","","",""
"16331.899999976158","","","survey-text","57","1653946","0.0-13.0-3.6","34043","List1B","black","woman","","","","","{""Q0"":""mike is being kissed by dave""}","<img src=""stim_listB/kiss6.gif""style=""height:400px;""></stim_listB>","is being kissed by","","","","","",""
"null","<div style=""font-size:60px;"">+</div>","","html-keyboard-response","58","1654448","0.0-13.0-0.7","34043","List1B","black","woman","","","","null","","","","","","","","",""
"null","<img src=""stim_listB/shout3.gif""style=""height:400px;""></stim_listB>","","html-keyboard-response","59","1656451","0.0-13.0-1.7","34043","List1B","black","woman","","","","null","","","","","","","","",""
"null","is shouting at","","html-keyboard-response","60","1658452","0.0-13.0-2.7","34043","List1B","black","woman","","","","null","","","","","","","","",""
"16155.799999952316","","","survey-text","61","1674610","0.0-13.0-3.7","34043","List1B","black","woman","","","","","{""Q0"":""ruth is shouting at luke ""}","<img src=""stim_listB/shout3.gif""style=""height:400px;""></stim_listB>","is shouting at","","","","","",""
"null","<div style=""font-size:60px;"">+</div>","","html-keyboard-response","62","1675113","0.0-13.0-0.8","34043","List1B","black","woman","","","","null","","","","","","","","",""
"null","<img src=""stim_listB/challenge1.gif""style=""height:400px;""></stim_listB>","","html-keyboard-response","63","1677115","0.0-13.0-1.8","34043","List1B","black","woman","","","","null","","","","","","","","",""
"null","is challenging","","html-keyboard-response","64","1679117","0.0-13.0-2.8","34043","List1B","black","woman","","","","null","","","","","","","","",""
"24113.899999976158","","","survey-text","65","1703234","0.0-13.0-3.8","34043","List1B","black","woman","","","","","{""Q0"":""beth is challenging mike ""}","<img src=""stim_listB/challenge1.gif""style=""height:400px;""></stim_listB>","is challenging","","","","","",""
"null","<div style=""font-size:60px;"">+</div>","","html-keyboard-response","66","1703737","0.0-13.0-0.9","34043","List1B","black","woman","","","","null","","","","","","","","",""
"null","<img src=""stim_listB/seduce5.gif""style=""height:400px;""></stim_listB>","","html-keyboard-response","67","1705738","0.0-13.0-1.9","34043","List1B","black","woman","","","","null","","","","","","","","",""
"null","is seducing","","html-keyboard-response","68","1707741","0.0-13.0-2.9","34043","List1B","black","woman","","","","null","","","","","","","","",""
"13747.299999952316","","","survey-text","69","1721491","0.0-13.0-3.9","34043","List1B","black","woman","","","","","{""Q0"":""fred is seducing dave""}","<img src=""stim_listB/seduce5.gif""style=""height:400px;""></stim_listB>","is seducing","","","","","",""
"null","<div style=""font-size:60px;"">+</div>","","html-keyboard-response","70","1721993","0.0-13.0-0.10","34043","List1B","black","woman","","","","null","","","","","","","","",""
"null","<img src=""stim_listB/look8.gif""style=""height:400px;""></stim_listB>","","html-keyboard-response","71","1723997","0.0-13.0-1.10","34043","List1B","black","woman","","","","null","","","","","","","","",""
"null","is being looked at by","","html-keyboard-response","72","1725998","0.0-13.0-2.10","34043","List1B","black","woman","","","","null","","","","","","","","",""
"18672.900000095367","","","survey-text","73","1744673","0.0-13.0-3.10","34043","List1B","black","woman","","","","","{""Q0"":""kate is being looked at by ruth ""}","<img src=""stim_listB/look8.gif""style=""height:400px;""></stim_listB>","is being looked at by","","","","","",""
"null","<div style=""font-size:60px;"">+</div>","","html-keyboard-response","74","1745176","0.0-13.0-0.11","34043","List1B","black","woman","","","","null","","","","","","","","",""
"null","<img src=""stim_listB/hug3.gif""style=""height:400px;""></stim_listB>","","html-keyboard-response","75","1747179","0.0-13.0-1.11","34043","List1B","black","woman","","","","null","","","","","","","","",""
"null","is hugging","","html-keyboard-response","76","1749180","0.0-13.0-2.11","34043","List1B","black","woman","","","","null","","","","","","","","",""
"15746.199999928474","","","survey-text","77","1764929","0.0-13.0-3.11","34043","List1B","black","woman","","","","","{""Q0"":""ruth is hugging luke ""}","<img src=""stim_listB/hug3.gif""style=""height:400px;""></stim_listB>","is hugging","","","","","",""
"null","<div style=""font-size:60px;"">+</div>","","html-keyboard-response","78","1765431","0.0-13.0-0.12","34043","List1B","black","woman","","","","null","","","","","","","","",""
"null","<img src=""stim_listB/touch7.gif""style=""height:400px;""></stim_listB>","","html-keyboard-response","79","1767434","0.0-13.0-1.12","34043","List1B","black","woman","","","","null","","","","","","","","",""
"null","is touching","","html-keyboard-response","80","1769436","0.0-13.0-2.12","34043","List1B","black","woman","","","","null","","","","","","","","",""
"13378.299999952316","","","survey-text","81","1782817","0.0-13.0-3.12","34043","List1B","black","woman","","","","","{""Q0"":""kate is touching ruth ""}","<img src=""stim_listB/touch7.gif""style=""height:400px;""></stim_listB>","is touching","","","","","",""
"null","<div style=""font-size:60px;"">+</div>","","html-keyboard-response","82","1783320","0.0-13.0-0.13","34043","List1B","black","woman","","","","null","","","","","","","","",""
"null","<img src=""stim_listB/kiss4.gif""style=""height:400px;""></stim_listB>","","html-keyboard-response","83","1785324","0.0-13.0-1.13","34043","List1B","black","woman","","","","null","","","","","","","","",""
"null","is being kissed by","","html-keyboard-response","84","1787326","0.0-13.0-2.13","34043","List1B","black","woman","","","","null","","","","","","","","",""
"17208.700000047684","","","survey-text","85","1804537","0.0-13.0-3.13","34043","List1B","black","woman","","","","","{""Q0"":""dave is being kissed by jane ""}","<img src=""stim_listB/kiss4.gif""style=""height:400px;""></stim_listB>","is being kissed by","","","","","",""
"null","<div style=""font-size:60px;"">+</div>","","html-keyboard-response","86","1805040","0.0-13.0-0.14","34043","List1B","black","woman","","","","null","","","","","","","","",""
"null","<img src=""stim_listB/shout5.gif""style=""height:400px;""></stim_listB>","","html-keyboard-response","87","1807043","0.0-13.0-1.14","34043","List1B","black","woman","","","","null","","","","","","","","",""
"null","is shouting at","","html-keyboard-response","88","1809044","0.0-13.0-2.14","34043","List1B","black","woman","","","","null","","","","","","","","",""
"295719.89999997616","","","survey-text","89","2104766","0.0-13.0-3.14","34043","List1B","black","woman","","","","","{""Q0"":""luke is shouting at fred ""}","<img src=""stim_listB/shout5.gif""style=""height:400px;""></stim_listB>","is shouting at","","","","","",""
"null","<div style=""font-size:60px;"">+</div>","","html-keyboard-response","90","2105267","0.0-13.0-0.15","34043","List1B","black","woman","","","","null","","","","","","","","",""
"null","<img src=""stim_listB/greet4.gif""style=""height:400px;""></stim_listB>","","html-keyboard-response","91","2107269","0.0-13.0-1.15","34043","List1B","black","woman","","","","null","","","","","","","","",""
"null","is being greeted by","","html-keyboard-response","92","2109271","0.0-13.0-2.15","34043","List1B","black","woman","","","","null","","","","","","","","",""
"15292.5","","","survey-text","93","2124566","0.0-13.0-3.15","34043","List1B","black","woman","","","","","{""Q0"":""luke is being greeted by jane ""}","<img src=""stim_listB/greet4.gif""style=""height:400px;""></stim_listB>","is being greeted by","","","","","",""
"null","<div style=""font-size:60px;"">+</div>","","html-keyboard-response","94","2125069","0.0-13.0-0.16","34043","List1B","black","woman","","","","null","","","","","","","","",""
"null","<img src=""stim_listB/hug7.gif""style=""height:400px;""></stim_listB>","","html-keyboard-response","95","2127072","0.0-13.0-1.16","34043","List1B","black","woman","","","","null","","","","","","","","",""
"null","is hugging","","html-keyboard-response","96","2129073","0.0-13.0-2.16","34043","List1B","black","woman","","","","null","","","","","","","","",""
"10846","","","survey-text","97","2139922","0.0-13.0-3.16","34043","List1B","black","woman","","","","","{""Q0"":""beth is hugging ruth ""}","<img src=""stim_listB/hug7.gif""style=""height:400px;""></stim_listB>","is hugging","","","","","",""
"null","<div style=""font-size:60px;"">+</div>","","html-keyboard-response","98","2140424","0.0-13.0-0.17","34043","List1B","black","woman","","","","null","","","","","","","","",""
"null","<img src=""stim_listB/look6.gif""style=""height:400px;""></stim_listB>","","html-keyboard-response","99","2142427","0.0-13.0-1.17","34043","List1B","black","woman","","","","null","","","","","","","","",""
"null","is being looked at by","","html-keyboard-response","100","2144429","0.0-13.0-2.17","34043","List1B","black","woman","","","","null","","","","","","","","",""
"13955.400000095367","","","survey-text","101","2158387","0.0-13.0-3.17","34043","List1B","black","woman","","","","","{""Q0"":""dave is being looked at by mike""}","<img src=""stim_listB/look6.gif""style=""height:400px;""></stim_listB>","is being looked at by","","","","","",""
"null","<div style=""font-size:60px;"">+</div>","","html-keyboard-response","102","2158890","0.0-13.0-0.18","34043","List1B","black","woman","","","","null","","","","","","","","",""
"null","<img src=""stim_listB/kiss2.gif""style=""height:400px;""></stim_listB>","","html-keyboard-response","103","2160892","0.0-13.0-1.18","34043","List1B","black","woman","","","","null","","","","","","","","",""
"null","is being kissed by","","html-keyboard-response","104","2162893","0.0-13.0-2.18","34043","List1B","black","woman","","","","null","","","","","","","","",""
"9705.899999976158","","","survey-text","105","2172602","0.0-13.0-3.18","34043","List1B","black","woman","","","","","{""Q0"":""mike is being kissed by kate""}","<img src=""stim_listB/kiss2.gif""style=""height:400px;""></stim_listB>","is being kissed by","","","","","",""
"null","<div style=""font-size:60px;"">+</div>","","html-keyboard-response","106","2173105","0.0-13.0-0.19","34043","List1B","black","woman","","","","null","","","","","","","","",""
"null","<img src=""stim_listB/look4.gif""style=""height:400px;""></stim_listB>","","html-keyboard-response","107","2175107","0.0-13.0-1.19","34043","List1B","black","woman","","","","null","","","","","","","","",""
"null","is being looked at by","","html-keyboard-response","108","2177108","0.0-13.0-2.19","34043","List1B","black","woman","","","","null","","","","","","","","",""
"17522","","","survey-text","109","2194633","0.0-13.0-3.19","34043","List1B","black","woman","","","","","{""Q0"":""jane is being looked at by dave""}","<img src=""stim_listB/look4.gif""style=""height:400px;""></stim_listB>","is being looked at by","","","","","",""
"13312.899999976158","<img src='img/portrait_matrix_list1.jpg' style='width:900px;height:500px;''></img><p>If you have memorised all the portraits and names and are ready to start, press Continue.</p><p><strong>Please note: Your memory of these faces will be tested 4 times during this experiment.</strong></p>","0","html-button-response","110","2207949","0.0-14.0-0.0","34043","List1B","black","woman","","","","","","","","","","","","",""
"4757","<img src=""portrait/BW1.jpg""style=""height:400px;""></img>","0","html-button-response","111","2213709","0.0-14.0-1.0","34043","List1B","black","woman","","true","0","","","","","","","","","",""
"null","CORRECT","","html-keyboard-response","112","2215214","0.0-14.0-2.0-0.0","34043","List1B","black","woman","","","","null","","","","","","","","",""
"5550.299999952316","<img src=""portrait/WW1.jpg""style=""height:400px;""></img>","1","html-button-response","113","2220766","0.0-14.0-4.0","34043","List1B","black","woman","","true","1","","","","","","","","","",""
"null","CORRECT","","html-keyboard-response","114","2222270","0.0-14.0-5.0-0.0","34043","List1B","black","woman","","","","null","","","","","","","","",""
"4421.899999976158","<img src=""portrait/WM1.jpg""style=""height:400px;""></img>","6","html-button-response","115","2226694","0.0-14.0-7.0","34043","List1B","black","woman","","true","6","","","","","","","","","",""
"null","CORRECT","","html-keyboard-response","116","2228196","0.0-14.0-8.0-0.0","34043","List1B","black","woman","","","","null","","","","","","","","",""
"2735.1999999284744","<img src=""portrait/BW2.jpg""style=""height:400px;""></img>","2","html-button-response","117","2230933","0.0-14.0-10.0","34043","List1B","black","woman","","true","2","","","","","","","","","",""
"null","CORRECT","","html-keyboard-response","118","2232436","0.0-14.0-11.0-0.0","34043","List1B","black","woman","","","","null","","","","","","","","",""
"1807.3000000715256","<img src=""portrait/WM2.jpg""style=""height:400px;""></img>","7","html-button-response","119","2234245","0.0-14.0-13.0","34043","List1B","black","woman","","true","7","","","","","","","","","",""
"null","CORRECT","","html-keyboard-response","120","2235747","0.0-14.0-14.0-0.0","34043","List1B","black","woman","","","","null","","","","","","","","",""
"4152.199999928474","<img src=""portrait/BM2.jpg""style=""height:400px;""></img>","5","html-button-response","121","2239901","0.0-14.0-16.0","34043","List1B","black","woman","","true","5","","","","","","","","","",""
"null","CORRECT","","html-keyboard-response","122","2241414","0.0-14.0-17.0-0.0","34043","List1B","black","woman","","","","null","","","","","","","","",""
"5387.600000023842","<img src=""portrait/WW2.jpg""style=""height:400px;""></img>","3","html-button-response","123","2246805","0.0-14.0-19.0","34043","List1B","black","woman","","true","3","","","","","","","","","",""
"null","CORRECT","","html-keyboard-response","124","2248308","0.0-14.0-20.0-0.0","34043","List1B","black","woman","","","","null","","","","","","","","",""
"7998.799999952316","<img src=""portrait/BM1.jpg""style=""height:400px;""></img>","4","html-button-response","125","2256309","0.0-14.0-22.0","34043","List1B","black","woman","","true","4","","","","","","","","","",""
"null","CORRECT","","html-keyboard-response","126","2257812","0.0-14.0-23.0-0.0","34043","List1B","black","woman","","","","null","","","","","","","","",""
"2550.399999976158","<p>You got 8 out of 8 right first time. Press Continue.</p>","0","html-button-response","127","2260365","0.0-14.0-25.0","34043","List1B","black","woman","","","","","","","","","","","","",""
"null","<div style=""font-size:60px;"">+</div>","","html-keyboard-response","128","2261869","0.0-15.0-0.0","34043","List1B","black","woman","","","","null","","","","","","","","",""
"null","<img src=""stim_listB/hug8.gif""style=""height:400px;""></stim_listB>","","html-keyboard-response","129","2263871","0.0-15.0-1.0","34043","List1B","black","woman","","","","null","","","","","","","","",""
"null","is being hugged by","","html-keyboard-response","130","2265873","0.0-15.0-2.0","34043","List1B","black","woman","","","","null","","","","","","","","",""
"12870","","","survey-text","131","2278745","0.0-15.0-3.0","34043","List1B","black","woman","","","","","{""Q0"":""kate is being hugged by ruth ""}","<img src=""stim_listB/hug8.gif""style=""height:400px;""></stim_listB>","is being hugged by","","","","","",""
"null","<div style=""font-size:60px;"">+</div>","","html-keyboard-response","132","2279248","0.0-15.0-0.1","34043","List1B","black","woman","","","","null","","","","","","","","",""
"null","<img src=""stim_listB/hug1.gif""style=""height:400px;""></stim_listB>","","html-keyboard-response","133","2281251","0.0-15.0-1.1","34043","List1B","black","woman","","","","null","","","","","","","","",""
"null","is hugging","","html-keyboard-response","134","2283253","0.0-15.0-2.1","34043","List1B","black","woman","","","","null","","","","","","","","",""
"11328.5","","","survey-text","135","2294585","0.0-15.0-3.1","34043","List1B","black","woman","","","","","{""Q0"":""beth is being  hugged by fred""}","<img src=""stim_listB/hug1.gif""style=""height:400px;""></stim_listB>","is hugging","","","","","",""
"null","<div style=""font-size:60px;"">+</div>","","html-keyboard-response","136","2295087","0.0-15.0-0.2","34043","List1B","black","woman","","","","null","","","","","","","","",""
"null","<img src=""stim_listB/greet8.gif""style=""height:400px;""></stim_listB>","","html-keyboard-response","137","2297090","0.0-15.0-1.2","34043","List1B","black","woman","","","","null","","","","","","","","",""
"null","is being greeted by","","html-keyboard-response","138","2299092","0.0-15.0-2.2","34043","List1B","black","woman","","","","null","","","","","","","","",""
"17634.899999976158","","","survey-text","139","2316728","0.0-15.0-3.2","34043","List1B","black","woman","","","","","{""Q0"":""jane is greeted by beth ""}","<img src=""stim_listB/greet8.gif""style=""height:400px;""></stim_listB>","is being greeted by","","","","","",""
"null","<div style=""font-size:60px;"">+</div>","","html-keyboard-response","140","2317232","0.0-15.0-0.3","34043","List1B","black","woman","","","","null","","","","","","","","",""
"null","<img src=""stim_listB/seduce6.gif""style=""height:400px;""></stim_listB>","","html-keyboard-response","141","2319234","0.0-15.0-1.3","34043","List1B","black","woman","","","","null","","","","","","","","",""
"null","is being seduced by","","html-keyboard-response","142","2321236","0.0-15.0-2.3","34043","List1B","black","woman","","","","null","","","","","","","","",""
"251659.79999995232","","","survey-text","143","2572898","0.0-15.0-3.3","34043","List1B","black","woman","","","","","{""Q0"":""mike is being seduced by luke""}","<img src=""stim_listB/seduce6.gif""style=""height:400px;""></stim_listB>","is being seduced by","","","","","",""
"null","<div style=""font-size:60px;"">+</div>","","html-keyboard-response","144","2573400","0.0-15.0-0.4","34043","List1B","black","woman","","","","null","","","","","","","","",""
"null","<img src=""stim_listB/greet5.gif""style=""height:400px;""></stim_listB>","","html-keyboard-response","145","2575403","0.0-15.0-1.4","34043","List1B","black","woman","","","","null","","","","","","","","",""
"null","is greeting","","html-keyboard-response","146","2577404","0.0-15.0-2.4","34043","List1B","black","woman","","","","null","","","","","","","","",""
"11591.200000047684","","","survey-text","147","2588998","0.0-15.0-3.4","34043","List1B","black","woman","","","","","{""Q0"":""luke is greeting mike ""}","<img src=""stim_listB/greet5.gif""style=""height:400px;""></stim_listB>","is greeting","","","","","",""
"null","<div style=""font-size:60px;"">+</div>","","html-keyboard-response","148","2589501","0.0-15.0-0.5","34043","List1B","black","woman","","","","null","","","","","","","","",""
"null","<img src=""stim_listB/shout6.gif""style=""height:400px;""></stim_listB>","","html-keyboard-response","149","2591505","0.0-15.0-1.5","34043","List1B","black","woman","","","","null","","","","","","","","",""
"null","is being shouted at by","","html-keyboard-response","150","2593507","0.0-15.0-2.5","34043","List1B","black","woman","","","","null","","","","","","","","",""
"17224.699999928474","","","survey-text","151","2610734","0.0-15.0-3.5","34043","List1B","black","woman","","","","","{""Q0"":""mike is being shouted at by dave""}","<img src=""stim_listB/shout6.gif""style=""height:400px;""></stim_listB>","is being shouted at by","","","","","",""
"null","<div style=""font-size:60px;"">+</div>","","html-keyboard-response","152","2611237","0.0-15.0-0.6","34043","List1B","black","woman","","","","null","","","","","","","","",""
"null","<img src=""stim_listB/oppose7.gif""style=""height:400px;""></stim_listB>","","html-keyboard-response","153","2613239","0.0-15.0-1.6","34043","List1B","black","woman","","","","null","","","","","","","","",""
"null","is opposing","","html-keyboard-response","154","2615240","0.0-15.0-2.6","34043","List1B","black","woman","","","","null","","","","","","","","",""
"10090.699999928474","","","survey-text","155","2625333","0.0-15.0-3.6","34043","List1B","black","woman","","","","","{""Q0"":""jane is opposing kate""}","<img src=""stim_listB/oppose7.gif""style=""height:400px;""></stim_listB>","is opposing","","","","","",""
"null","<div style=""font-size:60px;"">+</div>","","html-keyboard-response","156","2625835","0.0-15.0-0.7","34043","List1B","black","woman","","","","null","","","","","","","","",""
"null","<img src=""stim_listB/touch8.gif""style=""height:400px;""></stim_listB>","","html-keyboard-response","157","2627838","0.0-15.0-1.7","34043","List1B","black","woman","","","","null","","","","","","","","",""
"null","is being touched by","","html-keyboard-response","158","2629839","0.0-15.0-2.7","34043","List1B","black","woman","","","","null","","","","","","","","",""
"105534.40000009537","","","survey-text","159","2735376","0.0-15.0-3.7","34043","List1B","black","woman","","","","","{""Q0"":""ruth is being touched by beth ""}","<img src=""stim_listB/touch8.gif""style=""height:400px;""></stim_listB>","is being touched by","","","","","",""
"null","<div style=""font-size:60px;"">+</div>","","html-keyboard-response","160","2735879","0.0-15.0-0.8","34043","List1B","black","woman","","","","null","","","","","","","","",""
"null","<img src=""stim_listB/look2.gif""style=""height:400px;""></stim_listB>","","html-keyboard-response","161","2737881","0.0-15.0-1.8","34043","List1B","black","woman","","","","null","","","","","","","","",""
"null","is being looked at by","","html-keyboard-response","162","2739882","0.0-15.0-2.8","34043","List1B","black","woman","","","","null","","","","","","","","",""
"17511.700000047684","","","survey-text","163","2757397","0.0-15.0-3.8","34043","List1B","black","woman","","","","","{""Q0"":""mike is being looked at by kate""}","<img src=""stim_listB/look2.gif""style=""height:400px;""></stim_listB>","is being looked at by","","","","","",""
"null","<div style=""font-size:60px;"">+</div>","","html-keyboard-response","164","2757900","0.0-15.0-0.9","34043","List1B","black","woman","","","","null","","","","","","","","",""
"null","<img src=""stim_listB/touch3.gif""style=""height:400px;""></stim_listB>","","html-keyboard-response","165","2759903","0.0-15.0-1.9","34043","List1B","black","woman","","","","null","","","","","","","","",""
"null","is touching","","html-keyboard-response","166","2761905","0.0-15.0-2.9","34043","List1B","black","woman","","","","null","","","","","","","","",""
"11128.5","","","survey-text","167","2773036","0.0-15.0-3.9","34043","List1B","black","woman","","","","","{""Q0"":""jane is touched by dave""}","<img src=""stim_listB/touch3.gif""style=""height:400px;""></stim_listB>","is touching","","","","","",""
"null","<div style=""font-size:60px;"">+</div>","","html-keyboard-response","168","2773539","0.0-15.0-0.10","34043","List1B","black","woman","","","","null","","","","","","","","",""
"null","<img src=""stim_listB/shout8.gif""style=""height:400px;""></stim_listB>","","html-keyboard-response","169","2775540","0.0-15.0-1.10","34043","List1B","black","woman","","","","null","","","","","","","","",""
"null","is being shouted at by","","html-keyboard-response","170","2777542","0.0-15.0-2.10","34043","List1B","black","woman","","","","null","","","","","","","","",""
"15564.300000071526","","","survey-text","171","2793108","0.0-15.0-3.10","34043","List1B","black","woman","","","","","{""Q0"":""jane is being shouted at by kate""}","<img src=""stim_listB/shout8.gif""style=""height:400px;""></stim_listB>","is being shouted at by","","","","","",""
"null","<div style=""font-size:60px;"">+</div>","","html-keyboard-response","172","2793610","0.0-15.0-0.11","34043","List1B","black","woman","","","","null","","","","","","","","",""
"null","<img src=""stim_listB/copy3.gif""style=""height:400px;""></stim_listB>","","html-keyboard-response","173","2795612","0.0-15.0-1.11","34043","List1B","black","woman","","","","null","","","","","","","","",""
"null","is copying","","html-keyboard-response","174","2797615","0.0-15.0-2.11","34043","List1B","black","woman","","","","null","","","","","","","","",""
"55894.10000002384","","","survey-text","175","2853511","0.0-15.0-3.11","34043","List1B","black","woman","","","","","{""Q0"":""ruth is copying dave ""}","<img src=""stim_listB/copy3.gif""style=""height:400px;""></stim_listB>","is copying","","","","","",""
"null","<div style=""font-size:60px;"">+</div>","","html-keyboard-response","176","2854013","0.0-15.0-0.12","34043","List1B","black","woman","","","","null","","","","","","","","",""
"null","<img src=""stim_listB/look7.gif""style=""height:400px;""></stim_listB>","","html-keyboard-response","177","2856015","0.0-15.0-1.12","34043","List1B","black","woman","","","","null","","","","","","","","",""
"null","is looking at","","html-keyboard-response","178","2858017","0.0-15.0-2.12","34043","List1B","black","woman","","","","null","","","","","","","","",""
"9776.100000023842","","","survey-text","179","2867795","0.0-15.0-3.12","34043","List1B","black","woman","","","","","{""Q0"":""ruth is looking at beth ""}","<img src=""stim_listB/look7.gif""style=""height:400px;""></stim_listB>","is looking at","","","","","",""
"null","<div style=""font-size:60px;"">+</div>","","html-keyboard-response","180","2868298","0.0-15.0-0.13","34043","List1B","black","woman","","","","null","","","","","","","","",""
"null","<img src=""stim_listB/look1.gif""style=""height:400px;""></stim_listB>","","html-keyboard-response","181","2870300","0.0-15.0-1.13","34043","List1B","black","woman","","","","null","","","","","","","","",""
"null","is looking at","","html-keyboard-response","182","2872303","0.0-15.0-2.13","34043","List1B","black","woman","","","","null","","","","","","","","",""
"6857.700000047684","","","survey-text","183","2879162","0.0-15.0-3.13","34043","List1B","black","woman","","","","","{""Q0"":""beth is looking at fred""}","<img src=""stim_listB/look1.gif""style=""height:400px;""></stim_listB>","is looking at","","","","","",""
"null","<div style=""font-size:60px;"">+</div>","","html-keyboard-response","184","2879665","0.0-15.0-0.14","34043","List1B","black","woman","","","","null","","","","","","","","",""
"null","<img src=""stim_listB/hug6.gif""style=""height:400px;""></stim_listB>","","html-keyboard-response","185","2881667","0.0-15.0-1.14","34043","List1B","black","woman","","","","null","","","","","","","","",""
"null","is being hugged by","","html-keyboard-response","186","2883670","0.0-15.0-2.14","34043","List1B","black","woman","","","","null","","","","","","","","",""
"12570","","","survey-text","187","2896243","0.0-15.0-3.14","34043","List1B","black","woman","","","","","{""Q0"":""mike is being hugged by dave""}","<img src=""stim_listB/hug6.gif""style=""height:400px;""></stim_listB>","is being hugged by","","","","","",""
"null","<div style=""font-size:60px;"">+</div>","","html-keyboard-response","188","2896745","0.0-15.0-0.15","34043","List1B","black","woman","","","","null","","","","","","","","",""
"null","<img src=""stim_listB/oppose4.gif""style=""height:400px;""></stim_listB>","","html-keyboard-response","189","2898748","0.0-15.0-1.15","34043","List1B","black","woman","","","","null","","","","","","","","",""
"null","is being opposed by","","html-keyboard-response","190","2900749","0.0-15.0-2.15","34043","List1B","black","woman","","","","null","","","","","","","","",""
"10795.5","","","survey-text","191","2911546","0.0-15.0-3.15","34043","List1B","black","woman","","","","","{""Q0"":""ruth is being opposed by luke ""}","<img src=""stim_listB/oppose4.gif""style=""height:400px;""></stim_listB>","is being opposed by","","","","","",""
"null","<div style=""font-size:60px;"">+</div>","","html-keyboard-response","192","2912049","0.0-15.0-0.16","34043","List1B","black","woman","","","","null","","","","","","","","",""
"null","<img src=""stim_listB/kiss5.gif""style=""height:400px;""></stim_listB>","","html-keyboard-response","193","2914051","0.0-15.0-1.16","34043","List1B","black","woman","","","","null","","","","","","","","",""
"null","is kissing","","html-keyboard-response","194","2916052","0.0-15.0-2.16","34043","List1B","black","woman","","","","null","","","","","","","","",""
"13563.899999976158","","","survey-text","195","2929619","0.0-15.0-3.16","34043","List1B","black","woman","","","","","{""Q0"":""luke is being kissed by fred""}","<img src=""stim_listB/kiss5.gif""style=""height:400px;""></stim_listB>","is kissing","","","","","",""
"null","<div style=""font-size:60px;"">+</div>","","html-keyboard-response","196","2930122","0.0-15.0-0.17","34043","List1B","black","woman","","","","null","","","","","","","","",""
"null","<img src=""stim_listB/challenge3.gif""style=""height:400px;""></stim_listB>","","html-keyboard-response","197","2932124","0.0-15.0-1.17","34043","List1B","black","woman","","","","null","","","","","","","","",""
"null","is challenging","","html-keyboard-response","198","2934125","0.0-15.0-2.17","34043","List1B","black","woman","","","","null","","","","","","","","",""
"18250.700000047684","","","survey-text","199","2952378","0.0-15.0-3.17","34043","List1B","black","woman","","","","","{""Q0"":""dave is being challenged by ruth ""}","<img src=""stim_listB/challenge3.gif""style=""height:400px;""></stim_listB>","is challenging","","","","","",""
"null","<div style=""font-size:60px;"">+</div>","","html-keyboard-response","200","2952881","0.0-15.0-0.18","34043","List1B","black","woman","","","","null","","","","","","","","",""
"null","<img src=""stim_listB/touch6.gif""style=""height:400px;""></stim_listB>","","html-keyboard-response","201","2954883","0.0-15.0-1.18","34043","List1B","black","woman","","","","null","","","","","","","","",""
"null","is being touched by","","html-keyboard-response","202","2956885","0.0-15.0-2.18","34043","List1B","black","woman","","","","null","","","","","","","","",""
"8443.199999928474","","","survey-text","203","2965330","0.0-15.0-3.18","34043","List1B","black","woman","","","","","{""Q0"":""fred is being touched by luke ""}","<img src=""stim_listB/touch6.gif""style=""height:400px;""></stim_listB>","is being touched by","","","","","",""
"null","<div style=""font-size:60px;"">+</div>","","html-keyboard-response","204","2965832","0.0-15.0-0.19","34043","List1B","black","woman","","","","null","","","","","","","","",""
"null","<img src=""stim_listB/oppose5.gif""style=""height:400px;""></stim_listB>","","html-keyboard-response","205","2967836","0.0-15.0-1.19","34043","List1B","black","woman","","","","null","","","","","","","","",""
"null","is opposing","","html-keyboard-response","206","2969837","0.0-15.0-2.19","34043","List1B","black","woman","","","","null","","","","","","","","",""
"9050.5","","","survey-text","207","2978890","0.0-15.0-3.19","34043","List1B","black","woman","","","","","{""Q0"":""dave is opposed by mike""}","<img src=""stim_listB/oppose5.gif""style=""height:400px;""></stim_listB>","is opposing","","","","","",""
"8248.200000047684","<img src='img/portrait_matrix_list1.jpg' style='width:900px;height:500px;''></img><p>If you have memorised all the portraits and names and are ready to start, press Continue.</p><p><strong>Please note: Your memory of these faces will be tested 4 times during this experiment.</strong></p>","0","html-button-response","208","2987141","0.0-16.0-0.0","34043","List1B","black","woman","","","","","","","","","","","","",""
"8093.5","<img src=""portrait/BM1.jpg""style=""height:400px;""></img>","4","html-button-response","209","2996238","0.0-16.0-1.0","34043","List1B","black","woman","","true","4","","","","","","","","","",""
"null","CORRECT","","html-keyboard-response","210","2997742","0.0-16.0-2.0-0.0","34043","List1B","black","woman","","","","null","","","","","","","","",""
"3206.1999999284744","<img src=""portrait/WM1.jpg""style=""height:400px;""></img>","6","html-button-response","211","3000949","0.0-16.0-4.0","34043","List1B","black","woman","","true","6","","","","","","","","","",""
"null","CORRECT","","html-keyboard-response","212","3002451","0.0-16.0-5.0-0.0","34043","List1B","black","woman","","","","null","","","","","","","","",""
"4088.5","<img src=""portrait/BM2.jpg""style=""height:400px;""></img>","5","html-button-response","213","3006541","0.0-16.0-7.0","34043","List1B","black","woman","","true","5","","","","","","","","","",""
"null","CORRECT","","html-keyboard-response","214","3008045","0.0-16.0-8.0-0.0","34043","List1B","black","woman","","","","null","","","","","","","","",""
"4287.399999976158","<img src=""portrait/WW1.jpg""style=""height:400px;""></img>","1","html-button-response","215","3012333","0.0-16.0-10.0","34043","List1B","black","woman","","true","1","","","","","","","","","",""
"null","CORRECT","","html-keyboard-response","216","3013836","0.0-16.0-11.0-0.0","34043","List1B","black","woman","","","","null","","","","","","","","",""
"1510","<img src=""portrait/BW2.jpg""style=""height:400px;""></img>","2","html-button-response","217","3015349","0.0-16.0-13.0","34043","List1B","black","woman","","true","2","","","","","","","","","",""
"null","CORRECT","","html-keyboard-response","218","3016853","0.0-16.0-14.0-0.0","34043","List1B","black","woman","","","","null","","","","","","","","",""
"3415.3000000715256","<img src=""portrait/WW2.jpg""style=""height:400px;""></img>","3","html-button-response","219","3020269","0.0-16.0-16.0","34043","List1B","black","woman","","true","3","","","","","","","","","",""
"null","CORRECT","","html-keyboard-response","220","3021772","0.0-16.0-17.0-0.0","34043","List1B","black","woman","","","","null","","","","","","","","",""
"2024","<img src=""portrait/WM2.jpg""style=""height:400px;""></img>","7","html-button-response","221","3023797","0.0-16.0-19.0","34043","List1B","black","woman","","true","7","","","","","","","","","",""
"null","CORRECT","","html-keyboard-response","222","3025300","0.0-16.0-20.0-0.0","34043","List1B","black","woman","","","","null","","","","","","","","",""
"3855.3000000715256","<img src=""portrait/BW1.jpg""style=""height:400px;""></img>","0","html-button-response","223","3029157","0.0-16.0-22.0","34043","List1B","black","woman","","true","0","","","","","","","","","",""
"null","CORRECT","","html-keyboard-response","224","3030659","0.0-16.0-23.0-0.0","34043","List1B","black","woman","","","","null","","","","","","","","",""
"1656.3000000715256","<p>You got 8 out of 8 right first time. Press Continue.</p>","0","html-button-response","225","3032317","0.0-16.0-25.0","34043","List1B","black","woman","","","","","","","","","","","","",""
"null","<div style=""font-size:60px;"">+</div>","","html-keyboard-response","226","3033820","0.0-17.0-0.0","34043","List1B","black","woman","","","","null","","","","","","","","",""
"null","<img src=""stim_listB/copy5.gif""style=""height:400px;""></stim_listB>","","html-keyboard-response","227","3035823","0.0-17.0-1.0","34043","List1B","black","woman","","","","null","","","","","","","","",""
"null","is copying","","html-keyboard-response","228","3037825","0.0-17.0-2.0","34043","List1B","black","woman","","","","null","","","","","","","","",""
"66136.89999997616","","","survey-text","229","3103964","0.0-17.0-3.0","34043","List1B","black","woman","","","","","{""Q0"":""mike is copying luke ""}","<img src=""stim_listB/copy5.gif""style=""height:400px;""></stim_listB>","is copying","","","","","",""
"null","<div style=""font-size:60px;"">+</div>","","html-keyboard-response","230","3104467","0.0-17.0-0.1","34043","List1B","black","woman","","","","null","","","","","","","","",""
"null","<img src=""stim_listB/touch5.gif""style=""height:400px;""></stim_listB>","","html-keyboard-response","231","3106469","0.0-17.0-1.1","34043","List1B","black","woman","","","","null","","","","","","","","",""
"null","is touching","","html-keyboard-response","232","3108470","0.0-17.0-2.1","34043","List1B","black","woman","","","","null","","","","","","","","",""
"8000","","","survey-text","233","3116472","0.0-17.0-3.1","34043","List1B","black","woman","","","","","{""Q0"":""dave is touching mike ""}","<img src=""stim_listB/touch5.gif""style=""height:400px;""></stim_listB>","is touching","","","","","",""
"null","<div style=""font-size:60px;"">+</div>","","html-keyboard-response","234","3116975","0.0-17.0-0.2","34043","List1B","black","woman","","","","null","","","","","","","","",""
"null","<img src=""stim_listB/touch4.gif""style=""height:400px;""></stim_listB>","","html-keyboard-response","235","3118977","0.0-17.0-1.2","34043","List1B","black","woman","","","","null","","","","","","","","",""
"null","is being touched by","","html-keyboard-response","236","3120980","0.0-17.0-2.2","34043","List1B","black","woman","","","","null","","","","","","","","",""
"9946.799999952316","","","survey-text","237","3130928","0.0-17.0-3.2","34043","List1B","black","woman","","","","","{""Q0"":""ruth is being touched by luke ""}","<img src=""stim_listB/touch4.gif""style=""height:400px;""></stim_listB>","is being touched by","","","","","",""
"null","<div style=""font-size:60px;"">+</div>","","html-keyboard-response","238","3131431","0.0-17.0-0.3","34043","List1B","black","woman","","","","null","","","","","","","","",""
"null","<img src=""stim_listB/copy4.gif""style=""height:400px;""></stim_listB>","","html-keyboard-response","239","3133433","0.0-17.0-1.3","34043","List1B","black","woman","","","","null","","","","","","","","",""
"null","is being copied by","","html-keyboard-response","240","3135435","0.0-17.0-2.3","34043","List1B","black","woman","","","","null","","","","","","","","",""
"22108.399999976158","","","survey-text","241","3157545","0.0-17.0-3.3","34043","List1B","black","woman","","","","","{""Q0"":""luke is copying jane ""}","<img src=""stim_listB/copy4.gif""style=""height:400px;""></stim_listB>","is being copied by","","","","","",""
"null","<div style=""font-size:60px;"">+</div>","","html-keyboard-response","242","3158047","0.0-17.0-0.4","34043","List1B","black","woman","","","","null","","","","","","","","",""
"null","<img src=""stim_listB/copy6.gif""style=""height:400px;""></stim_listB>","","html-keyboard-response","243","3160050","0.0-17.0-1.4","34043","List1B","black","woman","","","","null","","","","","","","","",""
"null","is being copied by","","html-keyboard-response","244","3162051","0.0-17.0-2.4","34043","List1B","black","woman","","","","null","","","","","","","","",""
"21234.099999904633","","","survey-text","245","3183288","0.0-17.0-3.4","34043","List1B","black","woman","","","","","{""Q0"":""fred is being copied by luke""}","<img src=""stim_listB/copy6.gif""style=""height:400px;""></stim_listB>","is being copied by","","","","","",""
"null","<div style=""font-size:60px;"">+</div>","","html-keyboard-response","246","3183790","0.0-17.0-0.5","34043","List1B","black","woman","","","","null","","","","","","","","",""
"null","<img src=""stim_listB/seduce1.gif""style=""height:400px;""></stim_listB>","","html-keyboard-response","247","3185793","0.0-17.0-1.5","34043","List1B","black","woman","","","","null","","","","","","","","",""
"null","is seducing","","html-keyboard-response","248","3187795","0.0-17.0-2.5","34043","List1B","black","woman","","","","null","","","","","","","","",""
"8674.600000023842","","","survey-text","249","3196472","0.0-17.0-3.5","34043","List1B","black","woman","","","","","{""Q0"":""fred is seducing kate ""}","<img src=""stim_listB/seduce1.gif""style=""height:400px;""></stim_listB>","is seducing","","","","","",""
"null","<div style=""font-size:60px;"">+</div>","","html-keyboard-response","250","3196974","0.0-17.0-0.6","34043","List1B","black","woman","","","","null","","","","","","","","",""
"null","<img src=""stim_listB/seduce2.gif""style=""height:400px;""></stim_listB>","","html-keyboard-response","251","3198977","0.0-17.0-1.6","34043","List1B","black","woman","","","","null","","","","","","","","",""
"null","is being seduced by","","html-keyboard-response","252","3200978","0.0-17.0-2.6","34043","List1B","black","woman","","","","null","","","","","","","","",""
"76031.10000002384","","","survey-text","253","3277011","0.0-17.0-3.6","34043","List1B","black","woman","","","","","{""Q0"":""beth is being seduced by mike""}","<img src=""stim_listB/seduce2.gif""style=""height:400px;""></stim_listB>","is being seduced by","","","","","",""
"null","<div style=""font-size:60px;"">+</div>","","html-keyboard-response","254","3277514","0.0-17.0-0.7","34043","List1B","black","woman","","","","null","","","","","","","","",""
"null","<img src=""stim_listB/challenge7.gif""style=""height:400px;""></stim_listB>","","html-keyboard-response","255","3279517","0.0-17.0-1.7","34043","List1B","black","woman","","","","null","","","","","","","","",""
"null","is challenging","","html-keyboard-response","256","3281519","0.0-17.0-2.7","34043","List1B","black","woman","","","","null","","","","","","","","",""
"11101.5","","","survey-text","257","3292624","0.0-17.0-3.7","34043","List1B","black","woman","","","","","{""Q0"":""ruth is challenging kate""}","<img src=""stim_listB/challenge7.gif""style=""height:400px;""></stim_listB>","is challenging","","","","","",""
"null","<div style=""font-size:60px;"">+</div>","","html-keyboard-response","258","3293126","0.0-17.0-0.8","34043","List1B","black","woman","","","","null","","","","","","","","",""
"null","<img src=""stim_listB/challenge8.gif""style=""height:400px;""></stim_listB>","","html-keyboard-response","259","3295128","0.0-17.0-1.8","34043","List1B","black","woman","","","","null","","","","","","","","",""
"null","is being challenged by","","html-keyboard-response","260","3297129","0.0-17.0-2.8","34043","List1B","black","woman","","","","null","","","","","","","","",""
"13811.899999976158","","","survey-text","261","3310943","0.0-17.0-3.8","34043","List1B","black","woman","","","","","{""Q0"":""jane is being challenged by beth ""}","<img src=""stim_listB/challenge8.gif""style=""height:400px;""></stim_listB>","is being challenged by","","","","","",""
"null","<div style=""font-size:60px;"">+</div>","","html-keyboard-response","262","3311446","0.0-17.0-0.9","34043","List1B","black","woman","","","","null","","","","","","","","",""
"null","<img src=""stim_listB/oppose3.gif""style=""height:400px;""></stim_listB>","","html-keyboard-response","263","3313448","0.0-17.0-1.9","34043","List1B","black","woman","","","","null","","","","","","","","",""
"null","is opposing","","html-keyboard-response","264","3315450","0.0-17.0-2.9","34043","List1B","black","woman","","","","null","","","","","","","","",""
"7386.700000047684","","","survey-text","265","3322839","0.0-17.0-3.9","34043","List1B","black","woman","","","","","{""Q0"":""jane is opposing dave""}","<img src=""stim_listB/oppose3.gif""style=""height:400px;""></stim_listB>","is opposing","","","","","",""
"null","<div style=""font-size:60px;"">+</div>","","html-keyboard-response","266","3323349","0.0-17.0-0.10","34043","List1B","black","woman","","","","null","","","","","","","","",""
"null","<img src=""stim_listB/shout1.gif""style=""height:400px;""></stim_listB>","","html-keyboard-response","267","3325352","0.0-17.0-1.10","34043","List1B","black","woman","","","","null","","","","","","","","",""
"null","is shouting at","","html-keyboard-response","268","3327355","0.0-17.0-2.10","34043","List1B","black","woman","","","","null","","","","","","","","",""
"9249.5","","","survey-text","269","3336607","0.0-17.0-3.10","34043","List1B","black","woman","","","","","{""Q0"":""beth is shouting at fred""}","<img src=""stim_listB/shout1.gif""style=""height:400px;""></stim_listB>","is shouting at","","","","","",""
"null","<div style=""font-size:60px;"">+</div>","","html-keyboard-response","270","3337110","0.0-17.0-0.11","34043","List1B","black","woman","","","","null","","","","","","","","",""
"null","<img src=""stim_listB/kiss1.gif""style=""height:400px;""></stim_listB>","","html-keyboard-response","271","3339113","0.0-17.0-1.11","34043","List1B","black","woman","","","","null","","","","","","","","",""
"null","is kissing","","html-keyboard-response","272","3341116","0.0-17.0-2.11","34043","List1B","black","woman","","","","null","","","","","","","","",""
"6240.199999928474","","","survey-text","273","3347359","0.0-17.0-3.11","34043","List1B","black","woman","","","","","{""Q0"":""fred is kissing beth ""}","<img src=""stim_listB/kiss1.gif""style=""height:400px;""></stim_listB>","is kissing","","","","","",""
"null","<div style=""font-size:60px;"">+</div>","","html-keyboard-response","274","3347861","0.0-17.0-0.12","34043","List1B","black","woman","","","","null","","","","","","","","",""
"null","<img src=""stim_listB/kiss7.gif""style=""height:400px;""></stim_listB>","","html-keyboard-response","275","3349864","0.0-17.0-1.12","34043","List1B","black","woman","","","","null","","","","","","","","",""
"null","is kissing","","html-keyboard-response","276","3351867","0.0-17.0-2.12","34043","List1B","black","woman","","","","null","","","","","","","","",""
"7265.100000023842","","","survey-text","277","3359134","0.0-17.0-3.12","34043","List1B","black","woman","","","","","{""Q0"":""beth is kissing ruth ""}","<img src=""stim_listB/kiss7.gif""style=""height:400px;""></stim_listB>","is kissing","","","","","",""
"null","<div style=""font-size:60px;"">+</div>","","html-keyboard-response","278","3359637","0.0-17.0-0.13","34043","List1B","black","woman","","","","null","","","","","","","","",""
"null","<img src=""stim_listB/seduce3.gif""style=""height:400px;""></stim_listB>","","html-keyboard-response","279","3361641","0.0-17.0-1.13","34043","List1B","black","woman","","","","null","","","","","","","","",""
"null","is seducing","","html-keyboard-response","280","3363643","0.0-17.0-2.13","34043","List1B","black","woman","","","","null","","","","","","","","",""
"7888.799999952316","","","survey-text","281","3371534","0.0-17.0-3.13","34043","List1B","black","woman","","","","","{""Q0"":""jane is seducing luke ""}","<img src=""stim_listB/seduce3.gif""style=""height:400px;""></stim_listB>","is seducing","","","","","",""
"null","<div style=""font-size:60px;"">+</div>","","html-keyboard-response","282","3372037","0.0-17.0-0.14","34043","List1B","black","woman","","","","null","","","","","","","","",""
"null","<img src=""stim_listB/look5.gif""style=""height:400px;""></stim_listB>","","html-keyboard-response","283","3374041","0.0-17.0-1.14","34043","List1B","black","woman","","","","null","","","","","","","","",""
"null","is looking at","","html-keyboard-response","284","3376046","0.0-17.0-2.14","34043","List1B","black","woman","","","","null","","","","","","","","",""
"6309.5","","","survey-text","285","3382358","0.0-17.0-3.14","34043","List1B","black","woman","","","","","{""Q0"":""luke is looking at fred""}","<img src=""stim_listB/look5.gif""style=""height:400px;""></stim_listB>","is looking at","","","","","",""
"null","<div style=""font-size:60px;"">+</div>","","html-keyboard-response","286","3382861","0.0-17.0-0.15","34043","List1B","black","woman","","","","null","","","","","","","","",""
"null","<img src=""stim_listB/shout2.gif""style=""height:400px;""></stim_listB>","","html-keyboard-response","287","3384864","0.0-17.0-1.15","34043","List1B","black","woman","","","","null","","","","","","","","",""
"null","is being shouted at by","","html-keyboard-response","288","3386866","0.0-17.0-2.15","34043","List1B","black","woman","","","","null","","","","","","","","",""
"13736.5","","","survey-text","289","3400606","0.0-17.0-3.15","34043","List1B","black","woman","","","","","{""Q0"":""kate is being shout at by mike ""}","<img src=""stim_listB/shout2.gif""style=""height:400px;""></stim_listB>","is being shouted at by","","","","","",""
"null","<div style=""font-size:60px;"">+</div>","","html-keyboard-response","290","3401110","0.0-17.0-0.16","34043","List1B","black","woman","","","","null","","","","","","","","",""
"null","<img src=""stim_listB/kiss8.gif""style=""height:400px;""></stim_listB>","","html-keyboard-response","291","3403114","0.0-17.0-1.16","34043","List1B","black","woman","","","","null","","","","","","","","",""
"null","is being kissed by","","html-keyboard-response","292","3405116","0.0-17.0-2.16","34043","List1B","black","woman","","","","null","","","","","","","","",""
"17591.300000071526","","","survey-text","293","3422709","0.0-17.0-3.16","34043","List1B","black","woman","","","","","{""Q0"":""kate is being kissed by jane ""}","<img src=""stim_listB/kiss8.gif""style=""height:400px;""></stim_listB>","is being kissed by","","","","","",""
"null","<div style=""font-size:60px;"">+</div>","","html-keyboard-response","294","3423212","0.0-17.0-0.17","34043","List1B","black","woman","","","","null","","","","","","","","",""
"null","<img src=""stim_listB/oppose2.gif""style=""height:400px;""></stim_listB>","","html-keyboard-response","295","3425215","0.0-17.0-1.17","34043","List1B","black","woman","","","","null","","","","","","","","",""
"null","is being opposed by","","html-keyboard-response","296","3427220","0.0-17.0-2.17","34043","List1B","black","woman","","","","null","","","","","","","","",""
"10007.899999976158","","","survey-text","297","3437230","0.0-17.0-3.17","34043","List1B","black","woman","","","","","{""Q0"":""beth is being opposed at by fred""}","<img src=""stim_listB/oppose2.gif""style=""height:400px;""></stim_listB>","is being opposed by","","","","","",""
"null","<div style=""font-size:60px;"">+</div>","","html-keyboard-response","298","3437733","0.0-17.0-0.18","34043","List1B","black","woman","","","","null","","","","","","","","",""
"null","<img src=""stim_listB/seduce7.gif""style=""height:400px;""></stim_listB>","","html-keyboard-response","299","3439736","0.0-17.0-1.18","34043","List1B","black","woman","","","","null","","","","","","","","",""
"null","is seducing","","html-keyboard-response","300","3441737","0.0-17.0-2.18","34043","List1B","black","woman","","","","null","","","","","","","","",""
"7866.400000095367","","","survey-text","301","3449606","0.0-17.0-3.18","34043","List1B","black","woman","","","","","{""Q0"":""beth is seducing jane ""}","<img src=""stim_listB/seduce7.gif""style=""height:400px;""></stim_listB>","is seducing","","","","","",""
"null","<div style=""font-size:60px;"">+</div>","","html-keyboard-response","302","3450109","0.0-17.0-0.19","34043","List1B","black","woman","","","","null","","","","","","","","",""
"null","<img src=""stim_listB/hug2.gif""style=""height:400px;""></stim_listB>","","html-keyboard-response","303","3452111","0.0-17.0-1.19","34043","List1B","black","woman","","","","null","","","","","","","","",""
"null","is being hugged by","","html-keyboard-response","304","3454113","0.0-17.0-2.19","34043","List1B","black","woman","","","","null","","","","","","","","",""
"12921.899999976158","","","survey-text","305","3467037","0.0-17.0-3.19","34043","List1B","black","woman","","","","","{""Q0"":""kate is being hugged by mike ""}","<img src=""stim_listB/hug2.gif""style=""height:400px;""></stim_listB>","is being hugged by","","","","","",""
"141304.19999992847","<img src='img/portrait_matrix_list1.jpg' style='width:900px;height:500px;''></img><p>If you have memorised all the portraits and names and are ready to start, press Continue.</p><p><strong>Please note: Your memory of these faces will be tested 4 times during this experiment.</strong></p>","0","html-button-response","306","3608344","0.0-18.0-0.0","34043","List1B","black","woman","","","","","","","","","","","","",""
"2796.5","<img src=""portrait/BW2.jpg""style=""height:400px;""></img>","2","html-button-response","307","3612143","0.0-18.0-1.0","34043","List1B","black","woman","","true","2","","","","","","","","","",""
"null","CORRECT","","html-keyboard-response","308","3613647","0.0-18.0-2.0-0.0","34043","List1B","black","woman","","","","null","","","","","","","","",""
"3711.3000000715256","<img src=""portrait/WM1.jpg""style=""height:400px;""></img>","6","html-button-response","309","3617360","0.0-18.0-4.0","34043","List1B","black","woman","","true","6","","","","","","","","","",""
"null","CORRECT","","html-keyboard-response","310","3618863","0.0-18.0-5.0-0.0","34043","List1B","black","woman","","","","null","","","","","","","","",""
"1598.3999999761581","<img src=""portrait/BM1.jpg""style=""height:400px;""></img>","4","html-button-response","311","3620463","0.0-18.0-7.0","34043","List1B","black","woman","","true","4","","","","","","","","","",""
"null","CORRECT","","html-keyboard-response","312","3621967","0.0-18.0-8.0-0.0","34043","List1B","black","woman","","","","null","","","","","","","","",""
"1662.0999999046326","<img src=""portrait/WM2.jpg""style=""height:400px;""></img>","7","html-button-response","313","3623631","0.0-18.0-10.0","34043","List1B","black","woman","","true","7","","","","","","","","","",""
"null","CORRECT","","html-keyboard-response","314","3625135","0.0-18.0-11.0-0.0","34043","List1B","black","woman","","","","null","","","","","","","","",""
"3279.0999999046326","<img src=""portrait/BM2.jpg""style=""height:400px;""></img>","5","html-button-response","315","3628415","0.0-18.0-13.0","34043","List1B","black","woman","","true","5","","","","","","","","","",""
"null","CORRECT","","html-keyboard-response","316","3629917","0.0-18.0-14.0-0.0","34043","List1B","black","woman","","","","null","","","","","","","","",""
"2040.7999999523163","<img src=""portrait/WW2.jpg""style=""height:400px;""></img>","3","html-button-response","317","3631959","0.0-18.0-16.0","34043","List1B","black","woman","","true","3","","","","","","","","","",""
"null","CORRECT","","html-keyboard-response","318","3633463","0.0-18.0-17.0-0.0","34043","List1B","black","woman","","","","null","","","","","","","","",""
"1855.0999999046326","<img src=""portrait/WW1.jpg""style=""height:400px;""></img>","1","html-button-response","319","3635319","0.0-18.0-19.0","34043","List1B","black","woman","","true","1","","","","","","","","","",""
"null","CORRECT","","html-keyboard-response","320","3636823","0.0-18.0-20.0-0.0","34043","List1B","black","woman","","","","null","","","","","","","","",""
"3638.5","<img src=""portrait/BW1.jpg""style=""height:400px;""></img>","0","html-button-response","321","3640463","0.0-18.0-22.0","34043","List1B","black","woman","","true","0","","","","","","","","","",""
"null","CORRECT","","html-keyboard-response","322","3641969","0.0-18.0-23.0-0.0","34043","List1B","black","woman","","","","null","","","","","","","","",""
"7396.899999976158","<p>You got 8 out of 8 right first time. Press Continue.</p>","0","html-button-response","323","3649368","0.0-18.0-25.0","34043","List1B","black","woman","","","","","","","","","","","","",""
"null","<div style=""font-size:60px;"">+</div>","","html-keyboard-response","324","3650871","0.0-19.0-0.0","34043","List1B","black","woman","","","","null","","","","","","","","",""
"null","<img src=""stim_listB/copy2.gif""style=""height:400px;""></stim_listB>","","html-keyboard-response","325","3652874","0.0-19.0-1.0","34043","List1B","black","woman","","","","null","","","","","","","","",""
"null","is being copied by","","html-keyboard-response","326","3654876","0.0-19.0-2.0","34043","List1B","black","woman","","","","null","","","","","","","","",""
"13293.399999976158","","","survey-text","327","3668172","0.0-19.0-3.0","34043","List1B","black","woman","","","","","{""Q0"":""fred is being copied by kate""}","<img src=""stim_listB/copy2.gif""style=""height:400px;""></stim_listB>","is being copied by","","","","","",""
"null","<div style=""font-size:60px;"">+</div>","","html-keyboard-response","328","3668675","0.0-19.0-0.1","34043","List1B","black","woman","","","","null","","","","","","","","",""
"null","<img src=""stim_listB/greet7.gif""style=""height:400px;""></stim_listB>","","html-keyboard-response","329","3670678","0.0-19.0-1.1","34043","List1B","black","woman","","","","null","","","","","","","","",""
"null","is greeting","","html-keyboard-response","330","3672679","0.0-19.0-2.1","34043","List1B","black","woman","","","","null","","","","","","","","",""
"11217.200000047684","","","survey-text","331","3683899","0.0-19.0-3.1","34043","List1B","black","woman","","","","","{""Q0"":""kate is greeting ruth ""}","<img src=""stim_listB/greet7.gif""style=""height:400px;""></stim_listB>","is greeting","","","","","",""
"null","<div style=""font-size:60px;"">+</div>","","html-keyboard-response","332","3684402","0.0-19.0-0.2","34043","List1B","black","woman","","","","null","","","","","","","","",""
"null","<img src=""stim_listB/oppose1.gif""style=""height:400px;""></stim_listB>","","html-keyboard-response","333","3686405","0.0-19.0-1.2","34043","List1B","black","woman","","","","null","","","","","","","","",""
"null","is opposing","","html-keyboard-response","334","3688408","0.0-19.0-2.2","34043","List1B","black","woman","","","","null","","","","","","","","",""
"10552.700000047684","","","survey-text","335","3698963","0.0-19.0-3.2","34043","List1B","black","woman","","","","","{""Q0"":""kate is opposing mike ""}","<img src=""stim_listB/oppose1.gif""style=""height:400px;""></stim_listB>","is opposing","","","","","",""
"null","<div style=""font-size:60px;"">+</div>","","html-keyboard-response","336","3699466","0.0-19.0-0.3","34043","List1B","black","woman","","","","null","","","","","","","","",""
"null","<img src=""stim_listB/greet2.gif""style=""height:400px;""></stim_listB>","","html-keyboard-response","337","3701468","0.0-19.0-1.3","34043","List1B","black","woman","","","","null","","","","","","","","",""
"null","is being greeted by","","html-keyboard-response","338","3703470","0.0-19.0-2.3","34043","List1B","black","woman","","","","null","","","","","","","","",""
"21721.100000023842","","","survey-text","339","3725195","0.0-19.0-3.3","34043","List1B","black","woman","","","","","{""Q0"":""fred is being greeted by kate""}","<img src=""stim_listB/greet2.gif""style=""height:400px;""></stim_listB>","is being greeted by","","","","","",""
"null","<div style=""font-size:60px;"">+</div>","","html-keyboard-response","340","3725697","0.0-19.0-0.4","34043","List1B","black","woman","","","","null","","","","","","","","",""
"null","<img src=""stim_listB/challenge2.gif""style=""height:400px;""></stim_listB>","","html-keyboard-response","341","3727698","0.0-19.0-1.4","34043","List1B","black","woman","","","","null","","","","","","","","",""
"null","is being challenged by","","html-keyboard-response","342","3729700","0.0-19.0-2.4","34043","List1B","black","woman","","","","null","","","","","","","","",""
"11189.200000047684","","","survey-text","343","3740892","0.0-19.0-3.4","34043","List1B","black","woman","","","","","{""Q0"":""kate is being challenged by fred""}","<img src=""stim_listB/challenge2.gif""style=""height:400px;""></stim_listB>","is being challenged by","","","","","",""
"null","<div style=""font-size:60px;"">+</div>","","html-keyboard-response","344","3741395","0.0-19.0-0.5","34043","List1B","black","woman","","","","null","","","","","","","","",""
"null","<img src=""stim_listB/hug5.gif""style=""height:400px;""></stim_listB>","","html-keyboard-response","345","3743397","0.0-19.0-1.5","34043","List1B","black","woman","","","","null","","","","","","","","",""
"null","is hugging","","html-keyboard-response","346","3745399","0.0-19.0-2.5","34043","List1B","black","woman","","","","null","","","","","","","","",""
"44548.699999928474","","","survey-text","347","3789950","0.0-19.0-3.5","34043","List1B","black","woman","","","","","{""Q0"":""luke is hugging fred ""}","<img src=""stim_listB/hug5.gif""style=""height:400px;""></stim_listB>","is hugging","","","","","",""
"null","<div style=""font-size:60px;"">+</div>","","html-keyboard-response","348","3790452","0.0-19.0-0.6","34043","List1B","black","woman","","","","null","","","","","","","","",""
"null","<img src=""stim_listB/touch1.gif""style=""height:400px;""></stim_listB>","","html-keyboard-response","349","3792455","0.0-19.0-1.6","34043","List1B","black","woman","","","","null","","","","","","","","",""
"null","is touching","","html-keyboard-response","350","3794457","0.0-19.0-2.6","34043","List1B","black","woman","","","","null","","","","","","","","",""
"12134.199999928474","","","survey-text","351","3806594","0.0-19.0-3.6","34043","List1B","black","woman","","","","","{""Q0"":""kate is touching mile""}","<img src=""stim_listB/touch1.gif""style=""height:400px;""></stim_listB>","is touching","","","","","",""
"null","<div style=""font-size:60px;"">+</div>","","html-keyboard-response","352","3807097","0.0-19.0-0.7","34043","List1B","black","woman","","","","null","","","","","","","","",""
"null","<img src=""stim_listB/touch2.gif""style=""height:400px;""></stim_listB>","","html-keyboard-response","353","3809099","0.0-19.0-1.7","34043","List1B","black","woman","","","","null","","","","","","","","",""
"null","is being touched by","","html-keyboard-response","354","3811101","0.0-19.0-2.7","34043","List1B","black","woman","","","","null","","","","","","","","",""
"15728.300000071526","","","survey-text","355","3826834","0.0-19.0-3.7","34043","List1B","black","woman","","","","","{""Q0"":""beth is being touched by fred""}","<img src=""stim_listB/touch2.gif""style=""height:400px;""></stim_listB>","is being touched by","","","","","",""
"null","<div style=""font-size:60px;"">+</div>","","html-keyboard-response","356","3827339","0.0-19.0-0.8","34043","List1B","black","woman","","","","null","","","","","","","","",""
"null","<img src=""stim_listB/copy8.gif""style=""height:400px;""></stim_listB>","","html-keyboard-response","357","3829342","0.0-19.0-1.8","34043","List1B","black","woman","","","","null","","","","","","","","",""
"null","is being copied by","","html-keyboard-response","358","3831344","0.0-19.0-2.8","34043","List1B","black","woman","","","","null","","","","","","","","",""
"11480.100000023842","","","survey-text","359","3842826","0.0-19.0-3.8","34043","List1B","black","woman","","","","","{""Q0"":""jane is being copied by beth ""}","<img src=""stim_listB/copy8.gif""style=""height:400px;""></stim_listB>","is being copied by","","","","","",""
"null","<div style=""font-size:60px;"">+</div>","","html-keyboard-response","360","3843330","0.0-19.0-0.9","34043","List1B","black","woman","","","","null","","","","","","","","",""
"null","<img src=""stim_listB/hug4.gif""style=""height:400px;""></stim_listB>","","html-keyboard-response","361","3845332","0.0-19.0-1.9","34043","List1B","black","woman","","","","null","","","","","","","","",""
"null","is being hugged by","","html-keyboard-response","362","3847334","0.0-19.0-2.9","34043","List1B","black","woman","","","","null","","","","","","","","",""
"18616.799999952316","","","survey-text","363","3865953","0.0-19.0-3.9","34043","List1B","black","woman","","","","","{""Q0"":""jane is being hugged by dave""}","<img src=""stim_listB/hug4.gif""style=""height:400px;""></stim_listB>","is being hugged by","","","","","",""
"null","<div style=""font-size:60px;"">+</div>","","html-keyboard-response","364","3866457","0.0-19.0-0.10","34043","List1B","black","woman","","","","null","","","","","","","","",""
"null","<img src=""stim_listB/challenge4.gif""style=""height:400px;""></stim_listB>","","html-keyboard-response","365","3868460","0.0-19.0-1.10","34043","List1B","black","woman","","","","null","","","","","","","","",""
"null","is being challenged by","","html-keyboard-response","366","3870461","0.0-19.0-2.10","34043","List1B","black","woman","","","","null","","","","","","","","",""
"12665.800000071526","","","survey-text","367","3883129","0.0-19.0-3.10","34043","List1B","black","woman","","","","","{""Q0"":""luke is being challenged by jane""}","<img src=""stim_listB/challenge4.gif""style=""height:400px;""></stim_listB>","is being challenged by","","","","","",""
"null","<div style=""font-size:60px;"">+</div>","","html-keyboard-response","368","3883632","0.0-19.0-0.11","34043","List1B","black","woman","","","","null","","","","","","","","",""
"null","<img src=""stim_listB/challenge5.gif""style=""height:400px;""></stim_listB>","","html-keyboard-response","369","3885635","0.0-19.0-1.11","34043","List1B","black","woman","","","","null","","","","","","","","",""
"null","is challenging","","html-keyboard-response","370","3887638","0.0-19.0-2.11","34043","List1B","black","woman","","","","null","","","","","","","","",""
"9615.200000047684","","","survey-text","371","3897257","0.0-19.0-3.11","34043","List1B","black","woman","","","","","{""Q0"":""mike is challenging luke""}","<img src=""stim_listB/challenge5.gif""style=""height:400px;""></stim_listB>","is challenging","","","","","",""
"null","<div style=""font-size:60px;"">+</div>","","html-keyboard-response","372","3897759","0.0-19.0-0.12","34043","List1B","black","woman","","","","null","","","","","","","","",""
"null","<img src=""stim_listB/copy7.gif""style=""height:400px;""></stim_listB>","","html-keyboard-response","373","3899763","0.0-19.0-1.12","34043","List1B","black","woman","","","","null","","","","","","","","",""
"null","is copying","","html-keyboard-response","374","3901765","0.0-19.0-2.12","34043","List1B","black","woman","","","","null","","","","","","","","",""
"12961.099999904633","","","survey-text","375","3914729","0.0-19.0-3.12","34043","List1B","black","woman","","","","","{""Q0"":""ruth is being copied by kate""}","<img src=""stim_listB/copy7.gif""style=""height:400px;""></stim_listB>","is copying","","","","","",""
"null","<div style=""font-size:60px;"">+</div>","","html-keyboard-response","376","3915232","0.0-19.0-0.13","34043","List1B","black","woman","","","","null","","","","","","","","",""
"null","<img src=""stim_listB/greet6.gif""style=""height:400px;""></stim_listB>","","html-keyboard-response","377","3917235","0.0-19.0-1.13","34043","List1B","black","woman","","","","null","","","","","","","","",""
"null","is being greeted by","","html-keyboard-response","378","3919237","0.0-19.0-2.13","34043","List1B","black","woman","","","","null","","","","","","","","",""
"13883.199999928474","","","survey-text","379","3933123","0.0-19.0-3.13","34043","List1B","black","woman","","","","","{""Q0"":""fred is being greeted by dave""}","<img src=""stim_listB/greet6.gif""style=""height:400px;""></stim_listB>","is being greeted by","","","","","",""
"null","<div style=""font-size:60px;"">+</div>","","html-keyboard-response","380","3933626","0.0-19.0-0.14","34043","List1B","black","woman","","","","null","","","","","","","","",""
"null","<img src=""stim_listB/oppose8.gif""style=""height:400px;""></stim_listB>","","html-keyboard-response","381","3935628","0.0-19.0-1.14","34043","List1B","black","woman","","","","null","","","","","","","","",""
"null","is being opposed by","","html-keyboard-response","382","3937630","0.0-19.0-2.14","34043","List1B","black","woman","","","","null","","","","","","","","",""
"15215.699999928474","","","survey-text","383","3952848","0.0-19.0-3.14","34043","List1B","black","woman","","","","","{""Q0"":""ruth is being opposed by beth""}","<img src=""stim_listB/oppose8.gif""style=""height:400px;""></stim_listB>","is being opposed by","","","","","",""
"null","<div style=""font-size:60px;"">+</div>","","html-keyboard-response","384","3953351","0.0-19.0-0.15","34043","List1B","black","woman","","","","null","","","","","","","","",""
"null","<img src=""stim_listB/oppose6.gif""style=""height:400px;""></stim_listB>","","html-keyboard-response","385","3955354","0.0-19.0-1.15","34043","List1B","black","woman","","","","null","","","","","","","","",""
"null","is being opposed by","","html-keyboard-response","386","3957357","0.0-19.0-2.15","34043","List1B","black","woman","","","","null","","","","","","","","",""
"16240.5","","","survey-text","387","3973600","0.0-19.0-3.15","34043","List1B","black","woman","","","","","{""Q0"":""fred is being opposed by luke""}","<img src=""stim_listB/oppose6.gif""style=""height:400px;""></stim_listB>","is being opposed by","","","","","",""
"null","<div style=""font-size:60px;"">+</div>","","html-keyboard-response","388","3974103","0.0-19.0-0.16","34043","List1B","black","woman","","","","null","","","","","","","","",""
"null","<img src=""stim_listB/look3.gif""style=""height:400px;""></stim_listB>","","html-keyboard-response","389","3976106","0.0-19.0-1.16","34043","List1B","black","woman","","","","null","","","","","","","","",""
"null","is looking at","","html-keyboard-response","390","3978108","0.0-19.0-2.16","34043","List1B","black","woman","","","","null","","","","","","","","",""
"21120.399999976158","","","survey-text","391","3999232","0.0-19.0-3.16","34043","List1B","black","woman","","","","","{""Q0"":""luke is looking at ruth""}","<img src=""stim_listB/look3.gif""style=""height:400px;""></stim_listB>","is looking at","","","","","",""
"null","<div style=""font-size:60px;"">+</div>","","html-keyboard-response","392","3999736","0.0-19.0-0.17","34043","List1B","black","woman","","","","null","","","","","","","","",""
"null","<img src=""stim_listB/greet3.gif""style=""height:400px;""></stim_listB>","","html-keyboard-response","393","4001740","0.0-19.0-1.17","34043","List1B","black","woman","","","","null","","","","","","","","",""
"null","is greeting","","html-keyboard-response","394","4003741","0.0-19.0-2.17","34043","List1B","black","woman","","","","null","","","","","","","","",""
"9823.899999976158","","","survey-text","395","4013568","0.0-19.0-3.17","34043","List1B","black","woman","","","","","{""Q0"":""ruth is greeting dave""}","<img src=""stim_listB/greet3.gif""style=""height:400px;""></stim_listB>","is greeting","","","","","",""
"null","<div style=""font-size:60px;"">+</div>","","html-keyboard-response","396","4014071","0.0-19.0-0.18","34043","List1B","black","woman","","","","null","","","","","","","","",""
"null","<img src=""stim_listB/shout7.gif""style=""height:400px;""></stim_listB>","","html-keyboard-response","397","4016074","0.0-19.0-1.18","34043","List1B","black","woman","","","","null","","","","","","","","",""
"null","is shouting at","","html-keyboard-response","398","4018076","0.0-19.0-2.18","34043","List1B","black","woman","","","","null","","","","","","","","",""
"14257.5","","","survey-text","399","4032336","0.0-19.0-3.18","34043","List1B","black","woman","","","","","{""Q0"":""beth is shouting at ruth""}","<img src=""stim_listB/shout7.gif""style=""height:400px;""></stim_listB>","is shouting at","","","","","",""
"null","<div style=""font-size:60px;"">+</div>","","html-keyboard-response","400","4032839","0.0-19.0-0.19","34043","List1B","black","woman","","","","null","","","","","","","","",""
"null","<img src=""stim_listB/shout4.gif""style=""height:400px;""></stim_listB>","","html-keyboard-response","401","4034842","0.0-19.0-1.19","34043","List1B","black","woman","","","","null","","","","","","","","",""
"null","is being shouted at by","","html-keyboard-response","402","4036844","0.0-19.0-2.19","34043","List1B","black","woman","","","","null","","","","","","","","",""
"19185","","","survey-text","403","4056032","0.0-19.0-3.19","34043","List1B","black","woman","","","","","{""Q0"":""dave is being shouted at by jane""}","<img src=""stim_listB/shout4.gif""style=""height:400px;""></stim_listB>","is being shouted at by","","","","","",""
"7361","<p>Thank you for completing that task.</p><p>The final part of this session is a questionnaire that will take about 4 minutes.</p><p>Press Continue.</p>","0","html-button-response","404","4063395","0.0-20.0","34043","List1B","black","woman","","","","","","","","","","","","",""
"59052","","","survey-text","405","4123452","0.0-21.0","34043","List1B","black","woman","","","","","{""Q0"":""36"",""Q1"":""creole"",""Q2"":""english"",""Q3"":""United States"",""Q4"":""haitian american"",""Q5"":""black"",""Q6"":""female""}","","","demographics","","","","",""
"2803.7999999523163","<p>Have you lived in the USA for the last 5 years or more?</p>","0","html-button-response","406","4126259","0.0-22.0","34043","List1B","black","woman","","","","","","","","fiveyears","","","","",""
"3861.600000023842","<p>Move the slider to show the extent to which you agree with the following statements.</p>","0","html-button-response","407","4131123","0.0-23.0","34043","List1B","black","woman","","","","","","","","","","","","",""
"28891.399999976158","","","html-slider-response","408","4161019","0.0-24.0-0.0-0.0","34043","List1B","black","woman","","","","","","","","survey_race","63","","","I am similar to the average person of my race.","similar"
"7437.600000023842","","","html-slider-response","409","4168458","0.0-24.0-0.0-0.1","34043","List1B","black","woman","","","","","","","","survey_race","67","","","Being my age gives me a good feeling.","filler"
"4621.700000047684","","","html-slider-response","410","4173083","0.0-24.0-0.0-0.2","34043","List1B","black","woman","","","","","","","","survey_race","87","","","I feel solidarity with my race.","solidarity"
"7796.399999976158","","","html-slider-response","411","4180882","0.0-24.0-0.0-0.3","34043","List1B","black","woman","","","","","","","","survey_race","100","","","The fact that I am my race is an important part of my identity.","identity"
"7061.199999928474","","","html-slider-response","412","4187945","0.0-24.0-0.0-0.4","34043","List1B","black","woman","","","","","","","","survey_race","70","","","I am glad to be the age I am.","filler"
"7790.399999976158","","","html-slider-response","413","4195738","0.0-24.0-0.0-0.5","34043","List1B","black","woman","","","","","","","","survey_race","24","","","Getting older does not worry me.","filler"
"3499.899999976158","","","html-slider-response","414","4199241","0.0-24.0-0.0-0.6","34043","List1B","black","woman","","","","","","","","survey_race","100","","","I am glad to be my race.","glad"
"3790.0999999046326","","","html-slider-response","415","4203033","0.0-24.0-0.0-0.7","34043","List1B","black","woman","","","","","","","","survey_race","10","","","I consider myself an extrovert.","filler"
"5566.199999928474","","","html-slider-response","416","4208601","0.0-24.0-0.0-0.8","34043","List1B","black","woman","","","","","","","","survey_race","83","","","I have a lot in common with the average person of my race.","average"
"3598.100000023842","","","html-slider-response","417","4212202","0.0-24.0-0.0-0.9","34043","List1B","black","woman","","","","","","","","survey_race","88","","","I feel a bond with my race.","bond"
"8868.899999976158","","","html-slider-response","418","4221073","0.0-24.0-0.0-0.10","34043","List1B","black","woman","","","","","","","","survey_race","55","","","I enjoy being in large groups.","filler"
"5269.299999952316","","","html-slider-response","419","4226345","0.0-24.0-0.0-0.11","34043","List1B","black","woman","","","","","","","","survey_race","80","","","The older I get, the wiser I feel.","filler"
"5637.600000023842","","","html-slider-response","420","4231985","0.0-24.0-0.0-0.12","34043","List1B","black","woman","","","","","","","","survey_race","67","","","I have a lot in common with people of a similar age to me.","filler"
"3885.7999999523163","","","html-slider-response","421","4235873","0.0-24.0-0.0-0.13","34043","List1B","black","woman","","","","","","","","survey_race","93","","","I feel committed to my race.","committed"
"7670.199999928474","","","html-slider-response","422","4243545","0.0-24.0-0.0-0.14","34043","List1B","black","woman","","","","","","","","survey_race","68","","","I often think about the fact that I am my race.","often"
"6677.799999952316","","","html-slider-response","423","4250225","0.0-24.0-0.0-0.15","34043","List1B","black","woman","","","","","","","","survey_race","17","","","My age is not an important part of who I am.","filler"
"8565.5","","","html-slider-response","424","4258793","0.0-24.0-0.0-0.16","34043","List1B","black","woman","","","","","","","","survey_race","46","","","I often think about the fact that I am my age.","filler"
"7381.5","","","html-slider-response","425","4266177","0.0-24.0-0.0-0.17","34043","List1B","black","woman","","","","","","","","survey_race","79","","","I feel solidarity with people the same age as me.","filler"
"4133.899999976158","","","html-slider-response","426","4270313","0.0-24.0-0.0-0.18","34043","List1B","black","woman","","","","","","","","survey_race","92","","","Being my race gives me a good feeling.","feeling"
"8309.200000047684","","","html-slider-response","427","4278625","0.0-24.0-0.0-0.19","34043","List1B","black","woman","","","","","","","","survey_race","77","","","People my age have a lot in common with each other.","filler"
"4269.899999976158","","","html-slider-response","428","4282897","0.0-24.0-0.0-0.20","34043","List1B","black","woman","","","","","","","","survey_race","86","","","I feel a bond with people the same age as me.","filler"
"6293.299999952316","","","html-slider-response","429","4289193","0.0-24.0-0.0-0.21","34043","List1B","black","woman","","","","","","","","survey_race","89","","","Being my race is an important part of how I see myself.","important"
"7462.399999976158","","","html-slider-response","430","4296657","0.0-24.0-0.0-0.22","34043","List1B","black","woman","","","","","","","","survey_race","79","","","I think that my race has a lot to be proud of.","proud"
"9685.900000095367","","","html-slider-response","431","4306344","0.0-24.0-0.0-0.23","34043","List1B","black","woman","","","","","","","","survey_race","78","","","People of my race are very similar to each other.","verysimilar"
"6374.100000023842","","","html-slider-response","432","4312721","0.0-24.0-0.0-0.24","34043","List1B","black","woman","","","","","","","","survey_race","100","","","It is pleasant to be my race.","pleasant"
"7397.5","","","html-slider-response","433","4320120","0.0-24.0-0.0-0.25","34043","List1B","black","woman","","","","","","","","survey_race","88","","","People of my race have a lot in common with each other.","common"
"6414.100000023842","","","html-slider-response","434","4326536","0.0-24.0-0.0-0.26","34043","List1B","black","woman","","","","","","","","survey_race","74","","","I am glad to be my age.","filler"
"3854.100000023842","","","html-slider-response","435","4330392","0.0-24.0-0.0-0.27","34043","List1B","black","woman","","","","","","","","survey_race","91","","","I consider myself an introvert.","filler"
"3014.2000000476837","","","html-slider-response","436","4333408","0.0-24.0-1.0-0.0","34043","List1B","black","woman","","","","","","","","survey_gender","100","","","I am glad to be my gender.","glad"
"10006.200000047684","","","html-slider-response","437","4343416","0.0-24.0-1.0-0.1","34043","List1B","black","woman","","","","","","","","survey_gender","84","","","I am similar to the average person of my gender.","similar"
"7830","","","html-slider-response","438","4351248","0.0-24.0-1.0-0.2","34043","List1B","black","woman","","","","","","","","survey_gender","0","","","Family is not more important to me than friendship.","filler"
"5221.200000047684","","","html-slider-response","439","4356472","0.0-24.0-1.0-0.3","34043","List1B","black","woman","","","","","","","","survey_gender","19","","","I feel a bond with my friends.","filler"
"3982.1999999284744","","","html-slider-response","440","4360456","0.0-24.0-1.0-0.4","34043","List1B","black","woman","","","","","","","","survey_gender","88","","","I feel solidarity with my gender.","solidarity"
"5654","","","html-slider-response","441","4366112","0.0-24.0-1.0-0.5","34043","List1B","black","woman","","","","","","","","survey_gender","90","","","I feel solidarity with my friends.","filler"
"8166","","","html-slider-response","442","4374280","0.0-24.0-1.0-0.6","34043","List1B","black","woman","","","","","","","","survey_gender","92","","","I think that my gender has a lot to be proud of.","proud"
"18309.100000023842","","","html-slider-response","443","4392592","0.0-24.0-1.0-0.7","34043","List1B","black","woman","","","","","","","","survey_gender","94","","","I have a lot in common with the average person of my gender.","average"
"7725.699999928474","","","html-slider-response","444","4400320","0.0-24.0-1.0-0.8","34043","List1B","black","woman","","","","","","","","survey_gender","44","","","Being around my friends gives me a good feeling.","filler"
"6501.899999976158","","","html-slider-response","445","4406823","0.0-24.0-1.0-0.9","34043","List1B","black","woman","","","","","","","","survey_gender","36","","","Most of the friends in my life are very similar to me.","filler"
"2870.2000000476837","","","html-slider-response","446","4409696","0.0-24.0-1.0-0.10","34043","List1B","black","woman","","","","","","","","survey_gender","96","","","I feel committed to my gender.","committed"
"3933.7999999523163","","","html-slider-response","447","4413632","0.0-24.0-1.0-0.11","34043","List1B","black","woman","","","","","","","","survey_gender","92","","","It is pleasant to be my gender.","pleasant"
"3333.7000000476837","","","html-slider-response","448","4416967","0.0-24.0-1.0-0.12","34043","List1B","black","woman","","","","","","","","survey_gender","91","","","Being my gender gives me a good feeling.","feeling"
"6542","","","html-slider-response","449","4423511","0.0-24.0-1.0-0.13","34043","List1B","black","woman","","","","","","","","survey_gender","95","","","I would say I am an animal person.","filler"
"4446","","","html-slider-response","450","4427959","0.0-24.0-1.0-0.14","34043","List1B","black","woman","","","","","","","","survey_gender","15","","","Routine is not important to me.","filler"
"4461.899999976158","","","html-slider-response","451","4432424","0.0-24.0-1.0-0.15","34043","List1B","black","woman","","","","","","","","survey_gender","95","","","Being my gender is an important part of how I see myself.","important"
"3845.600000023842","","","html-slider-response","452","4436271","0.0-24.0-1.0-0.16","34043","List1B","black","woman","","","","","","","","survey_gender","89","","","I consider myself a highly empathetic person.","filler"
"6502","","","html-slider-response","453","4442775","0.0-24.0-1.0-0.17","34043","List1B","black","woman","","","","","","","","survey_gender","76","","","People of my gender have a lot in common with each other.","common"
"6077.699999928474","","","html-slider-response","454","4448855","0.0-24.0-1.0-0.18","34043","List1B","black","woman","","","","","","","","survey_gender","28","","","My friends have a lot in common with each other.","filler"
"3606.5","","","html-slider-response","455","4452464","0.0-24.0-1.0-0.19","34043","List1B","black","woman","","","","","","","","survey_gender","78","","","I often think about my actions.","filler"
"18869.400000095367","","","html-slider-response","456","4471335","0.0-24.0-1.0-0.20","34043","List1B","black","woman","","","","","","","","survey_gender","85","","","I have a lot in common with my friends.","filler"
"3981.6999999284744","","","html-slider-response","457","4475320","0.0-24.0-1.0-0.21","34043","List1B","black","woman","","","","","","","","survey_gender","52","","","My friends understand me.","filler"
"5429.300000071526","","","html-slider-response","458","4480751","0.0-24.0-1.0-0.22","34043","List1B","black","woman","","","","","","","","survey_gender","51","","","I often think about the fact that I am my gender.","often"
"4877.800000071526","","","html-slider-response","459","4485631","0.0-24.0-1.0-0.23","34043","List1B","black","woman","","","","","","","","survey_gender","51","","","I am glad to have the friends that I have.","filler"
"7701.899999976158","","","html-slider-response","460","4493335","0.0-24.0-1.0-0.24","34043","List1B","black","woman","","","","","","","","survey_gender","58","","","It is not always easy for people to know what I am thinking.","filler"
"3750","","","html-slider-response","461","4497087","0.0-24.0-1.0-0.25","34043","List1B","black","woman","","","","","","","","survey_gender","89","","","I feel a bond with my gender.","bond"
"3206","","","html-slider-response","462","4500295","0.0-24.0-1.0-0.26","34043","List1B","black","woman","","","","","","","","survey_gender","97","","","The fact that I am my gender is an important part of my identity.","identity"
"6326","","","html-slider-response","463","4506623","0.0-24.0-1.0-0.27","34043","List1B","black","woman","","","","","","","","survey_gender","93","","","People of my gender are very similar to each other.","verysimilar"
"9332.5","","","survey-text","464","4515959","0.0-25.0","34043","List1B","black","woman","","","","","{""Q0"":""5d513e048c23ee001740b583""}","","","worker_id","","","","",""
"12965.399999976158","","","external-html","465","4529415","0.0-26.0","34043","List1B","black","woman","debrief.html","","","","","","","","","","","",""
