rt,stimulus,button_pressed,trial_type,trial_index,time_elapsed,internal_node_id,subject,list,ppt_race,ppt_gender,url,first_guess,correct,key_press,responses,image_type,phrase_type,test_part,response,stimulus1,stimulus2,question_type,survey_item
1884.9,Welcome to the experiment. Press Continue to begin.,0,html-button-response,0,1896,0.0-0.0,34367,List2B,black,man,,,,,,,,,,,,,
23603.8,,,external-html,1,26542,0.0-1.0,34367,List2B,black,man,consent.html,,,,,,,,,,,,
30997.4,"<p>On the next page, you will see portraits of 8 people and their names.</p><p>Your first task is to take a few minutes to memorise the names of these people.</p><p>You will have to recall their names during the rest of the experiment, so it is</p><p>essential that you try to memorise these people and their names as best as you can.</p><br><p><strong>You will then be tested on your memory of these names and portraits.</strong></p><br><p>The experiment will start after you have completed this memory test.</p><br><p>Ready?</p>",0,html-button-response,2,57549,0.0-2.0,34367,List2B,black,man,,,,,,,,,,,,,
76404.8,"<img src='img/portrait_matrix_list2.jpg' style='width:900px;height:500px;''></img><p>If you have memorised all the portraits and names and are ready to start, press Continue.</p><p><strong>Please note: Your memory of these faces will be tested 4 times during this experiment.</strong></p>",0,html-button-response,3,134966,0.0-3.0-0.0,34367,List2B,black,man,,,,,,,,,,,,,
16700,"<img src=""portrait/WM1.jpg""style=""height:400px;""></img>",5,html-button-response,4,152677,0.0-3.0-1.0,34367,List2B,black,man,,TRUE,6,,,,,,,,,,
45033.9,"<img src=""portrait/WM1.jpg""style=""height:400px;""></img>",6,html-button-response,5,198733,0.0-3.0-3.0-0.0,34367,List2B,black,man,,FALSE,6,,,,,,,,,,
null,CORRECT,,html-keyboard-response,6,200253,0.0-3.0-3.0-1.0-0.0,34367,List2B,black,man,,,,null,,,,,,,,,
4620.2,"<img src=""portrait/WW1.jpg""style=""height:400px;""></img>",1,html-button-response,7,204896,0.0-3.0-4.0,34367,List2B,black,man,,TRUE,1,,,,,,,,,,
null,CORRECT,,html-keyboard-response,8,206502,0.0-3.0-5.0-0.0,34367,List2B,black,man,,,,null,,,,,,,,,
7622.2,"<img src=""portrait/BM1.jpg""style=""height:400px;""></img>",7,html-button-response,9,214137,0.0-3.0-7.0,34367,List2B,black,man,,TRUE,4,,,,,,,,,,
2584.4,"<img src=""portrait/BM1.jpg""style=""height:400px;""></img>",4,html-button-response,10,217735,0.0-3.0-9.0-0.0,34367,List2B,black,man,,FALSE,4,,,,,,,,,,
null,CORRECT,,html-keyboard-response,11,219240,0.0-3.0-9.0-1.0-0.0,34367,List2B,black,man,,,,null,,,,,,,,,
12832.5,"<img src=""portrait/WM2.jpg""style=""height:400px;""></img>",5,html-button-response,12,232086,0.0-3.0-10.0,34367,List2B,black,man,,TRUE,7,,,,,,,,,,
1808.5,"<img src=""portrait/WM2.jpg""style=""height:400px;""></img>",7,html-button-response,13,234904,0.0-3.0-12.0-0.0,34367,List2B,black,man,,FALSE,7,,,,,,,,,,
null,CORRECT,,html-keyboard-response,14,236413,0.0-3.0-12.0-1.0-0.0,34367,List2B,black,man,,,,null,,,,,,,,,
10598.6,"<img src=""portrait/BW1.jpg""style=""height:400px;""></img>",2,html-button-response,15,247023,0.0-3.0-13.0,34367,List2B,black,man,,TRUE,0,,,,,,,,,,
2165.9,"<img src=""portrait/BW1.jpg""style=""height:400px;""></img>",0,html-button-response,16,250198,0.0-3.0-15.0-0.0,34367,List2B,black,man,,FALSE,0,,,,,,,,,,
null,CORRECT,,html-keyboard-response,17,251703,0.0-3.0-15.0-1.0-0.0,34367,List2B,black,man,,,,null,,,,,,,,,
6584.1,"<img src=""portrait/BM2.jpg""style=""height:400px;""></img>",5,html-button-response,18,258295,0.0-3.0-16.0,34367,List2B,black,man,,TRUE,5,,,,,,,,,,
null,CORRECT,,html-keyboard-response,19,259803,0.0-3.0-17.0-0.0,34367,List2B,black,man,,,,null,,,,,,,,,
6320.2,"<img src=""portrait/BW2.jpg""style=""height:400px;""></img>",3,html-button-response,20,266131,0.0-3.0-19.0,34367,List2B,black,man,,TRUE,2,,,,,,,,,,
1785.2,"<img src=""portrait/BW2.jpg""style=""height:400px;""></img>",2,html-button-response,21,268928,0.0-3.0-21.0-0.0,34367,List2B,black,man,,FALSE,2,,,,,,,,,,
null,CORRECT,,html-keyboard-response,22,270434,0.0-3.0-21.0-1.0-0.0,34367,List2B,black,man,,,,null,,,,,,,,,
8911.8,"<img src=""portrait/WW2.jpg""style=""height:400px;""></img>",0,html-button-response,23,279355,0.0-3.0-22.0,34367,List2B,black,man,,TRUE,3,,,,,,,,,,
1848.1,"<img src=""portrait/WW2.jpg""style=""height:400px;""></img>",3,html-button-response,24,282214,0.0-3.0-24.0-0.0,34367,List2B,black,man,,FALSE,3,,,,,,,,,,
null,CORRECT,,html-keyboard-response,25,283719,0.0-3.0-24.0-1.0-0.0,34367,List2B,black,man,,,,null,,,,,,,,,
2860.4,<p>You got 2 out of 8 right first time. Press Continue.</p>,0,html-button-response,26,286607,0.0-3.0-25.0,34367,List2B,black,man,,,,,,,,,,,,,
9054.2,"As you did not score 100%, the memory game will repeat. Press Continue.",0,html-button-response,27,296671,0.0-3.0-26.0-0.0,34367,List2B,black,man,,,,,,,,,,,,,
23650.7,"<img src='img/portrait_matrix_list2.jpg' style='width:900px;height:500px;''></img><p>If you have memorised all the portraits and names and are ready to start, press Continue.</p><p><strong>Please note: Your memory of these faces will be tested 4 times during this experiment.</strong></p>",0,html-button-response,28,321447,0.0-3.1-0.1,34367,List2B,black,man,,,,,,,,,,,,,
45393.2,"<img src=""portrait/WM1.jpg""style=""height:400px;""></img>",6,html-button-response,29,367899,0.0-3.1-1.1,34367,List2B,black,man,,TRUE,6,,,,,,,,,,
null,CORRECT,,html-keyboard-response,30,369466,0.0-3.1-2.1-0.1,34367,List2B,black,man,,,,null,,,,,,,,,
9063.8,"<img src=""portrait/WW1.jpg""style=""height:400px;""></img>",1,html-button-response,31,378579,0.0-3.1-4.1,34367,List2B,black,man,,TRUE,1,,,,,,,,,,
null,CORRECT,,html-keyboard-response,32,380108,0.0-3.1-5.1-0.1,34367,List2B,black,man,,,,null,,,,,,,,,
5021.5,"<img src=""portrait/BM1.jpg""style=""height:400px;""></img>",4,html-button-response,33,385161,0.0-3.1-7.1,34367,List2B,black,man,,TRUE,4,,,,,,,,,,
null,CORRECT,,html-keyboard-response,34,386676,0.0-3.1-8.1-0.1,34367,List2B,black,man,,,,null,,,,,,,,,
13603.4,"<img src=""portrait/WM2.jpg""style=""height:400px;""></img>",7,html-button-response,35,400290,0.0-3.1-10.1,34367,List2B,black,man,,TRUE,7,,,,,,,,,,
null,CORRECT,,html-keyboard-response,36,401797,0.0-3.1-11.1-0.1,34367,List2B,black,man,,,,null,,,,,,,,,
8003.5,"<img src=""portrait/BW1.jpg""style=""height:400px;""></img>",0,html-button-response,37,409816,0.0-3.1-13.1,34367,List2B,black,man,,TRUE,0,,,,,,,,,,
null,CORRECT,,html-keyboard-response,38,411321,0.0-3.1-14.1-0.1,34367,List2B,black,man,,,,null,,,,,,,,,
9968.2,"<img src=""portrait/BM2.jpg""style=""height:400px;""></img>",5,html-button-response,39,421308,0.0-3.1-16.1,34367,List2B,black,man,,TRUE,5,,,,,,,,,,
null,CORRECT,,html-keyboard-response,40,422812,0.0-3.1-17.1-0.1,34367,List2B,black,man,,,,null,,,,,,,,,
7629.8,"<img src=""portrait/BW2.jpg""style=""height:400px;""></img>",2,html-button-response,41,430454,0.0-3.1-19.1,34367,List2B,black,man,,TRUE,2,,,,,,,,,,
null,CORRECT,,html-keyboard-response,42,431961,0.0-3.1-20.1-0.1,34367,List2B,black,man,,,,null,,,,,,,,,
6577.4,"<img src=""portrait/WW2.jpg""style=""height:400px;""></img>",3,html-button-response,43,438566,0.0-3.1-22.1,34367,List2B,black,man,,TRUE,3,,,,,,,,,,
null,CORRECT,,html-keyboard-response,44,440070,0.0-3.1-23.1-0.1,34367,List2B,black,man,,,,null,,,,,,,,,
1995.4,<p>You got 8 out of 8 right first time. Press Continue.</p>,0,html-button-response,45,442119,0.0-3.1-25.1,34367,List2B,black,man,,,,,,,,,,,,,
100502.3,"<p>In this experiment, you will view photographs of the people from the memory game interacting.</p><p>By using the <strong>exact</strong> phrase given <i>after</i> the photograph appears and recalling the correct names of the people in the photographs, form a sentence describing the interaction. You do not need to capitalise names.</p><p>Type your answer in the space provided. Please complete every sentence before moving onto the next trial.</p><p>You will only have a few seconds to memorise each given photograph and phrase before you can respond, so try your best to focus.</p><p>An example is given below. Press 'Continue' when you are ready.</p><img src='img/speaking_example.jpg' style='width:800px;height:460px;''></img>",0,html-button-response,46,543651,0.0-4.0,34367,List2B,black,man,,,,,,,,,,,,,
4943.5,"<p>Before the experiment starts, you will watch two example trials. Press 'Continue'.</p>",0,html-button-response,47,549603,0.0-5.0,34367,List2B,black,man,,,,,,,,,,,,,
null,<img src='img/play_eg.gif' style='height:400px;''></img>,,html-keyboard-response,48,552652,0.0-6.0,34367,List2B,black,man,,,,null,,,,,,,,,
null,<p>is playing with</p>,,html-keyboard-response,49,554656,0.0-7.0,34367,List2B,black,man,,,,null,,,,,,,,,
6596,<p><b>Answer:</b> jane is playing with ruth</p>,0,html-button-response,50,561257,0.0-8.0,34367,List2B,black,man,,,,,,,,,,,,,
null,<img src='img/dance_eg.gif' style='height:400px;''></img>,,html-keyboard-response,51,564264,0.0-9.0,34367,List2B,black,man,,,,null,,,,,,,,,
null,<p>is being entertained by</p>,,html-keyboard-response,52,566272,0.0-10.0,34367,List2B,black,man,,,,null,,,,,,,,,
2680.8,<p><b>Answer:</b> fred is being entertained by mike</p>,0,html-button-response,53,568962,0.0-11.0,34367,List2B,black,man,,,,,,,,,,,,,
15859.9,"<p>Ready to start the experiment?</p><br><p><strong>Remember to describe the picture using a full sentence,</strong></p><p><strong>that combines the names of the people with the <i>exact</i> phrase given.</strong></p><p><strong>To receive full payment you must do this correctly.</strong></p><p><strong> You do not need to capitalise names or use punctuation.</strong></p><br><p>Press 'Continue' to begin.</p>",0,html-button-response,54,585830,0.0-12.0,34367,List2B,black,man,,,,,,,,,,,,,
null,"<div style=""font-size:60px;"">+</div>",,html-keyboard-response,55,587335,0.0-13.0-0.0,34367,List2B,black,man,,,,null,,,,,,,,,
null,"<img src=""stim_listB/greet5.gif""style=""height:400px;""></stim_listB>",,html-keyboard-response,56,590266,0.0-13.0-1.0,34367,List2B,black,man,,,,null,,,,,,,,,
null,is greeting,,html-keyboard-response,57,593268,0.0-13.0-2.0,34367,List2B,black,man,,,,null,,,,,,,,,
37690.4,,,survey-text,58,631045,0.0-13.0-3.0,34367,List2B,black,man,,,,,"{""Q0"":""dave is greeting fred""}","<img src=""stim_listB/greet5.gif""style=""height:400px;""></stim_listB>",is greeting,,,,,,
null,"<div style=""font-size:60px;"">+</div>",,html-keyboard-response,59,631556,0.0-13.0-0.1,34367,List2B,black,man,,,,null,,,,,,,,,
null,"<img src=""stim_listB/challenge8.gif""style=""height:400px;""></stim_listB>",,html-keyboard-response,60,633562,0.0-13.0-1.1,34367,List2B,black,man,,,,null,,,,,,,,,
null,is being challenged by,,html-keyboard-response,61,635567,0.0-13.0-2.1,34367,List2B,black,man,,,,null,,,,,,,,,
36786.9,,,survey-text,62,672400,0.0-13.0-3.1,34367,List2B,black,man,,,,,"{""Q0"":""ruth is being challenged by jane""}","<img src=""stim_listB/challenge8.gif""style=""height:400px;""></stim_listB>",is being challenged by,,,,,,
null,"<div style=""font-size:60px;"">+</div>",,html-keyboard-response,63,672906,0.0-13.0-0.2,34367,List2B,black,man,,,,null,,,,,,,,,
null,"<img src=""stim_listB/seduce1.gif""style=""height:400px;""></stim_listB>",,html-keyboard-response,64,674913,0.0-13.0-1.2,34367,List2B,black,man,,,,null,,,,,,,,,
null,is seducing,,html-keyboard-response,65,676919,0.0-13.0-2.2,34367,List2B,black,man,,,,null,,,,,,,,,
22313.6,,,survey-text,66,699256,0.0-13.0-3.2,34367,List2B,black,man,,,,,"{""Q0"":""luke is seducing jane""}","<img src=""stim_listB/seduce1.gif""style=""height:400px;""></stim_listB>",is seducing,,,,,,
null,"<div style=""font-size:60px;"">+</div>",,html-keyboard-response,67,699762,0.0-13.0-0.3,34367,List2B,black,man,,,,null,,,,,,,,,
null,"<img src=""stim_listB/look4.gif""style=""height:400px;""></stim_listB>",,html-keyboard-response,68,701772,0.0-13.0-1.3,34367,List2B,black,man,,,,null,,,,,,,,,
null,is being looked at by,,html-keyboard-response,69,703776,0.0-13.0-2.3,34367,List2B,black,man,,,,null,,,,,,,,,
35960.6,,,survey-text,70,739762,0.0-13.0-3.3,34367,List2B,black,man,,,,,"{""Q0"":""mike is being look by kate""}","<img src=""stim_listB/look4.gif""style=""height:400px;""></stim_listB>",is being looked at by,,,,,,
null,"<div style=""font-size:60px;"">+</div>",,html-keyboard-response,71,740269,0.0-13.0-0.4,34367,List2B,black,man,,,,null,,,,,,,,,
null,"<img src=""stim_listB/hug1.gif""style=""height:400px;""></stim_listB>",,html-keyboard-response,72,742276,0.0-13.0-1.4,34367,List2B,black,man,,,,null,,,,,,,,,
null,is hugging,,html-keyboard-response,73,744281,0.0-13.0-2.4,34367,List2B,black,man,,,,null,,,,,,,,,
24336.8,,,survey-text,74,768662,0.0-13.0-3.4,34367,List2B,black,man,,,,,"{""Q0"":""Luke is hugging ruth""}","<img src=""stim_listB/hug1.gif""style=""height:400px;""></stim_listB>",is hugging,,,,,,
null,"<div style=""font-size:60px;"">+</div>",,html-keyboard-response,75,769179,0.0-13.0-0.5,34367,List2B,black,man,,,,null,,,,,,,,,
null,"<img src=""stim_listB/touch7.gif""style=""height:400px;""></stim_listB>",,html-keyboard-response,76,771190,0.0-13.0-1.5,34367,List2B,black,man,,,,null,,,,,,,,,
null,is touching,,html-keyboard-response,77,773199,0.0-13.0-2.5,34367,List2B,black,man,,,,null,,,,,,,,,
21769.6,,,survey-text,78,795015,0.0-13.0-3.5,34367,List2B,black,man,,,,,"{""Q0"":""kate is touching jane""}","<img src=""stim_listB/touch7.gif""style=""height:400px;""></stim_listB>",is touching,,,,,,
null,"<div style=""font-size:60px;"">+</div>",,html-keyboard-response,79,795519,0.0-13.0-0.6,34367,List2B,black,man,,,,null,,,,,,,,,
null,"<img src=""stim_listB/oppose1.gif""style=""height:400px;""></stim_listB>",,html-keyboard-response,80,797529,0.0-13.0-1.6,34367,List2B,black,man,,,,null,,,,,,,,,
null,is opposing,,html-keyboard-response,81,799536,0.0-13.0-2.6,34367,List2B,black,man,,,,null,,,,,,,,,
24285.9,,,survey-text,82,823845,0.0-13.0-3.6,34367,List2B,black,man,,,,,"{""Q0"":""dave is opposing kate""}","<img src=""stim_listB/oppose1.gif""style=""height:400px;""></stim_listB>",is opposing,,,,,,
null,"<div style=""font-size:60px;"">+</div>",,html-keyboard-response,83,824351,0.0-13.0-0.7,34367,List2B,black,man,,,,null,,,,,,,,,
null,"<img src=""stim_listB/oppose7.gif""style=""height:400px;""></stim_listB>",,html-keyboard-response,84,826362,0.0-13.0-1.7,34367,List2B,black,man,,,,null,,,,,,,,,
null,is opposing,,html-keyboard-response,85,828367,0.0-13.0-2.7,34367,List2B,black,man,,,,null,,,,,,,,,
19691.8,,,survey-text,86,848112,0.0-13.0-3.7,34367,List2B,black,man,,,,,"{""Q0"":""jane is opposing kate""}","<img src=""stim_listB/oppose7.gif""style=""height:400px;""></stim_listB>",is opposing,,,,,,
null,"<div style=""font-size:60px;"">+</div>",,html-keyboard-response,87,848617,0.0-13.0-0.8,34367,List2B,black,man,,,,null,,,,,,,,,
null,"<img src=""stim_listB/shout3.gif""style=""height:400px;""></stim_listB>",,html-keyboard-response,88,850625,0.0-13.0-1.8,34367,List2B,black,man,,,,null,,,,,,,,,
null,is shouting at,,html-keyboard-response,89,852630,0.0-13.0-2.8,34367,List2B,black,man,,,,null,,,,,,,,,
20302,,,survey-text,90,872952,0.0-13.0-3.8,34367,List2B,black,man,,,,,"{""Q0"":""fred is shouting at beth""}","<img src=""stim_listB/shout3.gif""style=""height:400px;""></stim_listB>",is shouting at,,,,,,
null,"<div style=""font-size:60px;"">+</div>",,html-keyboard-response,91,873456,0.0-13.0-0.9,34367,List2B,black,man,,,,null,,,,,,,,,
null,"<img src=""stim_listB/oppose2.gif""style=""height:400px;""></stim_listB>",,html-keyboard-response,92,875464,0.0-13.0-1.9,34367,List2B,black,man,,,,null,,,,,,,,,
null,is being opposed by,,html-keyboard-response,93,877468,0.0-13.0-2.9,34367,List2B,black,man,,,,null,,,,,,,,,
34703.6,,,survey-text,94,912187,0.0-13.0-3.9,34367,List2B,black,man,,,,,"{""Q0"":""luke is being opposed by ruth""}","<img src=""stim_listB/oppose2.gif""style=""height:400px;""></stim_listB>",is being opposed by,,,,,,
null,"<div style=""font-size:60px;"">+</div>",,html-keyboard-response,95,912693,0.0-13.0-0.10,34367,List2B,black,man,,,,null,,,,,,,,,
null,"<img src=""stim_listB/challenge4.gif""style=""height:400px;""></stim_listB>",,html-keyboard-response,96,914701,0.0-13.0-1.10,34367,List2B,black,man,,,,null,,,,,,,,,
null,is being challenged by,,html-keyboard-response,97,916711,0.0-13.0-2.10,34367,List2B,black,man,,,,null,,,,,,,,,
34079.8,,,survey-text,98,950836,0.0-13.0-3.10,34367,List2B,black,man,,,,,"{""Q0"":""fred is being challenged by kate""}","<img src=""stim_listB/challenge4.gif""style=""height:400px;""></stim_listB>",is being challenged by,,,,,,
null,"<div style=""font-size:60px;"">+</div>",,html-keyboard-response,99,951341,0.0-13.0-0.11,34367,List2B,black,man,,,,null,,,,,,,,,
null,"<img src=""stim_listB/challenge5.gif""style=""height:400px;""></stim_listB>",,html-keyboard-response,100,953353,0.0-13.0-1.11,34367,List2B,black,man,,,,null,,,,,,,,,
null,is challenging,,html-keyboard-response,101,955362,0.0-13.0-2.11,34367,List2B,black,man,,,,null,,,,,,,,,
20533.3,,,survey-text,102,975940,0.0-13.0-3.11,34367,List2B,black,man,,,,,"{""Q0"":""fred is challenging dave""}","<img src=""stim_listB/challenge5.gif""style=""height:400px;""></stim_listB>",is challenging,,,,,,
null,"<div style=""font-size:60px;"">+</div>",,html-keyboard-response,103,976447,0.0-13.0-0.12,34367,List2B,black,man,,,,null,,,,,,,,,
null,"<img src=""stim_listB/copy2.gif""style=""height:400px;""></stim_listB>",,html-keyboard-response,104,978455,0.0-13.0-1.12,34367,List2B,black,man,,,,null,,,,,,,,,
null,is being copied by,,html-keyboard-response,105,980459,0.0-13.0-2.12,34367,List2B,black,man,,,,null,,,,,,,,,
33508.7,,,survey-text,106,1013989,0.0-13.0-3.12,34367,List2B,black,man,,,,,"{""Q0"":""fred is being copied by jane""}","<img src=""stim_listB/copy2.gif""style=""height:400px;""></stim_listB>",is being copied by,,,,,,
null,"<div style=""font-size:60px;"">+</div>",,html-keyboard-response,107,1014493,0.0-13.0-0.13,34367,List2B,black,man,,,,null,,,,,,,,,
null,"<img src=""stim_listB/copy4.gif""style=""height:400px;""></stim_listB>",,html-keyboard-response,108,1016501,0.0-13.0-1.13,34367,List2B,black,man,,,,null,,,,,,,,,
null,is being copied by,,html-keyboard-response,109,1018506,0.0-13.0-2.13,34367,List2B,black,man,,,,null,,,,,,,,,
25120.7,,,survey-text,110,1043675,0.0-13.0-3.13,34367,List2B,black,man,,,,,"{""Q0"":""fred is being copied by kate""}","<img src=""stim_listB/copy4.gif""style=""height:400px;""></stim_listB>",is being copied by,,,,,,
null,"<div style=""font-size:60px;"">+</div>",,html-keyboard-response,111,1044180,0.0-13.0-0.14,34367,List2B,black,man,,,,null,,,,,,,,,
null,"<img src=""stim_listB/greet2.gif""style=""height:400px;""></stim_listB>",,html-keyboard-response,112,1046188,0.0-13.0-1.14,34367,List2B,black,man,,,,null,,,,,,,,,
null,is being greeted by,,html-keyboard-response,113,1048191,0.0-13.0-2.14,34367,List2B,black,man,,,,null,,,,,,,,,
33163.1,,,survey-text,114,1081410,0.0-13.0-3.14,34367,List2B,black,man,,,,,"{""Q0"":""luke is being greeted by jane""}","<img src=""stim_listB/greet2.gif""style=""height:400px;""></stim_listB>",is being greeted by,,,,,,
null,"<div style=""font-size:60px;"">+</div>",,html-keyboard-response,115,1081916,0.0-13.0-0.15,34367,List2B,black,man,,,,null,,,,,,,,,
null,"<img src=""stim_listB/greet1.gif""style=""height:400px;""></stim_listB>",,html-keyboard-response,116,1083927,0.0-13.0-1.15,34367,List2B,black,man,,,,null,,,,,,,,,
null,is greeting,,html-keyboard-response,117,1085932,0.0-13.0-2.15,34367,List2B,black,man,,,,null,,,,,,,,,
26106.9,,,survey-text,118,1112066,0.0-13.0-3.15,34367,List2B,black,man,,,,,"{""Q0"":""mike is greeting jane""}","<img src=""stim_listB/greet1.gif""style=""height:400px;""></stim_listB>",is greeting,,,,,,
null,"<div style=""font-size:60px;"">+</div>",,html-keyboard-response,119,1112571,0.0-13.0-0.16,34367,List2B,black,man,,,,null,,,,,,,,,
null,"<img src=""stim_listB/seduce3.gif""style=""height:400px;""></stim_listB>",,html-keyboard-response,120,1114579,0.0-13.0-1.16,34367,List2B,black,man,,,,null,,,,,,,,,
null,is seducing,,html-keyboard-response,121,1116584,0.0-13.0-2.16,34367,List2B,black,man,,,,null,,,,,,,,,
21767,,,survey-text,122,1138392,0.0-13.0-3.16,34367,List2B,black,man,,,,,"{""Q0"":""dave is seducing beth""}","<img src=""stim_listB/seduce3.gif""style=""height:400px;""></stim_listB>",is seducing,,,,,,
null,"<div style=""font-size:60px;"">+</div>",,html-keyboard-response,123,1138897,0.0-13.0-0.17,34367,List2B,black,man,,,,null,,,,,,,,,
null,"<img src=""stim_listB/greet6.gif""style=""height:400px;""></stim_listB>",,html-keyboard-response,124,1140904,0.0-13.0-1.17,34367,List2B,black,man,,,,null,,,,,,,,,
null,is being greeted by,,html-keyboard-response,125,1142909,0.0-13.0-2.17,34367,List2B,black,man,,,,null,,,,,,,,,
23063.9,,,survey-text,126,1166017,0.0-13.0-3.17,34367,List2B,black,man,,,,,"{""Q0"":""Luke is being greeted by mike""}","<img src=""stim_listB/greet6.gif""style=""height:400px;""></stim_listB>",is being greeted by,,,,,,
null,"<div style=""font-size:60px;"">+</div>",,html-keyboard-response,127,1166522,0.0-13.0-0.18,34367,List2B,black,man,,,,null,,,,,,,,,
null,"<img src=""stim_listB/oppose8.gif""style=""height:400px;""></stim_listB>",,html-keyboard-response,128,1168529,0.0-13.0-1.18,34367,List2B,black,man,,,,null,,,,,,,,,
null,is being opposed by,,html-keyboard-response,129,1170538,0.0-13.0-2.18,34367,List2B,black,man,,,,null,,,,,,,,,
20111.5,,,survey-text,130,1190700,0.0-13.0-3.18,34367,List2B,black,man,,,,,"{""Q0"":""beth is being opposed by ruth""}","<img src=""stim_listB/oppose8.gif""style=""height:400px;""></stim_listB>",is being opposed by,,,,,,
null,"<div style=""font-size:60px;"">+</div>",,html-keyboard-response,131,1191204,0.0-13.0-0.19,34367,List2B,black,man,,,,null,,,,,,,,,
null,"<img src=""stim_listB/oppose3.gif""style=""height:400px;""></stim_listB>",,html-keyboard-response,132,1193213,0.0-13.0-1.19,34367,List2B,black,man,,,,null,,,,,,,,,
null,is opposing,,html-keyboard-response,133,1195260,0.0-13.0-2.19,34367,List2B,black,man,,,,null,,,,,,,,,
15652.7,,,survey-text,134,1211015,0.0-13.0-3.19,34367,List2B,black,man,,,,,"{""Q0"":""Kate is opposing mike""}","<img src=""stim_listB/oppose3.gif""style=""height:400px;""></stim_listB>",is opposing,,,,,,
10732.2,"<img src='img/portrait_matrix_list2.jpg' style='width:900px;height:500px;''></img><p>If you have memorised all the portraits and names and are ready to start, press Continue.</p><p><strong>Please note: Your memory of these faces will be tested 4 times during this experiment.</strong></p>",0,html-button-response,135,1221757,0.0-14.0-0.0,34367,List2B,black,man,,,,,,,,,,,,,
7186.2,"<img src=""portrait/WW2.jpg""style=""height:400px;""></img>",3,html-button-response,136,1229953,0.0-14.0-1.0,34367,List2B,black,man,,TRUE,3,,,,,,,,,,
null,CORRECT,,html-keyboard-response,137,1231465,0.0-14.0-2.0-0.0,34367,List2B,black,man,,,,null,,,,,,,,,
5934.9,"<img src=""portrait/BW1.jpg""style=""height:400px;""></img>",0,html-button-response,138,1237407,0.0-14.0-4.0,34367,List2B,black,man,,TRUE,0,,,,,,,,,,
null,CORRECT,,html-keyboard-response,139,1238916,0.0-14.0-5.0-0.0,34367,List2B,black,man,,,,null,,,,,,,,,
7352.3,"<img src=""portrait/BW2.jpg""style=""height:400px;""></img>",2,html-button-response,140,1246278,0.0-14.0-7.0,34367,List2B,black,man,,TRUE,2,,,,,,,,,,
null,CORRECT,,html-keyboard-response,141,1247785,0.0-14.0-8.0-0.0,34367,List2B,black,man,,,,null,,,,,,,,,
8632.6,"<img src=""portrait/WM1.jpg""style=""height:400px;""></img>",6,html-button-response,142,1256430,0.0-14.0-10.0,34367,List2B,black,man,,TRUE,6,,,,,,,,,,
null,CORRECT,,html-keyboard-response,143,1257937,0.0-14.0-11.0-0.0,34367,List2B,black,man,,,,null,,,,,,,,,
4277.5,"<img src=""portrait/BM1.jpg""style=""height:400px;""></img>",4,html-button-response,144,1262225,0.0-14.0-13.0,34367,List2B,black,man,,TRUE,4,,,,,,,,,,
null,CORRECT,,html-keyboard-response,145,1263732,0.0-14.0-14.0-0.0,34367,List2B,black,man,,,,null,,,,,,,,,
7551.9,"<img src=""portrait/WM2.jpg""style=""height:400px;""></img>",7,html-button-response,146,1271296,0.0-14.0-16.0,34367,List2B,black,man,,TRUE,7,,,,,,,,,,
null,CORRECT,,html-keyboard-response,147,1272802,0.0-14.0-17.0-0.0,34367,List2B,black,man,,,,null,,,,,,,,,
5766.3,"<img src=""portrait/BM2.jpg""style=""height:400px;""></img>",5,html-button-response,148,1278579,0.0-14.0-19.0,34367,List2B,black,man,,TRUE,5,,,,,,,,,,
null,CORRECT,,html-keyboard-response,149,1280084,0.0-14.0-20.0-0.0,34367,List2B,black,man,,,,null,,,,,,,,,
10418.4,"<img src=""portrait/WW1.jpg""style=""height:400px;""></img>",1,html-button-response,150,1290514,0.0-14.0-22.0,34367,List2B,black,man,,TRUE,1,,,,,,,,,,
null,CORRECT,,html-keyboard-response,151,1292020,0.0-14.0-23.0-0.0,34367,List2B,black,man,,,,null,,,,,,,,,
2080.9,<p>You got 8 out of 8 right first time. Press Continue.</p>,0,html-button-response,152,1294112,0.0-14.0-25.0,34367,List2B,black,man,,,,,,,,,,,,,
null,"<div style=""font-size:60px;"">+</div>",,html-keyboard-response,153,1295620,0.0-15.0-0.0,34367,List2B,black,man,,,,null,,,,,,,,,
null,"<img src=""stim_listB/greet7.gif""style=""height:400px;""></stim_listB>",,html-keyboard-response,154,1297630,0.0-15.0-1.0,34367,List2B,black,man,,,,null,,,,,,,,,
null,is greeting,,html-keyboard-response,155,1299635,0.0-15.0-2.0,34367,List2B,black,man,,,,null,,,,,,,,,
17073.5,,,survey-text,156,1316752,0.0-15.0-3.0,34367,List2B,black,man,,,,,"{""Q0"":""beth is greeting jane""}","<img src=""stim_listB/greet7.gif""style=""height:400px;""></stim_listB>",is greeting,,,,,,
null,"<div style=""font-size:60px;"">+</div>",,html-keyboard-response,157,1317261,0.0-15.0-0.1,34367,List2B,black,man,,,,null,,,,,,,,,
null,"<img src=""stim_listB/challenge2.gif""style=""height:400px;""></stim_listB>",,html-keyboard-response,158,1319270,0.0-15.0-1.1,34367,List2B,black,man,,,,null,,,,,,,,,
null,is being challenged by,,html-keyboard-response,159,1321274,0.0-15.0-2.1,34367,List2B,black,man,,,,null,,,,,,,,,
32383.7,,,survey-text,160,1353673,0.0-15.0-3.1,34367,List2B,black,man,,,,,"{""Q0"":""Luke is being challenged by jane""}","<img src=""stim_listB/challenge2.gif""style=""height:400px;""></stim_listB>",is being challenged by,,,,,,
null,"<div style=""font-size:60px;"">+</div>",,html-keyboard-response,161,1354180,0.0-15.0-0.2,34367,List2B,black,man,,,,null,,,,,,,,,
null,"<img src=""stim_listB/kiss2.gif""style=""height:400px;""></stim_listB>",,html-keyboard-response,162,1356189,0.0-15.0-1.2,34367,List2B,black,man,,,,null,,,,,,,,,
null,is being kissed by,,html-keyboard-response,163,1358194,0.0-15.0-2.2,34367,List2B,black,man,,,,null,,,,,,,,,
34965.7,,,survey-text,164,1393221,0.0-15.0-3.2,34367,List2B,black,man,,,,,"{""Q0"":""Jane is being kissed by dave""}","<img src=""stim_listB/kiss2.gif""style=""height:400px;""></stim_listB>",is being kissed by,,,,,,
null,"<div style=""font-size:60px;"">+</div>",,html-keyboard-response,165,1393727,0.0-15.0-0.3,34367,List2B,black,man,,,,null,,,,,,,,,
null,"<img src=""stim_listB/kiss3.gif""style=""height:400px;""></stim_listB>",,html-keyboard-response,166,1395735,0.0-15.0-1.3,34367,List2B,black,man,,,,null,,,,,,,,,
null,is kissing,,html-keyboard-response,167,1397739,0.0-15.0-2.3,34367,List2B,black,man,,,,null,,,,,,,,,
18134.3,,,survey-text,168,1415893,0.0-15.0-3.3,34367,List2B,black,man,,,,,"{""Q0"":""Fred is kissing beth""}","<img src=""stim_listB/kiss3.gif""style=""height:400px;""></stim_listB>",is kissing,,,,,,
null,"<div style=""font-size:60px;"">+</div>",,html-keyboard-response,169,1416398,0.0-15.0-0.4,34367,List2B,black,man,,,,null,,,,,,,,,
null,"<img src=""stim_listB/touch8.gif""style=""height:400px;""></stim_listB>",,html-keyboard-response,170,1418409,0.0-15.0-1.4,34367,List2B,black,man,,,,null,,,,,,,,,
null,is being touched by,,html-keyboard-response,171,1420414,0.0-15.0-2.4,34367,List2B,black,man,,,,null,,,,,,,,,
20880.7,,,survey-text,172,1441335,0.0-15.0-3.4,34367,List2B,black,man,,,,,"{""Q0"":""Beth is being touched by ruth""}","<img src=""stim_listB/touch8.gif""style=""height:400px;""></stim_listB>",is being touched by,,,,,,
null,"<div style=""font-size:60px;"">+</div>",,html-keyboard-response,173,1441840,0.0-15.0-0.5,34367,List2B,black,man,,,,null,,,,,,,,,
null,"<img src=""stim_listB/look6.gif""style=""height:400px;""></stim_listB>",,html-keyboard-response,174,1443848,0.0-15.0-1.5,34367,List2B,black,man,,,,null,,,,,,,,,
null,is being looked at by,,html-keyboard-response,175,1445857,0.0-15.0-2.5,34367,List2B,black,man,,,,null,,,,,,,,,
27763.2,,,survey-text,176,1473633,0.0-15.0-3.5,34367,List2B,black,man,,,,,"{""Q0"":""Mike is being looked by dave""}","<img src=""stim_listB/look6.gif""style=""height:400px;""></stim_listB>",is being looked at by,,,,,,
null,"<div style=""font-size:60px;"">+</div>",,html-keyboard-response,177,1474138,0.0-15.0-0.6,34367,List2B,black,man,,,,null,,,,,,,,,
null,"<img src=""stim_listB/seduce2.gif""style=""height:400px;""></stim_listB>",,html-keyboard-response,178,1476146,0.0-15.0-1.6,34367,List2B,black,man,,,,null,,,,,,,,,
null,is being seduced by,,html-keyboard-response,179,1478151,0.0-15.0-2.6,34367,List2B,black,man,,,,null,,,,,,,,,
31809.3,,,survey-text,180,1509984,0.0-15.0-3.6,34367,List2B,black,man,,,,,"{""Q0"":""jane is being seduced by mike""}","<img src=""stim_listB/seduce2.gif""style=""height:400px;""></stim_listB>",is being seduced by,,,,,,
null,"<div style=""font-size:60px;"">+</div>",,html-keyboard-response,181,1510489,0.0-15.0-0.7,34367,List2B,black,man,,,,null,,,,,,,,,
null,"<img src=""stim_listB/shout4.gif""style=""height:400px;""></stim_listB>",,html-keyboard-response,182,1512497,0.0-15.0-1.7,34367,List2B,black,man,,,,null,,,,,,,,,
null,is being shouted at by,,html-keyboard-response,183,1514502,0.0-15.0-2.7,34367,List2B,black,man,,,,null,,,,,,,,,
24531.5,,,survey-text,184,1539056,0.0-15.0-3.7,34367,List2B,black,man,,,,,"{""Q0"":""Mike is being shouted at by kate""}","<img src=""stim_listB/shout4.gif""style=""height:400px;""></stim_listB>",is being shouted at by,,,,,,
null,"<div style=""font-size:60px;"">+</div>",,html-keyboard-response,185,1539560,0.0-15.0-0.8,34367,List2B,black,man,,,,null,,,,,,,,,
null,"<img src=""stim_listB/hug2.gif""style=""height:400px;""></stim_listB>",,html-keyboard-response,186,1541568,0.0-15.0-1.8,34367,List2B,black,man,,,,null,,,,,,,,,
null,is being hugged by,,html-keyboard-response,187,1543574,0.0-15.0-2.8,34367,List2B,black,man,,,,null,,,,,,,,,
34933.7,,,survey-text,188,1578543,0.0-15.0-3.8,34367,List2B,black,man,,,,,"{""Q0"":""Jane is being hugged by dave""}","<img src=""stim_listB/hug2.gif""style=""height:400px;""></stim_listB>",is being hugged by,,,,,,
null,"<div style=""font-size:60px;"">+</div>",,html-keyboard-response,189,1579048,0.0-15.0-0.9,34367,List2B,black,man,,,,null,,,,,,,,,
null,"<img src=""stim_listB/kiss7.gif""style=""height:400px;""></stim_listB>",,html-keyboard-response,190,1581056,0.0-15.0-1.9,34367,List2B,black,man,,,,null,,,,,,,,,
null,is kissing,,html-keyboard-response,191,1583065,0.0-15.0-2.9,34367,List2B,black,man,,,,null,,,,,,,,,
19844,,,survey-text,192,1602954,0.0-15.0-3.9,34367,List2B,black,man,,,,,"{""Q0"":""ruth is kissing beth""}","<img src=""stim_listB/kiss7.gif""style=""height:400px;""></stim_listB>",is kissing,,,,,,
null,"<div style=""font-size:60px;"">+</div>",,html-keyboard-response,193,1603458,0.0-15.0-0.10,34367,List2B,black,man,,,,null,,,,,,,,,
null,"<img src=""stim_listB/touch6.gif""style=""height:400px;""></stim_listB>",,html-keyboard-response,194,1605467,0.0-15.0-1.10,34367,List2B,black,man,,,,null,,,,,,,,,
null,is being touched by,,html-keyboard-response,195,1607472,0.0-15.0-2.10,34367,List2B,black,man,,,,null,,,,,,,,,
18664.5,,,survey-text,196,1626156,0.0-15.0-3.10,34367,List2B,black,man,,,,,"{""Q0"":""Luke is being touched by fred""}","<img src=""stim_listB/touch6.gif""style=""height:400px;""></stim_listB>",is being touched by,,,,,,
null,"<div style=""font-size:60px;"">+</div>",,html-keyboard-response,197,1626661,0.0-15.0-0.11,34367,List2B,black,man,,,,null,,,,,,,,,
null,"<img src=""stim_listB/touch4.gif""style=""height:400px;""></stim_listB>",,html-keyboard-response,198,1628669,0.0-15.0-1.11,34367,List2B,black,man,,,,null,,,,,,,,,
null,is being touched by,,html-keyboard-response,199,1630677,0.0-15.0-2.11,34367,List2B,black,man,,,,null,,,,,,,,,
19746.7,,,survey-text,200,1650471,0.0-15.0-3.11,34367,List2B,black,man,,,,,"{""Q0"":""Beth is being touched by fred""}","<img src=""stim_listB/touch4.gif""style=""height:400px;""></stim_listB>",is being touched by,,,,,,
null,"<div style=""font-size:60px;"">+</div>",,html-keyboard-response,201,1650978,0.0-15.0-0.12,34367,List2B,black,man,,,,null,,,,,,,,,
null,"<img src=""stim_listB/look8.gif""style=""height:400px;""></stim_listB>",,html-keyboard-response,202,1652989,0.0-15.0-1.12,34367,List2B,black,man,,,,null,,,,,,,,,
null,is being looked at by,,html-keyboard-response,203,1654999,0.0-15.0-2.12,34367,List2B,black,man,,,,null,,,,,,,,,
26800.7,,,survey-text,204,1681841,0.0-15.0-3.12,34367,List2B,black,man,,,,,"{""Q0"":""Jane is being looked at by kate""}","<img src=""stim_listB/look8.gif""style=""height:400px;""></stim_listB>",is being looked at by,,,,,,
null,"<div style=""font-size:60px;"">+</div>",,html-keyboard-response,205,1682346,0.0-15.0-0.13,34367,List2B,black,man,,,,null,,,,,,,,,
null,"<img src=""stim_listB/oppose5.gif""style=""height:400px;""></stim_listB>",,html-keyboard-response,206,1684353,0.0-15.0-1.13,34367,List2B,black,man,,,,null,,,,,,,,,
null,is opposing,,html-keyboard-response,207,1686364,0.0-15.0-2.13,34367,List2B,black,man,,,,null,,,,,,,,,
22719.3,,,survey-text,208,1709137,0.0-15.0-3.13,34367,List2B,black,man,,,,,"{""Q0"":""Mike is opposing dave""}","<img src=""stim_listB/oppose5.gif""style=""height:400px;""></stim_listB>",is opposing,,,,,,
null,"<div style=""font-size:60px;"">+</div>",,html-keyboard-response,209,1709641,0.0-15.0-0.14,34367,List2B,black,man,,,,null,,,,,,,,,
null,"<img src=""stim_listB/look1.gif""style=""height:400px;""></stim_listB>",,html-keyboard-response,210,1711649,0.0-15.0-1.14,34367,List2B,black,man,,,,null,,,,,,,,,
null,is looking at,,html-keyboard-response,211,1713657,0.0-15.0-2.14,34367,List2B,black,man,,,,null,,,,,,,,,
14544.4,,,survey-text,212,1728246,0.0-15.0-3.14,34367,List2B,black,man,,,,,"{""Q0"":""Luke is looking at ruth""}","<img src=""stim_listB/look1.gif""style=""height:400px;""></stim_listB>",is looking at,,,,,,
null,"<div style=""font-size:60px;"">+</div>",,html-keyboard-response,213,1728751,0.0-15.0-0.15,34367,List2B,black,man,,,,null,,,,,,,,,
null,"<img src=""stim_listB/copy1.gif""style=""height:400px;""></stim_listB>",,html-keyboard-response,214,1730759,0.0-15.0-1.15,34367,List2B,black,man,,,,null,,,,,,,,,
null,is copying,,html-keyboard-response,215,1732765,0.0-15.0-2.15,34367,List2B,black,man,,,,null,,,,,,,,,
16008.5,,,survey-text,216,1748826,0.0-15.0-3.15,34367,List2B,black,man,,,,,"{""Q0"":""Dave is copying ruth""}","<img src=""stim_listB/copy1.gif""style=""height:400px;""></stim_listB>",is copying,,,,,,
null,"<div style=""font-size:60px;"">+</div>",,html-keyboard-response,217,1749331,0.0-15.0-0.16,34367,List2B,black,man,,,,null,,,,,,,,,
null,"<img src=""stim_listB/challenge3.gif""style=""height:400px;""></stim_listB>",,html-keyboard-response,218,1751339,0.0-15.0-1.16,34367,List2B,black,man,,,,null,,,,,,,,,
null,is challenging,,html-keyboard-response,219,1753378,0.0-15.0-2.16,34367,List2B,black,man,,,,null,,,,,,,,,
23574.3,,,survey-text,220,1777019,0.0-15.0-3.16,34367,List2B,black,man,,,,,"{""Q0"":""Mike is challenging beth""}","<img src=""stim_listB/challenge3.gif""style=""height:400px;""></stim_listB>",is challenging,,,,,,
null,"<div style=""font-size:60px;"">+</div>",,html-keyboard-response,221,1777524,0.0-15.0-0.17,34367,List2B,black,man,,,,null,,,,,,,,,
null,"<img src=""stim_listB/shout7.gif""style=""height:400px;""></stim_listB>",,html-keyboard-response,222,1779532,0.0-15.0-1.17,34367,List2B,black,man,,,,null,,,,,,,,,
null,is shouting at,,html-keyboard-response,223,1781539,0.0-15.0-2.17,34367,List2B,black,man,,,,null,,,,,,,,,
33326.8,,,survey-text,224,1814887,0.0-15.0-3.17,34367,List2B,black,man,,,,,"{""Q0"":""Luke is shouting at beth""}","<img src=""stim_listB/shout7.gif""style=""height:400px;""></stim_listB>",is shouting at,,,,,,
null,"<div style=""font-size:60px;"">+</div>",,html-keyboard-response,225,1815394,0.0-15.0-0.18,34367,List2B,black,man,,,,null,,,,,,,,,
null,"<img src=""stim_listB/look2.gif""style=""height:400px;""></stim_listB>",,html-keyboard-response,226,1817402,0.0-15.0-1.18,34367,List2B,black,man,,,,null,,,,,,,,,
null,is being looked at by,,html-keyboard-response,227,1819412,0.0-15.0-2.18,34367,List2B,black,man,,,,null,,,,,,,,,
21203.7,,,survey-text,228,1840698,0.0-15.0-3.18,34367,List2B,black,man,,,,,"{""Q0"":""Dave is being looked at by jane""}","<img src=""stim_listB/look2.gif""style=""height:400px;""></stim_listB>",is being looked at by,,,,,,
null,"<div style=""font-size:60px;"">+</div>",,html-keyboard-response,229,1841205,0.0-15.0-0.19,34367,List2B,black,man,,,,null,,,,,,,,,
null,"<img src=""stim_listB/hug5.gif""style=""height:400px;""></stim_listB>",,html-keyboard-response,230,1843213,0.0-15.0-1.19,34367,List2B,black,man,,,,null,,,,,,,,,
null,is hugging,,html-keyboard-response,231,1845218,0.0-15.0-2.19,34367,List2B,black,man,,,,null,,,,,,,,,
14400.8,,,survey-text,232,1859660,0.0-15.0-3.19,34367,List2B,black,man,,,,,"{""Q0"":""Fred is hugging luke""}","<img src=""stim_listB/hug5.gif""style=""height:400px;""></stim_listB>",is hugging,,,,,,
8029.9,"<img src='img/portrait_matrix_list2.jpg' style='width:900px;height:500px;''></img><p>If you have memorised all the portraits and names and are ready to start, press Continue.</p><p><strong>Please note: Your memory of these faces will be tested 4 times during this experiment.</strong></p>",0,html-button-response,233,1867697,0.0-16.0-0.0,34367,List2B,black,man,,,,,,,,,,,,,
8848.3,"<img src=""portrait/BW1.jpg""style=""height:400px;""></img>",0,html-button-response,234,1877559,0.0-16.0-1.0,34367,List2B,black,man,,TRUE,0,,,,,,,,,,
null,CORRECT,,html-keyboard-response,235,1879064,0.0-16.0-2.0-0.0,34367,List2B,black,man,,,,null,,,,,,,,,
6123.3,"<img src=""portrait/BW2.jpg""style=""height:400px;""></img>",2,html-button-response,236,1885195,0.0-16.0-4.0,34367,List2B,black,man,,TRUE,2,,,,,,,,,,
null,CORRECT,,html-keyboard-response,237,1886701,0.0-16.0-5.0-0.0,34367,List2B,black,man,,,,null,,,,,,,,,
5102.2,"<img src=""portrait/WM2.jpg""style=""height:400px;""></img>",7,html-button-response,238,1891813,0.0-16.0-7.0,34367,List2B,black,man,,TRUE,7,,,,,,,,,,
null,CORRECT,,html-keyboard-response,239,1893322,0.0-16.0-8.0-0.0,34367,List2B,black,man,,,,null,,,,,,,,,
2762.1,"<img src=""portrait/BM2.jpg""style=""height:400px;""></img>",5,html-button-response,240,1896096,0.0-16.0-10.0,34367,List2B,black,man,,TRUE,5,,,,,,,,,,
null,CORRECT,,html-keyboard-response,241,1897604,0.0-16.0-11.0-0.0,34367,List2B,black,man,,,,null,,,,,,,,,
2862.8,"<img src=""portrait/WM1.jpg""style=""height:400px;""></img>",6,html-button-response,242,1900480,0.0-16.0-13.0,34367,List2B,black,man,,TRUE,6,,,,,,,,,,
null,CORRECT,,html-keyboard-response,243,1901985,0.0-16.0-14.0-0.0,34367,List2B,black,man,,,,null,,,,,,,,,
7526.1,"<img src=""portrait/BM1.jpg""style=""height:400px;""></img>",4,html-button-response,244,1909523,0.0-16.0-16.0,34367,List2B,black,man,,TRUE,4,,,,,,,,,,
null,CORRECT,,html-keyboard-response,245,1911031,0.0-16.0-17.0-0.0,34367,List2B,black,man,,,,null,,,,,,,,,
5510.9,"<img src=""portrait/WW1.jpg""style=""height:400px;""></img>",1,html-button-response,246,1916553,0.0-16.0-19.0,34367,List2B,black,man,,TRUE,1,,,,,,,,,,
null,CORRECT,,html-keyboard-response,247,1918060,0.0-16.0-20.0-0.0,34367,List2B,black,man,,,,null,,,,,,,,,
8076.4,"<img src=""portrait/WW2.jpg""style=""height:400px;""></img>",3,html-button-response,248,1926147,0.0-16.0-22.0,34367,List2B,black,man,,TRUE,3,,,,,,,,,,
null,CORRECT,,html-keyboard-response,249,1927653,0.0-16.0-23.0-0.0,34367,List2B,black,man,,,,null,,,,,,,,,
1458.7,<p>You got 8 out of 8 right first time. Press Continue.</p>,0,html-button-response,250,1929122,0.0-16.0-25.0,34367,List2B,black,man,,,,,,,,,,,,,
null,"<div style=""font-size:60px;"">+</div>",,html-keyboard-response,251,1930640,0.0-17.0-0.0,34367,List2B,black,man,,,,null,,,,,,,,,
null,"<img src=""stim_listB/seduce7.gif""style=""height:400px;""></stim_listB>",,html-keyboard-response,252,1932650,0.0-17.0-1.0,34367,List2B,black,man,,,,null,,,,,,,,,
null,is seducing,,html-keyboard-response,253,1934655,0.0-17.0-2.0,34367,List2B,black,man,,,,null,,,,,,,,,
28908.7,,,survey-text,254,1963583,0.0-17.0-3.0,34367,List2B,black,man,,,,,"{""Q0"":""dave is seducing kate""}","<img src=""stim_listB/seduce7.gif""style=""height:400px;""></stim_listB>",is seducing,,,,,,
null,"<div style=""font-size:60px;"">+</div>",,html-keyboard-response,255,1964088,0.0-17.0-0.1,34367,List2B,black,man,,,,null,,,,,,,,,
null,"<img src=""stim_listB/shout5.gif""style=""height:400px;""></stim_listB>",,html-keyboard-response,256,1966095,0.0-17.0-1.1,34367,List2B,black,man,,,,null,,,,,,,,,
null,is shouting at,,html-keyboard-response,257,1968101,0.0-17.0-2.1,34367,List2B,black,man,,,,null,,,,,,,,,
23975.7,,,survey-text,258,1992103,0.0-17.0-3.1,34367,List2B,black,man,,,,,"{""Q0"":""Fred is shouting at luke""}","<img src=""stim_listB/shout5.gif""style=""height:400px;""></stim_listB>",is shouting at,,,,,,
null,"<div style=""font-size:60px;"">+</div>",,html-keyboard-response,259,1992609,0.0-17.0-0.2,34367,List2B,black,man,,,,null,,,,,,,,,
null,"<img src=""stim_listB/touch5.gif""style=""height:400px;""></stim_listB>",,html-keyboard-response,260,1994618,0.0-17.0-1.2,34367,List2B,black,man,,,,null,,,,,,,,,
null,is touching,,html-keyboard-response,261,1996623,0.0-17.0-2.2,34367,List2B,black,man,,,,null,,,,,,,,,
16292.6,,,survey-text,262,2012936,0.0-17.0-3.2,34367,List2B,black,man,,,,,"{""Q0"":""Mike is touching dave""}","<img src=""stim_listB/touch5.gif""style=""height:400px;""></stim_listB>",is touching,,,,,,
null,"<div style=""font-size:60px;"">+</div>",,html-keyboard-response,263,2013441,0.0-17.0-0.3,34367,List2B,black,man,,,,null,,,,,,,,,
null,"<img src=""stim_listB/challenge6.gif""style=""height:400px;""></stim_listB>",,html-keyboard-response,264,2015448,0.0-17.0-1.3,34367,List2B,black,man,,,,null,,,,,,,,,
null,is being challenged by,,html-keyboard-response,265,2017451,0.0-17.0-2.3,34367,List2B,black,man,,,,null,,,,,,,,,
16703.1,,,survey-text,266,2034175,0.0-17.0-3.3,34367,List2B,black,man,,,,,"{""Q0"":""Mike is being challenge by luke""}","<img src=""stim_listB/challenge6.gif""style=""height:400px;""></stim_listB>",is being challenged by,,,,,,
null,"<div style=""font-size:60px;"">+</div>",,html-keyboard-response,267,2034681,0.0-17.0-0.4,34367,List2B,black,man,,,,null,,,,,,,,,
null,"<img src=""stim_listB/touch3.gif""style=""height:400px;""></stim_listB>",,html-keyboard-response,268,2036690,0.0-17.0-1.4,34367,List2B,black,man,,,,null,,,,,,,,,
null,is touching,,html-keyboard-response,269,2038694,0.0-17.0-2.4,34367,List2B,black,man,,,,null,,,,,,,,,
15630,,,survey-text,270,2054342,0.0-17.0-3.4,34367,List2B,black,man,,,,,"{""Q0"":""Mike is touching kate""}","<img src=""stim_listB/touch3.gif""style=""height:400px;""></stim_listB>",is touching,,,,,,
null,"<div style=""font-size:60px;"">+</div>",,html-keyboard-response,271,2054848,0.0-17.0-0.5,34367,List2B,black,man,,,,null,,,,,,,,,
null,"<img src=""stim_listB/hug6.gif""style=""height:400px;""></stim_listB>",,html-keyboard-response,272,2056855,0.0-17.0-1.5,34367,List2B,black,man,,,,null,,,,,,,,,
null,is being hugged by,,html-keyboard-response,273,2058860,0.0-17.0-2.5,34367,List2B,black,man,,,,null,,,,,,,,,
19957,,,survey-text,274,2078831,0.0-17.0-3.5,34367,List2B,black,man,,,,,"{""Q0"":""Mike is being hugged by dave""}","<img src=""stim_listB/hug6.gif""style=""height:400px;""></stim_listB>",is being hugged by,,,,,,
null,"<div style=""font-size:60px;"">+</div>",,html-keyboard-response,275,2079337,0.0-17.0-0.6,34367,List2B,black,man,,,,null,,,,,,,,,
null,"<img src=""stim_listB/oppose4.gif""style=""height:400px;""></stim_listB>",,html-keyboard-response,276,2081345,0.0-17.0-1.6,34367,List2B,black,man,,,,null,,,,,,,,,
null,is being opposed by,,html-keyboard-response,277,2083350,0.0-17.0-2.6,34367,List2B,black,man,,,,null,,,,,,,,,
19179.1,,,survey-text,278,2102578,0.0-17.0-3.6,34367,List2B,black,man,,,,,"{""Q0"":""Fred is being opposed by beth""}","<img src=""stim_listB/oppose4.gif""style=""height:400px;""></stim_listB>",is being opposed by,,,,,,
null,"<div style=""font-size:60px;"">+</div>",,html-keyboard-response,279,2103083,0.0-17.0-0.7,34367,List2B,black,man,,,,null,,,,,,,,,
null,"<img src=""stim_listB/seduce6.gif""style=""height:400px;""></stim_listB>",,html-keyboard-response,280,2105094,0.0-17.0-1.7,34367,List2B,black,man,,,,null,,,,,,,,,
null,is being seduced by,,html-keyboard-response,281,2107102,0.0-17.0-2.7,34367,List2B,black,man,,,,null,,,,,,,,,
23040.1,,,survey-text,282,2130170,0.0-17.0-3.7,34367,List2B,black,man,,,,,"{""Q0"":""Fred is being seduce by dave""}","<img src=""stim_listB/seduce6.gif""style=""height:400px;""></stim_listB>",is being seduced by,,,,,,
null,"<div style=""font-size:60px;"">+</div>",,html-keyboard-response,283,2130675,0.0-17.0-0.8,34367,List2B,black,man,,,,null,,,,,,,,,
null,"<img src=""stim_listB/oppose6.gif""style=""height:400px;""></stim_listB>",,html-keyboard-response,284,2132682,0.0-17.0-1.8,34367,List2B,black,man,,,,null,,,,,,,,,
null,is being opposed by,,html-keyboard-response,285,2134686,0.0-17.0-2.8,34367,List2B,black,man,,,,null,,,,,,,,,
12482.6,,,survey-text,286,2147184,0.0-17.0-3.8,34367,List2B,black,man,,,,,"{""Q0"":""fred is being opposed by luke""}","<img src=""stim_listB/oppose6.gif""style=""height:400px;""></stim_listB>",is being opposed by,,,,,,
null,"<div style=""font-size:60px;"">+</div>",,html-keyboard-response,287,2147689,0.0-17.0-0.9,34367,List2B,black,man,,,,null,,,,,,,,,
null,"<img src=""stim_listB/kiss1.gif""style=""height:400px;""></stim_listB>",,html-keyboard-response,288,2149702,0.0-17.0-1.9,34367,List2B,black,man,,,,null,,,,,,,,,
null,is kissing,,html-keyboard-response,289,2151708,0.0-17.0-2.9,34367,List2B,black,man,,,,null,,,,,,,,,
18629.1,,,survey-text,290,2170357,0.0-17.0-3.9,34367,List2B,black,man,,,,,"{""Q0"":""Luke is kissing ruth""}","<img src=""stim_listB/kiss1.gif""style=""height:400px;""></stim_listB>",is kissing,,,,,,
null,"<div style=""font-size:60px;"">+</div>",,html-keyboard-response,291,2170862,0.0-17.0-0.10,34367,List2B,black,man,,,,null,,,,,,,,,
null,"<img src=""stim_listB/kiss4.gif""style=""height:400px;""></stim_listB>",,html-keyboard-response,292,2172870,0.0-17.0-1.10,34367,List2B,black,man,,,,null,,,,,,,,,
null,is being kissed by,,html-keyboard-response,293,2174880,0.0-17.0-2.10,34367,List2B,black,man,,,,null,,,,,,,,,
20386.2,,,survey-text,294,2195316,0.0-17.0-3.10,34367,List2B,black,man,,,,,"{""Q0"":""Mike is being kissed by kate""}","<img src=""stim_listB/kiss4.gif""style=""height:400px;""></stim_listB>",is being kissed by,,,,,,
null,"<div style=""font-size:60px;"">+</div>",,html-keyboard-response,295,2195820,0.0-17.0-0.11,34367,List2B,black,man,,,,null,,,,,,,,,
null,"<img src=""stim_listB/look5.gif""style=""height:400px;""></stim_listB>",,html-keyboard-response,296,2197828,0.0-17.0-1.11,34367,List2B,black,man,,,,null,,,,,,,,,
null,is looking at,,html-keyboard-response,297,2199834,0.0-17.0-2.11,34367,List2B,black,man,,,,null,,,,,,,,,
14877.2,,,survey-text,298,2214733,0.0-17.0-3.11,34367,List2B,black,man,,,,,"{""Q0"":""Luke is looking at fred""}","<img src=""stim_listB/look5.gif""style=""height:400px;""></stim_listB>",is looking at,,,,,,
null,"<div style=""font-size:60px;"">+</div>",,html-keyboard-response,299,2215238,0.0-17.0-0.12,34367,List2B,black,man,,,,null,,,,,,,,,
null,"<img src=""stim_listB/kiss8.gif""style=""height:400px;""></stim_listB>",,html-keyboard-response,300,2217250,0.0-17.0-1.12,34367,List2B,black,man,,,,null,,,,,,,,,
null,is being kissed by,,html-keyboard-response,301,2219254,0.0-17.0-2.12,34367,List2B,black,man,,,,null,,,,,,,,,
18183.5,,,survey-text,302,2237463,0.0-17.0-3.12,34367,List2B,black,man,,,,,"{""Q0"":""Kate is being kissed by jane""}","<img src=""stim_listB/kiss8.gif""style=""height:400px;""></stim_listB>",is being kissed by,,,,,,
null,"<div style=""font-size:60px;"">+</div>",,html-keyboard-response,303,2237969,0.0-17.0-0.13,34367,List2B,black,man,,,,null,,,,,,,,,
null,"<img src=""stim_listB/copy7.gif""style=""height:400px;""></stim_listB>",,html-keyboard-response,304,2239977,0.0-17.0-1.13,34367,List2B,black,man,,,,null,,,,,,,,,
null,is copying,,html-keyboard-response,305,2241983,0.0-17.0-2.13,34367,List2B,black,man,,,,null,,,,,,,,,
16405.5,,,survey-text,306,2258407,0.0-17.0-3.13,34367,List2B,black,man,,,,,"{""Q0"":""Jane is copying beth""}","<img src=""stim_listB/copy7.gif""style=""height:400px;""></stim_listB>",is copying,,,,,,
null,"<div style=""font-size:60px;"">+</div>",,html-keyboard-response,307,2258912,0.0-17.0-0.14,34367,List2B,black,man,,,,null,,,,,,,,,
null,"<img src=""stim_listB/hug3.gif""style=""height:400px;""></stim_listB>",,html-keyboard-response,308,2260920,0.0-17.0-1.14,34367,List2B,black,man,,,,null,,,,,,,,,
null,is hugging,,html-keyboard-response,309,2262927,0.0-17.0-2.14,34367,List2B,black,man,,,,null,,,,,,,,,
14473.9,,,survey-text,310,2277459,0.0-17.0-3.14,34367,List2B,black,man,,,,,"{""Q0"":""Fred is hugging beth""}","<img src=""stim_listB/hug3.gif""style=""height:400px;""></stim_listB>",is hugging,,,,,,
null,"<div style=""font-size:60px;"">+</div>",,html-keyboard-response,311,2277966,0.0-17.0-0.15,34367,List2B,black,man,,,,null,,,,,,,,,
null,"<img src=""stim_listB/touch2.gif""style=""height:400px;""></stim_listB>",,html-keyboard-response,312,2279979,0.0-17.0-1.15,34367,List2B,black,man,,,,null,,,,,,,,,
null,is being touched by,,html-keyboard-response,313,2281984,0.0-17.0-2.15,34367,List2B,black,man,,,,null,,,,,,,,,
18925.3,,,survey-text,314,2300959,0.0-17.0-3.15,34367,List2B,black,man,,,,,"{""Q0"":""Luke is being touched by ruth""}","<img src=""stim_listB/touch2.gif""style=""height:400px;""></stim_listB>",is being touched by,,,,,,
null,"<div style=""font-size:60px;"">+</div>",,html-keyboard-response,315,2301465,0.0-17.0-0.16,34367,List2B,black,man,,,,null,,,,,,,,,
null,"<img src=""stim_listB/copy5.gif""style=""height:400px;""></stim_listB>",,html-keyboard-response,316,2303473,0.0-17.0-1.16,34367,List2B,black,man,,,,null,,,,,,,,,
null,is copying,,html-keyboard-response,317,2305482,0.0-17.0-2.16,34367,List2B,black,man,,,,null,,,,,,,,,
14204.9,,,survey-text,318,2319734,0.0-17.0-3.16,34367,List2B,black,man,,,,,"{""Q0"":""Fred is copying dave""}","<img src=""stim_listB/copy5.gif""style=""height:400px;""></stim_listB>",is copying,,,,,,
null,"<div style=""font-size:60px;"">+</div>",,html-keyboard-response,319,2320239,0.0-17.0-0.17,34367,List2B,black,man,,,,null,,,,,,,,,
null,"<img src=""stim_listB/greet8.gif""style=""height:400px;""></stim_listB>",,html-keyboard-response,320,2322248,0.0-17.0-1.17,34367,List2B,black,man,,,,null,,,,,,,,,
null,is being greeted by,,html-keyboard-response,321,2324254,0.0-17.0-2.17,34367,List2B,black,man,,,,null,,,,,,,,,
22718.4,,,survey-text,322,2347000,0.0-17.0-3.17,34367,List2B,black,man,,,,,"{""Q0"":""Ruth is being greeted by kate""}","<img src=""stim_listB/greet8.gif""style=""height:400px;""></stim_listB>",is being greeted by,,,,,,
null,"<div style=""font-size:60px;"">+</div>",,html-keyboard-response,323,2347505,0.0-17.0-0.18,34367,List2B,black,man,,,,null,,,,,,,,,
null,"<img src=""stim_listB/hug7.gif""style=""height:400px;""></stim_listB>",,html-keyboard-response,324,2349516,0.0-17.0-1.18,34367,List2B,black,man,,,,null,,,,,,,,,
null,is hugging,,html-keyboard-response,325,2351533,0.0-17.0-2.18,34367,List2B,black,man,,,,null,,,,,,,,,
17112.8,,,survey-text,326,2368709,0.0-17.0-3.18,34367,List2B,black,man,,,,,"{""Q0"":""Beth is hugging jane""}","<img src=""stim_listB/hug7.gif""style=""height:400px;""></stim_listB>",is hugging,,,,,,
null,"<div style=""font-size:60px;"">+</div>",,html-keyboard-response,327,2369214,0.0-17.0-0.19,34367,List2B,black,man,,,,null,,,,,,,,,
null,"<img src=""stim_listB/kiss6.gif""style=""height:400px;""></stim_listB>",,html-keyboard-response,328,2371222,0.0-17.0-1.19,34367,List2B,black,man,,,,null,,,,,,,,,
null,is being kissed by,,html-keyboard-response,329,2373228,0.0-17.0-2.19,34367,List2B,black,man,,,,null,,,,,,,,,
11285,,,survey-text,330,2384539,0.0-17.0-3.19,34367,List2B,black,man,,,,,"{""Q0"":""Mike is being kissed by dave""}","<img src=""stim_listB/kiss6.gif""style=""height:400px;""></stim_listB>",is being kissed by,,,,,,
3552.8,"<img src='img/portrait_matrix_list2.jpg' style='width:900px;height:500px;''></img><p>If you have memorised all the portraits and names and are ready to start, press Continue.</p><p><strong>Please note: Your memory of these faces will be tested 4 times during this experiment.</strong></p>",0,html-button-response,331,2388102,0.0-18.0-0.0,34367,List2B,black,man,,,,,,,,,,,,,
2822.6,"<img src=""portrait/WM1.jpg""style=""height:400px;""></img>",6,html-button-response,332,2391936,0.0-18.0-1.0,34367,List2B,black,man,,TRUE,6,,,,,,,,,,
null,CORRECT,,html-keyboard-response,333,2393453,0.0-18.0-2.0-0.0,34367,List2B,black,man,,,,null,,,,,,,,,
2391.1,"<img src=""portrait/BM1.jpg""style=""height:400px;""></img>",4,html-button-response,334,2395859,0.0-18.0-4.0,34367,List2B,black,man,,TRUE,4,,,,,,,,,,
null,CORRECT,,html-keyboard-response,335,2397366,0.0-18.0-5.0-0.0,34367,List2B,black,man,,,,null,,,,,,,,,
2045.6,"<img src=""portrait/BM2.jpg""style=""height:400px;""></img>",5,html-button-response,336,2399422,0.0-18.0-7.0,34367,List2B,black,man,,TRUE,5,,,,,,,,,,
null,CORRECT,,html-keyboard-response,337,2400928,0.0-18.0-8.0-0.0,34367,List2B,black,man,,,,null,,,,,,,,,
1541.5,"<img src=""portrait/WM2.jpg""style=""height:400px;""></img>",7,html-button-response,338,2402480,0.0-18.0-10.0,34367,List2B,black,man,,TRUE,7,,,,,,,,,,
null,CORRECT,,html-keyboard-response,339,2403986,0.0-18.0-11.0-0.0,34367,List2B,black,man,,,,null,,,,,,,,,
6196.6,"<img src=""portrait/BW1.jpg""style=""height:400px;""></img>",0,html-button-response,340,2410193,0.0-18.0-13.0,34367,List2B,black,man,,TRUE,0,,,,,,,,,,
null,CORRECT,,html-keyboard-response,341,2411700,0.0-18.0-14.0-0.0,34367,List2B,black,man,,,,null,,,,,,,,,
2743.3,"<img src=""portrait/BW2.jpg""style=""height:400px;""></img>",2,html-button-response,342,2414456,0.0-18.0-16.0,34367,List2B,black,man,,TRUE,2,,,,,,,,,,
null,CORRECT,,html-keyboard-response,343,2415963,0.0-18.0-17.0-0.0,34367,List2B,black,man,,,,null,,,,,,,,,
9633.4,"<img src=""portrait/WW2.jpg""style=""height:400px;""></img>",3,html-button-response,344,2425604,0.0-18.0-19.0,34367,List2B,black,man,,TRUE,3,,,,,,,,,,
null,CORRECT,,html-keyboard-response,345,2427110,0.0-18.0-20.0-0.0,34367,List2B,black,man,,,,null,,,,,,,,,
4817.6,"<img src=""portrait/WW1.jpg""style=""height:400px;""></img>",1,html-button-response,346,2431937,0.0-18.0-22.0,34367,List2B,black,man,,TRUE,1,,,,,,,,,,
null,CORRECT,,html-keyboard-response,347,2433442,0.0-18.0-23.0-0.0,34367,List2B,black,man,,,,null,,,,,,,,,
1317.1,<p>You got 8 out of 8 right first time. Press Continue.</p>,0,html-button-response,348,2434769,0.0-18.0-25.0,34367,List2B,black,man,,,,,,,,,,,,,
null,"<div style=""font-size:60px;"">+</div>",,html-keyboard-response,349,2436279,0.0-19.0-0.0,34367,List2B,black,man,,,,null,,,,,,,,,
null,"<img src=""stim_listB/challenge7.gif""style=""height:400px;""></stim_listB>",,html-keyboard-response,350,2438286,0.0-19.0-1.0,34367,List2B,black,man,,,,null,,,,,,,,,
null,is challenging,,html-keyboard-response,351,2441332,0.0-19.0-2.0,34367,List2B,black,man,,,,null,,,,,,,,,
16804.5,,,survey-text,352,2458179,0.0-19.0-3.0,34367,List2B,black,man,,,,,"{""Q0"":""Beth is challenging jane""}","<img src=""stim_listB/challenge7.gif""style=""height:400px;""></stim_listB>",is challenging,,,,,,
null,"<div style=""font-size:60px;"">+</div>",,html-keyboard-response,353,2458686,0.0-19.0-0.1,34367,List2B,black,man,,,,null,,,,,,,,,
null,"<img src=""stim_listB/touch1.gif""style=""height:400px;""></stim_listB>",,html-keyboard-response,354,2460694,0.0-19.0-1.1,34367,List2B,black,man,,,,null,,,,,,,,,
null,is touching,,html-keyboard-response,355,2462699,0.0-19.0-2.1,34367,List2B,black,man,,,,null,,,,,,,,,
23251.9,,,survey-text,356,2485997,0.0-19.0-3.1,34367,List2B,black,man,,,,,"{""Q0"":""dave is touching jane""}","<img src=""stim_listB/touch1.gif""style=""height:400px;""></stim_listB>",is touching,,,,,,
null,"<div style=""font-size:60px;"">+</div>",,html-keyboard-response,357,2486503,0.0-19.0-0.2,34367,List2B,black,man,,,,null,,,,,,,,,
null,"<img src=""stim_listB/copy6.gif""style=""height:400px;""></stim_listB>",,html-keyboard-response,358,2488515,0.0-19.0-1.2,34367,List2B,black,man,,,,null,,,,,,,,,
null,is being copied by,,html-keyboard-response,359,2490521,0.0-19.0-2.2,34367,List2B,black,man,,,,null,,,,,,,,,
14826.8,,,survey-text,360,2505399,0.0-19.0-3.2,34367,List2B,black,man,,,,,"{""Q0"":""Mike is being copied by luke""}","<img src=""stim_listB/copy6.gif""style=""height:400px;""></stim_listB>",is being copied by,,,,,,
null,"<div style=""font-size:60px;"">+</div>",,html-keyboard-response,361,2505903,0.0-19.0-0.3,34367,List2B,black,man,,,,null,,,,,,,,,
null,"<img src=""stim_listB/shout6.gif""style=""height:400px;""></stim_listB>",,html-keyboard-response,362,2507911,0.0-19.0-1.3,34367,List2B,black,man,,,,null,,,,,,,,,
null,is being shouted at by,,html-keyboard-response,363,2509917,0.0-19.0-2.3,34367,List2B,black,man,,,,null,,,,,,,,,
14868.1,,,survey-text,364,2524885,0.0-19.0-3.3,34367,List2B,black,man,,,,,"{""Q0"":""Mike is being shouted at by dave""}","<img src=""stim_listB/shout6.gif""style=""height:400px;""></stim_listB>",is being shouted at by,,,,,,
null,"<div style=""font-size:60px;"">+</div>",,html-keyboard-response,365,2525391,0.0-19.0-0.4,34367,List2B,black,man,,,,null,,,,,,,,,
null,"<img src=""stim_listB/hug8.gif""style=""height:400px;""></stim_listB>",,html-keyboard-response,366,2527399,0.0-19.0-1.4,34367,List2B,black,man,,,,null,,,,,,,,,
null,is being hugged by,,html-keyboard-response,367,2529409,0.0-19.0-2.4,34367,List2B,black,man,,,,null,,,,,,,,,
17883.2,,,survey-text,368,2547378,0.0-19.0-3.4,34367,List2B,black,man,,,,,"{""Q0"":""Kate is being hugged by jane""}","<img src=""stim_listB/hug8.gif""style=""height:400px;""></stim_listB>",is being hugged by,,,,,,
null,"<div style=""font-size:60px;"">+</div>",,html-keyboard-response,369,2547883,0.0-19.0-0.5,34367,List2B,black,man,,,,null,,,,,,,,,
null,"<img src=""stim_listB/copy8.gif""style=""height:400px;""></stim_listB>",,html-keyboard-response,370,2549891,0.0-19.0-1.5,34367,List2B,black,man,,,,null,,,,,,,,,
null,is being copied by,,html-keyboard-response,371,2551897,0.0-19.0-2.5,34367,List2B,black,man,,,,null,,,,,,,,,
14657.3,,,survey-text,372,2566568,0.0-19.0-3.5,34367,List2B,black,man,,,,,"{""Q0"":""Kate is being copied by ruth""}","<img src=""stim_listB/copy8.gif""style=""height:400px;""></stim_listB>",is being copied by,,,,,,
null,"<div style=""font-size:60px;"">+</div>",,html-keyboard-response,373,2567072,0.0-19.0-0.6,34367,List2B,black,man,,,,null,,,,,,,,,
null,"<img src=""stim_listB/seduce5.gif""style=""height:400px;""></stim_listB>",,html-keyboard-response,374,2569079,0.0-19.0-1.6,34367,List2B,black,man,,,,null,,,,,,,,,
null,is seducing,,html-keyboard-response,375,2571085,0.0-19.0-2.6,34367,List2B,black,man,,,,null,,,,,,,,,
9185.9,,,survey-text,376,2580326,0.0-19.0-3.6,34367,List2B,black,man,,,,,"{""Q0"":""Mike is seducing luke""}","<img src=""stim_listB/seduce5.gif""style=""height:400px;""></stim_listB>",is seducing,,,,,,
null,"<div style=""font-size:60px;"">+</div>",,html-keyboard-response,377,2580831,0.0-19.0-0.7,34367,List2B,black,man,,,,null,,,,,,,,,
null,"<img src=""stim_listB/seduce8.gif""style=""height:400px;""></stim_listB>",,html-keyboard-response,378,2582840,0.0-19.0-1.7,34367,List2B,black,man,,,,null,,,,,,,,,
null,is being seduced by,,html-keyboard-response,379,2584848,0.0-19.0-2.7,34367,List2B,black,man,,,,null,,,,,,,,,
21062.5,,,survey-text,380,2605934,0.0-19.0-3.7,34367,List2B,black,man,,,,,"{""Q0"":""Beth is being seduced by jane""}","<img src=""stim_listB/seduce8.gif""style=""height:400px;""></stim_listB>",is being seduced by,,,,,,
null,"<div style=""font-size:60px;"">+</div>",,html-keyboard-response,381,2606440,0.0-19.0-0.8,34367,List2B,black,man,,,,null,,,,,,,,,
null,"<img src=""stim_listB/copy3.gif""style=""height:400px;""></stim_listB>",,html-keyboard-response,382,2608448,0.0-19.0-1.8,34367,List2B,black,man,,,,null,,,,,,,,,
null,is copying,,html-keyboard-response,383,2610456,0.0-19.0-2.8,34367,List2B,black,man,,,,null,,,,,,,,,
15027.2,,,survey-text,384,2625526,0.0-19.0-3.8,34367,List2B,black,man,,,,,"{""Q0"":""Mike is copying beth""}","<img src=""stim_listB/copy3.gif""style=""height:400px;""></stim_listB>",is copying,,,,,,
null,"<div style=""font-size:60px;"">+</div>",,html-keyboard-response,385,2626039,0.0-19.0-0.9,34367,List2B,black,man,,,,null,,,,,,,,,
null,"<img src=""stim_listB/seduce4.gif""style=""height:400px;""></stim_listB>",,html-keyboard-response,386,2628047,0.0-19.0-1.9,34367,List2B,black,man,,,,null,,,,,,,,,
null,is being seduced by,,html-keyboard-response,387,2630054,0.0-19.0-2.9,34367,List2B,black,man,,,,null,,,,,,,,,
12673.1,,,survey-text,388,2642752,0.0-19.0-3.9,34367,List2B,black,man,,,,,"{""Q0"":""Beth is being seduced by mike""}","<img src=""stim_listB/seduce4.gif""style=""height:400px;""></stim_listB>",is being seduced by,,,,,,
null,"<div style=""font-size:60px;"">+</div>",,html-keyboard-response,389,2643258,0.0-19.0-0.10,34367,List2B,black,man,,,,null,,,,,,,,,
null,"<img src=""stim_listB/greet4.gif""style=""height:400px;""></stim_listB>",,html-keyboard-response,390,2645270,0.0-19.0-1.10,34367,List2B,black,man,,,,null,,,,,,,,,
null,is being greeted by,,html-keyboard-response,391,2647274,0.0-19.0-2.10,34367,List2B,black,man,,,,null,,,,,,,,,
11944.5,,,survey-text,392,2659244,0.0-19.0-3.10,34367,List2B,black,man,,,,,"{""Q0"":""Fred is being greeted by kate""}","<img src=""stim_listB/greet4.gif""style=""height:400px;""></stim_listB>",is being greeted by,,,,,,
null,"<div style=""font-size:60px;"">+</div>",,html-keyboard-response,393,2659749,0.0-19.0-0.11,34367,List2B,black,man,,,,null,,,,,,,,,
null,"<img src=""stim_listB/challenge1.gif""style=""height:400px;""></stim_listB>",,html-keyboard-response,394,2661758,0.0-19.0-1.11,34367,List2B,black,man,,,,null,,,,,,,,,
null,is challenging,,html-keyboard-response,395,2663771,0.0-19.0-2.11,34367,List2B,black,man,,,,null,,,,,,,,,
20518.3,,,survey-text,396,2684319,0.0-19.0-3.11,34367,List2B,black,man,,,,,"{""Q0"":""Dave is challenging ruth""}","<img src=""stim_listB/challenge1.gif""style=""height:400px;""></stim_listB>",is challenging,,,,,,
null,"<div style=""font-size:60px;"">+</div>",,html-keyboard-response,397,2684825,0.0-19.0-0.12,34367,List2B,black,man,,,,null,,,,,,,,,
null,"<img src=""stim_listB/look3.gif""style=""height:400px;""></stim_listB>",,html-keyboard-response,398,2686833,0.0-19.0-1.12,34367,List2B,black,man,,,,null,,,,,,,,,
null,is looking at,,html-keyboard-response,399,2688837,0.0-19.0-2.12,34367,List2B,black,man,,,,null,,,,,,,,,
10817.4,,,survey-text,400,2699669,0.0-19.0-3.12,34367,List2B,black,man,,,,,"{""Q0"":""Fred is looking at beth""}","<img src=""stim_listB/look3.gif""style=""height:400px;""></stim_listB>",is looking at,,,,,,
null,"<div style=""font-size:60px;"">+</div>",,html-keyboard-response,401,2700174,0.0-19.0-0.13,34367,List2B,black,man,,,,null,,,,,,,,,
null,"<img src=""stim_listB/hug4.gif""style=""height:400px;""></stim_listB>",,html-keyboard-response,402,2702182,0.0-19.0-1.13,34367,List2B,black,man,,,,null,,,,,,,,,
null,is being hugged by,,html-keyboard-response,403,2704185,0.0-19.0-2.13,34367,List2B,black,man,,,,null,,,,,,,,,
12136,,,survey-text,404,2716337,0.0-19.0-3.13,34367,List2B,black,man,,,,,"{""Q0"":""mike is being hugged by kate""}","<img src=""stim_listB/hug4.gif""style=""height:400px;""></stim_listB>",is being hugged by,,,,,,
null,"<div style=""font-size:60px;"">+</div>",,html-keyboard-response,405,2716842,0.0-19.0-0.14,34367,List2B,black,man,,,,null,,,,,,,,,
null,"<img src=""stim_listB/look7.gif""style=""height:400px;""></stim_listB>",,html-keyboard-response,406,2718851,0.0-19.0-1.14,34367,List2B,black,man,,,,null,,,,,,,,,
null,is looking at,,html-keyboard-response,407,2720856,0.0-19.0-2.14,34367,List2B,black,man,,,,null,,,,,,,,,
11416.5,,,survey-text,408,2732287,0.0-19.0-3.14,34367,List2B,black,man,,,,,"{""Q0"":""Beth is looking at ruth""}","<img src=""stim_listB/look7.gif""style=""height:400px;""></stim_listB>",is looking at,,,,,,
null,"<div style=""font-size:60px;"">+</div>",,html-keyboard-response,409,2732793,0.0-19.0-0.15,34367,List2B,black,man,,,,null,,,,,,,,,
null,"<img src=""stim_listB/greet3.gif""style=""height:400px;""></stim_listB>",,html-keyboard-response,410,2734800,0.0-19.0-1.15,34367,List2B,black,man,,,,null,,,,,,,,,
null,is greeting,,html-keyboard-response,411,2736805,0.0-19.0-2.15,34367,List2B,black,man,,,,null,,,,,,,,,
8880.5,,,survey-text,412,2745700,0.0-19.0-3.15,34367,List2B,black,man,,,,,"{""Q0"":""Mike is greeting beth""}","<img src=""stim_listB/greet3.gif""style=""height:400px;""></stim_listB>",is greeting,,,,,,
null,"<div style=""font-size:60px;"">+</div>",,html-keyboard-response,413,2746205,0.0-19.0-0.16,34367,List2B,black,man,,,,null,,,,,,,,,
null,"<img src=""stim_listB/shout8.gif""style=""height:400px;""></stim_listB>",,html-keyboard-response,414,2748213,0.0-19.0-1.16,34367,List2B,black,man,,,,null,,,,,,,,,
null,is being shouted at by,,html-keyboard-response,415,2750219,0.0-19.0-2.16,34367,List2B,black,man,,,,null,,,,,,,,,
22149.7,,,survey-text,416,2772398,0.0-19.0-3.16,34367,List2B,black,man,,,,,"{""Q0"":""Kate is being shouted at by jane""}","<img src=""stim_listB/shout8.gif""style=""height:400px;""></stim_listB>",is being shouted at by,,,,,,
null,"<div style=""font-size:60px;"">+</div>",,html-keyboard-response,417,2772903,0.0-19.0-0.17,34367,List2B,black,man,,,,null,,,,,,,,,
null,"<img src=""stim_listB/shout1.gif""style=""height:400px;""></stim_listB>",,html-keyboard-response,418,2774914,0.0-19.0-1.17,34367,List2B,black,man,,,,null,,,,,,,,,
null,is shouting at,,html-keyboard-response,419,2776920,0.0-19.0-2.17,34367,List2B,black,man,,,,null,,,,,,,,,
17711.3,,,survey-text,420,2794650,0.0-19.0-3.17,34367,List2B,black,man,,,,,"{""Q0"":""Luke is shouting at ruth""}","<img src=""stim_listB/shout1.gif""style=""height:400px;""></stim_listB>",is shouting at,,,,,,
null,"<div style=""font-size:60px;"">+</div>",,html-keyboard-response,421,2795166,0.0-19.0-0.18,34367,List2B,black,man,,,,null,,,,,,,,,
null,"<img src=""stim_listB/shout2.gif""style=""height:400px;""></stim_listB>",,html-keyboard-response,422,2797175,0.0-19.0-1.18,34367,List2B,black,man,,,,null,,,,,,,,,
null,is being shouted at by,,html-keyboard-response,423,2799179,0.0-19.0-2.18,34367,List2B,black,man,,,,null,,,,,,,,,
23048.6,,,survey-text,424,2822243,0.0-19.0-3.18,34367,List2B,black,man,,,,,"{""Q0"":""Dave is being shouted at by jane""}","<img src=""stim_listB/shout2.gif""style=""height:400px;""></stim_listB>",is being shouted at by,,,,,,
null,"<div style=""font-size:60px;"">+</div>",,html-keyboard-response,425,2822749,0.0-19.0-0.19,34367,List2B,black,man,,,,null,,,,,,,,,
null,"<img src=""stim_listB/kiss5.gif""style=""height:400px;""></stim_listB>",,html-keyboard-response,426,2824763,0.0-19.0-1.19,34367,List2B,black,man,,,,null,,,,,,,,,
null,is kissing,,html-keyboard-response,427,2826768,0.0-19.0-2.19,34367,List2B,black,man,,,,null,,,,,,,,,
10682.5,,,survey-text,428,2837466,0.0-19.0-3.19,34367,List2B,black,man,,,,,"{""Q0"":""Luke is kissing fred""}","<img src=""stim_listB/kiss5.gif""style=""height:400px;""></stim_listB>",is kissing,,,,,,
6875.3,<p>Thank you for completing that task.</p><p>The final part of this session is a questionnaire that will take about 4 minutes.</p><p>Press Continue.</p>,0,html-button-response,429,2844348,0.0-20.0,34367,List2B,black,man,,,,,,,,,,,,,
190576.4,,,survey-text,430,3035977,0.0-21.0,34367,List2B,black,man,,,,,"{""Q0"":""34"",""Q1"":""English"",""Q2"":""English"",""Q3"":""United State of America"",""Q4"":""American"",""Q5"":""Black "",""Q6"":""Male""}",,,demographics,,,,,
4709.8,<p>Have you lived in the USA for the last 5 years or more?</p>,0,html-button-response,431,3040707,0.0-22.0,34367,List2B,black,man,,,,,,,,fiveyears,,,,,
6552.4,<p>Move the slider to show the extent to which you agree with the following statements.</p>,0,html-button-response,432,3048268,0.0-23.0,34367,List2B,black,man,,,,,,,,,,,,,
8354.9,,,html-slider-response,433,3057648,0.0-24.0-0.0-0.0,34367,List2B,black,man,,,,,,,,survey_race,70,,,I feel solidarity with my race.,solidarity
6996.2,,,html-slider-response,434,3064667,0.0-24.0-0.0-0.1,34367,List2B,black,man,,,,,,,,survey_race,69,,,"The older I get, the wiser I feel.",filler
6561.3,,,html-slider-response,435,3071240,0.0-24.0-0.0-0.2,34367,List2B,black,man,,,,,,,,survey_race,74,,,Being my race is an important part of how I see myself.,important
7165,,,html-slider-response,436,3078421,0.0-24.0-0.0-0.3,34367,List2B,black,man,,,,,,,,survey_race,37,,,I enjoy being in large groups.,filler
3810.7,,,html-slider-response,437,3082243,0.0-24.0-0.0-0.4,34367,List2B,black,man,,,,,,,,survey_race,69,,,I feel solidarity with people the same age as me.,filler
8138.7,,,html-slider-response,438,3090390,0.0-24.0-0.0-0.5,34367,List2B,black,man,,,,,,,,survey_race,35,,,I feel a bond with people the same age as me.,filler
3478.4,,,html-slider-response,439,3093884,0.0-24.0-0.0-0.6,34367,List2B,black,man,,,,,,,,survey_race,63,,,I feel a bond with my race.,bond
4056,,,html-slider-response,440,3097947,0.0-24.0-0.0-0.7,34367,List2B,black,man,,,,,,,,survey_race,72,,,Being my race gives me a good feeling.,feeling
4423.2,,,html-slider-response,441,3102382,0.0-24.0-0.0-0.8,34367,List2B,black,man,,,,,,,,survey_race,68,,,I am glad to be my age.,filler
5019.5,,,html-slider-response,442,3107415,0.0-24.0-0.0-0.9,34367,List2B,black,man,,,,,,,,survey_race,60,,,I am glad to be the age I am.,filler
7602,,,html-slider-response,443,3115026,0.0-24.0-0.0-0.10,34367,List2B,black,man,,,,,,,,survey_race,62,,,I consider myself an introvert.,filler
4218.8,,,html-slider-response,444,3119255,0.0-24.0-0.0-0.11,34367,List2B,black,man,,,,,,,,survey_race,63,,,Being my age gives me a good feeling.,filler
5107.1,,,html-slider-response,445,3124372,0.0-24.0-0.0-0.12,34367,List2B,black,man,,,,,,,,survey_race,37,,,People of my race are very similar to each other.,verysimilar
5095.8,,,html-slider-response,446,3129484,0.0-24.0-0.0-0.13,34367,List2B,black,man,,,,,,,,survey_race,42,,,I often think about the fact that I am my age.,filler
4245.2,,,html-slider-response,447,3133744,0.0-24.0-0.0-0.14,34367,List2B,black,man,,,,,,,,survey_race,39,,,My age is not an important part of who I am.,filler
3960.8,,,html-slider-response,448,3137714,0.0-24.0-0.0-0.15,34367,List2B,black,man,,,,,,,,survey_race,33,,,Getting older does not worry me.,filler
6187.3,,,html-slider-response,449,3143911,0.0-24.0-0.0-0.16,34367,List2B,black,man,,,,,,,,survey_race,51,,,I am similar to the average person of my race.,similar
6298.7,,,html-slider-response,450,3150220,0.0-24.0-0.0-0.17,34367,List2B,black,man,,,,,,,,survey_race,58,,,People my age have a lot in common with each other.,filler
4878.7,,,html-slider-response,451,3155110,0.0-24.0-0.0-0.18,34367,List2B,black,man,,,,,,,,survey_race,66,,,I have a lot in common with the average person of my race.,average
2528.1,,,html-slider-response,452,3157647,0.0-24.0-0.0-0.19,34367,List2B,black,man,,,,,,,,survey_race,66,,,I am glad to be my race.,glad
3411,,,html-slider-response,453,3161065,0.0-24.0-0.0-0.20,34367,List2B,black,man,,,,,,,,survey_race,41,,,I have a lot in common with people of a similar age to me.,filler
2948,,,html-slider-response,454,3164022,0.0-24.0-0.0-0.21,34367,List2B,black,man,,,,,,,,survey_race,59,,,I feel committed to my race.,committed
4380.1,,,html-slider-response,455,3168410,0.0-24.0-0.0-0.22,34367,List2B,black,man,,,,,,,,survey_race,64,,,I consider myself an extrovert.,filler
4251.9,,,html-slider-response,456,3172674,0.0-24.0-0.0-0.23,34367,List2B,black,man,,,,,,,,survey_race,64,,,The fact that I am my race is an important part of my identity.,identity
3937.4,,,html-slider-response,457,3176624,0.0-24.0-0.0-0.24,34367,List2B,black,man,,,,,,,,survey_race,65,,,I think that my race has a lot to be proud of.,proud
4984.6,,,html-slider-response,458,3181628,0.0-24.0-0.0-0.25,34367,List2B,black,man,,,,,,,,survey_race,69,,,I often think about the fact that I am my race.,often
3671,,,html-slider-response,459,3185309,0.0-24.0-0.0-0.26,34367,List2B,black,man,,,,,,,,survey_race,71,,,People of my race have a lot in common with each other.,common
3302.7,,,html-slider-response,460,3188624,0.0-24.0-0.0-0.27,34367,List2B,black,man,,,,,,,,survey_race,65,,,It is pleasant to be my race.,pleasant
4114.1,,,html-slider-response,461,3192746,0.0-24.0-1.0-0.0,34367,List2B,black,man,,,,,,,,survey_gender,43,,,I often think about my actions.,filler
3336.1,,,html-slider-response,462,3196092,0.0-24.0-1.0-0.1,34367,List2B,black,man,,,,,,,,survey_gender,67,,,I feel solidarity with my friends.,filler
2568.9,,,html-slider-response,463,3198670,0.0-24.0-1.0-0.2,34367,List2B,black,man,,,,,,,,survey_gender,65,,,It is pleasant to be my gender.,pleasant
2634.5,,,html-slider-response,464,3201311,0.0-24.0-1.0-0.3,34367,List2B,black,man,,,,,,,,survey_gender,65,,,My friends have a lot in common with each other.,filler
3288.4,,,html-slider-response,465,3204609,0.0-24.0-1.0-0.4,34367,List2B,black,man,,,,,,,,survey_gender,68,,,I feel solidarity with my gender.,solidarity
2501.4,,,html-slider-response,466,3207117,0.0-24.0-1.0-0.5,34367,List2B,black,man,,,,,,,,survey_gender,64,,,I have a lot in common with my friends.,filler
2477.7,,,html-slider-response,467,3209604,0.0-24.0-1.0-0.6,34367,List2B,black,man,,,,,,,,survey_gender,67,,,People of my gender have a lot in common with each other.,common
2118.8,,,html-slider-response,468,3211730,0.0-24.0-1.0-0.7,34367,List2B,black,man,,,,,,,,survey_gender,43,,,Being my gender gives me a good feeling.,feeling
2057.2,,,html-slider-response,469,3213794,0.0-24.0-1.0-0.8,34367,List2B,black,man,,,,,,,,survey_gender,43,,,I feel committed to my gender.,committed
3006.3,,,html-slider-response,470,3216808,0.0-24.0-1.0-0.9,34367,List2B,black,man,,,,,,,,survey_gender,65,,,Being around my friends gives me a good feeling.,filler
1776.9,,,html-slider-response,471,3218592,0.0-24.0-1.0-0.10,34367,List2B,black,man,,,,,,,,survey_gender,63,,,I am glad to be my gender.,glad
3713.1,,,html-slider-response,472,3222312,0.0-24.0-1.0-0.11,34367,List2B,black,man,,,,,,,,survey_gender,63,,,I consider myself a highly empathetic person.,filler
3213.8,,,html-slider-response,473,3225536,0.0-24.0-1.0-0.12,34367,List2B,black,man,,,,,,,,survey_gender,66,,,Family is not more important to me than friendship.,filler
3344.6,,,html-slider-response,474,3228889,0.0-24.0-1.0-0.13,34367,List2B,black,man,,,,,,,,survey_gender,70,,,Being my gender is an important part of how I see myself.,important
2309,,,html-slider-response,475,3231205,0.0-24.0-1.0-0.14,34367,List2B,black,man,,,,,,,,survey_gender,65,,,The fact that I am my gender is an important part of my identity.,identity
2796.9,,,html-slider-response,476,3234011,0.0-24.0-1.0-0.15,34367,List2B,black,man,,,,,,,,survey_gender,61,,,I think that my gender has a lot to be proud of.,proud
3183.1,,,html-slider-response,477,3237201,0.0-24.0-1.0-0.16,34367,List2B,black,man,,,,,,,,survey_gender,41,,,I feel a bond with my friends.,filler
6948.1,,,html-slider-response,478,3244159,0.0-24.0-1.0-0.17,34367,List2B,black,man,,,,,,,,survey_gender,38,,,I would say I am an animal person.,filler
2804.8,,,html-slider-response,479,3246973,0.0-24.0-1.0-0.18,34367,List2B,black,man,,,,,,,,survey_gender,63,,,I am glad to have the friends that I have.,filler
3608.7,,,html-slider-response,480,3250590,0.0-24.0-1.0-0.19,34367,List2B,black,man,,,,,,,,survey_gender,65,,,Most of the friends in my life are very similar to me.,filler
3362,,,html-slider-response,481,3253966,0.0-24.0-1.0-0.20,34367,List2B,black,man,,,,,,,,survey_gender,42,,,I am similar to the average person of my gender.,similar
3235.7,,,html-slider-response,482,3257212,0.0-24.0-1.0-0.21,34367,List2B,black,man,,,,,,,,survey_gender,41,,,People of my gender are very similar to each other.,verysimilar
2331.5,,,html-slider-response,483,3259556,0.0-24.0-1.0-0.22,34367,List2B,black,man,,,,,,,,survey_gender,64,,,I have a lot in common with the average person of my gender.,average
1594.4,,,html-slider-response,484,3261161,0.0-24.0-1.0-0.23,34367,List2B,black,man,,,,,,,,survey_gender,58,,,Routine is not important to me.,filler
1848.4,,,html-slider-response,485,3263020,0.0-24.0-1.0-0.24,34367,List2B,black,man,,,,,,,,survey_gender,58,,,I often think about the fact that I am my gender.,often
1625.8,,,html-slider-response,486,3264653,0.0-24.0-1.0-0.25,34367,List2B,black,man,,,,,,,,survey_gender,44,,,I feel a bond with my gender.,bond
3616.2,,,html-slider-response,487,3268277,0.0-24.0-1.0-0.26,34367,List2B,black,man,,,,,,,,survey_gender,44,,,It is not always easy for people to know what I am thinking.,filler
2416.9,,,html-slider-response,488,3270707,0.0-24.0-1.0-0.27,34367,List2B,black,man,,,,,,,,survey_gender,64,,,My friends understand me.,filler
10445.1,,,survey-text,489,3281174,0.0-25.0,34367,List2B,black,man,,,,,"{""Q0"":""ccc""}",,,worker_id,,,,,
18132.2,,,external-html,490,3300126,0.0-26.0,34367,List2B,black,man,debrief.html,,,,,,,,,,,,
