rt,stimulus,button_pressed,trial_type,trial_index,time_elapsed,internal_node_id,subject,list,ppt_race,ppt_gender,url,first_guess,correct,key_press,responses,image_type,phrase_type,test_part,response,stimulus1,stimulus2,question_type,survey_item
2666.3,Welcome to the experiment. Press Continue to begin.,0,html-button-response,0,2668,0.0-0.0,34500,List1A,black,man,,,,,,,,,,,,,
11133.8,,,external-html,1,21342,0.0-1.0,34500,List1A,black,man,consent.html,,,,,,,,,,,,
30680.4,"<p>On the next page, you will see portraits of 8 people and their names.</p><p>Your first task is to take a few minutes to memorise the names of these people.</p><p>You will have to recall their names during the rest of the experiment, so it is</p><p>essential that you try to memorise these people and their names as best as you can.</p><br><p><strong>You will then be tested on your memory of these names and portraits.</strong></p><br><p>The experiment will start after you have completed this memory test.</p><br><p>Ready?</p>",0,html-button-response,2,52023,0.0-2.0,34500,List1A,black,man,,,,,,,,,,,,,
126424.4,"<img src='img/portrait_matrix_list1.jpg' style='width:900px;height:500px;''></img><p>If you have memorised all the portraits and names and are ready to start, press Continue.</p><p><strong>Please note: Your memory of these faces will be tested 4 times during this experiment.</strong></p>",0,html-button-response,3,179454,0.0-3.0-0.0,34500,List1A,black,man,,,,,,,,,,,,,
8379,"<img src=""portrait/BM2.jpg""style=""height:400px;""></img>",5,html-button-response,4,188836,0.0-3.0-1.0,34500,List1A,black,man,,TRUE,5,,,,,,,,,,
null,CORRECT,,html-keyboard-response,5,190364,0.0-3.0-2.0-0.0,34500,List1A,black,man,,,,null,,,,,,,,,
5104.4,"<img src=""portrait/WM2.jpg""style=""height:400px;""></img>",7,html-button-response,6,195470,0.0-3.0-4.0,34500,List1A,black,man,,TRUE,7,,,,,,,,,,
null,CORRECT,,html-keyboard-response,7,196989,0.0-3.0-5.0-0.0,34500,List1A,black,man,,,,null,,,,,,,,,
6542.1,"<img src=""portrait/BW1.jpg""style=""height:400px;""></img>",0,html-button-response,8,203532,0.0-3.0-7.0,34500,List1A,black,man,,TRUE,0,,,,,,,,,,
null,CORRECT,,html-keyboard-response,9,205053,0.0-3.0-8.0-0.0,34500,List1A,black,man,,,,null,,,,,,,,,
8566.9,"<img src=""portrait/WW1.jpg""style=""height:400px;""></img>",1,html-button-response,10,213622,0.0-3.0-10.0,34500,List1A,black,man,,TRUE,1,,,,,,,,,,
null,CORRECT,,html-keyboard-response,11,215147,0.0-3.0-11.0-0.0,34500,List1A,black,man,,,,null,,,,,,,,,
5883.8,"<img src=""portrait/WM1.jpg""style=""height:400px;""></img>",6,html-button-response,12,221032,0.0-3.0-13.0,34500,List1A,black,man,,TRUE,6,,,,,,,,,,
null,CORRECT,,html-keyboard-response,13,222551,0.0-3.0-14.0-0.0,34500,List1A,black,man,,,,null,,,,,,,,,
12492,"<img src=""portrait/WW2.jpg""style=""height:400px;""></img>",3,html-button-response,14,235044,0.0-3.0-16.0,34500,List1A,black,man,,TRUE,3,,,,,,,,,,
null,CORRECT,,html-keyboard-response,15,236571,0.0-3.0-17.0-0.0,34500,List1A,black,man,,,,null,,,,,,,,,
5737.9,"<img src=""portrait/BW2.jpg""style=""height:400px;""></img>",2,html-button-response,16,242310,0.0-3.0-19.0,34500,List1A,black,man,,TRUE,2,,,,,,,,,,
null,CORRECT,,html-keyboard-response,17,243823,0.0-3.0-20.0-0.0,34500,List1A,black,man,,,,null,,,,,,,,,
3893.4,"<img src=""portrait/BM1.jpg""style=""height:400px;""></img>",4,html-button-response,18,247718,0.0-3.0-22.0,34500,List1A,black,man,,TRUE,4,,,,,,,,,,
null,CORRECT,,html-keyboard-response,19,249241,0.0-3.0-23.0-0.0,34500,List1A,black,man,,,,null,,,,,,,,,
3390.6,<p>You got 8 out of 8 right first time. Press Continue.</p>,0,html-button-response,20,252634,0.0-3.0-25.0,34500,List1A,black,man,,,,,,,,,,,,,
39679,"<p>In this experiment, you will view photographs of the people from the memory game interacting.</p><p>By using the <strong>exact</strong> phrase given <i>after</i> the photograph appears and recalling the correct names of the people in the photographs, form a sentence describing the interaction. You do not need to capitalise names.</p><p>Type your answer in the space provided. Please complete every sentence before moving onto the next trial.</p><p>You will only have a few seconds to memorise each given photograph and phrase before you can respond, so try your best to focus.</p><p>An example is given below. Press 'Continue' when you are ready.</p><img src='img/speaking_example.jpg' style='width:800px;height:460px;''></img>",0,html-button-response,21,293328,0.0-4.0,34500,List1A,black,man,,,,,,,,,,,,,
2789.6,"<p>Before the experiment starts, you will watch two example trials. Press 'Continue'.</p>",0,html-button-response,22,297120,0.0-5.0,34500,List1A,black,man,,,,,,,,,,,,,
null,<img src='img/play_eg.gif' style='height:400px;''></img>,,html-keyboard-response,23,300139,0.0-6.0,34500,List1A,black,man,,,,null,,,,,,,,,
null,<p>is playing with</p>,,html-keyboard-response,24,302143,0.0-7.0,34500,List1A,black,man,,,,null,,,,,,,,,
37485.7,<p><b>Answer:</b> kate is playing with beth</p>,0,html-button-response,25,339629,0.0-8.0,34500,List1A,black,man,,,,,,,,,,,,,
null,<img src='img/dance_eg.gif' style='height:400px;''></img>,,html-keyboard-response,26,342633,0.0-9.0,34500,List1A,black,man,,,,null,,,,,,,,,
null,<p>is being entertained by</p>,,html-keyboard-response,27,344635,0.0-10.0,34500,List1A,black,man,,,,null,,,,,,,,,
6406.3,<p><b>Answer:</b> luke is being entertained by dave</p>,0,html-button-response,28,351043,0.0-11.0,34500,List1A,black,man,,,,,,,,,,,,,
5823.9,"<p>Ready to start the experiment?</p><br><p><strong>Remember to describe the picture using a full sentence,</strong></p><p><strong>that combines the names of the people with the <i>exact</i> phrase given.</strong></p><p><strong>To receive full payment you must do this correctly.</strong></p><p><strong> You do not need to capitalise names or use punctuation.</strong></p><br><p>Press 'Continue' to begin.</p>",0,html-button-response,29,357871,0.0-12.0,34500,List1A,black,man,,,,,,,,,,,,,
null,"<div style=""font-size:60px;"">+</div>",,html-keyboard-response,30,359386,0.0-13.0-0.0,34500,List1A,black,man,,,,null,,,,,,,,,
null,"<img src=""stim_listA/look2.gif""style=""height:400px;""></stim_listA>",,html-keyboard-response,31,361393,0.0-13.0-1.0,34500,List1A,black,man,,,,null,,,,,,,,,
null,is being looked at by,,html-keyboard-response,32,363395,0.0-13.0-2.0,34500,List1A,black,man,,,,null,,,,,,,,,
14932.7,,,survey-text,33,378333,0.0-13.0-3.0,34500,List1A,black,man,,,,,"{""Q0"":""Mike is being entertained by Kate""}","<img src=""stim_listA/look2.gif""style=""height:400px;""></stim_listA>",is being looked at by,,,,,,
null,"<div style=""font-size:60px;"">+</div>",,html-keyboard-response,34,378849,0.0-13.0-0.1,34500,List1A,black,man,,,,null,,,,,,,,,
null,"<img src=""stim_listA/copy3.gif""style=""height:400px;""></stim_listA>",,html-keyboard-response,35,380852,0.0-13.0-1.1,34500,List1A,black,man,,,,null,,,,,,,,,
null,is copying,,html-keyboard-response,36,382866,0.0-13.0-2.1,34500,List1A,black,man,,,,null,,,,,,,,,
10591.5,,,survey-text,37,393461,0.0-13.0-3.1,34500,List1A,black,man,,,,,"{""Q0"":""Dave is copying Ruth""}","<img src=""stim_listA/copy3.gif""style=""height:400px;""></stim_listA>",is copying,,,,,,
null,"<div style=""font-size:60px;"">+</div>",,html-keyboard-response,38,393962,0.0-13.0-0.2,34500,List1A,black,man,,,,null,,,,,,,,,
null,"<img src=""stim_listA/look8.gif""style=""height:400px;""></stim_listA>",,html-keyboard-response,39,395975,0.0-13.0-1.2,34500,List1A,black,man,,,,null,,,,,,,,,
null,is being looked at by,,html-keyboard-response,40,397987,0.0-13.0-2.2,34500,List1A,black,man,,,,null,,,,,,,,,
20077.6,,,survey-text,41,418069,0.0-13.0-3.2,34500,List1A,black,man,,,,,"{""Q0"":""Kate is being looked up by Jane""}","<img src=""stim_listA/look8.gif""style=""height:400px;""></stim_listA>",is being looked at by,,,,,,
null,"<div style=""font-size:60px;"">+</div>",,html-keyboard-response,42,418582,0.0-13.0-0.3,34500,List1A,black,man,,,,null,,,,,,,,,
null,"<img src=""stim_listA/challenge8.gif""style=""height:400px;""></stim_listA>",,html-keyboard-response,43,420599,0.0-13.0-1.3,34500,List1A,black,man,,,,null,,,,,,,,,
null,is being challenged by,,html-keyboard-response,44,422604,0.0-13.0-2.3,34500,List1A,black,man,,,,null,,,,,,,,,
15718,,,survey-text,45,438325,0.0-13.0-3.3,34500,List1A,black,man,,,,,"{""Q0"":""Beth is being challenged by Ruth""}","<img src=""stim_listA/challenge8.gif""style=""height:400px;""></stim_listA>",is being challenged by,,,,,,
null,"<div style=""font-size:60px;"">+</div>",,html-keyboard-response,46,438839,0.0-13.0-0.4,34500,List1A,black,man,,,,null,,,,,,,,,
null,"<img src=""stim_listA/look4.gif""style=""height:400px;""></stim_listA>",,html-keyboard-response,47,440847,0.0-13.0-1.4,34500,List1A,black,man,,,,null,,,,,,,,,
null,is being looked at by,,html-keyboard-response,48,442848,0.0-13.0-2.4,34500,List1A,black,man,,,,null,,,,,,,,,
8728.6,,,survey-text,49,451581,0.0-13.0-3.4,34500,List1A,black,man,,,,,"{""Q0"":""Dave is looked up by Jane""}","<img src=""stim_listA/look4.gif""style=""height:400px;""></stim_listA>",is being looked at by,,,,,,
null,"<div style=""font-size:60px;"">+</div>",,html-keyboard-response,50,452083,0.0-13.0-0.5,34500,List1A,black,man,,,,null,,,,,,,,,
null,"<img src=""stim_listA/touch1.gif""style=""height:400px;""></stim_listA>",,html-keyboard-response,51,454099,0.0-13.0-1.5,34500,List1A,black,man,,,,null,,,,,,,,,
null,is touching,,html-keyboard-response,52,456113,0.0-13.0-2.5,34500,List1A,black,man,,,,null,,,,,,,,,
8160.7,,,survey-text,53,464276,0.0-13.0-3.5,34500,List1A,black,man,,,,,"{""Q0"":""Mike is touching Kate""}","<img src=""stim_listA/touch1.gif""style=""height:400px;""></stim_listA>",is touching,,,,,,
null,"<div style=""font-size:60px;"">+</div>",,html-keyboard-response,54,464793,0.0-13.0-0.6,34500,List1A,black,man,,,,null,,,,,,,,,
null,"<img src=""stim_listA/look7.gif""style=""height:400px;""></stim_listA>",,html-keyboard-response,55,466808,0.0-13.0-1.6,34500,List1A,black,man,,,,null,,,,,,,,,
null,is looking at,,html-keyboard-response,56,468822,0.0-13.0-2.6,34500,List1A,black,man,,,,null,,,,,,,,,
11403.3,,,survey-text,57,480228,0.0-13.0-3.6,34500,List1A,black,man,,,,,"{""Q0"":""Beth is looking at Ruth""}","<img src=""stim_listA/look7.gif""style=""height:400px;""></stim_listA>",is looking at,,,,,,
null,"<div style=""font-size:60px;"">+</div>",,html-keyboard-response,58,480735,0.0-13.0-0.7,34500,List1A,black,man,,,,null,,,,,,,,,
null,"<img src=""stim_listA/challenge3.gif""style=""height:400px;""></stim_listA>",,html-keyboard-response,59,482751,0.0-13.0-1.7,34500,List1A,black,man,,,,null,,,,,,,,,
null,is challenging,,html-keyboard-response,60,484752,0.0-13.0-2.7,34500,List1A,black,man,,,,null,,,,,,,,,
56882.4,,,survey-text,61,541638,0.0-13.0-3.7,34500,List1A,black,man,,,,,"{""Q0"":""Dave is challenging Ruth""}","<img src=""stim_listA/challenge3.gif""style=""height:400px;""></stim_listA>",is challenging,,,,,,
null,"<div style=""font-size:60px;"">+</div>",,html-keyboard-response,62,542141,0.0-13.0-0.8,34500,List1A,black,man,,,,null,,,,,,,,,
null,"<img src=""stim_listA/kiss2.gif""style=""height:400px;""></stim_listA>",,html-keyboard-response,63,544146,0.0-13.0-1.8,34500,List1A,black,man,,,,null,,,,,,,,,
null,is being kissed by,,html-keyboard-response,64,546156,0.0-13.0-2.8,34500,List1A,black,man,,,,null,,,,,,,,,
24684.3,,,survey-text,65,570844,0.0-13.0-3.8,34500,List1A,black,man,,,,,"{""Q0"":""Mike is being kissed by Beth""}","<img src=""stim_listA/kiss2.gif""style=""height:400px;""></stim_listA>",is being kissed by,,,,,,
null,"<div style=""font-size:60px;"">+</div>",,html-keyboard-response,66,571357,0.0-13.0-0.9,34500,List1A,black,man,,,,null,,,,,,,,,
null,"<img src=""stim_listA/touch5.gif""style=""height:400px;""></stim_listA>",,html-keyboard-response,67,573375,0.0-13.0-1.9,34500,List1A,black,man,,,,null,,,,,,,,,
null,is touching,,html-keyboard-response,68,575393,0.0-13.0-2.9,34500,List1A,black,man,,,,null,,,,,,,,,
4095.1,,,survey-text,69,579492,0.0-13.0-3.9,34500,List1A,black,man,,,,,"{""Q0"":""Mike touching Dave""}","<img src=""stim_listA/touch5.gif""style=""height:400px;""></stim_listA>",is touching,,,,,,
null,"<div style=""font-size:60px;"">+</div>",,html-keyboard-response,70,580003,0.0-13.0-0.10,34500,List1A,black,man,,,,null,,,,,,,,,
null,"<img src=""stim_listA/look3.gif""style=""height:400px;""></stim_listA>",,html-keyboard-response,71,582020,0.0-13.0-1.10,34500,List1A,black,man,,,,null,,,,,,,,,
null,is looking at,,html-keyboard-response,72,584025,0.0-13.0-2.10,34500,List1A,black,man,,,,null,,,,,,,,,
7383.6,,,survey-text,73,591412,0.0-13.0-3.10,34500,List1A,black,man,,,,,"{""Q0"":""Luke is Looking at Ruth""}","<img src=""stim_listA/look3.gif""style=""height:400px;""></stim_listA>",is looking at,,,,,,
null,"<div style=""font-size:60px;"">+</div>",,html-keyboard-response,74,591917,0.0-13.0-0.11,34500,List1A,black,man,,,,null,,,,,,,,,
null,"<img src=""stim_listA/hug7.gif""style=""height:400px;""></stim_listA>",,html-keyboard-response,75,593930,0.0-13.0-1.11,34500,List1A,black,man,,,,null,,,,,,,,,
null,is hugging,,html-keyboard-response,76,595935,0.0-13.0-2.11,34500,List1A,black,man,,,,null,,,,,,,,,
13104.7,,,survey-text,77,609044,0.0-13.0-3.11,34500,List1A,black,man,,,,,"{""Q0"":""Beth is hugging Ruth""}","<img src=""stim_listA/hug7.gif""style=""height:400px;""></stim_listA>",is hugging,,,,,,
null,"<div style=""font-size:60px;"">+</div>",,html-keyboard-response,78,609555,0.0-13.0-0.12,34500,List1A,black,man,,,,null,,,,,,,,,
null,"<img src=""stim_listA/copy6.gif""style=""height:400px;""></stim_listA>",,html-keyboard-response,79,611573,0.0-13.0-1.12,34500,List1A,black,man,,,,null,,,,,,,,,
null,is being copied by,,html-keyboard-response,80,613578,0.0-13.0-2.12,34500,List1A,black,man,,,,null,,,,,,,,,
14381.2,,,survey-text,81,627963,0.0-13.0-3.12,34500,List1A,black,man,,,,,"{""Q0"":""Luke is being copied by Fred""}","<img src=""stim_listA/copy6.gif""style=""height:400px;""></stim_listA>",is being copied by,,,,,,
null,"<div style=""font-size:60px;"">+</div>",,html-keyboard-response,82,628467,0.0-13.0-0.13,34500,List1A,black,man,,,,null,,,,,,,,,
null,"<img src=""stim_listA/greet1.gif""style=""height:400px;""></stim_listA>",,html-keyboard-response,83,630480,0.0-13.0-1.13,34500,List1A,black,man,,,,null,,,,,,,,,
null,is greeting,,html-keyboard-response,84,632490,0.0-13.0-2.13,34500,List1A,black,man,,,,null,,,,,,,,,
9629.5,,,survey-text,85,642123,0.0-13.0-3.13,34500,List1A,black,man,,,,,"{""Q0"":""Mike is greeting Beth""}","<img src=""stim_listA/greet1.gif""style=""height:400px;""></stim_listA>",is greeting,,,,,,
null,"<div style=""font-size:60px;"">+</div>",,html-keyboard-response,86,642639,0.0-13.0-0.14,34500,List1A,black,man,,,,null,,,,,,,,,
null,"<img src=""stim_listA/kiss7.gif""style=""height:400px;""></stim_listA>",,html-keyboard-response,87,644655,0.0-13.0-1.14,34500,List1A,black,man,,,,null,,,,,,,,,
null,is kissing,,html-keyboard-response,88,646658,0.0-13.0-2.14,34500,List1A,black,man,,,,null,,,,,,,,,
5838.4,,,survey-text,89,652499,0.0-13.0-3.14,34500,List1A,black,man,,,,,"{""Q0"":""Beth is Kissing Ruth""}","<img src=""stim_listA/kiss7.gif""style=""height:400px;""></stim_listA>",is kissing,,,,,,
null,"<div style=""font-size:60px;"">+</div>",,html-keyboard-response,90,653003,0.0-13.0-0.15,34500,List1A,black,man,,,,null,,,,,,,,,
null,"<img src=""stim_listA/oppose2.gif""style=""height:400px;""></stim_listA>",,html-keyboard-response,91,655018,0.0-13.0-1.15,34500,List1A,black,man,,,,null,,,,,,,,,
null,is being opposed by,,html-keyboard-response,92,657033,0.0-13.0-2.15,34500,List1A,black,man,,,,null,,,,,,,,,
7455.5,,,survey-text,93,664491,0.0-13.0-3.15,34500,List1A,black,man,,,,,"{""Q0"":""Fred is being opposed by Beth ""}","<img src=""stim_listA/oppose2.gif""style=""height:400px;""></stim_listA>",is being opposed by,,,,,,
null,"<div style=""font-size:60px;"">+</div>",,html-keyboard-response,94,664999,0.0-13.0-0.16,34500,List1A,black,man,,,,null,,,,,,,,,
null,"<img src=""stim_listA/hug6.gif""style=""height:400px;""></stim_listA>",,html-keyboard-response,95,667001,0.0-13.0-1.16,34500,List1A,black,man,,,,null,,,,,,,,,
null,is being hugged by,,html-keyboard-response,96,669010,0.0-13.0-2.16,34500,List1A,black,man,,,,null,,,,,,,,,
11349.8,,,survey-text,97,680363,0.0-13.0-3.16,34500,List1A,black,man,,,,,"{""Q0"":""Mike is being hugged by Dave""}","<img src=""stim_listA/hug6.gif""style=""height:400px;""></stim_listA>",is being hugged by,,,,,,
null,"<div style=""font-size:60px;"">+</div>",,html-keyboard-response,98,680872,0.0-13.0-0.17,34500,List1A,black,man,,,,null,,,,,,,,,
null,"<img src=""stim_listA/kiss8.gif""style=""height:400px;""></stim_listA>",,html-keyboard-response,99,682888,0.0-13.0-1.17,34500,List1A,black,man,,,,null,,,,,,,,,
null,is being kissed by,,html-keyboard-response,100,684900,0.0-13.0-2.17,34500,List1A,black,man,,,,null,,,,,,,,,
18131.9,,,survey-text,101,703035,0.0-13.0-3.17,34500,List1A,black,man,,,,,"{""Q0"":""Jane is being Kissed by Kate""}","<img src=""stim_listA/kiss8.gif""style=""height:400px;""></stim_listA>",is being kissed by,,,,,,
null,"<div style=""font-size:60px;"">+</div>",,html-keyboard-response,102,703543,0.0-13.0-0.18,34500,List1A,black,man,,,,null,,,,,,,,,
null,"<img src=""stim_listA/greet8.gif""style=""height:400px;""></stim_listA>",,html-keyboard-response,103,705560,0.0-13.0-1.18,34500,List1A,black,man,,,,null,,,,,,,,,
null,is being greeted by,,html-keyboard-response,104,707563,0.0-13.0-2.18,34500,List1A,black,man,,,,null,,,,,,,,,
11044.1,,,survey-text,105,718611,0.0-13.0-3.18,34500,List1A,black,man,,,,,"{""Q0"":""Jane is being greeted by Beth""}","<img src=""stim_listA/greet8.gif""style=""height:400px;""></stim_listA>",is being greeted by,,,,,,
null,"<div style=""font-size:60px;"">+</div>",,html-keyboard-response,106,719114,0.0-13.0-0.19,34500,List1A,black,man,,,,null,,,,,,,,,
null,"<img src=""stim_listA/hug3.gif""style=""height:400px;""></stim_listA>",,html-keyboard-response,107,721120,0.0-13.0-1.19,34500,List1A,black,man,,,,null,,,,,,,,,
null,is hugging,,html-keyboard-response,108,723124,0.0-13.0-2.19,34500,List1A,black,man,,,,null,,,,,,,,,
9395,,,survey-text,109,732523,0.0-13.0-3.19,34500,List1A,black,man,,,,,"{""Q0"":""Luke is hugging Ruth""}","<img src=""stim_listA/hug3.gif""style=""height:400px;""></stim_listA>",is hugging,,,,,,
5863.1,"<img src='img/portrait_matrix_list1.jpg' style='width:900px;height:500px;''></img><p>If you have memorised all the portraits and names and are ready to start, press Continue.</p><p><strong>Please note: Your memory of these faces will be tested 4 times during this experiment.</strong></p>",0,html-button-response,110,738387,0.0-14.0-0.0,34500,List1A,black,man,,,,,,,,,,,,,
2378.2,"<img src=""portrait/WW1.jpg""style=""height:400px;""></img>",1,html-button-response,111,741769,0.0-14.0-1.0,34500,List1A,black,man,,TRUE,1,,,,,,,,,,
null,CORRECT,,html-keyboard-response,112,743291,0.0-14.0-2.0-0.0,34500,List1A,black,man,,,,null,,,,,,,,,
1868.1,"<img src=""portrait/BM1.jpg""style=""height:400px;""></img>",4,html-button-response,113,745161,0.0-14.0-4.0,34500,List1A,black,man,,TRUE,4,,,,,,,,,,
null,CORRECT,,html-keyboard-response,114,746665,0.0-14.0-5.0-0.0,34500,List1A,black,man,,,,null,,,,,,,,,
5495.9,"<img src=""portrait/BW2.jpg""style=""height:400px;""></img>",2,html-button-response,115,752163,0.0-14.0-7.0,34500,List1A,black,man,,TRUE,2,,,,,,,,,,
null,CORRECT,,html-keyboard-response,116,753685,0.0-14.0-8.0-0.0,34500,List1A,black,man,,,,null,,,,,,,,,
3778.3,"<img src=""portrait/WM1.jpg""style=""height:400px;""></img>",6,html-button-response,117,757465,0.0-14.0-10.0,34500,List1A,black,man,,TRUE,6,,,,,,,,,,
null,CORRECT,,html-keyboard-response,118,758984,0.0-14.0-11.0-0.0,34500,List1A,black,man,,,,null,,,,,,,,,
1471,"<img src=""portrait/WM2.jpg""style=""height:400px;""></img>",7,html-button-response,119,760457,0.0-14.0-13.0,34500,List1A,black,man,,TRUE,7,,,,,,,,,,
null,CORRECT,,html-keyboard-response,120,761982,0.0-14.0-14.0-0.0,34500,List1A,black,man,,,,null,,,,,,,,,
2619,"<img src=""portrait/BM2.jpg""style=""height:400px;""></img>",5,html-button-response,121,764603,0.0-14.0-16.0,34500,List1A,black,man,,TRUE,5,,,,,,,,,,
null,CORRECT,,html-keyboard-response,122,766130,0.0-14.0-17.0-0.0,34500,List1A,black,man,,,,null,,,,,,,,,
2277.4,"<img src=""portrait/BW1.jpg""style=""height:400px;""></img>",0,html-button-response,123,768409,0.0-14.0-19.0,34500,List1A,black,man,,TRUE,0,,,,,,,,,,
null,CORRECT,,html-keyboard-response,124,769912,0.0-14.0-20.0-0.0,34500,List1A,black,man,,,,null,,,,,,,,,
3014,"<img src=""portrait/WW2.jpg""style=""height:400px;""></img>",3,html-button-response,125,772927,0.0-14.0-22.0,34500,List1A,black,man,,TRUE,3,,,,,,,,,,
null,CORRECT,,html-keyboard-response,126,774444,0.0-14.0-23.0-0.0,34500,List1A,black,man,,,,null,,,,,,,,,
2947.4,<p>You got 8 out of 8 right first time. Press Continue.</p>,0,html-button-response,127,777393,0.0-14.0-25.0,34500,List1A,black,man,,,,,,,,,,,,,
null,"<div style=""font-size:60px;"">+</div>",,html-keyboard-response,128,778905,0.0-15.0-0.0,34500,List1A,black,man,,,,null,,,,,,,,,
null,"<img src=""stim_listA/seduce6.gif""style=""height:400px;""></stim_listA>",,html-keyboard-response,129,780919,0.0-15.0-1.0,34500,List1A,black,man,,,,null,,,,,,,,,
null,is being seduced by,,html-keyboard-response,130,782924,0.0-15.0-2.0,34500,List1A,black,man,,,,null,,,,,,,,,
24787.2,,,survey-text,131,807715,0.0-15.0-3.0,34500,List1A,black,man,,,,,"{""Q0"":""Luke is being seduced by Mike""}","<img src=""stim_listA/seduce6.gif""style=""height:400px;""></stim_listA>",is being seduced by,,,,,,
null,"<div style=""font-size:60px;"">+</div>",,html-keyboard-response,132,808227,0.0-15.0-0.1,34500,List1A,black,man,,,,null,,,,,,,,,
null,"<img src=""stim_listA/challenge4.gif""style=""height:400px;""></stim_listA>",,html-keyboard-response,133,810243,0.0-15.0-1.1,34500,List1A,black,man,,,,null,,,,,,,,,
null,is being challenged by,,html-keyboard-response,134,812248,0.0-15.0-2.1,34500,List1A,black,man,,,,null,,,,,,,,,
15108.1,,,survey-text,135,827358,0.0-15.0-3.1,34500,List1A,black,man,,,,,"{""Q0"":""Jane is being challenged by Luke ""}","<img src=""stim_listA/challenge4.gif""style=""height:400px;""></stim_listA>",is being challenged by,,,,,,
null,"<div style=""font-size:60px;"">+</div>",,html-keyboard-response,136,827866,0.0-15.0-0.2,34500,List1A,black,man,,,,null,,,,,,,,,
null,"<img src=""stim_listA/look6.gif""style=""height:400px;""></stim_listA>",,html-keyboard-response,137,829878,0.0-15.0-1.2,34500,List1A,black,man,,,,null,,,,,,,,,
null,is being looked at by,,html-keyboard-response,138,831890,0.0-15.0-2.2,34500,List1A,black,man,,,,null,,,,,,,,,
8988.9,,,survey-text,139,840882,0.0-15.0-3.2,34500,List1A,black,man,,,,,"{""Q0"":""Dave is being looked by Mike""}","<img src=""stim_listA/look6.gif""style=""height:400px;""></stim_listA>",is being looked at by,,,,,,
null,"<div style=""font-size:60px;"">+</div>",,html-keyboard-response,140,841386,0.0-15.0-0.3,34500,List1A,black,man,,,,null,,,,,,,,,
null,"<img src=""stim_listA/hug1.gif""style=""height:400px;""></stim_listA>",,html-keyboard-response,141,843390,0.0-15.0-1.3,34500,List1A,black,man,,,,null,,,,,,,,,
null,is hugging,,html-keyboard-response,142,845400,0.0-15.0-2.3,34500,List1A,black,man,,,,null,,,,,,,,,
8998.6,,,survey-text,143,854402,0.0-15.0-3.3,34500,List1A,black,man,,,,,"{""Q0"":""Fred is hugging beth ""}","<img src=""stim_listA/hug1.gif""style=""height:400px;""></stim_listA>",is hugging,,,,,,
null,"<div style=""font-size:60px;"">+</div>",,html-keyboard-response,144,854904,0.0-15.0-0.4,34500,List1A,black,man,,,,null,,,,,,,,,
null,"<img src=""stim_listA/shout5.gif""style=""height:400px;""></stim_listA>",,html-keyboard-response,145,856920,0.0-15.0-1.4,34500,List1A,black,man,,,,null,,,,,,,,,
null,is shouting at,,html-keyboard-response,146,858921,0.0-15.0-2.4,34500,List1A,black,man,,,,null,,,,,,,,,
7013.1,,,survey-text,147,865938,0.0-15.0-3.4,34500,List1A,black,man,,,,,"{""Q0"":""Fred is shouting at luke""}","<img src=""stim_listA/shout5.gif""style=""height:400px;""></stim_listA>",is shouting at,,,,,,
null,"<div style=""font-size:60px;"">+</div>",,html-keyboard-response,148,866448,0.0-15.0-0.5,34500,List1A,black,man,,,,null,,,,,,,,,
null,"<img src=""stim_listA/copy8.gif""style=""height:400px;""></stim_listA>",,html-keyboard-response,149,868465,0.0-15.0-1.5,34500,List1A,black,man,,,,null,,,,,,,,,
null,is being copied by,,html-keyboard-response,150,870471,0.0-15.0-2.5,34500,List1A,black,man,,,,null,,,,,,,,,
10055.9,,,survey-text,151,880530,0.0-15.0-3.5,34500,List1A,black,man,,,,,"{""Q0"":""Jane is being copied by Beth ""}","<img src=""stim_listA/copy8.gif""style=""height:400px;""></stim_listA>",is being copied by,,,,,,
null,"<div style=""font-size:60px;"">+</div>",,html-keyboard-response,152,881040,0.0-15.0-0.6,34500,List1A,black,man,,,,null,,,,,,,,,
null,"<img src=""stim_listA/touch2.gif""style=""height:400px;""></stim_listA>",,html-keyboard-response,153,883058,0.0-15.0-1.6,34500,List1A,black,man,,,,null,,,,,,,,,
null,is being touched by,,html-keyboard-response,154,885073,0.0-15.0-2.6,34500,List1A,black,man,,,,null,,,,,,,,,
9125.6,,,survey-text,155,894202,0.0-15.0-3.6,34500,List1A,black,man,,,,,"{""Q0"":""Fred is being touched by Beth ""}","<img src=""stim_listA/touch2.gif""style=""height:400px;""></stim_listA>",is being touched by,,,,,,
null,"<div style=""font-size:60px;"">+</div>",,html-keyboard-response,156,894717,0.0-15.0-0.7,34500,List1A,black,man,,,,null,,,,,,,,,
null,"<img src=""stim_listA/challenge1.gif""style=""height:400px;""></stim_listA>",,html-keyboard-response,157,896734,0.0-15.0-1.7,34500,List1A,black,man,,,,null,,,,,,,,,
null,is challenging,,html-keyboard-response,158,898736,0.0-15.0-2.7,34500,List1A,black,man,,,,null,,,,,,,,,
12454.3,,,survey-text,159,911194,0.0-15.0-3.7,34500,List1A,black,man,,,,,"{""Q0"":""Beth is challenging Mike""}","<img src=""stim_listA/challenge1.gif""style=""height:400px;""></stim_listA>",is challenging,,,,,,
null,"<div style=""font-size:60px;"">+</div>",,html-keyboard-response,160,911695,0.0-15.0-0.8,34500,List1A,black,man,,,,null,,,,,,,,,
null,"<img src=""stim_listA/seduce7.gif""style=""height:400px;""></stim_listA>",,html-keyboard-response,161,913712,0.0-15.0-1.8,34500,List1A,black,man,,,,null,,,,,,,,,
null,is seducing,,html-keyboard-response,162,915714,0.0-15.0-2.8,34500,List1A,black,man,,,,null,,,,,,,,,
8388.2,,,survey-text,163,924106,0.0-15.0-3.8,34500,List1A,black,man,,,,,"{""Q0"":""Beth is seducing Jane ""}","<img src=""stim_listA/seduce7.gif""style=""height:400px;""></stim_listA>",is seducing,,,,,,
null,"<div style=""font-size:60px;"">+</div>",,html-keyboard-response,164,924622,0.0-15.0-0.9,34500,List1A,black,man,,,,null,,,,,,,,,
null,"<img src=""stim_listA/kiss1.gif""style=""height:400px;""></stim_listA>",,html-keyboard-response,165,926637,0.0-15.0-1.9,34500,List1A,black,man,,,,null,,,,,,,,,
null,is kissing,,html-keyboard-response,166,928641,0.0-15.0-2.9,34500,List1A,black,man,,,,null,,,,,,,,,
6413.6,,,survey-text,167,935058,0.0-15.0-3.9,34500,List1A,black,man,,,,,"{""Q0"":""Fred is kissing Jane ""}","<img src=""stim_listA/kiss1.gif""style=""height:400px;""></stim_listA>",is kissing,,,,,,
null,"<div style=""font-size:60px;"">+</div>",,html-keyboard-response,168,935564,0.0-15.0-0.10,34500,List1A,black,man,,,,null,,,,,,,,,
null,"<img src=""stim_listA/shout6.gif""style=""height:400px;""></stim_listA>",,html-keyboard-response,169,937571,0.0-15.0-1.10,34500,List1A,black,man,,,,null,,,,,,,,,
null,is being shouted at by,,html-keyboard-response,170,939578,0.0-15.0-2.10,34500,List1A,black,man,,,,null,,,,,,,,,
7076.2,,,survey-text,171,946658,0.0-15.0-3.10,34500,List1A,black,man,,,,,"{""Q0"":""Dave is being shouted by Mike""}","<img src=""stim_listA/shout6.gif""style=""height:400px;""></stim_listA>",is being shouted at by,,,,,,
null,"<div style=""font-size:60px;"">+</div>",,html-keyboard-response,172,947160,0.0-15.0-0.11,34500,List1A,black,man,,,,null,,,,,,,,,
null,"<img src=""stim_listA/kiss6.gif""style=""height:400px;""></stim_listA>",,html-keyboard-response,173,949165,0.0-15.0-1.11,34500,List1A,black,man,,,,null,,,,,,,,,
null,is being kissed by,,html-keyboard-response,174,951176,0.0-15.0-2.11,34500,List1A,black,man,,,,null,,,,,,,,,
6445.8,,,survey-text,175,957626,0.0-15.0-3.11,34500,List1A,black,man,,,,,"{""Q0"":""Mike is being Kissed by Dave""}","<img src=""stim_listA/kiss6.gif""style=""height:400px;""></stim_listA>",is being kissed by,,,,,,
null,"<div style=""font-size:60px;"">+</div>",,html-keyboard-response,176,958138,0.0-15.0-0.12,34500,List1A,black,man,,,,null,,,,,,,,,
null,"<img src=""stim_listA/greet2.gif""style=""height:400px;""></stim_listA>",,html-keyboard-response,177,960153,0.0-15.0-1.12,34500,List1A,black,man,,,,null,,,,,,,,,
null,is being greeted by,,html-keyboard-response,178,962159,0.0-15.0-2.12,34500,List1A,black,man,,,,null,,,,,,,,,
13871.1,,,survey-text,179,976034,0.0-15.0-3.12,34500,List1A,black,man,,,,,"{""Q0"":""Fred is being greeted by Kate""}","<img src=""stim_listA/greet2.gif""style=""height:400px;""></stim_listA>",is being greeted by,,,,,,
null,"<div style=""font-size:60px;"">+</div>",,html-keyboard-response,180,976545,0.0-15.0-0.13,34500,List1A,black,man,,,,null,,,,,,,,,
null,"<img src=""stim_listA/look5.gif""style=""height:400px;""></stim_listA>",,html-keyboard-response,181,978550,0.0-15.0-1.13,34500,List1A,black,man,,,,null,,,,,,,,,
null,is looking at,,html-keyboard-response,182,980552,0.0-15.0-2.13,34500,List1A,black,man,,,,null,,,,,,,,,
8094,,,survey-text,183,988650,0.0-15.0-3.13,34500,List1A,black,man,,,,,"{""Q0"":""Fred is looking at Luke ""}","<img src=""stim_listA/look5.gif""style=""height:400px;""></stim_listA>",is looking at,,,,,,
null,"<div style=""font-size:60px;"">+</div>",,html-keyboard-response,184,989155,0.0-15.0-0.14,34500,List1A,black,man,,,,null,,,,,,,,,
null,"<img src=""stim_listA/kiss4.gif""style=""height:400px;""></stim_listA>",,html-keyboard-response,185,991171,0.0-15.0-1.14,34500,List1A,black,man,,,,null,,,,,,,,,
null,is being kissed by,,html-keyboard-response,186,993178,0.0-15.0-2.14,34500,List1A,black,man,,,,null,,,,,,,,,
8228.3,,,survey-text,187,1001409,0.0-15.0-3.14,34500,List1A,black,man,,,,,"{""Q0"":""Jane is being kissed by Dave""}","<img src=""stim_listA/kiss4.gif""style=""height:400px;""></stim_listA>",is being kissed by,,,,,,
null,"<div style=""font-size:60px;"">+</div>",,html-keyboard-response,188,1001915,0.0-15.0-0.15,34500,List1A,black,man,,,,null,,,,,,,,,
null,"<img src=""stim_listA/seduce4.gif""style=""height:400px;""></stim_listA>",,html-keyboard-response,189,1003931,0.0-15.0-1.15,34500,List1A,black,man,,,,null,,,,,,,,,
null,is being seduced by,,html-keyboard-response,190,1005948,0.0-15.0-2.15,34500,List1A,black,man,,,,null,,,,,,,,,
10123.7,,,survey-text,191,1016073,0.0-15.0-3.15,34500,List1A,black,man,,,,,"{""Q0"":""Ruth is being seduced by Dave""}","<img src=""stim_listA/seduce4.gif""style=""height:400px;""></stim_listA>",is being seduced by,,,,,,
null,"<div style=""font-size:60px;"">+</div>",,html-keyboard-response,192,1016582,0.0-15.0-0.16,34500,List1A,black,man,,,,null,,,,,,,,,
null,"<img src=""stim_listA/touch7.gif""style=""height:400px;""></stim_listA>",,html-keyboard-response,193,1018600,0.0-15.0-1.16,34500,List1A,black,man,,,,null,,,,,,,,,
null,is touching,,html-keyboard-response,194,1020613,0.0-15.0-2.16,34500,List1A,black,man,,,,null,,,,,,,,,
19616.3,,,survey-text,195,1040233,0.0-15.0-3.16,34500,List1A,black,man,,,,,"{""Q0"":""Kate is touching Jane ""}","<img src=""stim_listA/touch7.gif""style=""height:400px;""></stim_listA>",is touching,,,,,,
null,"<div style=""font-size:60px;"">+</div>",,html-keyboard-response,196,1040739,0.0-15.0-0.17,34500,List1A,black,man,,,,null,,,,,,,,,
null,"<img src=""stim_listA/copy7.gif""style=""height:400px;""></stim_listA>",,html-keyboard-response,197,1042756,0.0-15.0-1.17,34500,List1A,black,man,,,,null,,,,,,,,,
null,is copying,,html-keyboard-response,198,1044764,0.0-15.0-2.17,34500,List1A,black,man,,,,null,,,,,,,,,
15993,,,survey-text,199,1060761,0.0-15.0-3.17,34500,List1A,black,man,,,,,"{""Q0"":""Ruth is copying Kate""}","<img src=""stim_listA/copy7.gif""style=""height:400px;""></stim_listA>",is copying,,,,,,
null,"<div style=""font-size:60px;"">+</div>",,html-keyboard-response,200,1061270,0.0-15.0-0.18,34500,List1A,black,man,,,,null,,,,,,,,,
null,"<img src=""stim_listA/greet7.gif""style=""height:400px;""></stim_listA>",,html-keyboard-response,201,1063286,0.0-15.0-1.18,34500,List1A,black,man,,,,null,,,,,,,,,
null,is greeting,,html-keyboard-response,202,1065302,0.0-15.0-2.18,34500,List1A,black,man,,,,null,,,,,,,,,
6287.4,,,survey-text,203,1071593,0.0-15.0-3.18,34500,List1A,black,man,,,,,"{""Q0"":""Kate is greeting Ruth""}","<img src=""stim_listA/greet7.gif""style=""height:400px;""></stim_listA>",is greeting,,,,,,
null,"<div style=""font-size:60px;"">+</div>",,html-keyboard-response,204,1072097,0.0-15.0-0.19,34500,List1A,black,man,,,,null,,,,,,,,,
null,"<img src=""stim_listA/oppose4.gif""style=""height:400px;""></stim_listA>",,html-keyboard-response,205,1074114,0.0-15.0-1.19,34500,List1A,black,man,,,,null,,,,,,,,,
null,is being opposed by,,html-keyboard-response,206,1076122,0.0-15.0-2.19,34500,List1A,black,man,,,,null,,,,,,,,,
7099.6,,,survey-text,207,1083225,0.0-15.0-3.19,34500,List1A,black,man,,,,,"{""Q0"":""Ruth is being opposed by Luke ""}","<img src=""stim_listA/oppose4.gif""style=""height:400px;""></stim_listA>",is being opposed by,,,,,,
5338.9,"<img src='img/portrait_matrix_list1.jpg' style='width:900px;height:500px;''></img><p>If you have memorised all the portraits and names and are ready to start, press Continue.</p><p><strong>Please note: Your memory of these faces will be tested 4 times during this experiment.</strong></p>",0,html-button-response,208,1088565,0.0-16.0-0.0,34500,List1A,black,man,,,,,,,,,,,,,
3542,"<img src=""portrait/WW1.jpg""style=""height:400px;""></img>",1,html-button-response,209,1093113,0.0-16.0-1.0,34500,List1A,black,man,,TRUE,1,,,,,,,,,,
null,CORRECT,,html-keyboard-response,210,1094631,0.0-16.0-2.0-0.0,34500,List1A,black,man,,,,null,,,,,,,,,
3012.2,"<img src=""portrait/BW2.jpg""style=""height:400px;""></img>",2,html-button-response,211,1097645,0.0-16.0-4.0,34500,List1A,black,man,,TRUE,2,,,,,,,,,,
null,CORRECT,,html-keyboard-response,212,1099166,0.0-16.0-5.0-0.0,34500,List1A,black,man,,,,null,,,,,,,,,
2862.9,"<img src=""portrait/BM2.jpg""style=""height:400px;""></img>",5,html-button-response,213,1102031,0.0-16.0-7.0,34500,List1A,black,man,,TRUE,5,,,,,,,,,,
null,CORRECT,,html-keyboard-response,214,1103551,0.0-16.0-8.0-0.0,34500,List1A,black,man,,,,null,,,,,,,,,
1564,"<img src=""portrait/WW2.jpg""style=""height:400px;""></img>",3,html-button-response,215,1105117,0.0-16.0-10.0,34500,List1A,black,man,,TRUE,3,,,,,,,,,,
null,CORRECT,,html-keyboard-response,216,1106649,0.0-16.0-11.0-0.0,34500,List1A,black,man,,,,null,,,,,,,,,
1860.3,"<img src=""portrait/BW1.jpg""style=""height:400px;""></img>",0,html-button-response,217,1108511,0.0-16.0-13.0,34500,List1A,black,man,,TRUE,0,,,,,,,,,,
null,CORRECT,,html-keyboard-response,218,1110017,0.0-16.0-14.0-0.0,34500,List1A,black,man,,,,null,,,,,,,,,
2563.2,"<img src=""portrait/WM1.jpg""style=""height:400px;""></img>",6,html-button-response,219,1112583,0.0-16.0-16.0,34500,List1A,black,man,,TRUE,6,,,,,,,,,,
null,CORRECT,,html-keyboard-response,220,1114099,0.0-16.0-17.0-0.0,34500,List1A,black,man,,,,null,,,,,,,,,
1716,"<img src=""portrait/BM1.jpg""style=""height:400px;""></img>",4,html-button-response,221,1115817,0.0-16.0-19.0,34500,List1A,black,man,,TRUE,4,,,,,,,,,,
null,CORRECT,,html-keyboard-response,222,1117328,0.0-16.0-20.0-0.0,34500,List1A,black,man,,,,null,,,,,,,,,
2240.6,"<img src=""portrait/WM2.jpg""style=""height:400px;""></img>",7,html-button-response,223,1119571,0.0-16.0-22.0,34500,List1A,black,man,,TRUE,7,,,,,,,,,,
null,CORRECT,,html-keyboard-response,224,1121103,0.0-16.0-23.0-0.0,34500,List1A,black,man,,,,null,,,,,,,,,
1947,<p>You got 8 out of 8 right first time. Press Continue.</p>,0,html-button-response,225,1123053,0.0-16.0-25.0,34500,List1A,black,man,,,,,,,,,,,,,
null,"<div style=""font-size:60px;"">+</div>",,html-keyboard-response,226,1124571,0.0-17.0-0.0,34500,List1A,black,man,,,,null,,,,,,,,,
null,"<img src=""stim_listA/seduce2.gif""style=""height:400px;""></stim_listA>",,html-keyboard-response,227,1126574,0.0-17.0-1.0,34500,List1A,black,man,,,,null,,,,,,,,,
null,is being seduced by,,html-keyboard-response,228,1128587,0.0-17.0-2.0,34500,List1A,black,man,,,,null,,,,,,,,,
5914.7,,,survey-text,229,1134505,0.0-17.0-3.0,34500,List1A,black,man,,,,,"{""Q0"":""Beth is being seduced by Mike ""}","<img src=""stim_listA/seduce2.gif""style=""height:400px;""></stim_listA>",is being seduced by,,,,,,
null,"<div style=""font-size:60px;"">+</div>",,html-keyboard-response,230,1135018,0.0-17.0-0.1,34500,List1A,black,man,,,,null,,,,,,,,,
null,"<img src=""stim_listA/touch8.gif""style=""height:400px;""></stim_listA>",,html-keyboard-response,231,1137027,0.0-17.0-1.1,34500,List1A,black,man,,,,null,,,,,,,,,
null,is being touched by,,html-keyboard-response,232,1139036,0.0-17.0-2.1,34500,List1A,black,man,,,,null,,,,,,,,,
6977.6,,,survey-text,233,1146017,0.0-17.0-3.1,34500,List1A,black,man,,,,,"{""Q0"":""Beth is being touched by Ruth ""}","<img src=""stim_listA/touch8.gif""style=""height:400px;""></stim_listA>",is being touched by,,,,,,
null,"<div style=""font-size:60px;"">+</div>",,html-keyboard-response,234,1146527,0.0-17.0-0.2,34500,List1A,black,man,,,,null,,,,,,,,,
null,"<img src=""stim_listA/seduce5.gif""style=""height:400px;""></stim_listA>",,html-keyboard-response,235,1148533,0.0-17.0-1.2,34500,List1A,black,man,,,,null,,,,,,,,,
null,is seducing,,html-keyboard-response,236,1150541,0.0-17.0-2.2,34500,List1A,black,man,,,,null,,,,,,,,,
8528.3,,,survey-text,237,1159073,0.0-17.0-3.2,34500,List1A,black,man,,,,,"{""Q0"":""Dave is being seduced by Fred""}","<img src=""stim_listA/seduce5.gif""style=""height:400px;""></stim_listA>",is seducing,,,,,,
null,"<div style=""font-size:60px;"">+</div>",,html-keyboard-response,238,1159574,0.0-17.0-0.3,34500,List1A,black,man,,,,null,,,,,,,,,
null,"<img src=""stim_listA/copy2.gif""style=""height:400px;""></stim_listA>",,html-keyboard-response,239,1161590,0.0-17.0-1.3,34500,List1A,black,man,,,,null,,,,,,,,,
null,is being copied by,,html-keyboard-response,240,1163597,0.0-17.0-2.3,34500,List1A,black,man,,,,null,,,,,,,,,
10081.1,,,survey-text,241,1173681,0.0-17.0-3.3,34500,List1A,black,man,,,,,"{""Q0"":""Kate is being copied by Fred ""}","<img src=""stim_listA/copy2.gif""style=""height:400px;""></stim_listA>",is being copied by,,,,,,
null,"<div style=""font-size:60px;"">+</div>",,html-keyboard-response,242,1174183,0.0-17.0-0.4,34500,List1A,black,man,,,,null,,,,,,,,,
null,"<img src=""stim_listA/seduce8.gif""style=""height:400px;""></stim_listA>",,html-keyboard-response,243,1176199,0.0-17.0-1.4,34500,List1A,black,man,,,,null,,,,,,,,,
null,is being seduced by,,html-keyboard-response,244,1178212,0.0-17.0-2.4,34500,List1A,black,man,,,,null,,,,,,,,,
6488.9,,,survey-text,245,1184704,0.0-17.0-3.4,34500,List1A,black,man,,,,,"{""Q0"":""Ruth is being seduced by Kate""}","<img src=""stim_listA/seduce8.gif""style=""height:400px;""></stim_listA>",is being seduced by,,,,,,
null,"<div style=""font-size:60px;"">+</div>",,html-keyboard-response,246,1185210,0.0-17.0-0.5,34500,List1A,black,man,,,,null,,,,,,,,,
null,"<img src=""stim_listA/greet6.gif""style=""height:400px;""></stim_listA>",,html-keyboard-response,247,1187226,0.0-17.0-1.5,34500,List1A,black,man,,,,null,,,,,,,,,
null,is being greeted by,,html-keyboard-response,248,1189230,0.0-17.0-2.5,34500,List1A,black,man,,,,null,,,,,,,,,
8134.8,,,survey-text,249,1197368,0.0-17.0-3.5,34500,List1A,black,man,,,,,"{""Q0"":""Dave is being greeted by Fred""}","<img src=""stim_listA/greet6.gif""style=""height:400px;""></stim_listA>",is being greeted by,,,,,,
null,"<div style=""font-size:60px;"">+</div>",,html-keyboard-response,250,1197872,0.0-17.0-0.6,34500,List1A,black,man,,,,null,,,,,,,,,
null,"<img src=""stim_listA/touch4.gif""style=""height:400px;""></stim_listA>",,html-keyboard-response,251,1199887,0.0-17.0-1.6,34500,List1A,black,man,,,,null,,,,,,,,,
null,is being touched by,,html-keyboard-response,252,1201894,0.0-17.0-2.6,34500,List1A,black,man,,,,null,,,,,,,,,
17566.4,,,survey-text,253,1219464,0.0-17.0-3.6,34500,List1A,black,man,,,,,"{""Q0"":""Luke is being touched by Ruth ""}","<img src=""stim_listA/touch4.gif""style=""height:400px;""></stim_listA>",is being touched by,,,,,,
null,"<div style=""font-size:60px;"">+</div>",,html-keyboard-response,254,1219972,0.0-17.0-0.7,34500,List1A,black,man,,,,null,,,,,,,,,
null,"<img src=""stim_listA/kiss5.gif""style=""height:400px;""></stim_listA>",,html-keyboard-response,255,1221976,0.0-17.0-1.7,34500,List1A,black,man,,,,null,,,,,,,,,
null,is kissing,,html-keyboard-response,256,1223980,0.0-17.0-2.7,34500,List1A,black,man,,,,null,,,,,,,,,
6536,,,survey-text,257,1230520,0.0-17.0-3.7,34500,List1A,black,man,,,,,"{""Q0"":""Fred is kissing Luke""}","<img src=""stim_listA/kiss5.gif""style=""height:400px;""></stim_listA>",is kissing,,,,,,
null,"<div style=""font-size:60px;"">+</div>",,html-keyboard-response,258,1231022,0.0-17.0-0.8,34500,List1A,black,man,,,,null,,,,,,,,,
null,"<img src=""stim_listA/oppose5.gif""style=""height:400px;""></stim_listA>",,html-keyboard-response,259,1233036,0.0-17.0-1.8,34500,List1A,black,man,,,,null,,,,,,,,,
null,is opposing,,html-keyboard-response,260,1235053,0.0-17.0-2.8,34500,List1A,black,man,,,,null,,,,,,,,,
6734,,,survey-text,261,1241792,0.0-17.0-3.8,34500,List1A,black,man,,,,,"{""Q0"":""Dave is opposing Mike ""}","<img src=""stim_listA/oppose5.gif""style=""height:400px;""></stim_listA>",is opposing,,,,,,
null,"<div style=""font-size:60px;"">+</div>",,html-keyboard-response,262,1242299,0.0-17.0-0.9,34500,List1A,black,man,,,,null,,,,,,,,,
null,"<img src=""stim_listA/seduce1.gif""style=""height:400px;""></stim_listA>",,html-keyboard-response,263,1244316,0.0-17.0-1.9,34500,List1A,black,man,,,,null,,,,,,,,,
null,is seducing,,html-keyboard-response,264,1246330,0.0-17.0-2.9,34500,List1A,black,man,,,,null,,,,,,,,,
7858.5,,,survey-text,265,1254192,0.0-17.0-3.9,34500,List1A,black,man,,,,,"{""Q0"":""Beth is seducing Fred""}","<img src=""stim_listA/seduce1.gif""style=""height:400px;""></stim_listA>",is seducing,,,,,,
null,"<div style=""font-size:60px;"">+</div>",,html-keyboard-response,266,1254708,0.0-17.0-0.10,34500,List1A,black,man,,,,null,,,,,,,,,
null,"<img src=""stim_listA/challenge6.gif""style=""height:400px;""></stim_listA>",,html-keyboard-response,267,1256713,0.0-17.0-1.10,34500,List1A,black,man,,,,null,,,,,,,,,
null,is being challenged by,,html-keyboard-response,268,1258725,0.0-17.0-2.10,34500,List1A,black,man,,,,null,,,,,,,,,
9535.7,,,survey-text,269,1268264,0.0-17.0-3.10,34500,List1A,black,man,,,,,"{""Q0"":""Dave is being challenged by Fred""}","<img src=""stim_listA/challenge6.gif""style=""height:400px;""></stim_listA>",is being challenged by,,,,,,
null,"<div style=""font-size:60px;"">+</div>",,html-keyboard-response,270,1268767,0.0-17.0-0.11,34500,List1A,black,man,,,,null,,,,,,,,,
null,"<img src=""stim_listA/kiss3.gif""style=""height:400px;""></stim_listA>",,html-keyboard-response,271,1270771,0.0-17.0-1.11,34500,List1A,black,man,,,,null,,,,,,,,,
null,is kissing,,html-keyboard-response,272,1272775,0.0-17.0-2.11,34500,List1A,black,man,,,,null,,,,,,,,,
4173.2,,,survey-text,273,1276952,0.0-17.0-3.11,34500,List1A,black,man,,,,,"{""Q0"":""Luke is kissing RUth""}","<img src=""stim_listA/kiss3.gif""style=""height:400px;""></stim_listA>",is kissing,,,,,,
null,"<div style=""font-size:60px;"">+</div>",,html-keyboard-response,274,1277465,0.0-17.0-0.12,34500,List1A,black,man,,,,null,,,,,,,,,
null,"<img src=""stim_listA/copy5.gif""style=""height:400px;""></stim_listA>",,html-keyboard-response,275,1279470,0.0-17.0-1.12,34500,List1A,black,man,,,,null,,,,,,,,,
null,is copying,,html-keyboard-response,276,1281473,0.0-17.0-2.12,34500,List1A,black,man,,,,null,,,,,,,,,
8075.6,,,survey-text,277,1289552,0.0-17.0-3.12,34500,List1A,black,man,,,,,"{""Q0"":""Mike is copying Luke ""}","<img src=""stim_listA/copy5.gif""style=""height:400px;""></stim_listA>",is copying,,,,,,
null,"<div style=""font-size:60px;"">+</div>",,html-keyboard-response,278,1290060,0.0-17.0-0.13,34500,List1A,black,man,,,,null,,,,,,,,,
null,"<img src=""stim_listA/copy4.gif""style=""height:400px;""></stim_listA>",,html-keyboard-response,279,1292077,0.0-17.0-1.13,34500,List1A,black,man,,,,null,,,,,,,,,
null,is being copied by,,html-keyboard-response,280,1294079,0.0-17.0-2.13,34500,List1A,black,man,,,,null,,,,,,,,,
9013.1,,,survey-text,281,1303095,0.0-17.0-3.13,34500,List1A,black,man,,,,,"{""Q0"":""Jane is being copied by Luke ""}","<img src=""stim_listA/copy4.gif""style=""height:400px;""></stim_listA>",is being copied by,,,,,,
null,"<div style=""font-size:60px;"">+</div>",,html-keyboard-response,282,1303603,0.0-17.0-0.14,34500,List1A,black,man,,,,null,,,,,,,,,
null,"<img src=""stim_listA/shout7.gif""style=""height:400px;""></stim_listA>",,html-keyboard-response,283,1305620,0.0-17.0-1.14,34500,List1A,black,man,,,,null,,,,,,,,,
null,is shouting at,,html-keyboard-response,284,1307626,0.0-17.0-2.14,34500,List1A,black,man,,,,null,,,,,,,,,
5673.9,,,survey-text,285,1313303,0.0-17.0-3.14,34500,List1A,black,man,,,,,"{""Q0"":""Beth is shouting at Ruth ""}","<img src=""stim_listA/shout7.gif""style=""height:400px;""></stim_listA>",is shouting at,,,,,,
null,"<div style=""font-size:60px;"">+</div>",,html-keyboard-response,286,1313815,0.0-17.0-0.15,34500,List1A,black,man,,,,null,,,,,,,,,
null,"<img src=""stim_listA/oppose3.gif""style=""height:400px;""></stim_listA>",,html-keyboard-response,287,1315832,0.0-17.0-1.15,34500,List1A,black,man,,,,null,,,,,,,,,
null,is opposing,,html-keyboard-response,288,1317843,0.0-17.0-2.15,34500,List1A,black,man,,,,null,,,,,,,,,
7457,,,survey-text,289,1325303,0.0-17.0-3.15,34500,List1A,black,man,,,,,"{""Q0"":""Dave is opposing Jane ""}","<img src=""stim_listA/oppose3.gif""style=""height:400px;""></stim_listA>",is opposing,,,,,,
null,"<div style=""font-size:60px;"">+</div>",,html-keyboard-response,290,1325808,0.0-17.0-0.16,34500,List1A,black,man,,,,null,,,,,,,,,
null,"<img src=""stim_listA/greet5.gif""style=""height:400px;""></stim_listA>",,html-keyboard-response,291,1327825,0.0-17.0-1.16,34500,List1A,black,man,,,,null,,,,,,,,,
null,is greeting,,html-keyboard-response,292,1329841,0.0-17.0-2.16,34500,List1A,black,man,,,,null,,,,,,,,,
5251.1,,,survey-text,293,1335095,0.0-17.0-3.16,34500,List1A,black,man,,,,,"{""Q0"":""Mike is greeting Luke ""}","<img src=""stim_listA/greet5.gif""style=""height:400px;""></stim_listA>",is greeting,,,,,,
null,"<div style=""font-size:60px;"">+</div>",,html-keyboard-response,294,1335604,0.0-17.0-0.17,34500,List1A,black,man,,,,null,,,,,,,,,
null,"<img src=""stim_listA/shout4.gif""style=""height:400px;""></stim_listA>",,html-keyboard-response,295,1337621,0.0-17.0-1.17,34500,List1A,black,man,,,,null,,,,,,,,,
null,is being shouted at by,,html-keyboard-response,296,1339635,0.0-17.0-2.17,34500,List1A,black,man,,,,null,,,,,,,,,
11064.7,,,survey-text,297,1350703,0.0-17.0-3.17,34500,List1A,black,man,,,,,"{""Q0"":""Jane is being shouted by Dave""}","<img src=""stim_listA/shout4.gif""style=""height:400px;""></stim_listA>",is being shouted at by,,,,,,
null,"<div style=""font-size:60px;"">+</div>",,html-keyboard-response,298,1351214,0.0-17.0-0.18,34500,List1A,black,man,,,,null,,,,,,,,,
null,"<img src=""stim_listA/greet4.gif""style=""height:400px;""></stim_listA>",,html-keyboard-response,299,1353229,0.0-17.0-1.18,34500,List1A,black,man,,,,null,,,,,,,,,
null,is being greeted by,,html-keyboard-response,300,1355244,0.0-17.0-2.18,34500,List1A,black,man,,,,null,,,,,,,,,
14374.1,,,survey-text,301,1369622,0.0-17.0-3.18,34500,List1A,black,man,,,,,"{""Q0"":""Jane is being greeted by Luke ""}","<img src=""stim_listA/greet4.gif""style=""height:400px;""></stim_listA>",is being greeted by,,,,,,
null,"<div style=""font-size:60px;"">+</div>",,html-keyboard-response,302,1370129,0.0-17.0-0.19,34500,List1A,black,man,,,,null,,,,,,,,,
null,"<img src=""stim_listA/hug2.gif""style=""height:400px;""></stim_listA>",,html-keyboard-response,303,1372137,0.0-17.0-1.19,34500,List1A,black,man,,,,null,,,,,,,,,
null,is being hugged by,,html-keyboard-response,304,1374144,0.0-17.0-2.19,34500,List1A,black,man,,,,null,,,,,,,,,
7107.5,,,survey-text,305,1381255,0.0-17.0-3.19,34500,List1A,black,man,,,,,"{""Q0"":""Kate is being hugged by Mike ""}","<img src=""stim_listA/hug2.gif""style=""height:400px;""></stim_listA>",is being hugged by,,,,,,
25388.9,"<img src='img/portrait_matrix_list1.jpg' style='width:900px;height:500px;''></img><p>If you have memorised all the portraits and names and are ready to start, press Continue.</p><p><strong>Please note: Your memory of these faces will be tested 4 times during this experiment.</strong></p>",0,html-button-response,306,1406645,0.0-18.0-0.0,34500,List1A,black,man,,,,,,,,,,,,,
3287.4,"<img src=""portrait/BM1.jpg""style=""height:400px;""></img>",4,html-button-response,307,1410949,0.0-18.0-1.0,34500,List1A,black,man,,TRUE,4,,,,,,,,,,
null,CORRECT,,html-keyboard-response,308,1412468,0.0-18.0-2.0-0.0,34500,List1A,black,man,,,,null,,,,,,,,,
1479.5,"<img src=""portrait/WW1.jpg""style=""height:400px;""></img>",1,html-button-response,309,1413949,0.0-18.0-4.0,34500,List1A,black,man,,TRUE,1,,,,,,,,,,
null,CORRECT,,html-keyboard-response,310,1415460,0.0-18.0-5.0-0.0,34500,List1A,black,man,,,,null,,,,,,,,,
2689.3,"<img src=""portrait/WM1.jpg""style=""height:400px;""></img>",6,html-button-response,311,1418151,0.0-18.0-7.0,34500,List1A,black,man,,TRUE,6,,,,,,,,,,
null,CORRECT,,html-keyboard-response,312,1419668,0.0-18.0-8.0-0.0,34500,List1A,black,man,,,,null,,,,,,,,,
1385.2,"<img src=""portrait/WM2.jpg""style=""height:400px;""></img>",7,html-button-response,313,1421055,0.0-18.0-10.0,34500,List1A,black,man,,TRUE,7,,,,,,,,,,
null,CORRECT,,html-keyboard-response,314,1422566,0.0-18.0-11.0-0.0,34500,List1A,black,man,,,,null,,,,,,,,,
3047.6,"<img src=""portrait/BW2.jpg""style=""height:400px;""></img>",2,html-button-response,315,1425615,0.0-18.0-13.0,34500,List1A,black,man,,TRUE,2,,,,,,,,,,
null,CORRECT,,html-keyboard-response,316,1427119,0.0-18.0-14.0-0.0,34500,List1A,black,man,,,,null,,,,,,,,,
2414.4,"<img src=""portrait/BW1.jpg""style=""height:400px;""></img>",0,html-button-response,317,1429535,0.0-18.0-16.0,34500,List1A,black,man,,TRUE,0,,,,,,,,,,
null,CORRECT,,html-keyboard-response,318,1431064,0.0-18.0-17.0-0.0,34500,List1A,black,man,,,,null,,,,,,,,,
5309.6,"<img src=""portrait/BM2.jpg""style=""height:400px;""></img>",5,html-button-response,319,1436375,0.0-18.0-19.0,34500,List1A,black,man,,TRUE,5,,,,,,,,,,
null,CORRECT,,html-keyboard-response,320,1437886,0.0-18.0-20.0-0.0,34500,List1A,black,man,,,,null,,,,,,,,,
2881.3,"<img src=""portrait/WW2.jpg""style=""height:400px;""></img>",3,html-button-response,321,1440769,0.0-18.0-22.0,34500,List1A,black,man,,TRUE,3,,,,,,,,,,
null,CORRECT,,html-keyboard-response,322,1442293,0.0-18.0-23.0-0.0,34500,List1A,black,man,,,,null,,,,,,,,,
1901.2,<p>You got 8 out of 8 right first time. Press Continue.</p>,0,html-button-response,323,1444197,0.0-18.0-25.0,34500,List1A,black,man,,,,,,,,,,,,,
null,"<div style=""font-size:60px;"">+</div>",,html-keyboard-response,324,1445701,0.0-19.0-0.0,34500,List1A,black,man,,,,null,,,,,,,,,
null,"<img src=""stim_listA/oppose6.gif""style=""height:400px;""></stim_listA>",,html-keyboard-response,325,1447713,0.0-19.0-1.0,34500,List1A,black,man,,,,null,,,,,,,,,
null,is being opposed by,,html-keyboard-response,326,1449725,0.0-19.0-2.0,34500,List1A,black,man,,,,null,,,,,,,,,
11861.2,,,survey-text,327,1461591,0.0-19.0-3.0,34500,List1A,black,man,,,,,"{""Q0"":""Luke is being opposed by Fred""}","<img src=""stim_listA/oppose6.gif""style=""height:400px;""></stim_listA>",is being opposed by,,,,,,
null,"<div style=""font-size:60px;"">+</div>",,html-keyboard-response,328,1462093,0.0-19.0-0.1,34500,List1A,black,man,,,,null,,,,,,,,,
null,"<img src=""stim_listA/oppose7.gif""style=""height:400px;""></stim_listA>",,html-keyboard-response,329,1464109,0.0-19.0-1.1,34500,List1A,black,man,,,,null,,,,,,,,,
null,is opposing,,html-keyboard-response,330,1466125,0.0-19.0-2.1,34500,List1A,black,man,,,,null,,,,,,,,,
10838.6,,,survey-text,331,1476967,0.0-19.0-3.1,34500,List1A,black,man,,,,,"{""Q0"":""Kate is being opposed by Jane ""}","<img src=""stim_listA/oppose7.gif""style=""height:400px;""></stim_listA>",is opposing,,,,,,
null,"<div style=""font-size:60px;"">+</div>",,html-keyboard-response,332,1477470,0.0-19.0-0.2,34500,List1A,black,man,,,,null,,,,,,,,,
null,"<img src=""stim_listA/touch3.gif""style=""height:400px;""></stim_listA>",,html-keyboard-response,333,1479474,0.0-19.0-1.2,34500,List1A,black,man,,,,null,,,,,,,,,
null,is touching,,html-keyboard-response,334,1481484,0.0-19.0-2.2,34500,List1A,black,man,,,,null,,,,,,,,,
14527.1,,,survey-text,335,1496014,0.0-19.0-3.2,34500,List1A,black,man,,,,,"{""Q0"":""Jane is touching Dave""}","<img src=""stim_listA/touch3.gif""style=""height:400px;""></stim_listA>",is touching,,,,,,
null,"<div style=""font-size:60px;"">+</div>",,html-keyboard-response,336,1496527,0.0-19.0-0.3,34500,List1A,black,man,,,,null,,,,,,,,,
null,"<img src=""stim_listA/oppose1.gif""style=""height:400px;""></stim_listA>",,html-keyboard-response,337,1498543,0.0-19.0-1.3,34500,List1A,black,man,,,,null,,,,,,,,,
null,is opposing,,html-keyboard-response,338,1500545,0.0-19.0-2.3,34500,List1A,black,man,,,,null,,,,,,,,,
4666.6,,,survey-text,339,1505214,0.0-19.0-3.3,34500,List1A,black,man,,,,,"{""Q0"":""Mike is opposing Kate""}","<img src=""stim_listA/oppose1.gif""style=""height:400px;""></stim_listA>",is opposing,,,,,,
null,"<div style=""font-size:60px;"">+</div>",,html-keyboard-response,340,1505722,0.0-19.0-0.4,34500,List1A,black,man,,,,null,,,,,,,,,
null,"<img src=""stim_listA/challenge5.gif""style=""height:400px;""></stim_listA>",,html-keyboard-response,341,1507729,0.0-19.0-1.4,34500,List1A,black,man,,,,null,,,,,,,,,
null,is challenging,,html-keyboard-response,342,1509737,0.0-19.0-2.4,34500,List1A,black,man,,,,null,,,,,,,,,
8329.8,,,survey-text,343,1518070,0.0-19.0-3.4,34500,List1A,black,man,,,,,"{""Q0"":""Mike is challenging Luke""}","<img src=""stim_listA/challenge5.gif""style=""height:400px;""></stim_listA>",is challenging,,,,,,
null,"<div style=""font-size:60px;"">+</div>",,html-keyboard-response,344,1518581,0.0-19.0-0.5,34500,List1A,black,man,,,,null,,,,,,,,,
null,"<img src=""stim_listA/challenge2.gif""style=""height:400px;""></stim_listA>",,html-keyboard-response,345,1520598,0.0-19.0-1.5,34500,List1A,black,man,,,,null,,,,,,,,,
null,is being challenged by,,html-keyboard-response,346,1522614,0.0-19.0-2.5,34500,List1A,black,man,,,,null,,,,,,,,,
13637.2,,,survey-text,347,1536255,0.0-19.0-3.5,34500,List1A,black,man,,,,,"{""Q0"":""Fred is being challenged by Kate""}","<img src=""stim_listA/challenge2.gif""style=""height:400px;""></stim_listA>",is being challenged by,,,,,,
null,"<div style=""font-size:60px;"">+</div>",,html-keyboard-response,348,1536758,0.0-19.0-0.6,34500,List1A,black,man,,,,null,,,,,,,,,
null,"<img src=""stim_listA/greet3.gif""style=""height:400px;""></stim_listA>",,html-keyboard-response,349,1538774,0.0-19.0-1.6,34500,List1A,black,man,,,,null,,,,,,,,,
null,is greeting,,html-keyboard-response,350,1540778,0.0-19.0-2.6,34500,List1A,black,man,,,,null,,,,,,,,,
10064.7,,,survey-text,351,1550846,0.0-19.0-3.6,34500,List1A,black,man,,,,,"{""Q0"":""Dave is greeting Ruth""}","<img src=""stim_listA/greet3.gif""style=""height:400px;""></stim_listA>",is greeting,,,,,,
null,"<div style=""font-size:60px;"">+</div>",,html-keyboard-response,352,1551351,0.0-19.0-0.7,34500,List1A,black,man,,,,null,,,,,,,,,
null,"<img src=""stim_listA/hug8.gif""style=""height:400px;""></stim_listA>",,html-keyboard-response,353,1553357,0.0-19.0-1.7,34500,List1A,black,man,,,,null,,,,,,,,,
null,is being hugged by,,html-keyboard-response,354,1555359,0.0-19.0-2.7,34500,List1A,black,man,,,,null,,,,,,,,,
12915,,,survey-text,355,1568278,0.0-19.0-3.7,34500,List1A,black,man,,,,,"{""Q0"":""Kate is being hugged by Jane""}","<img src=""stim_listA/hug8.gif""style=""height:400px;""></stim_listA>",is being hugged by,,,,,,
null,"<div style=""font-size:60px;"">+</div>",,html-keyboard-response,356,1568791,0.0-19.0-0.8,34500,List1A,black,man,,,,null,,,,,,,,,
null,"<img src=""stim_listA/shout1.gif""style=""height:400px;""></stim_listA>",,html-keyboard-response,357,1570809,0.0-19.0-1.8,34500,List1A,black,man,,,,null,,,,,,,,,
null,is shouting at,,html-keyboard-response,358,1572815,0.0-19.0-2.8,34500,List1A,black,man,,,,null,,,,,,,,,
8547.8,,,survey-text,359,1581366,0.0-19.0-3.8,34500,List1A,black,man,,,,,"{""Q0"":""Beth is shouting at Beth""}","<img src=""stim_listA/shout1.gif""style=""height:400px;""></stim_listA>",is shouting at,,,,,,
null,"<div style=""font-size:60px;"">+</div>",,html-keyboard-response,360,1581874,0.0-19.0-0.9,34500,List1A,black,man,,,,null,,,,,,,,,
null,"<img src=""stim_listA/hug4.gif""style=""height:400px;""></stim_listA>",,html-keyboard-response,361,1583884,0.0-19.0-1.9,34500,List1A,black,man,,,,null,,,,,,,,,
null,is being hugged by,,html-keyboard-response,362,1585900,0.0-19.0-2.9,34500,List1A,black,man,,,,null,,,,,,,,,
7495,,,survey-text,363,1593398,0.0-19.0-3.9,34500,List1A,black,man,,,,,"{""Q0"":""Jane is being hugged by Dave""}","<img src=""stim_listA/hug4.gif""style=""height:400px;""></stim_listA>",is being hugged by,,,,,,
null,"<div style=""font-size:60px;"">+</div>",,html-keyboard-response,364,1593912,0.0-19.0-0.10,34500,List1A,black,man,,,,null,,,,,,,,,
null,"<img src=""stim_listA/hug5.gif""style=""height:400px;""></stim_listA>",,html-keyboard-response,365,1595928,0.0-19.0-1.10,34500,List1A,black,man,,,,null,,,,,,,,,
null,is hugging,,html-keyboard-response,366,1597931,0.0-19.0-2.10,34500,List1A,black,man,,,,null,,,,,,,,,
7719.4,,,survey-text,367,1605654,0.0-19.0-3.10,34500,List1A,black,man,,,,,"{""Q0"":""Luke is hugging Fred""}","<img src=""stim_listA/hug5.gif""style=""height:400px;""></stim_listA>",is hugging,,,,,,
null,"<div style=""font-size:60px;"">+</div>",,html-keyboard-response,368,1606157,0.0-19.0-0.11,34500,List1A,black,man,,,,null,,,,,,,,,
null,"<img src=""stim_listA/touch6.gif""style=""height:400px;""></stim_listA>",,html-keyboard-response,369,1608173,0.0-19.0-1.11,34500,List1A,black,man,,,,null,,,,,,,,,
null,is being touched by,,html-keyboard-response,370,1610178,0.0-19.0-2.11,34500,List1A,black,man,,,,null,,,,,,,,,
6648.7,,,survey-text,371,1616830,0.0-19.0-3.11,34500,List1A,black,man,,,,,"{""Q0"":""Fred is being touched by Luke""}","<img src=""stim_listA/touch6.gif""style=""height:400px;""></stim_listA>",is being touched by,,,,,,
null,"<div style=""font-size:60px;"">+</div>",,html-keyboard-response,372,1617339,0.0-19.0-0.12,34500,List1A,black,man,,,,null,,,,,,,,,
null,"<img src=""stim_listA/copy1.gif""style=""height:400px;""></stim_listA>",,html-keyboard-response,373,1619349,0.0-19.0-1.12,34500,List1A,black,man,,,,null,,,,,,,,,
null,is copying,,html-keyboard-response,374,1621365,0.0-19.0-2.12,34500,List1A,black,man,,,,null,,,,,,,,,
17103.1,,,survey-text,375,1638478,0.0-19.0-3.12,34500,List1A,black,man,,,,,"{""Q0"":""Beth is copying Luke""}","<img src=""stim_listA/copy1.gif""style=""height:400px;""></stim_listA>",is copying,,,,,,
null,"<div style=""font-size:60px;"">+</div>",,html-keyboard-response,376,1638991,0.0-19.0-0.13,34500,List1A,black,man,,,,null,,,,,,,,,
null,"<img src=""stim_listA/seduce3.gif""style=""height:400px;""></stim_listA>",,html-keyboard-response,377,1641007,0.0-19.0-1.13,34500,List1A,black,man,,,,null,,,,,,,,,
null,is seducing,,html-keyboard-response,378,1643012,0.0-19.0-2.13,34500,List1A,black,man,,,,null,,,,,,,,,
6261.7,,,survey-text,379,1649277,0.0-19.0-3.13,34500,List1A,black,man,,,,,"{""Q0"":""Luke is seducing Jane""}","<img src=""stim_listA/seduce3.gif""style=""height:400px;""></stim_listA>",is seducing,,,,,,
null,"<div style=""font-size:60px;"">+</div>",,html-keyboard-response,380,1649785,0.0-19.0-0.14,34500,List1A,black,man,,,,null,,,,,,,,,
null,"<img src=""stim_listA/shout8.gif""style=""height:400px;""></stim_listA>",,html-keyboard-response,381,1651801,0.0-19.0-1.14,34500,List1A,black,man,,,,null,,,,,,,,,
null,is being shouted at by,,html-keyboard-response,382,1653817,0.0-19.0-2.14,34500,List1A,black,man,,,,null,,,,,,,,,
16249.2,,,survey-text,383,1670070,0.0-19.0-3.14,34500,List1A,black,man,,,,,"{""Q0"":""Jane is being shouted byKate""}","<img src=""stim_listA/shout8.gif""style=""height:400px;""></stim_listA>",is being shouted at by,,,,,,
null,"<div style=""font-size:60px;"">+</div>",,html-keyboard-response,384,1670574,0.0-19.0-0.15,34500,List1A,black,man,,,,null,,,,,,,,,
null,"<img src=""stim_listA/oppose8.gif""style=""height:400px;""></stim_listA>",,html-keyboard-response,385,1672591,0.0-19.0-1.15,34500,List1A,black,man,,,,null,,,,,,,,,
null,is being opposed by,,html-keyboard-response,386,1674596,0.0-19.0-2.15,34500,List1A,black,man,,,,null,,,,,,,,,
12021.6,,,survey-text,387,1686622,0.0-19.0-3.15,34500,List1A,black,man,,,,,"{""Q0"":""Beth is being opposed by Ruth""}","<img src=""stim_listA/oppose8.gif""style=""height:400px;""></stim_listA>",is being opposed by,,,,,,
null,"<div style=""font-size:60px;"">+</div>",,html-keyboard-response,388,1687137,0.0-19.0-0.16,34500,List1A,black,man,,,,null,,,,,,,,,
null,"<img src=""stim_listA/look1.gif""style=""height:400px;""></stim_listA>",,html-keyboard-response,389,1689151,0.0-19.0-1.16,34500,List1A,black,man,,,,null,,,,,,,,,
null,is looking at,,html-keyboard-response,390,1691157,0.0-19.0-2.16,34500,List1A,black,man,,,,null,,,,,,,,,
18225.5,,,survey-text,391,1709390,0.0-19.0-3.16,34500,List1A,black,man,,,,,"{""Q0"":""Mike is looking at Beth""}","<img src=""stim_listA/look1.gif""style=""height:400px;""></stim_listA>",is looking at,,,,,,
null,"<div style=""font-size:60px;"">+</div>",,html-keyboard-response,392,1709899,0.0-19.0-0.17,34500,List1A,black,man,,,,null,,,,,,,,,
null,"<img src=""stim_listA/challenge7.gif""style=""height:400px;""></stim_listA>",,html-keyboard-response,393,1711906,0.0-19.0-1.17,34500,List1A,black,man,,,,null,,,,,,,,,
null,is challenging,,html-keyboard-response,394,1713922,0.0-19.0-2.17,34500,List1A,black,man,,,,null,,,,,,,,,
18624.2,,,survey-text,395,1732549,0.0-19.0-3.17,34500,List1A,black,man,,,,,"{""Q0"":""Ruth is challenging Kate""}","<img src=""stim_listA/challenge7.gif""style=""height:400px;""></stim_listA>",is challenging,,,,,,
null,"<div style=""font-size:60px;"">+</div>",,html-keyboard-response,396,1733061,0.0-19.0-0.18,34500,List1A,black,man,,,,null,,,,,,,,,
null,"<img src=""stim_listA/shout2.gif""style=""height:400px;""></stim_listA>",,html-keyboard-response,397,1735080,0.0-19.0-1.18,34500,List1A,black,man,,,,null,,,,,,,,,
null,is being shouted at by,,html-keyboard-response,398,1737095,0.0-19.0-2.18,34500,List1A,black,man,,,,null,,,,,,,,,
7666.1,,,survey-text,399,1744765,0.0-19.0-3.18,34500,List1A,black,man,,,,,"{""Q0"":""Mike is being shouted by kate""}","<img src=""stim_listA/shout2.gif""style=""height:400px;""></stim_listA>",is being shouted at by,,,,,,
null,"<div style=""font-size:60px;"">+</div>",,html-keyboard-response,400,1745272,0.0-19.0-0.19,34500,List1A,black,man,,,,null,,,,,,,,,
null,"<img src=""stim_listA/shout3.gif""style=""height:400px;""></stim_listA>",,html-keyboard-response,401,1747279,0.0-19.0-1.19,34500,List1A,black,man,,,,null,,,,,,,,,
null,is shouting at,,html-keyboard-response,402,1749291,0.0-19.0-2.19,34500,List1A,black,man,,,,null,,,,,,,,,
7517.9,,,survey-text,403,1756813,0.0-19.0-3.19,34500,List1A,black,man,,,,,"{""Q0"":""Luke is being shouted by Ruth""}","<img src=""stim_listA/shout3.gif""style=""height:400px;""></stim_listA>",is shouting at,,,,,,
2709.1,<p>Thank you for completing that task.</p><p>The final part of this session is a questionnaire that will take about 4 minutes.</p><p>Press Continue.</p>,0,html-button-response,404,1759523,0.0-20.0,34500,List1A,black,man,,,,,,,,,,,,,
33285.9,,,survey-text,405,1793821,0.0-21.0,34500,List1A,black,man,,,,,"{""Q0"":""20"",""Q1"":""English "",""Q2"":""English"",""Q3"":""USA"",""Q4"":""American "",""Q5"":""Black"",""Q6"":""Male""}",,,demographics,,,,,
6647.3,<p>Have you lived in the USA for the last 5 years or more?</p>,0,html-button-response,406,1800471,0.0-22.0,34500,List1A,black,man,,,,,,,,fiveyears,,,,,
2044,<p>Move the slider to show the extent to which you agree with the following statements.</p>,0,html-button-response,407,1803517,0.0-23.0,34500,List1A,black,man,,,,,,,,,,,,,
6115.7,,,html-slider-response,408,1810638,0.0-24.0-0.0-0.0,34500,List1A,black,man,,,,,,,,survey_race,100,,,It is pleasant to be my race.,pleasant
4492.3,,,html-slider-response,409,1815131,0.0-24.0-0.0-0.1,34500,List1A,black,man,,,,,,,,survey_race,100,,,I am similar to the average person of my race.,similar
3858.9,,,html-slider-response,410,1818991,0.0-24.0-0.0-0.2,34500,List1A,black,man,,,,,,,,survey_race,61,,,Being my age gives me a good feeling.,filler
3544.9,,,html-slider-response,411,1822537,0.0-24.0-0.0-0.3,34500,List1A,black,man,,,,,,,,survey_race,66,,,I often think about the fact that I am my age.,filler
4035.1,,,html-slider-response,412,1826573,0.0-24.0-0.0-0.4,34500,List1A,black,man,,,,,,,,survey_race,100,,,I think that my race has a lot to be proud of.,proud
3922.6,,,html-slider-response,413,1830497,0.0-24.0-0.0-0.5,34500,List1A,black,man,,,,,,,,survey_race,22,,,Getting older does not worry me.,filler
3069.3,,,html-slider-response,414,1833567,0.0-24.0-0.0-0.6,34500,List1A,black,man,,,,,,,,survey_race,48,,,I enjoy being in large groups.,filler
15380.4,,,html-slider-response,415,1848949,0.0-24.0-0.0-0.7,34500,List1A,black,man,,,,,,,,survey_race,52,,,My age is not an important part of who I am.,filler
4278.7,,,html-slider-response,416,1853229,0.0-24.0-0.0-0.8,34500,List1A,black,man,,,,,,,,survey_race,64,,,Being my race is an important part of how I see myself.,important
5147,,,html-slider-response,417,1858377,0.0-24.0-0.0-0.9,34500,List1A,black,man,,,,,,,,survey_race,74,,,I am glad to be the age I am.,filler
4132.6,,,html-slider-response,418,1862511,0.0-24.0-0.0-0.10,34500,List1A,black,man,,,,,,,,survey_race,100,,,"The older I get, the wiser I feel.",filler
3588.4,,,html-slider-response,419,1866100,0.0-24.0-0.0-0.11,34500,List1A,black,man,,,,,,,,survey_race,69,,,People my age have a lot in common with each other.,filler
3677.1,,,html-slider-response,420,1869779,0.0-24.0-0.0-0.12,34500,List1A,black,man,,,,,,,,survey_race,87,,,People of my race have a lot in common with each other.,common
3403.1,,,html-slider-response,421,1873183,0.0-24.0-0.0-0.13,34500,List1A,black,man,,,,,,,,survey_race,18,,,I often think about the fact that I am my race.,often
4145,,,html-slider-response,422,1877329,0.0-24.0-0.0-0.14,34500,List1A,black,man,,,,,,,,survey_race,83,,,I am glad to be my race.,glad
4487,,,html-slider-response,423,1881817,0.0-24.0-0.0-0.15,34500,List1A,black,man,,,,,,,,survey_race,61,,,I feel a bond with people the same age as me.,filler
3820.8,,,html-slider-response,424,1885639,0.0-24.0-0.0-0.16,34500,List1A,black,man,,,,,,,,survey_race,66,,,I consider myself an extrovert.,filler
3026.9,,,html-slider-response,425,1888667,0.0-24.0-0.0-0.17,34500,List1A,black,man,,,,,,,,survey_race,63,,,I have a lot in common with people of a similar age to me.,filler
2778.8,,,html-slider-response,426,1891447,0.0-24.0-0.0-0.18,34500,List1A,black,man,,,,,,,,survey_race,62,,,I feel solidarity with people the same age as me.,filler
3374.9,,,html-slider-response,427,1894823,0.0-24.0-0.0-0.19,34500,List1A,black,man,,,,,,,,survey_race,79,,,People of my race are very similar to each other.,verysimilar
2109.1,,,html-slider-response,428,1896932,0.0-24.0-0.0-0.20,34500,List1A,black,man,,,,,,,,survey_race,71,,,I am glad to be my age.,filler
3775.3,,,html-slider-response,429,1900708,0.0-24.0-0.0-0.21,34500,List1A,black,man,,,,,,,,survey_race,89,,,Being my race gives me a good feeling.,feeling
5399,,,html-slider-response,430,1906108,0.0-24.0-0.0-0.22,34500,List1A,black,man,,,,,,,,survey_race,84,,,I feel committed to my race.,committed
3870.8,,,html-slider-response,431,1909980,0.0-24.0-0.0-0.23,34500,List1A,black,man,,,,,,,,survey_race,73,,,I have a lot in common with the average person of my race.,average
5128.8,,,html-slider-response,432,1915110,0.0-24.0-0.0-0.24,34500,List1A,black,man,,,,,,,,survey_race,79,,,The fact that I am my race is an important part of my identity.,identity
4108.9,,,html-slider-response,433,1919220,0.0-24.0-0.0-0.25,34500,List1A,black,man,,,,,,,,survey_race,100,,,I feel solidarity with my race.,solidarity
4720.9,,,html-slider-response,434,1923942,0.0-24.0-0.0-0.26,34500,List1A,black,man,,,,,,,,survey_race,5,,,I consider myself an introvert.,filler
7250.9,,,html-slider-response,435,1931194,0.0-24.0-0.0-0.27,34500,List1A,black,man,,,,,,,,survey_race,91,,,I feel a bond with my race.,bond
4522.7,,,html-slider-response,436,1935718,0.0-24.0-1.0-0.0,34500,List1A,black,man,,,,,,,,survey_gender,36,,,I feel committed to my gender.,committed
3270.9,,,html-slider-response,437,1938990,0.0-24.0-1.0-0.1,34500,List1A,black,man,,,,,,,,survey_gender,81,,,Most of the friends in my life are very similar to me.,filler
4939.2,,,html-slider-response,438,1943930,0.0-24.0-1.0-0.2,34500,List1A,black,man,,,,,,,,survey_gender,94,,,I feel solidarity with my friends.,filler
4289.1,,,html-slider-response,439,1948220,0.0-24.0-1.0-0.3,34500,List1A,black,man,,,,,,,,survey_gender,64,,,I have a lot in common with the average person of my gender.,average
2484.6,,,html-slider-response,440,1950706,0.0-24.0-1.0-0.4,34500,List1A,black,man,,,,,,,,survey_gender,71,,,My friends understand me.,filler
3997.2,,,html-slider-response,441,1954704,0.0-24.0-1.0-0.5,34500,List1A,black,man,,,,,,,,survey_gender,55,,,It is pleasant to be my gender.,pleasant
6358.8,,,html-slider-response,442,1961064,0.0-24.0-1.0-0.6,34500,List1A,black,man,,,,,,,,survey_gender,82,,,I have a lot in common with my friends.,filler
7762.6,,,html-slider-response,443,1968828,0.0-24.0-1.0-0.7,34500,List1A,black,man,,,,,,,,survey_gender,36,,,It is not always easy for people to know what I am thinking.,filler
2358.8,,,html-slider-response,444,1971188,0.0-24.0-1.0-0.8,34500,List1A,black,man,,,,,,,,survey_gender,63,,,Being around my friends gives me a good feeling.,filler
4216.7,,,html-slider-response,445,1975406,0.0-24.0-1.0-0.9,34500,List1A,black,man,,,,,,,,survey_gender,65,,,Being my gender is an important part of how I see myself.,important
14814.9,,,html-slider-response,446,1990222,0.0-24.0-1.0-0.10,34500,List1A,black,man,,,,,,,,survey_gender,53,,,I am glad to have the friends that I have.,filler
2934.9,,,html-slider-response,447,1993158,0.0-24.0-1.0-0.11,34500,List1A,black,man,,,,,,,,survey_gender,60,,,Routine is not important to me.,filler
3205.2,,,html-slider-response,448,1996364,0.0-24.0-1.0-0.12,34500,List1A,black,man,,,,,,,,survey_gender,68,,,My friends have a lot in common with each other.,filler
4764.7,,,html-slider-response,449,2001130,0.0-24.0-1.0-0.13,34500,List1A,black,man,,,,,,,,survey_gender,82,,,I feel a bond with my friends.,filler
2960.7,,,html-slider-response,450,2004092,0.0-24.0-1.0-0.14,34500,List1A,black,man,,,,,,,,survey_gender,25,,,I feel a bond with my gender.,bond
3738.7,,,html-slider-response,451,2007832,0.0-24.0-1.0-0.15,34500,List1A,black,man,,,,,,,,survey_gender,53,,,I often think about my actions.,filler
7484.7,,,html-slider-response,452,2015318,0.0-24.0-1.0-0.16,34500,List1A,black,man,,,,,,,,survey_gender,43,,,I am similar to the average person of my gender.,similar
7425,,,html-slider-response,453,2022744,0.0-24.0-1.0-0.17,34500,List1A,black,man,,,,,,,,survey_gender,49,,,I think that my gender has a lot to be proud of.,proud
4760.9,,,html-slider-response,454,2027506,0.0-24.0-1.0-0.18,34500,List1A,black,man,,,,,,,,survey_gender,29,,,Being my gender gives me a good feeling.,feeling
2828.9,,,html-slider-response,455,2030336,0.0-24.0-1.0-0.19,34500,List1A,black,man,,,,,,,,survey_gender,16,,,The fact that I am my gender is an important part of my identity.,identity
4441.2,,,html-slider-response,456,2034778,0.0-24.0-1.0-0.20,34500,List1A,black,man,,,,,,,,survey_gender,0,,,I would say I am an animal person.,filler
3183.1,,,html-slider-response,457,2037962,0.0-24.0-1.0-0.21,34500,List1A,black,man,,,,,,,,survey_gender,100,,,I consider myself a highly empathetic person.,filler
5394.5,,,html-slider-response,458,2043358,0.0-24.0-1.0-0.22,34500,List1A,black,man,,,,,,,,survey_gender,52,,,Family is not more important to me than friendship.,filler
13270.4,,,html-slider-response,459,2056630,0.0-24.0-1.0-0.23,34500,List1A,black,man,,,,,,,,survey_gender,57,,,People of my gender are very similar to each other.,verysimilar
4568.9,,,html-slider-response,460,2061200,0.0-24.0-1.0-0.24,34500,List1A,black,man,,,,,,,,survey_gender,49,,,I am glad to be my gender.,glad
3436.5,,,html-slider-response,461,2064638,0.0-24.0-1.0-0.25,34500,List1A,black,man,,,,,,,,survey_gender,100,,,I feel solidarity with my gender.,solidarity
3241.1,,,html-slider-response,462,2067880,0.0-24.0-1.0-0.26,34500,List1A,black,man,,,,,,,,survey_gender,59,,,People of my gender have a lot in common with each other.,common
3444.5,,,html-slider-response,463,2071326,0.0-24.0-1.0-0.27,34500,List1A,black,man,,,,,,,,survey_gender,25,,,I often think about the fact that I am my gender.,often
12244.4,,,survey-text,464,2083572,0.0-25.0,34500,List1A,black,man,,,,,"{""Q0"":""ccc""}",,,worker_id,,,,,
12366.8,,,external-html,465,2097645,0.0-26.0,34500,List1A,black,man,debrief.html,,,,,,,,,,,,
