rt,stimulus,button_pressed,trial_type,trial_index,time_elapsed,internal_node_id,subject,list,ppt_race,ppt_gender,url,first_guess,correct,key_press,responses,image_type,phrase_type,test_part,response,stimulus1,stimulus2,question_type,survey_item
1510,Welcome to the experiment. Press Continue to begin.,0,html-button-response,0,1513,0.0-0.0,34797,List2A,black,man,,,,,,,,,,,,,
5735,,,external-html,1,8259,0.0-1.0,34797,List2A,black,man,consent.html,,,,,,,,,,,,
1217,"<p>On the next page, you will see portraits of 8 people and their names.</p><p>Your first task is to take a few minutes to memorise the names of these people.</p><p>You will have to recall their names during the rest of the experiment, so it is</p><p>essential that you try to memorise these people and their names as best as you can.</p><br><p><strong>You will then be tested on your memory of these names and portraits.</strong></p><br><p>The experiment will start after you have completed this memory test.</p><br><p>Ready?</p>",0,html-button-response,2,9478,0.0-2.0,34797,List2A,black,man,,,,,,,,,,,,,
5340,"<img src='img/portrait_matrix_list2.jpg' style='width:900px;height:500px;''></img><p>If you have memorised all the portraits and names and are ready to start, press Continue.</p><p><strong>Please note: Your memory of these faces will be tested 4 times during this experiment.</strong></p>",0,html-button-response,3,15839,0.0-3.0-0.0,34797,List2A,black,man,,,,,,,,,,,,,
5008,"<img src=""portrait/WW2.jpg""style=""height:400px;""></img>",3,html-button-response,4,21868,0.0-3.0-1.0,34797,List2A,black,man,,TRUE,3,,,,,,,,,,
null,CORRECT,,html-keyboard-response,5,23405,0.0-3.0-2.0-0.0,34797,List2A,black,man,,,,null,,,,,,,,,
6342,"<img src=""portrait/BW1.jpg""style=""height:400px;""></img>",0,html-button-response,6,29749,0.0-3.0-4.0,34797,List2A,black,man,,TRUE,0,,,,,,,,,,
null,CORRECT,,html-keyboard-response,7,31285,0.0-3.0-5.0-0.0,34797,List2A,black,man,,,,null,,,,,,,,,
5062,"<img src=""portrait/WM1.jpg""style=""height:400px;""></img>",6,html-button-response,8,36348,0.0-3.0-7.0,34797,List2A,black,man,,TRUE,6,,,,,,,,,,
null,CORRECT,,html-keyboard-response,9,37885,0.0-3.0-8.0-0.0,34797,List2A,black,man,,,,null,,,,,,,,,
4021,"<img src=""portrait/BM1.jpg""style=""height:400px;""></img>",4,html-button-response,10,41908,0.0-3.0-10.0,34797,List2A,black,man,,TRUE,4,,,,,,,,,,
null,CORRECT,,html-keyboard-response,11,43445,0.0-3.0-11.0-0.0,34797,List2A,black,man,,,,null,,,,,,,,,
6051,"<img src=""portrait/WM2.jpg""style=""height:400px;""></img>",7,html-button-response,12,49498,0.0-3.0-13.0,34797,List2A,black,man,,TRUE,7,,,,,,,,,,
null,CORRECT,,html-keyboard-response,13,51035,0.0-3.0-14.0-0.0,34797,List2A,black,man,,,,null,,,,,,,,,
6381,"<img src=""portrait/BW2.jpg""style=""height:400px;""></img>",2,html-button-response,14,57418,0.0-3.0-16.0,34797,List2A,black,man,,TRUE,2,,,,,,,,,,
null,CORRECT,,html-keyboard-response,15,58955,0.0-3.0-17.0-0.0,34797,List2A,black,man,,,,null,,,,,,,,,
5221,"<img src=""portrait/WW1.jpg""style=""height:400px;""></img>",1,html-button-response,16,64178,0.0-3.0-19.0,34797,List2A,black,man,,TRUE,1,,,,,,,,,,
null,CORRECT,,html-keyboard-response,17,65695,0.0-3.0-20.0-0.0,34797,List2A,black,man,,,,null,,,,,,,,,
11613,"<img src=""portrait/BM2.jpg""style=""height:400px;""></img>",5,html-button-response,18,77309,0.0-3.0-22.0,34797,List2A,black,man,,TRUE,5,,,,,,,,,,
null,CORRECT,,html-keyboard-response,19,78835,0.0-3.0-23.0-0.0,34797,List2A,black,man,,,,null,,,,,,,,,
3923,<p>You got 8 out of 8 right first time. Press Continue.</p>,0,html-button-response,20,82758,0.0-3.0-25.0,34797,List2A,black,man,,,,,,,,,,,,,
23832,"<p>In this experiment, you will view photographs of the people from the memory game interacting.</p><p>By using the <strong>exact</strong> phrase given <i>after</i> the photograph appears and recalling the correct names of the people in the photographs, form a sentence describing the interaction. You do not need to capitalise names.</p><p>Type your answer in the space provided. Please complete every sentence before moving onto the next trial.</p><p>You will only have a few seconds to memorise each given photograph and phrase before you can respond, so try your best to focus.</p><p>An example is given below. Press 'Continue' when you are ready.</p><img src='img/speaking_example.jpg' style='width:800px;height:460px;''></img>",0,html-button-response,21,107598,0.0-4.0,34797,List2A,black,man,,,,,,,,,,,,,
3161,"<p>Before the experiment starts, you will watch two example trials. Press 'Continue'.</p>",0,html-button-response,22,111778,0.0-5.0,34797,List2A,black,man,,,,,,,,,,,,,
null,<img src='img/play_eg.gif' style='height:400px;''></img>,,html-keyboard-response,23,114815,0.0-6.0,34797,List2A,black,man,,,,null,,,,,,,,,
null,<p>is playing with</p>,,html-keyboard-response,24,116825,0.0-7.0,34797,List2A,black,man,,,,null,,,,,,,,,
2693,<p><b>Answer:</b> jane is playing with ruth</p>,0,html-button-response,25,119518,0.0-8.0,34797,List2A,black,man,,,,,,,,,,,,,
null,<img src='img/dance_eg.gif' style='height:400px;''></img>,,html-keyboard-response,26,122545,0.0-9.0,34797,List2A,black,man,,,,null,,,,,,,,,
null,<p>is being entertained by</p>,,html-keyboard-response,27,124555,0.0-10.0,34797,List2A,black,man,,,,null,,,,,,,,,
6483,<p><b>Answer:</b> fred is being entertained by mike</p>,0,html-button-response,28,131038,0.0-11.0,34797,List2A,black,man,,,,,,,,,,,,,
6262,"<p>Ready to start the experiment?</p><br><p><strong>Remember to describe the picture using a full sentence,</strong></p><p><strong>that combines the names of the people with the <i>exact</i> phrase given.</strong></p><p><strong>To receive full payment you must do this correctly.</strong></p><p><strong> You do not need to capitalise names or use punctuation.</strong></p><br><p>Press 'Continue' to begin.</p>",0,html-button-response,29,138308,0.0-12.0,34797,List2A,black,man,,,,,,,,,,,,,
null,"<div style=""font-size:60px;"">+</div>",,html-keyboard-response,30,139845,0.0-13.0-0.0,34797,List2A,black,man,,,,null,,,,,,,,,
null,"<img src=""stim_listA/hug5.gif""style=""height:400px;""></stim_listA>",,html-keyboard-response,31,141865,0.0-13.0-1.0,34797,List2A,black,man,,,,null,,,,,,,,,
null,is hugging,,html-keyboard-response,32,143885,0.0-13.0-2.0,34797,List2A,black,man,,,,null,,,,,,,,,
9151,,,survey-text,33,153037,0.0-13.0-3.0,34797,List2A,black,man,,,,,"{""Q0"":""Fred is hugging luke""}","<img src=""stim_listA/hug5.gif""style=""height:400px;""></stim_listA>",is hugging,,,,,,
null,"<div style=""font-size:60px;"">+</div>",,html-keyboard-response,34,153545,0.0-13.0-0.1,34797,List2A,black,man,,,,null,,,,,,,,,
null,"<img src=""stim_listA/touch6.gif""style=""height:400px;""></stim_listA>",,html-keyboard-response,35,155565,0.0-13.0-1.1,34797,List2A,black,man,,,,null,,,,,,,,,
null,is being touched by,,html-keyboard-response,36,157575,0.0-13.0-2.1,34797,List2A,black,man,,,,null,,,,,,,,,
9003,,,survey-text,37,166581,0.0-13.0-3.1,34797,List2A,black,man,,,,,"{""Q0"":""Fred is being touched by luke""}","<img src=""stim_listA/touch6.gif""style=""height:400px;""></stim_listA>",is being touched by,,,,,,
null,"<div style=""font-size:60px;"">+</div>",,html-keyboard-response,38,167095,0.0-13.0-0.2,34797,List2A,black,man,,,,null,,,,,,,,,
null,"<img src=""stim_listA/oppose1.gif""style=""height:400px;""></stim_listA>",,html-keyboard-response,39,169115,0.0-13.0-1.2,34797,List2A,black,man,,,,null,,,,,,,,,
null,is opposing,,html-keyboard-response,40,171115,0.0-13.0-2.2,34797,List2A,black,man,,,,null,,,,,,,,,
11372,,,survey-text,41,182491,0.0-13.0-3.2,34797,List2A,black,man,,,,,"{""Q0"":""jane is opposing dave""}","<img src=""stim_listA/oppose1.gif""style=""height:400px;""></stim_listA>",is opposing,,,,,,
null,"<div style=""font-size:60px;"">+</div>",,html-keyboard-response,42,183005,0.0-13.0-0.3,34797,List2A,black,man,,,,null,,,,,,,,,
null,"<img src=""stim_listA/touch4.gif""style=""height:400px;""></stim_listA>",,html-keyboard-response,43,185024,0.0-13.0-1.3,34797,List2A,black,man,,,,null,,,,,,,,,
null,is being touched by,,html-keyboard-response,44,187026,0.0-13.0-2.3,34797,List2A,black,man,,,,null,,,,,,,,,
9183,,,survey-text,45,196210,0.0-13.0-3.3,34797,List2A,black,man,,,,,"{""Q0"":""beth is being touched by fred""}","<img src=""stim_listA/touch4.gif""style=""height:400px;""></stim_listA>",is being touched by,,,,,,
null,"<div style=""font-size:60px;"">+</div>",,html-keyboard-response,46,196715,0.0-13.0-0.4,34797,List2A,black,man,,,,null,,,,,,,,,
null,"<img src=""stim_listA/copy4.gif""style=""height:400px;""></stim_listA>",,html-keyboard-response,47,198734,0.0-13.0-1.4,34797,List2A,black,man,,,,null,,,,,,,,,
null,is being copied by,,html-keyboard-response,48,200755,0.0-13.0-2.4,34797,List2A,black,man,,,,null,,,,,,,,,
9688,,,survey-text,49,210444,0.0-13.0-3.4,34797,List2A,black,man,,,,,"{""Q0"":""fred is being copied by kate""}","<img src=""stim_listA/copy4.gif""style=""height:400px;""></stim_listA>",is being copied by,,,,,,
null,"<div style=""font-size:60px;"">+</div>",,html-keyboard-response,50,210955,0.0-13.0-0.5,34797,List2A,black,man,,,,null,,,,,,,,,
null,"<img src=""stim_listA/copy1.gif""style=""height:400px;""></stim_listA>",,html-keyboard-response,51,212975,0.0-13.0-1.5,34797,List2A,black,man,,,,null,,,,,,,,,
null,is copying,,html-keyboard-response,52,214995,0.0-13.0-2.5,34797,List2A,black,man,,,,null,,,,,,,,,
13643,,,survey-text,53,228639,0.0-13.0-3.5,34797,List2A,black,man,,,,,"{""Q0"":""ruth is copying luke""}","<img src=""stim_listA/copy1.gif""style=""height:400px;""></stim_listA>",is copying,,,,,,
null,"<div style=""font-size:60px;"">+</div>",,html-keyboard-response,54,229155,0.0-13.0-0.6,34797,List2A,black,man,,,,null,,,,,,,,,
null,"<img src=""stim_listA/greet7.gif""style=""height:400px;""></stim_listA>",,html-keyboard-response,55,231165,0.0-13.0-1.6,34797,List2A,black,man,,,,null,,,,,,,,,
null,is greeting,,html-keyboard-response,56,233185,0.0-13.0-2.6,34797,List2A,black,man,,,,null,,,,,,,,,
6516,,,survey-text,57,239702,0.0-13.0-3.6,34797,List2A,black,man,,,,,"{""Q0"":""beth is greeting jane""}","<img src=""stim_listA/greet7.gif""style=""height:400px;""></stim_listA>",is greeting,,,,,,
null,"<div style=""font-size:60px;"">+</div>",,html-keyboard-response,58,240215,0.0-13.0-0.7,34797,List2A,black,man,,,,null,,,,,,,,,
null,"<img src=""stim_listA/oppose6.gif""style=""height:400px;""></stim_listA>",,html-keyboard-response,59,242224,0.0-13.0-1.7,34797,List2A,black,man,,,,null,,,,,,,,,
null,is being opposed by,,html-keyboard-response,60,244245,0.0-13.0-2.7,34797,List2A,black,man,,,,null,,,,,,,,,
9504,,,survey-text,61,253753,0.0-13.0-3.7,34797,List2A,black,man,,,,,"{""Q0"":""luke is being opposed by fred""}","<img src=""stim_listA/oppose6.gif""style=""height:400px;""></stim_listA>",is being opposed by,,,,,,
null,"<div style=""font-size:60px;"">+</div>",,html-keyboard-response,62,254254,0.0-13.0-0.8,34797,List2A,black,man,,,,null,,,,,,,,,
null,"<img src=""stim_listA/oppose3.gif""style=""height:400px;""></stim_listA>",,html-keyboard-response,63,256265,0.0-13.0-1.8,34797,List2A,black,man,,,,null,,,,,,,,,
null,is opposing,,html-keyboard-response,64,258285,0.0-13.0-2.8,34797,List2A,black,man,,,,null,,,,,,,,,
11829,,,survey-text,65,270116,0.0-13.0-3.8,34797,List2A,black,man,,,,,"{""Q0"":""mike is opposing kate""}","<img src=""stim_listA/oppose3.gif""style=""height:400px;""></stim_listA>",is opposing,,,,,,
null,"<div style=""font-size:60px;"">+</div>",,html-keyboard-response,66,270634,0.0-13.0-0.9,34797,List2A,black,man,,,,null,,,,,,,,,
null,"<img src=""stim_listA/shout3.gif""style=""height:400px;""></stim_listA>",,html-keyboard-response,67,272654,0.0-13.0-1.9,34797,List2A,black,man,,,,null,,,,,,,,,
null,is shouting at,,html-keyboard-response,68,274675,0.0-13.0-2.9,34797,List2A,black,man,,,,null,,,,,,,,,
27668,,,survey-text,69,302346,0.0-13.0-3.9,34797,List2A,black,man,,,,,"{""Q0"":""fred is shouting at beth""}","<img src=""stim_listA/shout3.gif""style=""height:400px;""></stim_listA>",is shouting at,,,,,,
null,"<div style=""font-size:60px;"">+</div>",,html-keyboard-response,70,302855,0.0-13.0-0.10,34797,List2A,black,man,,,,null,,,,,,,,,
null,"<img src=""stim_listA/touch3.gif""style=""height:400px;""></stim_listA>",,html-keyboard-response,71,304875,0.0-13.0-1.10,34797,List2A,black,man,,,,null,,,,,,,,,
null,is touching,,html-keyboard-response,72,306875,0.0-13.0-2.10,34797,List2A,black,man,,,,null,,,,,,,,,
7736,,,survey-text,73,314611,0.0-13.0-3.10,34797,List2A,black,man,,,,,"{""Q0"":""mike is touching kate""}","<img src=""stim_listA/touch3.gif""style=""height:400px;""></stim_listA>",is touching,,,,,,
null,"<div style=""font-size:60px;"">+</div>",,html-keyboard-response,74,315125,0.0-13.0-0.11,34797,List2A,black,man,,,,null,,,,,,,,,
null,"<img src=""stim_listA/look6.gif""style=""height:400px;""></stim_listA>",,html-keyboard-response,75,317145,0.0-13.0-1.11,34797,List2A,black,man,,,,null,,,,,,,,,
null,is being looked at by,,html-keyboard-response,76,319165,0.0-13.0-2.11,34797,List2A,black,man,,,,null,,,,,,,,,
9235,,,survey-text,77,328402,0.0-13.0-3.11,34797,List2A,black,man,,,,,"{""Q0"":""mike is being looked at by luke""}","<img src=""stim_listA/look6.gif""style=""height:400px;""></stim_listA>",is being looked at by,,,,,,
null,"<div style=""font-size:60px;"">+</div>",,html-keyboard-response,78,328914,0.0-13.0-0.12,34797,List2A,black,man,,,,null,,,,,,,,,
null,"<img src=""stim_listA/shout8.gif""style=""height:400px;""></stim_listA>",,html-keyboard-response,79,330935,0.0-13.0-1.12,34797,List2A,black,man,,,,null,,,,,,,,,
null,is being shouted at by,,html-keyboard-response,80,332945,0.0-13.0-2.12,34797,List2A,black,man,,,,null,,,,,,,,,
19695,,,survey-text,81,352644,0.0-13.0-3.12,34797,List2A,black,man,,,,,"{""Q0"":""kate is being shouted at by jane""}","<img src=""stim_listA/shout8.gif""style=""height:400px;""></stim_listA>",is being shouted at by,,,,,,
null,"<div style=""font-size:60px;"">+</div>",,html-keyboard-response,82,353154,0.0-13.0-0.13,34797,List2A,black,man,,,,null,,,,,,,,,
null,"<img src=""stim_listA/challenge5.gif""style=""height:400px;""></stim_listA>",,html-keyboard-response,83,355170,0.0-13.0-1.13,34797,List2A,black,man,,,,null,,,,,,,,,
null,is challenging,,html-keyboard-response,84,357174,0.0-13.0-2.13,34797,List2A,black,man,,,,null,,,,,,,,,
6216,,,survey-text,85,363394,0.0-13.0-3.13,34797,List2A,black,man,,,,,"{""Q0"":""fred is challenging dave""}","<img src=""stim_listA/challenge5.gif""style=""height:400px;""></stim_listA>",is challenging,,,,,,
null,"<div style=""font-size:60px;"">+</div>",,html-keyboard-response,86,363915,0.0-13.0-0.14,34797,List2A,black,man,,,,null,,,,,,,,,
null,"<img src=""stim_listA/hug4.gif""style=""height:400px;""></stim_listA>",,html-keyboard-response,87,365935,0.0-13.0-1.14,34797,List2A,black,man,,,,null,,,,,,,,,
null,is being hugged by,,html-keyboard-response,88,367954,0.0-13.0-2.14,34797,List2A,black,man,,,,null,,,,,,,,,
8188,,,survey-text,89,376145,0.0-13.0-3.14,34797,List2A,black,man,,,,,"{""Q0"":""mike is being hugged by kate""}","<img src=""stim_listA/hug4.gif""style=""height:400px;""></stim_listA>",is being hugged by,,,,,,
null,"<div style=""font-size:60px;"">+</div>",,html-keyboard-response,90,376654,0.0-13.0-0.15,34797,List2A,black,man,,,,null,,,,,,,,,
null,"<img src=""stim_listA/seduce6.gif""style=""height:400px;""></stim_listA>",,html-keyboard-response,91,378674,0.0-13.0-1.15,34797,List2A,black,man,,,,null,,,,,,,,,
null,is being seduced by,,html-keyboard-response,92,380695,0.0-13.0-2.15,34797,List2A,black,man,,,,null,,,,,,,,,
28887,,,survey-text,93,409586,0.0-13.0-3.15,34797,List2A,black,man,,,,,"{""Q0"":""fred is being seduced by dave""}","<img src=""stim_listA/seduce6.gif""style=""height:400px;""></stim_listA>",is being seduced by,,,,,,
null,"<div style=""font-size:60px;"">+</div>",,html-keyboard-response,94,410104,0.0-13.0-0.16,34797,List2A,black,man,,,,null,,,,,,,,,
null,"<img src=""stim_listA/hug2.gif""style=""height:400px;""></stim_listA>",,html-keyboard-response,95,412124,0.0-13.0-1.16,34797,List2A,black,man,,,,null,,,,,,,,,
null,is being hugged by,,html-keyboard-response,96,414144,0.0-13.0-2.16,34797,List2A,black,man,,,,null,,,,,,,,,
8288,,,survey-text,97,422434,0.0-13.0-3.16,34797,List2A,black,man,,,,,"{""Q0"":""dave is being hugged by jane""}","<img src=""stim_listA/hug2.gif""style=""height:400px;""></stim_listA>",is being hugged by,,,,,,
null,"<div style=""font-size:60px;"">+</div>",,html-keyboard-response,98,422955,0.0-13.0-0.17,34797,List2A,black,man,,,,null,,,,,,,,,
null,"<img src=""stim_listA/copy3.gif""style=""height:400px;""></stim_listA>",,html-keyboard-response,99,424975,0.0-13.0-1.17,34797,List2A,black,man,,,,null,,,,,,,,,
null,is copying,,html-keyboard-response,100,426995,0.0-13.0-2.17,34797,List2A,black,man,,,,null,,,,,,,,,
6974,,,survey-text,101,433970,0.0-13.0-3.17,34797,List2A,black,man,,,,,"{""Q0"":""mike is copying beth""}","<img src=""stim_listA/copy3.gif""style=""height:400px;""></stim_listA>",is copying,,,,,,
null,"<div style=""font-size:60px;"">+</div>",,html-keyboard-response,102,434485,0.0-13.0-0.18,34797,List2A,black,man,,,,null,,,,,,,,,
null,"<img src=""stim_listA/seduce2.gif""style=""height:400px;""></stim_listA>",,html-keyboard-response,103,436495,0.0-13.0-1.18,34797,List2A,black,man,,,,null,,,,,,,,,
null,is being seduced by,,html-keyboard-response,104,438515,0.0-13.0-2.18,34797,List2A,black,man,,,,null,,,,,,,,,
10053,,,survey-text,105,448572,0.0-13.0-3.18,34797,List2A,black,man,,,,,"{""Q0"":""dave is being seduced by ruth""}","<img src=""stim_listA/seduce2.gif""style=""height:400px;""></stim_listA>",is being seduced by,,,,,,
null,"<div style=""font-size:60px;"">+</div>",,html-keyboard-response,106,449075,0.0-13.0-0.19,34797,List2A,black,man,,,,null,,,,,,,,,
null,"<img src=""stim_listA/greet1.gif""style=""height:400px;""></stim_listA>",,html-keyboard-response,107,451094,0.0-13.0-1.19,34797,List2A,black,man,,,,null,,,,,,,,,
null,is greeting,,html-keyboard-response,108,453114,0.0-13.0-2.19,34797,List2A,black,man,,,,null,,,,,,,,,
36969,,,survey-text,109,490086,0.0-13.0-3.19,34797,List2A,black,man,,,,,"{""Q0"":""dave is greeting ruth""}","<img src=""stim_listA/greet1.gif""style=""height:400px;""></stim_listA>",is greeting,,,,,,
6400,"<img src='img/portrait_matrix_list2.jpg' style='width:900px;height:500px;''></img><p>If you have memorised all the portraits and names and are ready to start, press Continue.</p><p><strong>Please note: Your memory of these faces will be tested 4 times during this experiment.</strong></p>",0,html-button-response,110,496488,0.0-14.0-0.0,34797,List2A,black,man,,,,,,,,,,,,,
3593,"<img src=""portrait/WW2.jpg""style=""height:400px;""></img>",3,html-button-response,111,501087,0.0-14.0-1.0,34797,List2A,black,man,,TRUE,3,,,,,,,,,,
null,CORRECT,,html-keyboard-response,112,502625,0.0-14.0-2.0-0.0,34797,List2A,black,man,,,,null,,,,,,,,,
7491,"<img src=""portrait/BM2.jpg""style=""height:400px;""></img>",5,html-button-response,113,510117,0.0-14.0-4.0,34797,List2A,black,man,,TRUE,5,,,,,,,,,,
null,CORRECT,,html-keyboard-response,114,511644,0.0-14.0-5.0-0.0,34797,List2A,black,man,,,,null,,,,,,,,,
3501,"<img src=""portrait/WW1.jpg""style=""height:400px;""></img>",1,html-button-response,115,515147,0.0-14.0-7.0,34797,List2A,black,man,,TRUE,1,,,,,,,,,,
null,CORRECT,,html-keyboard-response,116,516684,0.0-14.0-8.0-0.0,34797,List2A,black,man,,,,null,,,,,,,,,
2052,"<img src=""portrait/BM1.jpg""style=""height:400px;""></img>",4,html-button-response,117,518737,0.0-14.0-10.0,34797,List2A,black,man,,TRUE,4,,,,,,,,,,
null,CORRECT,,html-keyboard-response,118,520275,0.0-14.0-11.0-0.0,34797,List2A,black,man,,,,null,,,,,,,,,
5401,"<img src=""portrait/BW1.jpg""style=""height:400px;""></img>",0,html-button-response,119,525677,0.0-14.0-13.0,34797,List2A,black,man,,TRUE,0,,,,,,,,,,
null,CORRECT,,html-keyboard-response,120,527215,0.0-14.0-14.0-0.0,34797,List2A,black,man,,,,null,,,,,,,,,
4481,"<img src=""portrait/BW2.jpg""style=""height:400px;""></img>",2,html-button-response,121,531697,0.0-14.0-16.0,34797,List2A,black,man,,TRUE,2,,,,,,,,,,
null,CORRECT,,html-keyboard-response,122,533235,0.0-14.0-17.0-0.0,34797,List2A,black,man,,,,null,,,,,,,,,
2401,"<img src=""portrait/WM2.jpg""style=""height:400px;""></img>",7,html-button-response,123,535638,0.0-14.0-19.0,34797,List2A,black,man,,TRUE,7,,,,,,,,,,
null,CORRECT,,html-keyboard-response,124,537175,0.0-14.0-20.0-0.0,34797,List2A,black,man,,,,null,,,,,,,,,
2060,"<img src=""portrait/WM1.jpg""style=""height:400px;""></img>",6,html-button-response,125,539237,0.0-14.0-22.0,34797,List2A,black,man,,TRUE,6,,,,,,,,,,
null,CORRECT,,html-keyboard-response,126,540774,0.0-14.0-23.0-0.0,34797,List2A,black,man,,,,null,,,,,,,,,
1602,<p>You got 8 out of 8 right first time. Press Continue.</p>,0,html-button-response,127,542377,0.0-14.0-25.0,34797,List2A,black,man,,,,,,,,,,,,,
null,"<div style=""font-size:60px;"">+</div>",,html-keyboard-response,128,543910,0.0-15.0-0.0,34797,List2A,black,man,,,,null,,,,,,,,,
null,"<img src=""stim_listA/shout1.gif""style=""height:400px;""></stim_listA>",,html-keyboard-response,129,545914,0.0-15.0-1.0,34797,List2A,black,man,,,,null,,,,,,,,,
null,is shouting at,,html-keyboard-response,130,547935,0.0-15.0-2.0,34797,List2A,black,man,,,,null,,,,,,,,,
9110,,,survey-text,131,557048,0.0-15.0-3.0,34797,List2A,black,man,,,,,"{""Q0"":""luke is shouting at ruth""}","<img src=""stim_listA/shout1.gif""style=""height:400px;""></stim_listA>",is shouting at,,,,,,
null,"<div style=""font-size:60px;"">+</div>",,html-keyboard-response,132,557564,0.0-15.0-0.1,34797,List2A,black,man,,,,null,,,,,,,,,
null,"<img src=""stim_listA/hug6.gif""style=""height:400px;""></stim_listA>",,html-keyboard-response,133,559575,0.0-15.0-1.1,34797,List2A,black,man,,,,null,,,,,,,,,
null,is being hugged by,,html-keyboard-response,134,561595,0.0-15.0-2.1,34797,List2A,black,man,,,,null,,,,,,,,,
8050,,,survey-text,135,569648,0.0-15.0-3.1,34797,List2A,black,man,,,,,"{""Q0"":""dave is being hugged by mike""}","<img src=""stim_listA/hug6.gif""style=""height:400px;""></stim_listA>",is being hugged by,,,,,,
null,"<div style=""font-size:60px;"">+</div>",,html-keyboard-response,136,570154,0.0-15.0-0.2,34797,List2A,black,man,,,,null,,,,,,,,,
null,"<img src=""stim_listA/hug1.gif""style=""height:400px;""></stim_listA>",,html-keyboard-response,137,572175,0.0-15.0-1.2,34797,List2A,black,man,,,,null,,,,,,,,,
null,is hugging,,html-keyboard-response,138,574194,0.0-15.0-2.2,34797,List2A,black,man,,,,null,,,,,,,,,
5584,,,survey-text,139,579780,0.0-15.0-3.2,34797,List2A,black,man,,,,,"{""Q0"":""luke is hugging ruth""}","<img src=""stim_listA/hug1.gif""style=""height:400px;""></stim_listA>",is hugging,,,,,,
null,"<div style=""font-size:60px;"">+</div>",,html-keyboard-response,140,580294,0.0-15.0-0.3,34797,List2A,black,man,,,,null,,,,,,,,,
null,"<img src=""stim_listA/hug8.gif""style=""height:400px;""></stim_listA>",,html-keyboard-response,141,582313,0.0-15.0-1.3,34797,List2A,black,man,,,,null,,,,,,,,,
null,is being hugged by,,html-keyboard-response,142,584315,0.0-15.0-2.3,34797,List2A,black,man,,,,null,,,,,,,,,
10725,,,survey-text,143,595042,0.0-15.0-3.3,34797,List2A,black,man,,,,,"{""Q0"":""kate is being hugged by jane""}","<img src=""stim_listA/hug8.gif""style=""height:400px;""></stim_listA>",is being hugged by,,,,,,
null,"<div style=""font-size:60px;"">+</div>",,html-keyboard-response,144,595545,0.0-15.0-0.4,34797,List2A,black,man,,,,null,,,,,,,,,
null,"<img src=""stim_listA/look8.gif""style=""height:400px;""></stim_listA>",,html-keyboard-response,145,597554,0.0-15.0-1.4,34797,List2A,black,man,,,,null,,,,,,,,,
null,is being looked at by,,html-keyboard-response,146,599574,0.0-15.0-2.4,34797,List2A,black,man,,,,null,,,,,,,,,
13952,,,survey-text,147,613529,0.0-15.0-3.4,34797,List2A,black,man,,,,,"{""Q0"":""kate is being looked at by jane""}","<img src=""stim_listA/look8.gif""style=""height:400px;""></stim_listA>",is being looked at by,,,,,,
null,"<div style=""font-size:60px;"">+</div>",,html-keyboard-response,148,614034,0.0-15.0-0.5,34797,List2A,black,man,,,,null,,,,,,,,,
null,"<img src=""stim_listA/shout5.gif""style=""height:400px;""></stim_listA>",,html-keyboard-response,149,616045,0.0-15.0-1.5,34797,List2A,black,man,,,,null,,,,,,,,,
null,is shouting at,,html-keyboard-response,150,618065,0.0-15.0-2.5,34797,List2A,black,man,,,,null,,,,,,,,,
9132,,,survey-text,151,627200,0.0-15.0-3.5,34797,List2A,black,man,,,,,"{""Q0"":""fred is shouting at luke""}","<img src=""stim_listA/shout5.gif""style=""height:400px;""></stim_listA>",is shouting at,,,,,,
null,"<div style=""font-size:60px;"">+</div>",,html-keyboard-response,152,627714,0.0-15.0-0.6,34797,List2A,black,man,,,,null,,,,,,,,,
null,"<img src=""stim_listA/kiss8.gif""style=""height:400px;""></stim_listA>",,html-keyboard-response,153,629734,0.0-15.0-1.6,34797,List2A,black,man,,,,null,,,,,,,,,
null,is being kissed by,,html-keyboard-response,154,631744,0.0-15.0-2.6,34797,List2A,black,man,,,,null,,,,,,,,,
8143,,,survey-text,155,639889,0.0-15.0-3.6,34797,List2A,black,man,,,,,"{""Q0"":""kate is being kissed by jane""}","<img src=""stim_listA/kiss8.gif""style=""height:400px;""></stim_listA>",is being kissed by,,,,,,
null,"<div style=""font-size:60px;"">+</div>",,html-keyboard-response,156,640405,0.0-15.0-0.7,34797,List2A,black,man,,,,null,,,,,,,,,
null,"<img src=""stim_listA/shout6.gif""style=""height:400px;""></stim_listA>",,html-keyboard-response,157,642424,0.0-15.0-1.7,34797,List2A,black,man,,,,null,,,,,,,,,
null,is being shouted at by,,html-keyboard-response,158,644445,0.0-15.0-2.7,34797,List2A,black,man,,,,null,,,,,,,,,
10379,,,survey-text,159,654827,0.0-15.0-3.7,34797,List2A,black,man,,,,,"{""Q0"":""dave is being shouted at by mike""}","<img src=""stim_listA/shout6.gif""style=""height:400px;""></stim_listA>",is being shouted at by,,,,,,
null,"<div style=""font-size:60px;"">+</div>",,html-keyboard-response,160,655334,0.0-15.0-0.8,34797,List2A,black,man,,,,null,,,,,,,,,
null,"<img src=""stim_listA/greet5.gif""style=""height:400px;""></stim_listA>",,html-keyboard-response,161,657354,0.0-15.0-1.8,34797,List2A,black,man,,,,null,,,,,,,,,
null,is greeting,,html-keyboard-response,162,659374,0.0-15.0-2.8,34797,List2A,black,man,,,,null,,,,,,,,,
6275,,,survey-text,163,665653,0.0-15.0-3.8,34797,List2A,black,man,,,,,"{""Q0"":""fred is greeting dave""}","<img src=""stim_listA/greet5.gif""style=""height:400px;""></stim_listA>",is greeting,,,,,,
null,"<div style=""font-size:60px;"">+</div>",,html-keyboard-response,164,666154,0.0-15.0-0.9,34797,List2A,black,man,,,,null,,,,,,,,,
null,"<img src=""stim_listA/seduce4.gif""style=""height:400px;""></stim_listA>",,html-keyboard-response,165,668174,0.0-15.0-1.9,34797,List2A,black,man,,,,null,,,,,,,,,
null,is being seduced by,,html-keyboard-response,166,670194,0.0-15.0-2.9,34797,List2A,black,man,,,,null,,,,,,,,,
8563,,,survey-text,167,678760,0.0-15.0-3.9,34797,List2A,black,man,,,,,"{""Q0"":""mike is being seduced by beth""}","<img src=""stim_listA/seduce4.gif""style=""height:400px;""></stim_listA>",is being seduced by,,,,,,
null,"<div style=""font-size:60px;"">+</div>",,html-keyboard-response,168,679264,0.0-15.0-0.10,34797,List2A,black,man,,,,null,,,,,,,,,
null,"<img src=""stim_listA/oppose7.gif""style=""height:400px;""></stim_listA>",,html-keyboard-response,169,681284,0.0-15.0-1.10,34797,List2A,black,man,,,,null,,,,,,,,,
null,is opposing,,html-keyboard-response,170,683304,0.0-15.0-2.10,34797,List2A,black,man,,,,null,,,,,,,,,
7475,,,survey-text,171,690783,0.0-15.0-3.10,34797,List2A,black,man,,,,,"{""Q0"":""kate is opposing jane""}","<img src=""stim_listA/oppose7.gif""style=""height:400px;""></stim_listA>",is opposing,,,,,,
null,"<div style=""font-size:60px;"">+</div>",,html-keyboard-response,172,691294,0.0-15.0-0.11,34797,List2A,black,man,,,,null,,,,,,,,,
null,"<img src=""stim_listA/kiss6.gif""style=""height:400px;""></stim_listA>",,html-keyboard-response,173,693304,0.0-15.0-1.11,34797,List2A,black,man,,,,null,,,,,,,,,
null,is being kissed by,,html-keyboard-response,174,695304,0.0-15.0-2.11,34797,List2A,black,man,,,,null,,,,,,,,,
8614,,,survey-text,175,703921,0.0-15.0-3.11,34797,List2A,black,man,,,,,"{""Q0"":""dave is being kissed by mike""}","<img src=""stim_listA/kiss6.gif""style=""height:400px;""></stim_listA>",is being kissed by,,,,,,
null,"<div style=""font-size:60px;"">+</div>",,html-keyboard-response,176,704425,0.0-15.0-0.12,34797,List2A,black,man,,,,null,,,,,,,,,
null,"<img src=""stim_listA/greet6.gif""style=""height:400px;""></stim_listA>",,html-keyboard-response,177,706444,0.0-15.0-1.12,34797,List2A,black,man,,,,null,,,,,,,,,
null,is being greeted by,,html-keyboard-response,178,708464,0.0-15.0-2.12,34797,List2A,black,man,,,,null,,,,,,,,,
6398,,,survey-text,179,714864,0.0-15.0-3.12,34797,List2A,black,man,,,,,"{""Q0"":""mike is being greeted by luke""}","<img src=""stim_listA/greet6.gif""style=""height:400px;""></stim_listA>",is being greeted by,,,,,,
null,"<div style=""font-size:60px;"">+</div>",,html-keyboard-response,180,715383,0.0-15.0-0.13,34797,List2A,black,man,,,,null,,,,,,,,,
null,"<img src=""stim_listA/challenge6.gif""style=""height:400px;""></stim_listA>",,html-keyboard-response,181,717405,0.0-15.0-1.13,34797,List2A,black,man,,,,null,,,,,,,,,
null,is being challenged by,,html-keyboard-response,182,719423,0.0-15.0-2.13,34797,List2A,black,man,,,,null,,,,,,,,,
8796,,,survey-text,183,728223,0.0-15.0-3.13,34797,List2A,black,man,,,,,"{""Q0"":""mike is being challenged by luke""}","<img src=""stim_listA/challenge6.gif""style=""height:400px;""></stim_listA>",is being challenged by,,,,,,
null,"<div style=""font-size:60px;"">+</div>",,html-keyboard-response,184,728744,0.0-15.0-0.14,34797,List2A,black,man,,,,null,,,,,,,,,
null,"<img src=""stim_listA/seduce1.gif""style=""height:400px;""></stim_listA>",,html-keyboard-response,185,730764,0.0-15.0-1.14,34797,List2A,black,man,,,,null,,,,,,,,,
null,is seducing,,html-keyboard-response,186,732784,0.0-15.0-2.14,34797,List2A,black,man,,,,null,,,,,,,,,
8091,,,survey-text,187,740878,0.0-15.0-3.14,34797,List2A,black,man,,,,,"{""Q0"":""luke is seducing jane""}","<img src=""stim_listA/seduce1.gif""style=""height:400px;""></stim_listA>",is seducing,,,,,,
null,"<div style=""font-size:60px;"">+</div>",,html-keyboard-response,188,741384,0.0-15.0-0.15,34797,List2A,black,man,,,,null,,,,,,,,,
null,"<img src=""stim_listA/touch8.gif""style=""height:400px;""></stim_listA>",,html-keyboard-response,189,743404,0.0-15.0-1.15,34797,List2A,black,man,,,,null,,,,,,,,,
null,is being touched by,,html-keyboard-response,190,745424,0.0-15.0-2.15,34797,List2A,black,man,,,,null,,,,,,,,,
6818,,,survey-text,191,752246,0.0-15.0-3.15,34797,List2A,black,man,,,,,"{""Q0"":""beth is being touched by ruth""}","<img src=""stim_listA/touch8.gif""style=""height:400px;""></stim_listA>",is being touched by,,,,,,
null,"<div style=""font-size:60px;"">+</div>",,html-keyboard-response,192,752764,0.0-15.0-0.16,34797,List2A,black,man,,,,null,,,,,,,,,
null,"<img src=""stim_listA/challenge3.gif""style=""height:400px;""></stim_listA>",,html-keyboard-response,193,754784,0.0-15.0-1.16,34797,List2A,black,man,,,,null,,,,,,,,,
null,is challenging,,html-keyboard-response,194,756804,0.0-15.0-2.16,34797,List2A,black,man,,,,null,,,,,,,,,
5491,,,survey-text,195,762297,0.0-15.0-3.16,34797,List2A,black,man,,,,,"{""Q0"":""mike is challenging beth""}","<img src=""stim_listA/challenge3.gif""style=""height:400px;""></stim_listA>",is challenging,,,,,,
null,"<div style=""font-size:60px;"">+</div>",,html-keyboard-response,196,762804,0.0-15.0-0.17,34797,List2A,black,man,,,,null,,,,,,,,,
null,"<img src=""stim_listA/kiss2.gif""style=""height:400px;""></stim_listA>",,html-keyboard-response,197,764824,0.0-15.0-1.17,34797,List2A,black,man,,,,null,,,,,,,,,
null,is being kissed by,,html-keyboard-response,198,766843,0.0-15.0-2.17,34797,List2A,black,man,,,,null,,,,,,,,,
5910,,,survey-text,199,772756,0.0-15.0-3.17,34797,List2A,black,man,,,,,"{""Q0"":""dave is being kissed by jane""}","<img src=""stim_listA/kiss2.gif""style=""height:400px;""></stim_listA>",is being kissed by,,,,,,
null,"<div style=""font-size:60px;"">+</div>",,html-keyboard-response,200,773264,0.0-15.0-0.18,34797,List2A,black,man,,,,null,,,,,,,,,
null,"<img src=""stim_listA/oppose4.gif""style=""height:400px;""></stim_listA>",,html-keyboard-response,201,775268,0.0-15.0-1.18,34797,List2A,black,man,,,,null,,,,,,,,,
null,is being opposed by,,html-keyboard-response,202,777284,0.0-15.0-2.18,34797,List2A,black,man,,,,null,,,,,,,,,
9425,,,survey-text,203,786710,0.0-15.0-3.18,34797,List2A,black,man,,,,,"{""Q0"":""fred is being opposed by beth""}","<img src=""stim_listA/oppose4.gif""style=""height:400px;""></stim_listA>",is being opposed by,,,,,,
null,"<div style=""font-size:60px;"">+</div>",,html-keyboard-response,204,787221,0.0-15.0-0.19,34797,List2A,black,man,,,,null,,,,,,,,,
null,"<img src=""stim_listA/shout2.gif""style=""height:400px;""></stim_listA>",,html-keyboard-response,205,789224,0.0-15.0-1.19,34797,List2A,black,man,,,,null,,,,,,,,,
null,is being shouted at by,,html-keyboard-response,206,791244,0.0-15.0-2.19,34797,List2A,black,man,,,,null,,,,,,,,,
8788,,,survey-text,207,800034,0.0-15.0-3.19,34797,List2A,black,man,,,,,"{""Q0"":""dave is being shouted at by jane""}","<img src=""stim_listA/shout2.gif""style=""height:400px;""></stim_listA>",is being shouted at by,,,,,,
6332,"<img src='img/portrait_matrix_list2.jpg' style='width:900px;height:500px;''></img><p>If you have memorised all the portraits and names and are ready to start, press Continue.</p><p><strong>Please note: Your memory of these faces will be tested 4 times during this experiment.</strong></p>",0,html-button-response,208,806367,0.0-16.0-0.0,34797,List2A,black,man,,,,,,,,,,,,,
1941,"<img src=""portrait/WM2.jpg""style=""height:400px;""></img>",7,html-button-response,209,809326,0.0-16.0-1.0,34797,List2A,black,man,,TRUE,7,,,,,,,,,,
null,CORRECT,,html-keyboard-response,210,810864,0.0-16.0-2.0-0.0,34797,List2A,black,man,,,,null,,,,,,,,,
2398,"<img src=""portrait/BM2.jpg""style=""height:400px;""></img>",5,html-button-response,211,813264,0.0-16.0-4.0,34797,List2A,black,man,,TRUE,5,,,,,,,,,,
null,CORRECT,,html-keyboard-response,212,814783,0.0-16.0-5.0-0.0,34797,List2A,black,man,,,,null,,,,,,,,,
2002,"<img src=""portrait/WM1.jpg""style=""height:400px;""></img>",6,html-button-response,213,816786,0.0-16.0-7.0,34797,List2A,black,man,,TRUE,6,,,,,,,,,,
null,CORRECT,,html-keyboard-response,214,818324,0.0-16.0-8.0-0.0,34797,List2A,black,man,,,,null,,,,,,,,,
2142,"<img src=""portrait/WW1.jpg""style=""height:400px;""></img>",1,html-button-response,215,820467,0.0-16.0-10.0,34797,List2A,black,man,,TRUE,1,,,,,,,,,,
null,CORRECT,,html-keyboard-response,216,822004,0.0-16.0-11.0-0.0,34797,List2A,black,man,,,,null,,,,,,,,,
2151,"<img src=""portrait/BM1.jpg""style=""height:400px;""></img>",4,html-button-response,217,824157,0.0-16.0-13.0,34797,List2A,black,man,,TRUE,4,,,,,,,,,,
null,CORRECT,,html-keyboard-response,218,825694,0.0-16.0-14.0-0.0,34797,List2A,black,man,,,,null,,,,,,,,,
2721,"<img src=""portrait/BW1.jpg""style=""height:400px;""></img>",0,html-button-response,219,828416,0.0-16.0-16.0,34797,List2A,black,man,,TRUE,0,,,,,,,,,,
null,CORRECT,,html-keyboard-response,220,829954,0.0-16.0-17.0-0.0,34797,List2A,black,man,,,,null,,,,,,,,,
2481,"<img src=""portrait/BW2.jpg""style=""height:400px;""></img>",2,html-button-response,221,832436,0.0-16.0-19.0,34797,List2A,black,man,,TRUE,2,,,,,,,,,,
null,CORRECT,,html-keyboard-response,222,833973,0.0-16.0-20.0-0.0,34797,List2A,black,man,,,,null,,,,,,,,,
1882,"<img src=""portrait/WW2.jpg""style=""height:400px;""></img>",3,html-button-response,223,835856,0.0-16.0-22.0,34797,List2A,black,man,,TRUE,3,,,,,,,,,,
null,CORRECT,,html-keyboard-response,224,837394,0.0-16.0-23.0-0.0,34797,List2A,black,man,,,,null,,,,,,,,,
2342,<p>You got 8 out of 8 right first time. Press Continue.</p>,0,html-button-response,225,839736,0.0-16.0-25.0,34797,List2A,black,man,,,,,,,,,,,,,
null,"<div style=""font-size:60px;"">+</div>",,html-keyboard-response,226,841263,0.0-17.0-0.0,34797,List2A,black,man,,,,null,,,,,,,,,
null,"<img src=""stim_listA/kiss5.gif""style=""height:400px;""></stim_listA>",,html-keyboard-response,227,843284,0.0-17.0-1.0,34797,List2A,black,man,,,,null,,,,,,,,,
null,is kissing,,html-keyboard-response,228,845293,0.0-17.0-2.0,34797,List2A,black,man,,,,null,,,,,,,,,
4685,,,survey-text,229,849982,0.0-17.0-3.0,34797,List2A,black,man,,,,,"{""Q0"":""fred is kissing luke""}","<img src=""stim_listA/kiss5.gif""style=""height:400px;""></stim_listA>",is kissing,,,,,,
null,"<div style=""font-size:60px;"">+</div>",,html-keyboard-response,230,850494,0.0-17.0-0.1,34797,List2A,black,man,,,,null,,,,,,,,,
null,"<img src=""stim_listA/challenge8.gif""style=""height:400px;""></stim_listA>",,html-keyboard-response,231,852514,0.0-17.0-1.1,34797,List2A,black,man,,,,null,,,,,,,,,
null,is being challenged by,,html-keyboard-response,232,854534,0.0-17.0-2.1,34797,List2A,black,man,,,,null,,,,,,,,,
15579,,,survey-text,233,870115,0.0-17.0-3.1,34797,List2A,black,man,,,,,"{""Q0"":""kate is being challenged by ruth""}","<img src=""stim_listA/challenge8.gif""style=""height:400px;""></stim_listA>",is being challenged by,,,,,,
null,"<div style=""font-size:60px;"">+</div>",,html-keyboard-response,234,870624,0.0-17.0-0.2,34797,List2A,black,man,,,,null,,,,,,,,,
null,"<img src=""stim_listA/copy6.gif""style=""height:400px;""></stim_listA>",,html-keyboard-response,235,872634,0.0-17.0-1.2,34797,List2A,black,man,,,,null,,,,,,,,,
null,is being copied by,,html-keyboard-response,236,874634,0.0-17.0-2.2,34797,List2A,black,man,,,,null,,,,,,,,,
4641,,,survey-text,237,879277,0.0-17.0-3.2,34797,List2A,black,man,,,,,"{""Q0"":""mike is being copied by luke""}","<img src=""stim_listA/copy6.gif""style=""height:400px;""></stim_listA>",is being copied by,,,,,,
null,"<div style=""font-size:60px;"">+</div>",,html-keyboard-response,238,879794,0.0-17.0-0.3,34797,List2A,black,man,,,,null,,,,,,,,,
null,"<img src=""stim_listA/greet8.gif""style=""height:400px;""></stim_listA>",,html-keyboard-response,239,881814,0.0-17.0-1.3,34797,List2A,black,man,,,,null,,,,,,,,,
null,is being greeted by,,html-keyboard-response,240,883834,0.0-17.0-2.3,34797,List2A,black,man,,,,null,,,,,,,,,
13159,,,survey-text,241,896996,0.0-17.0-3.3,34797,List2A,black,man,,,,,"{""Q0"":""kate is being greeted by ruth""}","<img src=""stim_listA/greet8.gif""style=""height:400px;""></stim_listA>",is being greeted by,,,,,,
null,"<div style=""font-size:60px;"">+</div>",,html-keyboard-response,242,897514,0.0-17.0-0.4,34797,List2A,black,man,,,,null,,,,,,,,,
null,"<img src=""stim_listA/challenge7.gif""style=""height:400px;""></stim_listA>",,html-keyboard-response,243,899534,0.0-17.0-1.4,34797,List2A,black,man,,,,null,,,,,,,,,
null,is challenging,,html-keyboard-response,244,901544,0.0-17.0-2.4,34797,List2A,black,man,,,,null,,,,,,,,,
11293,,,survey-text,245,912839,0.0-17.0-3.4,34797,List2A,black,man,,,,,"{""Q0"":""jane is challenging beth""}","<img src=""stim_listA/challenge7.gif""style=""height:400px;""></stim_listA>",is challenging,,,,,,
null,"<div style=""font-size:60px;"">+</div>",,html-keyboard-response,246,913343,0.0-17.0-0.5,34797,List2A,black,man,,,,null,,,,,,,,,
null,"<img src=""stim_listA/shout4.gif""style=""height:400px;""></stim_listA>",,html-keyboard-response,247,915364,0.0-17.0-1.5,34797,List2A,black,man,,,,null,,,,,,,,,
null,is being shouted at by,,html-keyboard-response,248,917383,0.0-17.0-2.5,34797,List2A,black,man,,,,null,,,,,,,,,
8739,,,survey-text,249,926125,0.0-17.0-3.5,34797,List2A,black,man,,,,,"{""Q0"":""mike is being shouted at by kate""}","<img src=""stim_listA/shout4.gif""style=""height:400px;""></stim_listA>",is being shouted at by,,,,,,
null,"<div style=""font-size:60px;"">+</div>",,html-keyboard-response,250,926644,0.0-17.0-0.6,34797,List2A,black,man,,,,null,,,,,,,,,
null,"<img src=""stim_listA/touch1.gif""style=""height:400px;""></stim_listA>",,html-keyboard-response,251,928663,0.0-17.0-1.6,34797,List2A,black,man,,,,null,,,,,,,,,
null,is touching,,html-keyboard-response,252,930684,0.0-17.0-2.6,34797,List2A,black,man,,,,null,,,,,,,,,
9283,,,survey-text,253,939969,0.0-17.0-3.6,34797,List2A,black,man,,,,,"{""Q0"":""dave is touching jane""}","<img src=""stim_listA/touch1.gif""style=""height:400px;""></stim_listA>",is touching,,,,,,
null,"<div style=""font-size:60px;"">+</div>",,html-keyboard-response,254,940484,0.0-17.0-0.7,34797,List2A,black,man,,,,null,,,,,,,,,
null,"<img src=""stim_listA/look2.gif""style=""height:400px;""></stim_listA>",,html-keyboard-response,255,942504,0.0-17.0-1.7,34797,List2A,black,man,,,,null,,,,,,,,,
null,is being looked at by,,html-keyboard-response,256,944524,0.0-17.0-2.7,34797,List2A,black,man,,,,null,,,,,,,,,
8689,,,survey-text,257,953216,0.0-17.0-3.7,34797,List2A,black,man,,,,,"{""Q0"":""dave is being looked at by jane""}","<img src=""stim_listA/look2.gif""style=""height:400px;""></stim_listA>",is being looked at by,,,,,,
null,"<div style=""font-size:60px;"">+</div>",,html-keyboard-response,258,953734,0.0-17.0-0.8,34797,List2A,black,man,,,,null,,,,,,,,,
null,"<img src=""stim_listA/greet4.gif""style=""height:400px;""></stim_listA>",,html-keyboard-response,259,955754,0.0-17.0-1.8,34797,List2A,black,man,,,,null,,,,,,,,,
null,is being greeted by,,html-keyboard-response,260,957774,0.0-17.0-2.8,34797,List2A,black,man,,,,null,,,,,,,,,
8245,,,survey-text,261,966022,0.0-17.0-3.8,34797,List2A,black,man,,,,,"{""Q0"":""fred is being greeted by kate""}","<img src=""stim_listA/greet4.gif""style=""height:400px;""></stim_listA>",is being greeted by,,,,,,
null,"<div style=""font-size:60px;"">+</div>",,html-keyboard-response,262,966530,0.0-17.0-0.9,34797,List2A,black,man,,,,null,,,,,,,,,
null,"<img src=""stim_listA/touch2.gif""style=""height:400px;""></stim_listA>",,html-keyboard-response,263,968533,0.0-17.0-1.9,34797,List2A,black,man,,,,null,,,,,,,,,
null,is being touched by,,html-keyboard-response,264,970534,0.0-17.0-2.9,34797,List2A,black,man,,,,null,,,,,,,,,
10348,,,survey-text,265,980885,0.0-17.0-3.9,34797,List2A,black,man,,,,,"{""Q0"":""luke is being touched by ruth""}","<img src=""stim_listA/touch2.gif""style=""height:400px;""></stim_listA>",is being touched by,,,,,,
null,"<div style=""font-size:60px;"">+</div>",,html-keyboard-response,266,981394,0.0-17.0-0.10,34797,List2A,black,man,,,,null,,,,,,,,,
null,"<img src=""stim_listA/hug3.gif""style=""height:400px;""></stim_listA>",,html-keyboard-response,267,983413,0.0-17.0-1.10,34797,List2A,black,man,,,,null,,,,,,,,,
null,is hugging,,html-keyboard-response,268,985433,0.0-17.0-2.10,34797,List2A,black,man,,,,null,,,,,,,,,
6960,,,survey-text,269,992398,0.0-17.0-3.10,34797,List2A,black,man,,,,,"{""Q0"":""fred is hugging beth""}","<img src=""stim_listA/hug3.gif""style=""height:400px;""></stim_listA>",is hugging,,,,,,
null,"<div style=""font-size:60px;"">+</div>",,html-keyboard-response,270,992914,0.0-17.0-0.11,34797,List2A,black,man,,,,null,,,,,,,,,
null,"<img src=""stim_listA/copy8.gif""style=""height:400px;""></stim_listA>",,html-keyboard-response,271,994934,0.0-17.0-1.11,34797,List2A,black,man,,,,null,,,,,,,,,
null,is being copied by,,html-keyboard-response,272,996954,0.0-17.0-2.11,34797,List2A,black,man,,,,null,,,,,,,,,
10369,,,survey-text,273,1007326,0.0-17.0-3.11,34797,List2A,black,man,,,,,"{""Q0"":""kate is being copied by ruth""}","<img src=""stim_listA/copy8.gif""style=""height:400px;""></stim_listA>",is being copied by,,,,,,
null,"<div style=""font-size:60px;"">+</div>",,html-keyboard-response,274,1007834,0.0-17.0-0.12,34797,List2A,black,man,,,,null,,,,,,,,,
null,"<img src=""stim_listA/kiss3.gif""style=""height:400px;""></stim_listA>",,html-keyboard-response,275,1009844,0.0-17.0-1.12,34797,List2A,black,man,,,,null,,,,,,,,,
null,is kissing,,html-keyboard-response,276,1011863,0.0-17.0-2.12,34797,List2A,black,man,,,,null,,,,,,,,,
6166,,,survey-text,277,1018032,0.0-17.0-3.12,34797,List2A,black,man,,,,,"{""Q0"":""fred is kissing beth""}","<img src=""stim_listA/kiss3.gif""style=""height:400px;""></stim_listA>",is kissing,,,,,,
null,"<div style=""font-size:60px;"">+</div>",,html-keyboard-response,278,1018543,0.0-17.0-0.13,34797,List2A,black,man,,,,null,,,,,,,,,
null,"<img src=""stim_listA/look4.gif""style=""height:400px;""></stim_listA>",,html-keyboard-response,279,1020563,0.0-17.0-1.13,34797,List2A,black,man,,,,null,,,,,,,,,
null,is being looked at by,,html-keyboard-response,280,1022573,0.0-17.0-2.13,34797,List2A,black,man,,,,null,,,,,,,,,
7251,,,survey-text,281,1029827,0.0-17.0-3.13,34797,List2A,black,man,,,,,"{""Q0"":""mike is being looked at by kate""}","<img src=""stim_listA/look4.gif""style=""height:400px;""></stim_listA>",is being looked at by,,,,,,
null,"<div style=""font-size:60px;"">+</div>",,html-keyboard-response,282,1030334,0.0-17.0-0.14,34797,List2A,black,man,,,,null,,,,,,,,,
null,"<img src=""stim_listA/greet2.gif""style=""height:400px;""></stim_listA>",,html-keyboard-response,283,1032353,0.0-17.0-1.14,34797,List2A,black,man,,,,null,,,,,,,,,
null,is being greeted by,,html-keyboard-response,284,1034364,0.0-17.0-2.14,34797,List2A,black,man,,,,null,,,,,,,,,
6980,,,survey-text,285,1041347,0.0-17.0-3.14,34797,List2A,black,man,,,,,"{""Q0"":""luke is being greeted by jane""}","<img src=""stim_listA/greet2.gif""style=""height:400px;""></stim_listA>",is being greeted by,,,,,,
null,"<div style=""font-size:60px;"">+</div>",,html-keyboard-response,286,1041854,0.0-17.0-0.15,34797,List2A,black,man,,,,null,,,,,,,,,
null,"<img src=""stim_listA/seduce7.gif""style=""height:400px;""></stim_listA>",,html-keyboard-response,287,1043874,0.0-17.0-1.15,34797,List2A,black,man,,,,null,,,,,,,,,
null,is seducing,,html-keyboard-response,288,1045883,0.0-17.0-2.15,34797,List2A,black,man,,,,null,,,,,,,,,
6613,,,survey-text,289,1052499,0.0-17.0-3.15,34797,List2A,black,man,,,,,"{""Q0"":""kate is seducing ruth""}","<img src=""stim_listA/seduce7.gif""style=""height:400px;""></stim_listA>",is seducing,,,,,,
null,"<div style=""font-size:60px;"">+</div>",,html-keyboard-response,290,1053013,0.0-17.0-0.16,34797,List2A,black,man,,,,null,,,,,,,,,
null,"<img src=""stim_listA/oppose5.gif""style=""height:400px;""></stim_listA>",,html-keyboard-response,291,1055034,0.0-17.0-1.16,34797,List2A,black,man,,,,null,,,,,,,,,
null,is opposing,,html-keyboard-response,292,1057054,0.0-17.0-2.16,34797,List2A,black,man,,,,null,,,,,,,,,
6789,,,survey-text,293,1063846,0.0-17.0-3.16,34797,List2A,black,man,,,,,"{""Q0"":""dave is opposing mike""}","<img src=""stim_listA/oppose5.gif""style=""height:400px;""></stim_listA>",is opposing,,,,,,
null,"<div style=""font-size:60px;"">+</div>",,html-keyboard-response,294,1064353,0.0-17.0-0.17,34797,List2A,black,man,,,,null,,,,,,,,,
null,"<img src=""stim_listA/greet3.gif""style=""height:400px;""></stim_listA>",,html-keyboard-response,295,1066373,0.0-17.0-1.17,34797,List2A,black,man,,,,null,,,,,,,,,
null,is greeting,,html-keyboard-response,296,1068393,0.0-17.0-2.17,34797,List2A,black,man,,,,null,,,,,,,,,
6130,,,survey-text,297,1074527,0.0-17.0-3.17,34797,List2A,black,man,,,,,"{""Q0"":""mike is greeting beth""}","<img src=""stim_listA/greet3.gif""style=""height:400px;""></stim_listA>",is greeting,,,,,,
null,"<div style=""font-size:60px;"">+</div>",,html-keyboard-response,298,1075043,0.0-17.0-0.18,34797,List2A,black,man,,,,null,,,,,,,,,
null,"<img src=""stim_listA/look5.gif""style=""height:400px;""></stim_listA>",,html-keyboard-response,299,1077064,0.0-17.0-1.18,34797,List2A,black,man,,,,null,,,,,,,,,
null,is looking at,,html-keyboard-response,300,1079084,0.0-17.0-2.18,34797,List2A,black,man,,,,null,,,,,,,,,
6966,,,survey-text,301,1086053,0.0-17.0-3.18,34797,List2A,black,man,,,,,"{""Q0"":""dave is looking at luke""}","<img src=""stim_listA/look5.gif""style=""height:400px;""></stim_listA>",is looking at,,,,,,
null,"<div style=""font-size:60px;"">+</div>",,html-keyboard-response,302,1086563,0.0-17.0-0.19,34797,List2A,black,man,,,,null,,,,,,,,,
null,"<img src=""stim_listA/shout7.gif""style=""height:400px;""></stim_listA>",,html-keyboard-response,303,1088584,0.0-17.0-1.19,34797,List2A,black,man,,,,null,,,,,,,,,
null,is shouting at,,html-keyboard-response,304,1090604,0.0-17.0-2.19,34797,List2A,black,man,,,,null,,,,,,,,,
4422,,,survey-text,305,1095030,0.0-17.0-3.19,34797,List2A,black,man,,,,,"{""Q0"":""beth is shouting at ruth""}","<img src=""stim_listA/shout7.gif""style=""height:400px;""></stim_listA>",is shouting at,,,,,,
5396,"<img src='img/portrait_matrix_list2.jpg' style='width:900px;height:500px;''></img><p>If you have memorised all the portraits and names and are ready to start, press Continue.</p><p><strong>Please note: Your memory of these faces will be tested 4 times during this experiment.</strong></p>",0,html-button-response,306,1100426,0.0-18.0-0.0,34797,List2A,black,man,,,,,,,,,,,,,
2632,"<img src=""portrait/BW1.jpg""style=""height:400px;""></img>",0,html-button-response,307,1104076,0.0-18.0-1.0,34797,List2A,black,man,,TRUE,0,,,,,,,,,,
null,CORRECT,,html-keyboard-response,308,1105614,0.0-18.0-2.0-0.0,34797,List2A,black,man,,,,null,,,,,,,,,
1961,"<img src=""portrait/BM1.jpg""style=""height:400px;""></img>",4,html-button-response,309,1107576,0.0-18.0-4.0,34797,List2A,black,man,,TRUE,4,,,,,,,,,,
null,CORRECT,,html-keyboard-response,310,1109091,0.0-18.0-5.0-0.0,34797,List2A,black,man,,,,null,,,,,,,,,
2925,"<img src=""portrait/BW2.jpg""style=""height:400px;""></img>",2,html-button-response,311,1112016,0.0-18.0-7.0,34797,List2A,black,man,,TRUE,2,,,,,,,,,,
null,CORRECT,,html-keyboard-response,312,1113553,0.0-18.0-8.0-0.0,34797,List2A,black,man,,,,null,,,,,,,,,
1702,"<img src=""portrait/WM1.jpg""style=""height:400px;""></img>",6,html-button-response,313,1115256,0.0-18.0-10.0,34797,List2A,black,man,,TRUE,6,,,,,,,,,,
null,CORRECT,,html-keyboard-response,314,1116794,0.0-18.0-11.0-0.0,34797,List2A,black,man,,,,null,,,,,,,,,
1581,"<img src=""portrait/BM2.jpg""style=""height:400px;""></img>",5,html-button-response,315,1118376,0.0-18.0-13.0,34797,List2A,black,man,,TRUE,5,,,,,,,,,,
null,CORRECT,,html-keyboard-response,316,1119910,0.0-18.0-14.0-0.0,34797,List2A,black,man,,,,null,,,,,,,,,
1805,"<img src=""portrait/WM2.jpg""style=""height:400px;""></img>",7,html-button-response,317,1121716,0.0-18.0-16.0,34797,List2A,black,man,,TRUE,7,,,,,,,,,,
null,CORRECT,,html-keyboard-response,318,1123254,0.0-18.0-17.0-0.0,34797,List2A,black,man,,,,null,,,,,,,,,
2601,"<img src=""portrait/WW2.jpg""style=""height:400px;""></img>",3,html-button-response,319,1125856,0.0-18.0-19.0,34797,List2A,black,man,,TRUE,3,,,,,,,,,,
null,CORRECT,,html-keyboard-response,320,1127393,0.0-18.0-20.0-0.0,34797,List2A,black,man,,,,null,,,,,,,,,
2002,"<img src=""portrait/WW1.jpg""style=""height:400px;""></img>",1,html-button-response,321,1129396,0.0-18.0-22.0,34797,List2A,black,man,,TRUE,1,,,,,,,,,,
null,CORRECT,,html-keyboard-response,322,1130932,0.0-18.0-23.0-0.0,34797,List2A,black,man,,,,null,,,,,,,,,
5362,<p>You got 8 out of 8 right first time. Press Continue.</p>,0,html-button-response,323,1136296,0.0-18.0-25.0,34797,List2A,black,man,,,,,,,,,,,,,
null,"<div style=""font-size:60px;"">+</div>",,html-keyboard-response,324,1137833,0.0-19.0-0.0,34797,List2A,black,man,,,,null,,,,,,,,,
null,"<img src=""stim_listA/copy5.gif""style=""height:400px;""></stim_listA>",,html-keyboard-response,325,1139854,0.0-19.0-1.0,34797,List2A,black,man,,,,null,,,,,,,,,
null,is copying,,html-keyboard-response,326,1141874,0.0-19.0-2.0,34797,List2A,black,man,,,,null,,,,,,,,,
2925,,,survey-text,327,1144802,0.0-19.0-3.0,34797,List2A,black,man,,,,,"{""Q0"":""dave is copying""}","<img src=""stim_listA/copy5.gif""style=""height:400px;""></stim_listA>",is copying,,,,,,
null,"<div style=""font-size:60px;"">+</div>",,html-keyboard-response,328,1145314,0.0-19.0-0.1,34797,List2A,black,man,,,,null,,,,,,,,,
null,"<img src=""stim_listA/kiss7.gif""style=""height:400px;""></stim_listA>",,html-keyboard-response,329,1147334,0.0-19.0-1.1,34797,List2A,black,man,,,,null,,,,,,,,,
null,is kissing,,html-keyboard-response,330,1149354,0.0-19.0-2.1,34797,List2A,black,man,,,,null,,,,,,,,,
4521,,,survey-text,331,1153878,0.0-19.0-3.1,34797,List2A,black,man,,,,,"{""Q0"":""beth is kissing ruth""}","<img src=""stim_listA/kiss7.gif""style=""height:400px;""></stim_listA>",is kissing,,,,,,
null,"<div style=""font-size:60px;"">+</div>",,html-keyboard-response,332,1154383,0.0-19.0-0.2,34797,List2A,black,man,,,,null,,,,,,,,,
null,"<img src=""stim_listA/kiss4.gif""style=""height:400px;""></stim_listA>",,html-keyboard-response,333,1156403,0.0-19.0-1.2,34797,List2A,black,man,,,,null,,,,,,,,,
null,is being kissed by,,html-keyboard-response,334,1158423,0.0-19.0-2.2,34797,List2A,black,man,,,,null,,,,,,,,,
8220,,,survey-text,335,1166646,0.0-19.0-3.2,34797,List2A,black,man,,,,,"{""Q0"":""mike is being kissed by kate""}","<img src=""stim_listA/kiss4.gif""style=""height:400px;""></stim_listA>",is being kissed by,,,,,,
null,"<div style=""font-size:60px;"">+</div>",,html-keyboard-response,336,1167164,0.0-19.0-0.3,34797,List2A,black,man,,,,null,,,,,,,,,
null,"<img src=""stim_listA/seduce3.gif""style=""height:400px;""></stim_listA>",,html-keyboard-response,337,1169183,0.0-19.0-1.3,34797,List2A,black,man,,,,null,,,,,,,,,
null,is seducing,,html-keyboard-response,338,1171203,0.0-19.0-2.3,34797,List2A,black,man,,,,null,,,,,,,,,
8966,,,survey-text,339,1180173,0.0-19.0-3.3,34797,List2A,black,man,,,,,"{""Q0"":""fred is seducing kate""}","<img src=""stim_listA/seduce3.gif""style=""height:400px;""></stim_listA>",is seducing,,,,,,
null,"<div style=""font-size:60px;"">+</div>",,html-keyboard-response,340,1180694,0.0-19.0-0.4,34797,List2A,black,man,,,,null,,,,,,,,,
null,"<img src=""stim_listA/seduce5.gif""style=""height:400px;""></stim_listA>",,html-keyboard-response,341,1182713,0.0-19.0-1.4,34797,List2A,black,man,,,,null,,,,,,,,,
null,is seducing,,html-keyboard-response,342,1184713,0.0-19.0-2.4,34797,List2A,black,man,,,,null,,,,,,,,,
6699,,,survey-text,343,1191415,0.0-19.0-3.4,34797,List2A,black,man,,,,,"{""Q0"":""mike is seducing luke""}","<img src=""stim_listA/seduce5.gif""style=""height:400px;""></stim_listA>",is seducing,,,,,,
null,"<div style=""font-size:60px;"">+</div>",,html-keyboard-response,344,1191923,0.0-19.0-0.5,34797,List2A,black,man,,,,null,,,,,,,,,
null,"<img src=""stim_listA/challenge1.gif""style=""height:400px;""></stim_listA>",,html-keyboard-response,345,1193944,0.0-19.0-1.5,34797,List2A,black,man,,,,null,,,,,,,,,
null,is challenging,,html-keyboard-response,346,1195964,0.0-19.0-2.5,34797,List2A,black,man,,,,null,,,,,,,,,
10206,,,survey-text,347,1206172,0.0-19.0-3.5,34797,List2A,black,man,,,,,"{""Q0"":""dave is challenging mike""}","<img src=""stim_listA/challenge1.gif""style=""height:400px;""></stim_listA>",is challenging,,,,,,
null,"<div style=""font-size:60px;"">+</div>",,html-keyboard-response,348,1206673,0.0-19.0-0.6,34797,List2A,black,man,,,,null,,,,,,,,,
null,"<img src=""stim_listA/kiss1.gif""style=""height:400px;""></stim_listA>",,html-keyboard-response,349,1208694,0.0-19.0-1.6,34797,List2A,black,man,,,,null,,,,,,,,,
null,is kissing,,html-keyboard-response,350,1210713,0.0-19.0-2.6,34797,List2A,black,man,,,,null,,,,,,,,,
4963,,,survey-text,351,1215679,0.0-19.0-3.6,34797,List2A,black,man,,,,,"{""Q0"":""luke is kissing ruth""}","<img src=""stim_listA/kiss1.gif""style=""height:400px;""></stim_listA>",is kissing,,,,,,
null,"<div style=""font-size:60px;"">+</div>",,html-keyboard-response,352,1216193,0.0-19.0-0.7,34797,List2A,black,man,,,,null,,,,,,,,,
null,"<img src=""stim_listA/touch7.gif""style=""height:400px;""></stim_listA>",,html-keyboard-response,353,1218214,0.0-19.0-1.7,34797,List2A,black,man,,,,null,,,,,,,,,
null,is touching,,html-keyboard-response,354,1220233,0.0-19.0-2.7,34797,List2A,black,man,,,,null,,,,,,,,,
27202,,,survey-text,355,1247437,0.0-19.0-3.7,34797,List2A,black,man,,,,,"{""Q0"":""jane is touching kate""}","<img src=""stim_listA/touch7.gif""style=""height:400px;""></stim_listA>",is touching,,,,,,
null,"<div style=""font-size:60px;"">+</div>",,html-keyboard-response,356,1247953,0.0-19.0-0.8,34797,List2A,black,man,,,,null,,,,,,,,,
null,"<img src=""stim_listA/look3.gif""style=""height:400px;""></stim_listA>",,html-keyboard-response,357,1249972,0.0-19.0-1.8,34797,List2A,black,man,,,,null,,,,,,,,,
null,is looking at,,html-keyboard-response,358,1251993,0.0-19.0-2.8,34797,List2A,black,man,,,,null,,,,,,,,,
7743,,,survey-text,359,1259738,0.0-19.0-3.8,34797,List2A,black,man,,,,,"{""Q0"":""fred is looking at beth""}","<img src=""stim_listA/look3.gif""style=""height:400px;""></stim_listA>",is looking at,,,,,,
null,"<div style=""font-size:60px;"">+</div>",,html-keyboard-response,360,1260253,0.0-19.0-0.9,34797,List2A,black,man,,,,null,,,,,,,,,
null,"<img src=""stim_listA/oppose2.gif""style=""height:400px;""></stim_listA>",,html-keyboard-response,361,1262263,0.0-19.0-1.9,34797,List2A,black,man,,,,null,,,,,,,,,
null,is being opposed by,,html-keyboard-response,362,1264283,0.0-19.0-2.9,34797,List2A,black,man,,,,null,,,,,,,,,
9569,,,survey-text,363,1273856,0.0-19.0-3.9,34797,List2A,black,man,,,,,"{""Q0"":""luke is being opposed by ruth""}","<img src=""stim_listA/oppose2.gif""style=""height:400px;""></stim_listA>",is being opposed by,,,,,,
null,"<div style=""font-size:60px;"">+</div>",,html-keyboard-response,364,1274373,0.0-19.0-0.10,34797,List2A,black,man,,,,null,,,,,,,,,
null,"<img src=""stim_listA/look1.gif""style=""height:400px;""></stim_listA>",,html-keyboard-response,365,1276393,0.0-19.0-1.10,34797,List2A,black,man,,,,null,,,,,,,,,
null,is looking at,,html-keyboard-response,366,1278413,0.0-19.0-2.10,34797,List2A,black,man,,,,null,,,,,,,,,
7534,,,survey-text,367,1285949,0.0-19.0-3.10,34797,List2A,black,man,,,,,"{""Q0"":""luke is looking at ruth""}","<img src=""stim_listA/look1.gif""style=""height:400px;""></stim_listA>",is looking at,,,,,,
null,"<div style=""font-size:60px;"">+</div>",,html-keyboard-response,368,1286454,0.0-19.0-0.11,34797,List2A,black,man,,,,null,,,,,,,,,
null,"<img src=""stim_listA/challenge4.gif""style=""height:400px;""></stim_listA>",,html-keyboard-response,369,1288473,0.0-19.0-1.11,34797,List2A,black,man,,,,null,,,,,,,,,
null,is being challenged by,,html-keyboard-response,370,1290493,0.0-19.0-2.11,34797,List2A,black,man,,,,null,,,,,,,,,
16336,,,survey-text,371,1306832,0.0-19.0-3.11,34797,List2A,black,man,,,,,"{""Q0"":""fred is being challenged by kate""}","<img src=""stim_listA/challenge4.gif""style=""height:400px;""></stim_listA>",is being challenged by,,,,,,
null,"<div style=""font-size:60px;"">+</div>",,html-keyboard-response,372,1307353,0.0-19.0-0.12,34797,List2A,black,man,,,,null,,,,,,,,,
null,"<img src=""stim_listA/copy7.gif""style=""height:400px;""></stim_listA>",,html-keyboard-response,373,1309372,0.0-19.0-1.12,34797,List2A,black,man,,,,null,,,,,,,,,
null,is copying,,html-keyboard-response,374,1311393,0.0-19.0-2.12,34797,List2A,black,man,,,,null,,,,,,,,,
14113,,,survey-text,375,1325509,0.0-19.0-3.12,34797,List2A,black,man,,,,,"{""Q0"":""jane is copying kate""}","<img src=""stim_listA/copy7.gif""style=""height:400px;""></stim_listA>",is copying,,,,,,
null,"<div style=""font-size:60px;"">+</div>",,html-keyboard-response,376,1326023,0.0-19.0-0.13,34797,List2A,black,man,,,,null,,,,,,,,,
null,"<img src=""stim_listA/seduce8.gif""style=""height:400px;""></stim_listA>",,html-keyboard-response,377,1328044,0.0-19.0-1.13,34797,List2A,black,man,,,,null,,,,,,,,,
null,is being seduced by,,html-keyboard-response,378,1330063,0.0-19.0-2.13,34797,List2A,black,man,,,,null,,,,,,,,,
9025,,,survey-text,379,1339091,0.0-19.0-3.13,34797,List2A,black,man,,,,,"{""Q0"":""beth is being seduced by ruth""}","<img src=""stim_listA/seduce8.gif""style=""height:400px;""></stim_listA>",is being seduced by,,,,,,
null,"<div style=""font-size:60px;"">+</div>",,html-keyboard-response,380,1339594,0.0-19.0-0.14,34797,List2A,black,man,,,,null,,,,,,,,,
null,"<img src=""stim_listA/hug7.gif""style=""height:400px;""></stim_listA>",,html-keyboard-response,381,1341613,0.0-19.0-1.14,34797,List2A,black,man,,,,null,,,,,,,,,
null,is hugging,,html-keyboard-response,382,1343633,0.0-19.0-2.14,34797,List2A,black,man,,,,null,,,,,,,,,
8874,,,survey-text,383,1352509,0.0-19.0-3.14,34797,List2A,black,man,,,,,"{""Q0"":""beth is hugging ruth""}","<img src=""stim_listA/hug7.gif""style=""height:400px;""></stim_listA>",is hugging,,,,,,
null,"<div style=""font-size:60px;"">+</div>",,html-keyboard-response,384,1353023,0.0-19.0-0.15,34797,List2A,black,man,,,,null,,,,,,,,,
null,"<img src=""stim_listA/challenge2.gif""style=""height:400px;""></stim_listA>",,html-keyboard-response,385,1355043,0.0-19.0-1.15,34797,List2A,black,man,,,,null,,,,,,,,,
null,is being challenged by,,html-keyboard-response,386,1357063,0.0-19.0-2.15,34797,List2A,black,man,,,,null,,,,,,,,,
16534,,,survey-text,387,1373602,0.0-19.0-3.15,34797,List2A,black,man,,,,,"{""Q0"":""luke is being challenged by ruth""}","<img src=""stim_listA/challenge2.gif""style=""height:400px;""></stim_listA>",is being challenged by,,,,,,
null,"<div style=""font-size:60px;"">+</div>",,html-keyboard-response,388,1374103,0.0-19.0-0.16,34797,List2A,black,man,,,,null,,,,,,,,,
null,"<img src=""stim_listA/look7.gif""style=""height:400px;""></stim_listA>",,html-keyboard-response,389,1376113,0.0-19.0-1.16,34797,List2A,black,man,,,,null,,,,,,,,,
null,is looking at,,html-keyboard-response,390,1378133,0.0-19.0-2.16,34797,List2A,black,man,,,,null,,,,,,,,,
4213,,,survey-text,391,1382347,0.0-19.0-3.16,34797,List2A,black,man,,,,,"{""Q0"":""ruth is looking at beth""}","<img src=""stim_listA/look7.gif""style=""height:400px;""></stim_listA>",is looking at,,,,,,
null,"<div style=""font-size:60px;"">+</div>",,html-keyboard-response,392,1382853,0.0-19.0-0.17,34797,List2A,black,man,,,,null,,,,,,,,,
null,"<img src=""stim_listA/touch5.gif""style=""height:400px;""></stim_listA>",,html-keyboard-response,393,1384872,0.0-19.0-1.17,34797,List2A,black,man,,,,null,,,,,,,,,
null,is touching,,html-keyboard-response,394,1386893,0.0-19.0-2.17,34797,List2A,black,man,,,,null,,,,,,,,,
5475,,,survey-text,395,1392369,0.0-19.0-3.17,34797,List2A,black,man,,,,,"{""Q0"":""dave is touching mike""}","<img src=""stim_listA/touch5.gif""style=""height:400px;""></stim_listA>",is touching,,,,,,
null,"<div style=""font-size:60px;"">+</div>",,html-keyboard-response,396,1392872,0.0-19.0-0.18,34797,List2A,black,man,,,,null,,,,,,,,,
null,"<img src=""stim_listA/oppose8.gif""style=""height:400px;""></stim_listA>",,html-keyboard-response,397,1394892,0.0-19.0-1.18,34797,List2A,black,man,,,,null,,,,,,,,,
null,is being opposed by,,html-keyboard-response,398,1396903,0.0-19.0-2.18,34797,List2A,black,man,,,,null,,,,,,,,,
8898,,,survey-text,399,1405805,0.0-19.0-3.18,34797,List2A,black,man,,,,,"{""Q0"":""beth is being opposed by ruth""}","<img src=""stim_listA/oppose8.gif""style=""height:400px;""></stim_listA>",is being opposed by,,,,,,
null,"<div style=""font-size:60px;"">+</div>",,html-keyboard-response,400,1406323,0.0-19.0-0.19,34797,List2A,black,man,,,,null,,,,,,,,,
null,"<img src=""stim_listA/copy2.gif""style=""height:400px;""></stim_listA>",,html-keyboard-response,401,1408343,0.0-19.0-1.19,34797,List2A,black,man,,,,null,,,,,,,,,
null,is being copied by,,html-keyboard-response,402,1410362,0.0-19.0-2.19,34797,List2A,black,man,,,,null,,,,,,,,,
8580,,,survey-text,403,1418945,0.0-19.0-3.19,34797,List2A,black,man,,,,,"{""Q0"":""luke is being copied by jane""}","<img src=""stim_listA/copy2.gif""style=""height:400px;""></stim_listA>",is being copied by,,,,,,
2537,<p>Thank you for completing that task.</p><p>The final part of this session is a questionnaire that will take about 4 minutes.</p><p>Press Continue.</p>,0,html-button-response,404,1421485,0.0-20.0,34797,List2A,black,man,,,,,,,,,,,,,
921809,,,survey-text,405,2344318,0.0-21.0,34797,List2A,black,man,,,,,"{""Q0"":""30"",""Q1"":""English"",""Q2"":""English"",""Q3"":""US"",""Q4"":""American "",""Q5"":""African American "",""Q6"":""Male""}",,,demographics,,,,,
5364,<p>Have you lived in the USA for the last 5 years or more?</p>,0,html-button-response,406,2349683,0.0-22.0,34797,List2A,black,man,,,,,,,,fiveyears,,,,,
2100,<p>Move the slider to show the extent to which you agree with the following statements.</p>,0,html-button-response,407,2352804,0.0-23.0,34797,List2A,black,man,,,,,,,,,,,,,
7966,,,html-slider-response,408,2361803,0.0-24.0-0.0-0.0,34797,List2A,black,man,,,,,,,,survey_race,91,,,I feel committed to my race.,committed
2717,,,html-slider-response,409,2364522,0.0-24.0-0.0-0.1,34797,List2A,black,man,,,,,,,,survey_race,95,,,I am glad to be my age.,filler
3358,,,html-slider-response,410,2367882,0.0-24.0-0.0-0.2,34797,List2A,black,man,,,,,,,,survey_race,90,,,I am similar to the average person of my race.,similar
3698,,,html-slider-response,411,2371582,0.0-24.0-0.0-0.3,34797,List2A,black,man,,,,,,,,survey_race,81,,,Being my race is an important part of how I see myself.,important
3609,,,html-slider-response,412,2375192,0.0-24.0-0.0-0.4,34797,List2A,black,man,,,,,,,,survey_race,20,,,I consider myself an introvert.,filler
2858,,,html-slider-response,413,2378052,0.0-24.0-0.0-0.5,34797,List2A,black,man,,,,,,,,survey_race,24,,,I often think about the fact that I am my age.,filler
3539,,,html-slider-response,414,2381593,0.0-24.0-0.0-0.6,34797,List2A,black,man,,,,,,,,survey_race,73,,,I am glad to be my race.,glad
2818,,,html-slider-response,415,2384413,0.0-24.0-0.0-0.7,34797,List2A,black,man,,,,,,,,survey_race,92,,,Getting older does not worry me.,filler
2497,,,html-slider-response,416,2386912,0.0-24.0-0.0-0.8,34797,List2A,black,man,,,,,,,,survey_race,77,,,"The older I get, the wiser I feel.",filler
2119,,,html-slider-response,417,2389033,0.0-24.0-0.0-0.9,34797,List2A,black,man,,,,,,,,survey_race,80,,,I enjoy being in large groups.,filler
3237,,,html-slider-response,418,2392274,0.0-24.0-0.0-0.10,34797,List2A,black,man,,,,,,,,survey_race,35,,,My age is not an important part of who I am.,filler
2255,,,html-slider-response,419,2394532,0.0-24.0-0.0-0.11,34797,List2A,black,man,,,,,,,,survey_race,79,,,I feel solidarity with my race.,solidarity
2151,,,html-slider-response,420,2396683,0.0-24.0-0.0-0.12,34797,List2A,black,man,,,,,,,,survey_race,81,,,I have a lot in common with the average person of my race.,average
2137,,,html-slider-response,421,2398822,0.0-24.0-0.0-0.13,34797,List2A,black,man,,,,,,,,survey_race,78,,,I have a lot in common with people of a similar age to me.,filler
2139,,,html-slider-response,422,2400963,0.0-24.0-0.0-0.14,34797,List2A,black,man,,,,,,,,survey_race,81,,,I feel a bond with my race.,bond
1677,,,html-slider-response,423,2402642,0.0-24.0-0.0-0.15,34797,List2A,black,man,,,,,,,,survey_race,74,,,I consider myself an extrovert.,filler
1257,,,html-slider-response,424,2403902,0.0-24.0-0.0-0.16,34797,List2A,black,man,,,,,,,,survey_race,81,,,It is pleasant to be my race.,pleasant
1579,,,html-slider-response,425,2405483,0.0-24.0-0.0-0.17,34797,List2A,black,man,,,,,,,,survey_race,82,,,I often think about the fact that I am my race.,often
1336,,,html-slider-response,426,2406822,0.0-24.0-0.0-0.18,34797,List2A,black,man,,,,,,,,survey_race,72,,,Being my race gives me a good feeling.,feeling
1621,,,html-slider-response,427,2408444,0.0-24.0-0.0-0.19,34797,List2A,black,man,,,,,,,,survey_race,73,,,Being my age gives me a good feeling.,filler
2295,,,html-slider-response,428,2410743,0.0-24.0-0.0-0.20,34797,List2A,black,man,,,,,,,,survey_race,76,,,I think that my race has a lot to be proud of.,proud
2539,,,html-slider-response,429,2413283,0.0-24.0-0.0-0.21,34797,List2A,black,man,,,,,,,,survey_race,74,,,People of my race are very similar to each other.,verysimilar
1377,,,html-slider-response,430,2414661,0.0-24.0-0.0-0.22,34797,List2A,black,man,,,,,,,,survey_race,65,,,People my age have a lot in common with each other.,filler
1420,,,html-slider-response,431,2416083,0.0-24.0-0.0-0.23,34797,List2A,black,man,,,,,,,,survey_race,74,,,The fact that I am my race is an important part of my identity.,identity
1735,,,html-slider-response,432,2417822,0.0-24.0-0.0-0.24,34797,List2A,black,man,,,,,,,,survey_race,73,,,I feel solidarity with people the same age as me.,filler
2718,,,html-slider-response,433,2420544,0.0-24.0-0.0-0.25,34797,List2A,black,man,,,,,,,,survey_race,88,,,People of my race have a lot in common with each other.,common
1823,,,html-slider-response,434,2422372,0.0-24.0-0.0-0.26,34797,List2A,black,man,,,,,,,,survey_race,81,,,I feel a bond with people the same age as me.,filler
2479,,,html-slider-response,435,2424853,0.0-24.0-0.0-0.27,34797,List2A,black,man,,,,,,,,survey_race,80,,,I am glad to be the age I am.,filler
1496,,,html-slider-response,436,2426352,0.0-24.0-1.0-0.0,34797,List2A,black,man,,,,,,,,survey_gender,81,,,I have a lot in common with the average person of my gender.,average
1458,,,html-slider-response,437,2427813,0.0-24.0-1.0-0.1,34797,List2A,black,man,,,,,,,,survey_gender,74,,,My friends have a lot in common with each other.,filler
1235,,,html-slider-response,438,2429050,0.0-24.0-1.0-0.2,34797,List2A,black,man,,,,,,,,survey_gender,77,,,I feel a bond with my friends.,filler
2322,,,html-slider-response,439,2431372,0.0-24.0-1.0-0.3,34797,List2A,black,man,,,,,,,,survey_gender,80,,,I feel solidarity with my gender.,solidarity
1937,,,html-slider-response,440,2433311,0.0-24.0-1.0-0.4,34797,List2A,black,man,,,,,,,,survey_gender,89,,,My friends understand me.,filler
2679,,,html-slider-response,441,2435993,0.0-24.0-1.0-0.5,34797,List2A,black,man,,,,,,,,survey_gender,24,,,I would say I am an animal person.,filler
1356,,,html-slider-response,442,2437351,0.0-24.0-1.0-0.6,34797,List2A,black,man,,,,,,,,survey_gender,78,,,I feel a bond with my gender.,bond
1638,,,html-slider-response,443,2438992,0.0-24.0-1.0-0.7,34797,List2A,black,man,,,,,,,,survey_gender,78,,,I think that my gender has a lot to be proud of.,proud
1050,,,html-slider-response,444,2440042,0.0-24.0-1.0-0.8,34797,List2A,black,man,,,,,,,,survey_gender,73,,,I am glad to have the friends that I have.,filler
168688,,,html-slider-response,445,2608733,0.0-24.0-1.0-0.9,34797,List2A,black,man,,,,,,,,survey_gender,99,,,I consider myself a highly empathetic person.,filler
25994,,,html-slider-response,446,2634732,0.0-24.0-1.0-0.10,34797,List2A,black,man,,,,,,,,survey_gender,100,,,Being around my friends gives me a good feeling.,filler
9130,,,html-slider-response,447,2643864,0.0-24.0-1.0-0.11,34797,List2A,black,man,,,,,,,,survey_gender,36,,,It is not always easy for people to know what I am thinking.,filler
2856,,,html-slider-response,448,2646724,0.0-24.0-1.0-0.12,34797,List2A,black,man,,,,,,,,survey_gender,76,,,Being my gender gives me a good feeling.,feeling
3146,,,html-slider-response,449,2649873,0.0-24.0-1.0-0.13,34797,List2A,black,man,,,,,,,,survey_gender,79,,,I have a lot in common with my friends.,filler
2328,,,html-slider-response,450,2652203,0.0-24.0-1.0-0.14,34797,List2A,black,man,,,,,,,,survey_gender,73,,,I am similar to the average person of my gender.,similar
1896,,,html-slider-response,451,2654104,0.0-24.0-1.0-0.15,34797,List2A,black,man,,,,,,,,survey_gender,81,,,I feel committed to my gender.,committed
2875,,,html-slider-response,452,2656983,0.0-24.0-1.0-0.16,34797,List2A,black,man,,,,,,,,survey_gender,77,,,I often think about the fact that I am my gender.,often
3339,,,html-slider-response,453,2660324,0.0-24.0-1.0-0.17,34797,List2A,black,man,,,,,,,,survey_gender,80,,,I am glad to be my gender.,glad
2286,,,html-slider-response,454,2662613,0.0-24.0-1.0-0.18,34797,List2A,black,man,,,,,,,,survey_gender,78,,,The fact that I am my gender is an important part of my identity.,identity
4775,,,html-slider-response,455,2667394,0.0-24.0-1.0-0.19,34797,List2A,black,man,,,,,,,,survey_gender,77,,,It is pleasant to be my gender.,pleasant
4117,,,html-slider-response,456,2671513,0.0-24.0-1.0-0.20,34797,List2A,black,man,,,,,,,,survey_gender,1,,,Family is not more important to me than friendship.,filler
2588,,,html-slider-response,457,2674103,0.0-24.0-1.0-0.21,34797,List2A,black,man,,,,,,,,survey_gender,74,,,Being my gender is an important part of how I see myself.,important
3118,,,html-slider-response,458,2677223,0.0-24.0-1.0-0.22,34797,List2A,black,man,,,,,,,,survey_gender,72,,,People of my gender are very similar to each other.,verysimilar
4237,,,html-slider-response,459,2681463,0.0-24.0-1.0-0.23,34797,List2A,black,man,,,,,,,,survey_gender,60,,,People of my gender have a lot in common with each other.,common
2318,,,html-slider-response,460,2683783,0.0-24.0-1.0-0.24,34797,List2A,black,man,,,,,,,,survey_gender,73,,,I feel solidarity with my friends.,filler
2418,,,html-slider-response,461,2686204,0.0-24.0-1.0-0.25,34797,List2A,black,man,,,,,,,,survey_gender,76,,,I often think about my actions.,filler
3428,,,html-slider-response,462,2689633,0.0-24.0-1.0-0.26,34797,List2A,black,man,,,,,,,,survey_gender,14,,,Routine is not important to me.,filler
3518,,,html-slider-response,463,2693153,0.0-24.0-1.0-0.27,34797,List2A,black,man,,,,,,,,survey_gender,70,,,Most of the friends in my life are very similar to me.,filler
8079,,,survey-text,464,2701237,0.0-25.0,34797,List2A,black,man,,,,,"{""Q0"":""ccc""}",,,worker_id,,,,,
4500,,,external-html,465,2707504,0.0-26.0,34797,List2A,black,man,debrief.html,,,,,,,,,,,,
