"rt","stimulus","button_pressed","trial_type","trial_index","time_elapsed","internal_node_id","subject","list","ppt_race","ppt_gender","url","first_guess","correct","key_press","responses","image_type","phrase_type","test_part","response","stimulus1","stimulus2","question_type","survey_item"
"4477.699999988079","Welcome to the experiment. Press Continue to begin.","0","html-button-response","0","4484","0.0-0.0","35012","List2A","white","woman","","","","","","","","","","","","",""
"41423.5","","","external-html","1","47376","0.0-1.0","35012","List2A","white","woman","consent.html","","","","","","","","","","","",""
"8206.299999982119","<p>On the next page, you will see portraits of 8 people and their names.</p><p>Your first task is to take a few minutes to memorise the names of these people.</p><p>You will have to recall their names during the rest of the experiment, so it is</p><p>essential that you try to memorise these people and their names as best as you can.</p><br><p><strong>You will then be tested on your memory of these names and portraits.</strong></p><br><p>The experiment will start after you have completed this memory test.</p><br><p>Ready?</p>","0","html-button-response","2","55585","0.0-2.0","35012","List2A","white","woman","","","","","","","","","","","","",""
"120642.90000000596","<img src='img/portrait_matrix_list2.jpg' style='width:900px;height:500px;''></img><p>If you have memorised all the portraits and names and are ready to start, press Continue.</p><p><strong>Please note: Your memory of these faces will be tested 4 times during this experiment.</strong></p>","0","html-button-response","3","177230","0.0-3.0-0.0","35012","List2A","white","woman","","","","","","","","","","","","",""
"3112","<img src=""portrait/BW2.jpg""style=""height:400px;""></img>","2","html-button-response","4","181350","0.0-3.0-1.0","35012","List2A","white","woman","","true","2","","","","","","","","","",""
"null","CORRECT","","html-keyboard-response","5","182867","0.0-3.0-2.0-0.0","35012","List2A","white","woman","","","","null","","","","","","","","",""
"2566","<img src=""portrait/WW1.jpg""style=""height:400px;""></img>","1","html-button-response","6","185436","0.0-3.0-4.0","35012","List2A","white","woman","","true","1","","","","","","","","","",""
"null","CORRECT","","html-keyboard-response","7","186950","0.0-3.0-5.0-0.0","35012","List2A","white","woman","","","","null","","","","","","","","",""
"4195.800000011921","<img src=""portrait/WM1.jpg""style=""height:400px;""></img>","5","html-button-response","8","191148","0.0-3.0-7.0","35012","List2A","white","woman","","true","6","","","","","","","","","",""
"3707.300000011921","<img src=""portrait/WM1.jpg""style=""height:400px;""></img>","6","html-button-response","9","195866","0.0-3.0-9.0-0.0","35012","List2A","white","woman","","false","6","","","","","","","","","",""
"null","CORRECT","","html-keyboard-response","10","197387","0.0-3.0-9.0-1.0-0.0","35012","List2A","white","woman","","","","null","","","","","","","","",""
"2486.300000011921","<img src=""portrait/BM2.jpg""style=""height:400px;""></img>","5","html-button-response","11","199876","0.0-3.0-10.0","35012","List2A","white","woman","","true","5","","","","","","","","","",""
"null","CORRECT","","html-keyboard-response","12","201389","0.0-3.0-11.0-0.0","35012","List2A","white","woman","","","","null","","","","","","","","",""
"2944.399999976158","<img src=""portrait/BW1.jpg""style=""height:400px;""></img>","0","html-button-response","13","204335","0.0-3.0-13.0","35012","List2A","white","woman","","true","0","","","","","","","","","",""
"null","CORRECT","","html-keyboard-response","14","205846","0.0-3.0-14.0-0.0","35012","List2A","white","woman","","","","null","","","","","","","","",""
"2815.699999988079","<img src=""portrait/WW2.jpg""style=""height:400px;""></img>","3","html-button-response","15","208664","0.0-3.0-16.0","35012","List2A","white","woman","","true","3","","","","","","","","","",""
"null","CORRECT","","html-keyboard-response","16","210181","0.0-3.0-17.0-0.0","35012","List2A","white","woman","","","","null","","","","","","","","",""
"1798.9000000059605","<img src=""portrait/WM2.jpg""style=""height:400px;""></img>","7","html-button-response","17","211982","0.0-3.0-19.0","35012","List2A","white","woman","","true","7","","","","","","","","","",""
"null","CORRECT","","html-keyboard-response","18","213506","0.0-3.0-20.0-0.0","35012","List2A","white","woman","","","","null","","","","","","","","",""
"2236.199999988079","<img src=""portrait/BM1.jpg""style=""height:400px;""></img>","4","html-button-response","19","215744","0.0-3.0-22.0","35012","List2A","white","woman","","true","4","","","","","","","","","",""
"null","CORRECT","","html-keyboard-response","20","217262","0.0-3.0-23.0-0.0","35012","List2A","white","woman","","","","null","","","","","","","","",""
"1183.2000000178814","<p>You got 7 out of 8 right first time. Press Continue.</p>","0","html-button-response","21","218447","0.0-3.0-25.0","35012","List2A","white","woman","","","","","","","","","","","","",""
"2048","As you did not score 100%, the memory game will repeat. Press Continue.","0","html-button-response","22","221509","0.0-3.0-26.0-0.0","35012","List2A","white","woman","","","","","","","","","","","","",""
"8715.40000000596","<img src='img/portrait_matrix_list2.jpg' style='width:900px;height:500px;''></img><p>If you have memorised all the portraits and names and are ready to start, press Continue.</p><p><strong>Please note: Your memory of these faces will be tested 4 times during this experiment.</strong></p>","0","html-button-response","23","231237","0.0-3.1-0.1","35012","List2A","white","woman","","","","","","","","","","","","",""
"2046.9000000059605","<img src=""portrait/BW2.jpg""style=""height:400px;""></img>","2","html-button-response","24","234292","0.0-3.1-1.1","35012","List2A","white","woman","","true","2","","","","","","","","","",""
"null","CORRECT","","html-keyboard-response","25","235812","0.0-3.1-2.1-0.1","35012","List2A","white","woman","","","","null","","","","","","","","",""
"4586.300000011921","<img src=""portrait/WW1.jpg""style=""height:400px;""></img>","1","html-button-response","26","240400","0.0-3.1-4.1","35012","List2A","white","woman","","true","1","","","","","","","","","",""
"null","CORRECT","","html-keyboard-response","27","241923","0.0-3.1-5.1-0.1","35012","List2A","white","woman","","","","null","","","","","","","","",""
"1842.699999988079","<img src=""portrait/WM1.jpg""style=""height:400px;""></img>","6","html-button-response","28","243767","0.0-3.1-7.1","35012","List2A","white","woman","","true","6","","","","","","","","","",""
"null","CORRECT","","html-keyboard-response","29","245287","0.0-3.1-8.1-0.1","35012","List2A","white","woman","","","","null","","","","","","","","",""
"1156.800000011921","<img src=""portrait/BM2.jpg""style=""height:400px;""></img>","5","html-button-response","30","246446","0.0-3.1-10.1","35012","List2A","white","woman","","true","5","","","","","","","","","",""
"null","CORRECT","","html-keyboard-response","31","247962","0.0-3.1-11.1-0.1","35012","List2A","white","woman","","","","null","","","","","","","","",""
"2981.800000011921","<img src=""portrait/BW1.jpg""style=""height:400px;""></img>","0","html-button-response","32","250945","0.0-3.1-13.1","35012","List2A","white","woman","","true","0","","","","","","","","","",""
"null","CORRECT","","html-keyboard-response","33","252473","0.0-3.1-14.1-0.1","35012","List2A","white","woman","","","","null","","","","","","","","",""
"1756.800000011921","<img src=""portrait/WW2.jpg""style=""height:400px;""></img>","3","html-button-response","34","254232","0.0-3.1-16.1","35012","List2A","white","woman","","true","3","","","","","","","","","",""
"null","CORRECT","","html-keyboard-response","35","255752","0.0-3.1-17.1-0.1","35012","List2A","white","woman","","","","null","","","","","","","","",""
"1456.0999999940395","<img src=""portrait/WM2.jpg""style=""height:400px;""></img>","7","html-button-response","36","257210","0.0-3.1-19.1","35012","List2A","white","woman","","true","7","","","","","","","","","",""
"null","CORRECT","","html-keyboard-response","37","258729","0.0-3.1-20.1-0.1","35012","List2A","white","woman","","","","null","","","","","","","","",""
"1065.4000000059605","<img src=""portrait/BM1.jpg""style=""height:400px;""></img>","4","html-button-response","38","259796","0.0-3.1-22.1","35012","List2A","white","woman","","true","4","","","","","","","","","",""
"null","CORRECT","","html-keyboard-response","39","261318","0.0-3.1-23.1-0.1","35012","List2A","white","woman","","","","null","","","","","","","","",""
"2051.4000000059605","<p>You got 8 out of 8 right first time. Press Continue.</p>","0","html-button-response","40","263372","0.0-3.1-25.1","35012","List2A","white","woman","","","","","","","","","","","","",""
"33219.20000001788","<p>In this experiment, you will view photographs of the people from the memory game interacting.</p><p>By using the <strong>exact</strong> phrase given <i>after</i> the photograph appears and recalling the correct names of the people in the photographs, form a sentence describing the interaction. You do not need to capitalise names.</p><p>Type your answer in the space provided. Please complete every sentence before moving onto the next trial.</p><p>You will only have a few seconds to memorise each given photograph and phrase before you can respond, so try your best to focus.</p><p>An example is given below. Press 'Continue' when you are ready.</p><img src='img/speaking_example.jpg' style='width:800px;height:460px;''></img>","0","html-button-response","41","297602","0.0-4.0","35012","List2A","white","woman","","","","","","","","","","","","",""
"1506.5","<p>Before the experiment starts, you will watch two example trials. Press 'Continue'.</p>","0","html-button-response","42","300112","0.0-5.0","35012","List2A","white","woman","","","","","","","","","","","","",""
"null","<img src='img/play_eg.gif' style='height:400px;''></img>","","html-keyboard-response","43","303125","0.0-6.0","35012","List2A","white","woman","","","","null","","","","","","","","",""
"null","<p>is playing with</p>","","html-keyboard-response","44","305127","0.0-7.0","35012","List2A","white","woman","","","","null","","","","","","","","",""
"4081.5","<p><b>Answer:</b> jane is playing with ruth</p>","0","html-button-response","45","309211","0.0-8.0","35012","List2A","white","woman","","","","","","","","","","","","",""
"null","<img src='img/dance_eg.gif' style='height:400px;''></img>","","html-keyboard-response","46","312220","0.0-9.0","35012","List2A","white","woman","","","","null","","","","","","","","",""
"null","<p>is being entertained by</p>","","html-keyboard-response","47","314230","0.0-10.0","35012","List2A","white","woman","","","","null","","","","","","","","",""
"1118.7000000178814","<p><b>Answer:</b> fred is being entertained by mike</p>","0","html-button-response","48","315350","0.0-11.0","35012","List2A","white","woman","","","","","","","","","","","","",""
"9495.699999988079","<p>Ready to start the experiment?</p><br><p><strong>Remember to describe the picture using a full sentence,</strong></p><p><strong>that combines the names of the people with the <i>exact</i> phrase given.</strong></p><p><strong>To receive full payment you must do this correctly.</strong></p><p><strong> You do not need to capitalise names or use punctuation.</strong></p><br><p>Press 'Continue' to begin.</p>","0","html-button-response","49","325857","0.0-12.0","35012","List2A","white","woman","","","","","","","","","","","","",""
"null","<div style=""font-size:60px;"">+</div>","","html-keyboard-response","50","327387","0.0-13.0-0.0","35012","List2A","white","woman","","","","null","","","","","","","","",""
"null","<img src=""stim_listA/kiss1.gif""style=""height:400px;""></stim_listA>","","html-keyboard-response","51","329406","0.0-13.0-1.0","35012","List2A","white","woman","","","","null","","","","","","","","",""
"null","is kissing","","html-keyboard-response","52","331408","0.0-13.0-2.0","35012","List2A","white","woman","","","","null","","","","","","","","",""
"7419.9000000059605","","","survey-text","53","338865","0.0-13.0-3.0","35012","List2A","white","woman","","","","","{""Q0"":""luke is kissing ruth""}","<img src=""stim_listA/kiss1.gif""style=""height:400px;""></stim_listA>","is kissing","","","","","",""
"null","<div style=""font-size:60px;"">+</div>","","html-keyboard-response","54","339373","0.0-13.0-0.1","35012","List2A","white","woman","","","","null","","","","","","","","",""
"null","<img src=""stim_listA/seduce8.gif""style=""height:400px;""></stim_listA>","","html-keyboard-response","55","341376","0.0-13.0-1.1","35012","List2A","white","woman","","","","null","","","","","","","","",""
"null","is being seduced by","","html-keyboard-response","56","343392","0.0-13.0-2.1","35012","List2A","white","woman","","","","null","","","","","","","","",""
"10287.200000017881","","","survey-text","57","353683","0.0-13.0-3.1","35012","List2A","white","woman","","","","","{""Q0"":""beth is being seduced by jane""}","<img src=""stim_listA/seduce8.gif""style=""height:400px;""></stim_listA>","is being seduced by","","","","","",""
"null","<div style=""font-size:60px;"">+</div>","","html-keyboard-response","58","354195","0.0-13.0-0.2","35012","List2A","white","woman","","","","null","","","","","","","","",""
"null","<img src=""stim_listA/kiss2.gif""style=""height:400px;""></stim_listA>","","html-keyboard-response","59","356207","0.0-13.0-1.2","35012","List2A","white","woman","","","","null","","","","","","","","",""
"null","is being kissed by","","html-keyboard-response","60","358209","0.0-13.0-2.2","35012","List2A","white","woman","","","","null","","","","","","","","",""
"7726.799999982119","","","survey-text","61","365959","0.0-13.0-3.2","35012","List2A","white","woman","","","","","{""Q0"":""jane is being kissed by dave""}","<img src=""stim_listA/kiss2.gif""style=""height:400px;""></stim_listA>","is being kissed by","","","","","",""
"null","<div style=""font-size:60px;"">+</div>","","html-keyboard-response","62","366468","0.0-13.0-0.3","35012","List2A","white","woman","","","","null","","","","","","","","",""
"null","<img src=""stim_listA/hug3.gif""style=""height:400px;""></stim_listA>","","html-keyboard-response","63","368484","0.0-13.0-1.3","35012","List2A","white","woman","","","","null","","","","","","","","",""
"null","is hugging","","html-keyboard-response","64","370497","0.0-13.0-2.3","35012","List2A","white","woman","","","","null","","","","","","","","",""
"6437.199999988079","","","survey-text","65","376940","0.0-13.0-3.3","35012","List2A","white","woman","","","","","{""Q0"":""fred is hugging beth""}","<img src=""stim_listA/hug3.gif""style=""height:400px;""></stim_listA>","is hugging","","","","","",""
"null","<div style=""font-size:60px;"">+</div>","","html-keyboard-response","66","377444","0.0-13.0-0.4","35012","List2A","white","woman","","","","null","","","","","","","","",""
"null","<img src=""stim_listA/greet1.gif""style=""height:400px;""></stim_listA>","","html-keyboard-response","67","379448","0.0-13.0-1.4","35012","List2A","white","woman","","","","null","","","","","","","","",""
"null","is greeting","","html-keyboard-response","68","381465","0.0-13.0-2.4","35012","List2A","white","woman","","","","null","","","","","","","","",""
"6533.0999999940395","","","survey-text","69","388003","0.0-13.0-3.4","35012","List2A","white","woman","","","","","{""Q0"":""dave is greeting ruth""}","<img src=""stim_listA/greet1.gif""style=""height:400px;""></stim_listA>","is greeting","","","","","",""
"null","<div style=""font-size:60px;"">+</div>","","html-keyboard-response","70","388518","0.0-13.0-0.5","35012","List2A","white","woman","","","","null","","","","","","","","",""
"null","<img src=""stim_listA/shout1.gif""style=""height:400px;""></stim_listA>","","html-keyboard-response","71","390529","0.0-13.0-1.5","35012","List2A","white","woman","","","","null","","","","","","","","",""
"null","is shouting at","","html-keyboard-response","72","392535","0.0-13.0-2.5","35012","List2A","white","woman","","","","null","","","","","","","","",""
"7578.5","","","survey-text","73","400118","0.0-13.0-3.5","35012","List2A","white","woman","","","","","{""Q0"":""luke is shouting at ruth""}","<img src=""stim_listA/shout1.gif""style=""height:400px;""></stim_listA>","is shouting at","","","","","",""
"null","<div style=""font-size:60px;"">+</div>","","html-keyboard-response","74","400636","0.0-13.0-0.6","35012","List2A","white","woman","","","","null","","","","","","","","",""
"null","<img src=""stim_listA/touch6.gif""style=""height:400px;""></stim_listA>","","html-keyboard-response","75","402645","0.0-13.0-1.6","35012","List2A","white","woman","","","","null","","","","","","","","",""
"null","is being touched by","","html-keyboard-response","76","404653","0.0-13.0-2.6","35012","List2A","white","woman","","","","null","","","","","","","","",""
"7208.5","","","survey-text","77","411866","0.0-13.0-3.6","35012","List2A","white","woman","","","","","{""Q0"":""fred is being touched by luke""}","<img src=""stim_listA/touch6.gif""style=""height:400px;""></stim_listA>","is being touched by","","","","","",""
"null","<div style=""font-size:60px;"">+</div>","","html-keyboard-response","78","412375","0.0-13.0-0.7","35012","List2A","white","woman","","","","null","","","","","","","","",""
"null","<img src=""stim_listA/look3.gif""style=""height:400px;""></stim_listA>","","html-keyboard-response","79","414386","0.0-13.0-1.7","35012","List2A","white","woman","","","","null","","","","","","","","",""
"null","is looking at","","html-keyboard-response","80","416392","0.0-13.0-2.7","35012","List2A","white","woman","","","","null","","","","","","","","",""
"5127.299999982119","","","survey-text","81","421524","0.0-13.0-3.7","35012","List2A","white","woman","","","","","{""Q0"":""fred is looking at beth""}","<img src=""stim_listA/look3.gif""style=""height:400px;""></stim_listA>","is looking at","","","","","",""
"null","<div style=""font-size:60px;"">+</div>","","html-keyboard-response","82","422030","0.0-13.0-0.8","35012","List2A","white","woman","","","","null","","","","","","","","",""
"null","<img src=""stim_listA/copy4.gif""style=""height:400px;""></stim_listA>","","html-keyboard-response","83","424034","0.0-13.0-1.8","35012","List2A","white","woman","","","","null","","","","","","","","",""
"null","is being copied by","","html-keyboard-response","84","426051","0.0-13.0-2.8","35012","List2A","white","woman","","","","null","","","","","","","","",""
"30544.80000001192","","","survey-text","85","456609","0.0-13.0-3.8","35012","List2A","white","woman","","","","","{""Q0"":""kate is being copied by fred""}","<img src=""stim_listA/copy4.gif""style=""height:400px;""></stim_listA>","is being copied by","","","","","",""
"null","<div style=""font-size:60px;"">+</div>","","html-keyboard-response","86","457111","0.0-13.0-0.9","35012","List2A","white","woman","","","","null","","","","","","","","",""
"null","<img src=""stim_listA/look2.gif""style=""height:400px;""></stim_listA>","","html-keyboard-response","87","459118","0.0-13.0-1.9","35012","List2A","white","woman","","","","null","","","","","","","","",""
"null","is being looked at by","","html-keyboard-response","88","461133","0.0-13.0-2.9","35012","List2A","white","woman","","","","null","","","","","","","","",""
"6769.899999976158","","","survey-text","89","467906","0.0-13.0-3.9","35012","List2A","white","woman","","","","","{""Q0"":""jane is being looked at by dave""}","<img src=""stim_listA/look2.gif""style=""height:400px;""></stim_listA>","is being looked at by","","","","","",""
"null","<div style=""font-size:60px;"">+</div>","","html-keyboard-response","90","468413","0.0-13.0-0.10","35012","List2A","white","woman","","","","null","","","","","","","","",""
"null","<img src=""stim_listA/kiss5.gif""style=""height:400px;""></stim_listA>","","html-keyboard-response","91","470420","0.0-13.0-1.10","35012","List2A","white","woman","","","","null","","","","","","","","",""
"null","is kissing","","html-keyboard-response","92","472422","0.0-13.0-2.10","35012","List2A","white","woman","","","","null","","","","","","","","",""
"6155.9000000059605","","","survey-text","93","478581","0.0-13.0-3.10","35012","List2A","white","woman","","","","","{""Q0"":""luke is kissing fred""}","<img src=""stim_listA/kiss5.gif""style=""height:400px;""></stim_listA>","is kissing","","","","","",""
"null","<div style=""font-size:60px;"">+</div>","","html-keyboard-response","94","479089","0.0-13.0-0.11","35012","List2A","white","woman","","","","null","","","","","","","","",""
"null","<img src=""stim_listA/shout3.gif""style=""height:400px;""></stim_listA>","","html-keyboard-response","95","481095","0.0-13.0-1.11","35012","List2A","white","woman","","","","null","","","","","","","","",""
"null","is shouting at","","html-keyboard-response","96","483105","0.0-13.0-2.11","35012","List2A","white","woman","","","","null","","","","","","","","",""
"6739.199999988079","","","survey-text","97","489863","0.0-13.0-3.11","35012","List2A","white","woman","","","","","{""Q0"":""fred is shouting at beth""}","<img src=""stim_listA/shout3.gif""style=""height:400px;""></stim_listA>","is shouting at","","","","","",""
"null","<div style=""font-size:60px;"">+</div>","","html-keyboard-response","98","490374","0.0-13.0-0.12","35012","List2A","white","woman","","","","null","","","","","","","","",""
"null","<img src=""stim_listA/copy6.gif""style=""height:400px;""></stim_listA>","","html-keyboard-response","99","492379","0.0-13.0-1.12","35012","List2A","white","woman","","","","null","","","","","","","","",""
"null","is being copied by","","html-keyboard-response","100","494395","0.0-13.0-2.12","35012","List2A","white","woman","","","","null","","","","","","","","",""
"6310.200000017881","","","survey-text","101","500710","0.0-13.0-3.12","35012","List2A","white","woman","","","","","{""Q0"":""mike is being copied by luke""}","<img src=""stim_listA/copy6.gif""style=""height:400px;""></stim_listA>","is being copied by","","","","","",""
"null","<div style=""font-size:60px;"">+</div>","","html-keyboard-response","102","501212","0.0-13.0-0.13","35012","List2A","white","woman","","","","null","","","","","","","","",""
"null","<img src=""stim_listA/touch3.gif""style=""height:400px;""></stim_listA>","","html-keyboard-response","103","503216","0.0-13.0-1.13","35012","List2A","white","woman","","","","null","","","","","","","","",""
"null","is touching","","html-keyboard-response","104","505219","0.0-13.0-2.13","35012","List2A","white","woman","","","","null","","","","","","","","",""
"4506.0999999940395","","","survey-text","105","509729","0.0-13.0-3.13","35012","List2A","white","woman","","","","","{""Q0"":""mike is touching kate""}","<img src=""stim_listA/touch3.gif""style=""height:400px;""></stim_listA>","is touching","","","","","",""
"null","<div style=""font-size:60px;"">+</div>","","html-keyboard-response","106","510232","0.0-13.0-0.14","35012","List2A","white","woman","","","","null","","","","","","","","",""
"null","<img src=""stim_listA/shout7.gif""style=""height:400px;""></stim_listA>","","html-keyboard-response","107","512235","0.0-13.0-1.14","35012","List2A","white","woman","","","","null","","","","","","","","",""
"null","is shouting at","","html-keyboard-response","108","514247","0.0-13.0-2.14","35012","List2A","white","woman","","","","null","","","","","","","","",""
"5258.199999988079","","","survey-text","109","519511","0.0-13.0-3.14","35012","List2A","white","woman","","","","","{""Q0"":""ruth is shouting at beth""}","<img src=""stim_listA/shout7.gif""style=""height:400px;""></stim_listA>","is shouting at","","","","","",""
"null","<div style=""font-size:60px;"">+</div>","","html-keyboard-response","110","520020","0.0-13.0-0.15","35012","List2A","white","woman","","","","null","","","","","","","","",""
"null","<img src=""stim_listA/hug5.gif""style=""height:400px;""></stim_listA>","","html-keyboard-response","111","522029","0.0-13.0-1.15","35012","List2A","white","woman","","","","null","","","","","","","","",""
"null","is hugging","","html-keyboard-response","112","524040","0.0-13.0-2.15","35012","List2A","white","woman","","","","null","","","","","","","","",""
"3607","","","survey-text","113","527676","0.0-13.0-3.15","35012","List2A","white","woman","","","","","{""Q0"":""luke is hugging fred""}","<img src=""stim_listA/hug5.gif""style=""height:400px;""></stim_listA>","is hugging","","","","","",""
"null","<div style=""font-size:60px;"">+</div>","","html-keyboard-response","114","528187","0.0-13.0-0.16","35012","List2A","white","woman","","","","null","","","","","","","","",""
"null","<img src=""stim_listA/greet3.gif""style=""height:400px;""></stim_listA>","","html-keyboard-response","115","530193","0.0-13.0-1.16","35012","List2A","white","woman","","","","null","","","","","","","","",""
"null","is greeting","","html-keyboard-response","116","532201","0.0-13.0-2.16","35012","List2A","white","woman","","","","null","","","","","","","","",""
"4078.9000000059605","","","survey-text","117","536283","0.0-13.0-3.16","35012","List2A","white","woman","","","","","{""Q0"":""mike is greeting beth""}","<img src=""stim_listA/greet3.gif""style=""height:400px;""></stim_listA>","is greeting","","","","","",""
"null","<div style=""font-size:60px;"">+</div>","","html-keyboard-response","118","536789","0.0-13.0-0.17","35012","List2A","white","woman","","","","null","","","","","","","","",""
"null","<img src=""stim_listA/shout6.gif""style=""height:400px;""></stim_listA>","","html-keyboard-response","119","538792","0.0-13.0-1.17","35012","List2A","white","woman","","","","null","","","","","","","","",""
"null","is being shouted at by","","html-keyboard-response","120","540806","0.0-13.0-2.17","35012","List2A","white","woman","","","","null","","","","","","","","",""
"5839.700000017881","","","survey-text","121","546653","0.0-13.0-3.17","35012","List2A","white","woman","","","","","{""Q0"":""mike is being shouted at by dave""}","<img src=""stim_listA/shout6.gif""style=""height:400px;""></stim_listA>","is being shouted at by","","","","","",""
"null","<div style=""font-size:60px;"">+</div>","","html-keyboard-response","122","547175","0.0-13.0-0.18","35012","List2A","white","woman","","","","null","","","","","","","","",""
"null","<img src=""stim_listA/hug4.gif""style=""height:400px;""></stim_listA>","","html-keyboard-response","123","549180","0.0-13.0-1.18","35012","List2A","white","woman","","","","null","","","","","","","","",""
"null","is being hugged by","","html-keyboard-response","124","551191","0.0-13.0-2.18","35012","List2A","white","woman","","","","null","","","","","","","","",""
"6097.899999976158","","","survey-text","125","557292","0.0-13.0-3.18","35012","List2A","white","woman","","","","","{""Q0"":""kate is being hugged by mike""}","<img src=""stim_listA/hug4.gif""style=""height:400px;""></stim_listA>","is being hugged by","","","","","",""
"null","<div style=""font-size:60px;"">+</div>","","html-keyboard-response","126","557800","0.0-13.0-0.19","35012","List2A","white","woman","","","","null","","","","","","","","",""
"null","<img src=""stim_listA/greet5.gif""style=""height:400px;""></stim_listA>","","html-keyboard-response","127","559806","0.0-13.0-1.19","35012","List2A","white","woman","","","","null","","","","","","","","",""
"null","is greeting","","html-keyboard-response","128","561824","0.0-13.0-2.19","35012","List2A","white","woman","","","","null","","","","","","","","",""
"4399.4000000059605","","","survey-text","129","566249","0.0-13.0-3.19","35012","List2A","white","woman","","","","","{""Q0"":""dave is greeting fred""}","<img src=""stim_listA/greet5.gif""style=""height:400px;""></stim_listA>","is greeting","","","","","",""
"8093.4000000059605","<img src='img/portrait_matrix_list2.jpg' style='width:900px;height:500px;''></img><p>If you have memorised all the portraits and names and are ready to start, press Continue.</p><p><strong>Please note: Your memory of these faces will be tested 4 times during this experiment.</strong></p>","0","html-button-response","130","574345","0.0-14.0-0.0","35012","List2A","white","woman","","","","","","","","","","","","",""
"2147.5","<img src=""portrait/WM2.jpg""style=""height:400px;""></img>","7","html-button-response","131","577508","0.0-14.0-1.0","35012","List2A","white","woman","","true","7","","","","","","","","","",""
"null","CORRECT","","html-keyboard-response","132","579027","0.0-14.0-2.0-0.0","35012","List2A","white","woman","","","","null","","","","","","","","",""
"1762.7999999821186","<img src=""portrait/BW1.jpg""style=""height:400px;""></img>","0","html-button-response","133","580793","0.0-14.0-4.0","35012","List2A","white","woman","","true","0","","","","","","","","","",""
"null","CORRECT","","html-keyboard-response","134","582305","0.0-14.0-5.0-0.0","35012","List2A","white","woman","","","","null","","","","","","","","",""
"1609.199999988079","<img src=""portrait/WW2.jpg""style=""height:400px;""></img>","3","html-button-response","135","583917","0.0-14.0-7.0","35012","List2A","white","woman","","true","3","","","","","","","","","",""
"null","CORRECT","","html-keyboard-response","136","585442","0.0-14.0-8.0-0.0","35012","List2A","white","woman","","","","null","","","","","","","","",""
"1540.9000000059605","<img src=""portrait/WM1.jpg""style=""height:400px;""></img>","6","html-button-response","137","586986","0.0-14.0-10.0","35012","List2A","white","woman","","true","6","","","","","","","","","",""
"null","CORRECT","","html-keyboard-response","138","588514","0.0-14.0-11.0-0.0","35012","List2A","white","woman","","","","null","","","","","","","","",""
"1135.2000000178814","<img src=""portrait/BM2.jpg""style=""height:400px;""></img>","5","html-button-response","139","589651","0.0-14.0-13.0","35012","List2A","white","woman","","true","5","","","","","","","","","",""
"null","CORRECT","","html-keyboard-response","140","591180","0.0-14.0-14.0-0.0","35012","List2A","white","woman","","","","null","","","","","","","","",""
"1413","<img src=""portrait/WW1.jpg""style=""height:400px;""></img>","1","html-button-response","141","592595","0.0-14.0-16.0","35012","List2A","white","woman","","true","1","","","","","","","","","",""
"null","CORRECT","","html-keyboard-response","142","594116","0.0-14.0-17.0-0.0","35012","List2A","white","woman","","","","null","","","","","","","","",""
"1358.7999999821186","<img src=""portrait/BW2.jpg""style=""height:400px;""></img>","2","html-button-response","143","595477","0.0-14.0-19.0","35012","List2A","white","woman","","true","2","","","","","","","","","",""
"null","CORRECT","","html-keyboard-response","144","597007","0.0-14.0-20.0-0.0","35012","List2A","white","woman","","","","null","","","","","","","","",""
"1311.6000000238419","<img src=""portrait/BM1.jpg""style=""height:400px;""></img>","4","html-button-response","145","598322","0.0-14.0-22.0","35012","List2A","white","woman","","true","4","","","","","","","","","",""
"null","CORRECT","","html-keyboard-response","146","599828","0.0-14.0-23.0-0.0","35012","List2A","white","woman","","","","null","","","","","","","","",""
"955","<p>You got 8 out of 8 right first time. Press Continue.</p>","0","html-button-response","147","600785","0.0-14.0-25.0","35012","List2A","white","woman","","","","","","","","","","","","",""
"null","<div style=""font-size:60px;"">+</div>","","html-keyboard-response","148","602309","0.0-15.0-0.0","35012","List2A","white","woman","","","","null","","","","","","","","",""
"null","<img src=""stim_listA/challenge3.gif""style=""height:400px;""></stim_listA>","","html-keyboard-response","149","604317","0.0-15.0-1.0","35012","List2A","white","woman","","","","null","","","","","","","","",""
"null","is challenging","","html-keyboard-response","150","606334","0.0-15.0-2.0","35012","List2A","white","woman","","","","null","","","","","","","","",""
"5267.299999982119","","","survey-text","151","611608","0.0-15.0-3.0","35012","List2A","white","woman","","","","","{""Q0"":""mike is challenging beth""}","<img src=""stim_listA/challenge3.gif""style=""height:400px;""></stim_listA>","is challenging","","","","","",""
"null","<div style=""font-size:60px;"">+</div>","","html-keyboard-response","152","612115","0.0-15.0-0.1","35012","List2A","white","woman","","","","null","","","","","","","","",""
"null","<img src=""stim_listA/seduce3.gif""style=""height:400px;""></stim_listA>","","html-keyboard-response","153","614128","0.0-15.0-1.1","35012","List2A","white","woman","","","","null","","","","","","","","",""
"null","is seducing","","html-keyboard-response","154","616133","0.0-15.0-2.1","35012","List2A","white","woman","","","","null","","","","","","","","",""
"4193.9000000059605","","","survey-text","155","620334","0.0-15.0-3.1","35012","List2A","white","woman","","","","","{""Q0"":""fred is seducing kate""}","<img src=""stim_listA/seduce3.gif""style=""height:400px;""></stim_listA>","is seducing","","","","","",""
"null","<div style=""font-size:60px;"">+</div>","","html-keyboard-response","156","620841","0.0-15.0-0.2","35012","List2A","white","woman","","","","null","","","","","","","","",""
"null","<img src=""stim_listA/challenge6.gif""style=""height:400px;""></stim_listA>","","html-keyboard-response","157","622851","0.0-15.0-1.2","35012","List2A","white","woman","","","","null","","","","","","","","",""
"null","is being challenged by","","html-keyboard-response","158","624854","0.0-15.0-2.2","35012","List2A","white","woman","","","","null","","","","","","","","",""
"10528.40000000596","","","survey-text","159","635387","0.0-15.0-3.2","35012","List2A","white","woman","","","","","{""Q0"":""mike is being challenged by luke""}","<img src=""stim_listA/challenge6.gif""style=""height:400px;""></stim_listA>","is being challenged by","","","","","",""
"null","<div style=""font-size:60px;"">+</div>","","html-keyboard-response","160","635891","0.0-15.0-0.3","35012","List2A","white","woman","","","","null","","","","","","","","",""
"null","<img src=""stim_listA/challenge4.gif""style=""height:400px;""></stim_listA>","","html-keyboard-response","161","637900","0.0-15.0-1.3","35012","List2A","white","woman","","","","null","","","","","","","","",""
"null","is being challenged by","","html-keyboard-response","162","639908","0.0-15.0-2.3","35012","List2A","white","woman","","","","null","","","","","","","","",""
"5132.600000023842","","","survey-text","163","645069","0.0-15.0-3.3","35012","List2A","white","woman","","","","","{""Q0"":""kate is being challenged by fred""}","<img src=""stim_listA/challenge4.gif""style=""height:400px;""></stim_listA>","is being challenged by","","","","","",""
"null","<div style=""font-size:60px;"">+</div>","","html-keyboard-response","164","645573","0.0-15.0-0.4","35012","List2A","white","woman","","","","null","","","","","","","","",""
"null","<img src=""stim_listA/challenge8.gif""style=""height:400px;""></stim_listA>","","html-keyboard-response","165","647577","0.0-15.0-1.4","35012","List2A","white","woman","","","","null","","","","","","","","",""
"null","is being challenged by","","html-keyboard-response","166","649586","0.0-15.0-2.4","35012","List2A","white","woman","","","","null","","","","","","","","",""
"6347.700000017881","","","survey-text","167","655943","0.0-15.0-3.4","35012","List2A","white","woman","","","","","{""Q0"":""kate is being challenged by ruth""}","<img src=""stim_listA/challenge8.gif""style=""height:400px;""></stim_listA>","is being challenged by","","","","","",""
"null","<div style=""font-size:60px;"">+</div>","","html-keyboard-response","168","656449","0.0-15.0-0.5","35012","List2A","white","woman","","","","null","","","","","","","","",""
"null","<img src=""stim_listA/shout5.gif""style=""height:400px;""></stim_listA>","","html-keyboard-response","169","658452","0.0-15.0-1.5","35012","List2A","white","woman","","","","null","","","","","","","","",""
"null","is shouting at","","html-keyboard-response","170","660458","0.0-15.0-2.5","35012","List2A","white","woman","","","","null","","","","","","","","",""
"8881.59999999404","","","survey-text","171","669345","0.0-15.0-3.5","35012","List2A","white","woman","","","","","{""Q0"":""luke is shouting at fred""}","<img src=""stim_listA/shout5.gif""style=""height:400px;""></stim_listA>","is shouting at","","","","","",""
"null","<div style=""font-size:60px;"">+</div>","","html-keyboard-response","172","669861","0.0-15.0-0.6","35012","List2A","white","woman","","","","null","","","","","","","","",""
"null","<img src=""stim_listA/oppose8.gif""style=""height:400px;""></stim_listA>","","html-keyboard-response","173","671878","0.0-15.0-1.6","35012","List2A","white","woman","","","","null","","","","","","","","",""
"null","is being opposed by","","html-keyboard-response","174","673892","0.0-15.0-2.6","35012","List2A","white","woman","","","","null","","","","","","","","",""
"6612.200000017881","","","survey-text","175","680535","0.0-15.0-3.6","35012","List2A","white","woman","","","","","{""Q0"":""beth is being opposed by ruth""}","<img src=""stim_listA/oppose8.gif""style=""height:400px;""></stim_listA>","is being opposed by","","","","","",""
"null","<div style=""font-size:60px;"">+</div>","","html-keyboard-response","176","681041","0.0-15.0-0.7","35012","List2A","white","woman","","","","null","","","","","","","","",""
"null","<img src=""stim_listA/seduce1.gif""style=""height:400px;""></stim_listA>","","html-keyboard-response","177","683047","0.0-15.0-1.7","35012","List2A","white","woman","","","","null","","","","","","","","",""
"null","is seducing","","html-keyboard-response","178","685064","0.0-15.0-2.7","35012","List2A","white","woman","","","","null","","","","","","","","",""
"7250.800000011921","","","survey-text","179","692320","0.0-15.0-3.7","35012","List2A","white","woman","","","","","{""Q0"":""luke is seducing jane""}","<img src=""stim_listA/seduce1.gif""style=""height:400px;""></stim_listA>","is seducing","","","","","",""
"null","<div style=""font-size:60px;"">+</div>","","html-keyboard-response","180","692836","0.0-15.0-0.8","35012","List2A","white","woman","","","","null","","","","","","","","",""
"null","<img src=""stim_listA/greet8.gif""style=""height:400px;""></stim_listA>","","html-keyboard-response","181","694839","0.0-15.0-1.8","35012","List2A","white","woman","","","","null","","","","","","","","",""
"null","is being greeted by","","html-keyboard-response","182","696852","0.0-15.0-2.8","35012","List2A","white","woman","","","","null","","","","","","","","",""
"4899.800000011921","","","survey-text","183","701755","0.0-15.0-3.8","35012","List2A","white","woman","","","","","{""Q0"":""kate is being greeted by ruth""}","<img src=""stim_listA/greet8.gif""style=""height:400px;""></stim_listA>","is being greeted by","","","","","",""
"null","<div style=""font-size:60px;"">+</div>","","html-keyboard-response","184","702261","0.0-15.0-0.9","35012","List2A","white","woman","","","","null","","","","","","","","",""
"null","<img src=""stim_listA/oppose2.gif""style=""height:400px;""></stim_listA>","","html-keyboard-response","185","704273","0.0-15.0-1.9","35012","List2A","white","woman","","","","null","","","","","","","","",""
"null","is being opposed by","","html-keyboard-response","186","706283","0.0-15.0-2.9","35012","List2A","white","woman","","","","null","","","","","","","","",""
"5914.700000017881","","","survey-text","187","712203","0.0-15.0-3.9","35012","List2A","white","woman","","","","","{""Q0"":""ruth is being opposed by mike""}","<img src=""stim_listA/oppose2.gif""style=""height:400px;""></stim_listA>","is being opposed by","","","","","",""
"null","<div style=""font-size:60px;"">+</div>","","html-keyboard-response","188","712717","0.0-15.0-0.10","35012","List2A","white","woman","","","","null","","","","","","","","",""
"null","<img src=""stim_listA/look4.gif""style=""height:400px;""></stim_listA>","","html-keyboard-response","189","714733","0.0-15.0-1.10","35012","List2A","white","woman","","","","null","","","","","","","","",""
"null","is being looked at by","","html-keyboard-response","190","716740","0.0-15.0-2.10","35012","List2A","white","woman","","","","null","","","","","","","","",""
"5252.800000011921","","","survey-text","191","722018","0.0-15.0-3.10","35012","List2A","white","woman","","","","","{""Q0"":""kate is being looked at by mike""}","<img src=""stim_listA/look4.gif""style=""height:400px;""></stim_listA>","is being looked at by","","","","","",""
"null","<div style=""font-size:60px;"">+</div>","","html-keyboard-response","192","722533","0.0-15.0-0.11","35012","List2A","white","woman","","","","null","","","","","","","","",""
"null","<img src=""stim_listA/oppose1.gif""style=""height:400px;""></stim_listA>","","html-keyboard-response","193","724546","0.0-15.0-1.11","35012","List2A","white","woman","","","","null","","","","","","","","",""
"null","is opposing","","html-keyboard-response","194","726553","0.0-15.0-2.11","35012","List2A","white","woman","","","","null","","","","","","","","",""
"4830.700000017881","","","survey-text","195","731389","0.0-15.0-3.11","35012","List2A","white","woman","","","","","{""Q0"":""dave is opposing kate""}","<img src=""stim_listA/oppose1.gif""style=""height:400px;""></stim_listA>","is opposing","","","","","",""
"null","<div style=""font-size:60px;"">+</div>","","html-keyboard-response","196","731909","0.0-15.0-0.12","35012","List2A","white","woman","","","","null","","","","","","","","",""
"null","<img src=""stim_listA/copy8.gif""style=""height:400px;""></stim_listA>","","html-keyboard-response","197","733921","0.0-15.0-1.12","35012","List2A","white","woman","","","","null","","","","","","","","",""
"null","is being copied by","","html-keyboard-response","198","735930","0.0-15.0-2.12","35012","List2A","white","woman","","","","null","","","","","","","","",""
"6020.700000017881","","","survey-text","199","741956","0.0-15.0-3.12","35012","List2A","white","woman","","","","","{""Q0"":""kate is being copied by ruth""}","<img src=""stim_listA/copy8.gif""style=""height:400px;""></stim_listA>","is being copied by","","","","","",""
"null","<div style=""font-size:60px;"">+</div>","","html-keyboard-response","200","742472","0.0-15.0-0.13","35012","List2A","white","woman","","","","null","","","","","","","","",""
"null","<img src=""stim_listA/kiss4.gif""style=""height:400px;""></stim_listA>","","html-keyboard-response","201","744491","0.0-15.0-1.13","35012","List2A","white","woman","","","","null","","","","","","","","",""
"null","is being kissed by","","html-keyboard-response","202","746493","0.0-15.0-2.13","35012","List2A","white","woman","","","","null","","","","","","","","",""
"5054.199999988079","","","survey-text","203","751553","0.0-15.0-3.13","35012","List2A","white","woman","","","","","{""Q0"":""kate is being kissed by mike""}","<img src=""stim_listA/kiss4.gif""style=""height:400px;""></stim_listA>","is being kissed by","","","","","",""
"null","<div style=""font-size:60px;"">+</div>","","html-keyboard-response","204","752061","0.0-15.0-0.14","35012","List2A","white","woman","","","","null","","","","","","","","",""
"null","<img src=""stim_listA/challenge2.gif""style=""height:400px;""></stim_listA>","","html-keyboard-response","205","754064","0.0-15.0-1.14","35012","List2A","white","woman","","","","null","","","","","","","","",""
"null","is being challenged by","","html-keyboard-response","206","756074","0.0-15.0-2.14","35012","List2A","white","woman","","","","null","","","","","","","","",""
"5670.199999988079","","","survey-text","207","761760","0.0-15.0-3.14","35012","List2A","white","woman","","","","","{""Q0"":""jane is being challenged by luke""}","<img src=""stim_listA/challenge2.gif""style=""height:400px;""></stim_listA>","is being challenged by","","","","","",""
"null","<div style=""font-size:60px;"">+</div>","","html-keyboard-response","208","762272","0.0-15.0-0.15","35012","List2A","white","woman","","","","null","","","","","","","","",""
"null","<img src=""stim_listA/challenge5.gif""style=""height:400px;""></stim_listA>","","html-keyboard-response","209","764288","0.0-15.0-1.15","35012","List2A","white","woman","","","","null","","","","","","","","",""
"null","is challenging","","html-keyboard-response","210","766298","0.0-15.0-2.15","35012","List2A","white","woman","","","","null","","","","","","","","",""
"6525.300000011921","","","survey-text","211","772829","0.0-15.0-3.15","35012","List2A","white","woman","","","","","{""Q0"":""dave is challenging fred""}","<img src=""stim_listA/challenge5.gif""style=""height:400px;""></stim_listA>","is challenging","","","","","",""
"null","<div style=""font-size:60px;"">+</div>","","html-keyboard-response","212","773333","0.0-15.0-0.16","35012","List2A","white","woman","","","","null","","","","","","","","",""
"null","<img src=""stim_listA/look5.gif""style=""height:400px;""></stim_listA>","","html-keyboard-response","213","775346","0.0-15.0-1.16","35012","List2A","white","woman","","","","null","","","","","","","","",""
"null","is looking at","","html-keyboard-response","214","777351","0.0-15.0-2.16","35012","List2A","white","woman","","","","null","","","","","","","","",""
"4095.5999999940395","","","survey-text","215","781462","0.0-15.0-3.16","35012","List2A","white","woman","","","","","{""Q0"":""luke is looking at fred""}","<img src=""stim_listA/look5.gif""style=""height:400px;""></stim_listA>","is looking at","","","","","",""
"null","<div style=""font-size:60px;"">+</div>","","html-keyboard-response","216","781974","0.0-15.0-0.17","35012","List2A","white","woman","","","","null","","","","","","","","",""
"null","<img src=""stim_listA/shout4.gif""style=""height:400px;""></stim_listA>","","html-keyboard-response","217","783980","0.0-15.0-1.17","35012","List2A","white","woman","","","","null","","","","","","","","",""
"null","is being shouted at by","","html-keyboard-response","218","785996","0.0-15.0-2.17","35012","List2A","white","woman","","","","null","","","","","","","","",""
"4841.800000011921","","","survey-text","219","790843","0.0-15.0-3.17","35012","List2A","white","woman","","","","","{""Q0"":""kate is being shouted at by mike""}","<img src=""stim_listA/shout4.gif""style=""height:400px;""></stim_listA>","is being shouted at by","","","","","",""
"null","<div style=""font-size:60px;"">+</div>","","html-keyboard-response","220","791354","0.0-15.0-0.18","35012","List2A","white","woman","","","","null","","","","","","","","",""
"null","<img src=""stim_listA/seduce5.gif""style=""height:400px;""></stim_listA>","","html-keyboard-response","221","793367","0.0-15.0-1.18","35012","List2A","white","woman","","","","null","","","","","","","","",""
"null","is seducing","","html-keyboard-response","222","795373","0.0-15.0-2.18","35012","List2A","white","woman","","","","null","","","","","","","","",""
"24880.69999998808","","","survey-text","223","820261","0.0-15.0-3.18","35012","List2A","white","woman","","","","","{""Q0"":""luke is seducing mike""}","<img src=""stim_listA/seduce5.gif""style=""height:400px;""></stim_listA>","is seducing","","","","","",""
"null","<div style=""font-size:60px;"">+</div>","","html-keyboard-response","224","820777","0.0-15.0-0.19","35012","List2A","white","woman","","","","null","","","","","","","","",""
"null","<img src=""stim_listA/seduce4.gif""style=""height:400px;""></stim_listA>","","html-keyboard-response","225","822784","0.0-15.0-1.19","35012","List2A","white","woman","","","","null","","","","","","","","",""
"null","is being seduced by","","html-keyboard-response","226","824800","0.0-15.0-2.19","35012","List2A","white","woman","","","","null","","","","","","","","",""
"8505.59999999404","","","survey-text","227","833313","0.0-15.0-3.19","35012","List2A","white","woman","","","","","{""Q0"":""beth is being seduced by mike""}","<img src=""stim_listA/seduce4.gif""style=""height:400px;""></stim_listA>","is being seduced by","","","","","",""
"19794.69999998808","<img src='img/portrait_matrix_list2.jpg' style='width:900px;height:500px;''></img><p>If you have memorised all the portraits and names and are ready to start, press Continue.</p><p><strong>Please note: Your memory of these faces will be tested 4 times during this experiment.</strong></p>","0","html-button-response","228","853111","0.0-16.0-0.0","35012","List2A","white","woman","","","","","","","","","","","","",""
"1544.4000000059605","<img src=""portrait/WW2.jpg""style=""height:400px;""></img>","3","html-button-response","229","855659","0.0-16.0-1.0","35012","List2A","white","woman","","true","3","","","","","","","","","",""
"null","CORRECT","","html-keyboard-response","230","857181","0.0-16.0-2.0-0.0","35012","List2A","white","woman","","","","null","","","","","","","","",""
"2306","<img src=""portrait/WW1.jpg""style=""height:400px;""></img>","1","html-button-response","231","859489","0.0-16.0-4.0","35012","List2A","white","woman","","true","1","","","","","","","","","",""
"null","CORRECT","","html-keyboard-response","232","861009","0.0-16.0-5.0-0.0","35012","List2A","white","woman","","","","null","","","","","","","","",""
"1408.4000000059605","<img src=""portrait/BM2.jpg""style=""height:400px;""></img>","5","html-button-response","233","862420","0.0-16.0-7.0","35012","List2A","white","woman","","true","5","","","","","","","","","",""
"null","CORRECT","","html-keyboard-response","234","863945","0.0-16.0-8.0-0.0","35012","List2A","white","woman","","","","null","","","","","","","","",""
"1379","<img src=""portrait/WM1.jpg""style=""height:400px;""></img>","6","html-button-response","235","865325","0.0-16.0-10.0","35012","List2A","white","woman","","true","6","","","","","","","","","",""
"null","CORRECT","","html-keyboard-response","236","866852","0.0-16.0-11.0-0.0","35012","List2A","white","woman","","","","null","","","","","","","","",""
"1167.199999988079","<img src=""portrait/BM1.jpg""style=""height:400px;""></img>","4","html-button-response","237","868021","0.0-16.0-13.0","35012","List2A","white","woman","","true","4","","","","","","","","","",""
"null","CORRECT","","html-keyboard-response","238","869548","0.0-16.0-14.0-0.0","35012","List2A","white","woman","","","","null","","","","","","","","",""
"1398.5999999940395","<img src=""portrait/BW1.jpg""style=""height:400px;""></img>","0","html-button-response","239","870949","0.0-16.0-16.0","35012","List2A","white","woman","","true","0","","","","","","","","","",""
"null","CORRECT","","html-keyboard-response","240","872492","0.0-16.0-17.0-0.0","35012","List2A","white","woman","","","","null","","","","","","","","",""
"1757.8999999761581","<img src=""portrait/BW2.jpg""style=""height:400px;""></img>","2","html-button-response","241","874251","0.0-16.0-19.0","35012","List2A","white","woman","","true","2","","","","","","","","","",""
"null","CORRECT","","html-keyboard-response","242","875777","0.0-16.0-20.0-0.0","35012","List2A","white","woman","","","","null","","","","","","","","",""
"1434.0999999940395","<img src=""portrait/WM2.jpg""style=""height:400px;""></img>","7","html-button-response","243","877213","0.0-16.0-22.0","35012","List2A","white","woman","","true","7","","","","","","","","","",""
"null","CORRECT","","html-keyboard-response","244","878741","0.0-16.0-23.0-0.0","35012","List2A","white","woman","","","","null","","","","","","","","",""
"932.0999999940395","<p>You got 8 out of 8 right first time. Press Continue.</p>","0","html-button-response","245","879675","0.0-16.0-25.0","35012","List2A","white","woman","","","","","","","","","","","","",""
"null","<div style=""font-size:60px;"">+</div>","","html-keyboard-response","246","881190","0.0-17.0-0.0","35012","List2A","white","woman","","","","null","","","","","","","","",""
"null","<img src=""stim_listA/oppose3.gif""style=""height:400px;""></stim_listA>","","html-keyboard-response","247","883195","0.0-17.0-1.0","35012","List2A","white","woman","","","","null","","","","","","","","",""
"null","is opposing","","html-keyboard-response","248","885199","0.0-17.0-2.0","35012","List2A","white","woman","","","","null","","","","","","","","",""
"4398.5999999940395","","","survey-text","249","889605","0.0-17.0-3.0","35012","List2A","white","woman","","","","","{""Q0"":""mike is opposing kate""}","<img src=""stim_listA/oppose3.gif""style=""height:400px;""></stim_listA>","is opposing","","","","","",""
"null","<div style=""font-size:60px;"">+</div>","","html-keyboard-response","250","890116","0.0-17.0-0.1","35012","List2A","white","woman","","","","null","","","","","","","","",""
"null","<img src=""stim_listA/oppose4.gif""style=""height:400px;""></stim_listA>","","html-keyboard-response","251","892120","0.0-17.0-1.1","35012","List2A","white","woman","","","","null","","","","","","","","",""
"null","is being opposed by","","html-keyboard-response","252","894129","0.0-17.0-2.1","35012","List2A","white","woman","","","","null","","","","","","","","",""
"4931.300000011921","","","survey-text","253","899066","0.0-17.0-3.1","35012","List2A","white","woman","","","","","{""Q0"":""beth is being opposed by fred""}","<img src=""stim_listA/oppose4.gif""style=""height:400px;""></stim_listA>","is being opposed by","","","","","",""
"null","<div style=""font-size:60px;"">+</div>","","html-keyboard-response","254","899576","0.0-17.0-0.2","35012","List2A","white","woman","","","","null","","","","","","","","",""
"null","<img src=""stim_listA/kiss3.gif""style=""height:400px;""></stim_listA>","","html-keyboard-response","255","901601","0.0-17.0-1.2","35012","List2A","white","woman","","","","null","","","","","","","","",""
"null","is kissing","","html-keyboard-response","256","903618","0.0-17.0-2.2","35012","List2A","white","woman","","","","null","","","","","","","","",""
"3440.899999976158","","","survey-text","257","907088","0.0-17.0-3.2","35012","List2A","white","woman","","","","","{""Q0"":""fred is kissing beth""}","<img src=""stim_listA/kiss3.gif""style=""height:400px;""></stim_listA>","is kissing","","","","","",""
"null","<div style=""font-size:60px;"">+</div>","","html-keyboard-response","258","907601","0.0-17.0-0.3","35012","List2A","white","woman","","","","null","","","","","","","","",""
"null","<img src=""stim_listA/seduce6.gif""style=""height:400px;""></stim_listA>","","html-keyboard-response","259","909604","0.0-17.0-1.3","35012","List2A","white","woman","","","","null","","","","","","","","",""
"null","is being seduced by","","html-keyboard-response","260","911612","0.0-17.0-2.3","35012","List2A","white","woman","","","","null","","","","","","","","",""
"4971.899999976158","","","survey-text","261","916614","0.0-17.0-3.3","35012","List2A","white","woman","","","","","{""Q0"":""fred is being seduced by dave""}","<img src=""stim_listA/seduce6.gif""style=""height:400px;""></stim_listA>","is being seduced by","","","","","",""
"null","<div style=""font-size:60px;"">+</div>","","html-keyboard-response","262","917119","0.0-17.0-0.4","35012","List2A","white","woman","","","","null","","","","","","","","",""
"null","<img src=""stim_listA/look7.gif""style=""height:400px;""></stim_listA>","","html-keyboard-response","263","919123","0.0-17.0-1.4","35012","List2A","white","woman","","","","null","","","","","","","","",""
"null","is looking at","","html-keyboard-response","264","921127","0.0-17.0-2.4","35012","List2A","white","woman","","","","null","","","","","","","","",""
"3138.800000011921","","","survey-text","265","924270","0.0-17.0-3.4","35012","List2A","white","woman","","","","","{""Q0"":""ruth is looking at beth""}","<img src=""stim_listA/look7.gif""style=""height:400px;""></stim_listA>","is looking at","","","","","",""
"null","<div style=""font-size:60px;"">+</div>","","html-keyboard-response","266","924782","0.0-17.0-0.5","35012","List2A","white","woman","","","","null","","","","","","","","",""
"null","<img src=""stim_listA/oppose7.gif""style=""height:400px;""></stim_listA>","","html-keyboard-response","267","926784","0.0-17.0-1.5","35012","List2A","white","woman","","","","null","","","","","","","","",""
"null","is opposing","","html-keyboard-response","268","928799","0.0-17.0-2.5","35012","List2A","white","woman","","","","null","","","","","","","","",""
"4212.0999999940395","","","survey-text","269","933017","0.0-17.0-3.5","35012","List2A","white","woman","","","","","{""Q0"":""jane is opposing kate""}","<img src=""stim_listA/oppose7.gif""style=""height:400px;""></stim_listA>","is opposing","","","","","",""
"null","<div style=""font-size:60px;"">+</div>","","html-keyboard-response","270","933529","0.0-17.0-0.6","35012","List2A","white","woman","","","","null","","","","","","","","",""
"null","<img src=""stim_listA/hug7.gif""style=""height:400px;""></stim_listA>","","html-keyboard-response","271","935533","0.0-17.0-1.6","35012","List2A","white","woman","","","","null","","","","","","","","",""
"null","is hugging","","html-keyboard-response","272","937539","0.0-17.0-2.6","35012","List2A","white","woman","","","","null","","","","","","","","",""
"3110.4000000059605","","","survey-text","273","940655","0.0-17.0-3.6","35012","List2A","white","woman","","","","","{""Q0"":""ruth is hugging beth""}","<img src=""stim_listA/hug7.gif""style=""height:400px;""></stim_listA>","is hugging","","","","","",""
"null","<div style=""font-size:60px;"">+</div>","","html-keyboard-response","274","941161","0.0-17.0-0.7","35012","List2A","white","woman","","","","null","","","","","","","","",""
"null","<img src=""stim_listA/kiss7.gif""style=""height:400px;""></stim_listA>","","html-keyboard-response","275","943169","0.0-17.0-1.7","35012","List2A","white","woman","","","","null","","","","","","","","",""
"null","is kissing","","html-keyboard-response","276","945172","0.0-17.0-2.7","35012","List2A","white","woman","","","","null","","","","","","","","",""
"3129.0999999940395","","","survey-text","277","948305","0.0-17.0-3.7","35012","List2A","white","woman","","","","","{""Q0"":""ruth is kissing beth""}","<img src=""stim_listA/kiss7.gif""style=""height:400px;""></stim_listA>","is kissing","","","","","",""
"null","<div style=""font-size:60px;"">+</div>","","html-keyboard-response","278","948818","0.0-17.0-0.8","35012","List2A","white","woman","","","","null","","","","","","","","",""
"null","<img src=""stim_listA/shout2.gif""style=""height:400px;""></stim_listA>","","html-keyboard-response","279","950820","0.0-17.0-1.8","35012","List2A","white","woman","","","","null","","","","","","","","",""
"null","is being shouted at by","","html-keyboard-response","280","952823","0.0-17.0-2.8","35012","List2A","white","woman","","","","null","","","","","","","","",""
"5218.4000000059605","","","survey-text","281","958047","0.0-17.0-3.8","35012","List2A","white","woman","","","","","{""Q0"":""jane is being shouted at by dave""}","<img src=""stim_listA/shout2.gif""style=""height:400px;""></stim_listA>","is being shouted at by","","","","","",""
"null","<div style=""font-size:60px;"">+</div>","","html-keyboard-response","282","958554","0.0-17.0-0.9","35012","List2A","white","woman","","","","null","","","","","","","","",""
"null","<img src=""stim_listA/seduce7.gif""style=""height:400px;""></stim_listA>","","html-keyboard-response","283","960559","0.0-17.0-1.9","35012","List2A","white","woman","","","","null","","","","","","","","",""
"null","is seducing","","html-keyboard-response","284","962566","0.0-17.0-2.9","35012","List2A","white","woman","","","","null","","","","","","","","",""
"4340.800000011921","","","survey-text","285","966911","0.0-17.0-3.9","35012","List2A","white","woman","","","","","{""Q0"":""ruth is seducing kate""}","<img src=""stim_listA/seduce7.gif""style=""height:400px;""></stim_listA>","is seducing","","","","","",""
"null","<div style=""font-size:60px;"">+</div>","","html-keyboard-response","286","967416","0.0-17.0-0.10","35012","List2A","white","woman","","","","null","","","","","","","","",""
"null","<img src=""stim_listA/hug8.gif""style=""height:400px;""></stim_listA>","","html-keyboard-response","287","969423","0.0-17.0-1.10","35012","List2A","white","woman","","","","null","","","","","","","","",""
"null","is being hugged by","","html-keyboard-response","288","971429","0.0-17.0-2.10","35012","List2A","white","woman","","","","null","","","","","","","","",""
"5803.299999982119","","","survey-text","289","977237","0.0-17.0-3.10","35012","List2A","white","woman","","","","","{""Q0"":""jane is being hugged by kate""}","<img src=""stim_listA/hug8.gif""style=""height:400px;""></stim_listA>","is being hugged by","","","","","",""
"null","<div style=""font-size:60px;"">+</div>","","html-keyboard-response","290","977744","0.0-17.0-0.11","35012","List2A","white","woman","","","","null","","","","","","","","",""
"null","<img src=""stim_listA/greet4.gif""style=""height:400px;""></stim_listA>","","html-keyboard-response","291","979751","0.0-17.0-1.11","35012","List2A","white","woman","","","","null","","","","","","","","",""
"null","is being greeted by","","html-keyboard-response","292","981756","0.0-17.0-2.11","35012","List2A","white","woman","","","","null","","","","","","","","",""
"5209.199999988079","","","survey-text","293","986993","0.0-17.0-3.11","35012","List2A","white","woman","","","","","{""Q0"":""kate is being greeted by fred""}","<img src=""stim_listA/greet4.gif""style=""height:400px;""></stim_listA>","is being greeted by","","","","","",""
"null","<div style=""font-size:60px;"">+</div>","","html-keyboard-response","294","987506","0.0-17.0-0.12","35012","List2A","white","woman","","","","null","","","","","","","","",""
"null","<img src=""stim_listA/oppose5.gif""style=""height:400px;""></stim_listA>","","html-keyboard-response","295","989509","0.0-17.0-1.12","35012","List2A","white","woman","","","","null","","","","","","","","",""
"null","is opposing","","html-keyboard-response","296","991525","0.0-17.0-2.12","35012","List2A","white","woman","","","","null","","","","","","","","",""
"3970.2000000178814","","","survey-text","297","995500","0.0-17.0-3.12","35012","List2A","white","woman","","","","","{""Q0"":""dave is opposing mike""}","<img src=""stim_listA/oppose5.gif""style=""height:400px;""></stim_listA>","is opposing","","","","","",""
"null","<div style=""font-size:60px;"">+</div>","","html-keyboard-response","298","996006","0.0-17.0-0.13","35012","List2A","white","woman","","","","null","","","","","","","","",""
"null","<img src=""stim_listA/copy2.gif""style=""height:400px;""></stim_listA>","","html-keyboard-response","299","998012","0.0-17.0-1.13","35012","List2A","white","woman","","","","null","","","","","","","","",""
"null","is being copied by","","html-keyboard-response","300","1000019","0.0-17.0-2.13","35012","List2A","white","woman","","","","null","","","","","","","","",""
"4863.5","","","survey-text","301","1004888","0.0-17.0-3.13","35012","List2A","white","woman","","","","","{""Q0"":""jane is being copied by luke""}","<img src=""stim_listA/copy2.gif""style=""height:400px;""></stim_listA>","is being copied by","","","","","",""
"null","<div style=""font-size:60px;"">+</div>","","html-keyboard-response","302","1005394","0.0-17.0-0.14","35012","List2A","white","woman","","","","null","","","","","","","","",""
"null","<img src=""stim_listA/seduce2.gif""style=""height:400px;""></stim_listA>","","html-keyboard-response","303","1007407","0.0-17.0-1.14","35012","List2A","white","woman","","","","null","","","","","","","","",""
"null","is being seduced by","","html-keyboard-response","304","1009410","0.0-17.0-2.14","35012","List2A","white","woman","","","","null","","","","","","","","",""
"4736.0999999940395","","","survey-text","305","1014153","0.0-17.0-3.14","35012","List2A","white","woman","","","","","{""Q0"":""ruth is being seduced by dave""}","<img src=""stim_listA/seduce2.gif""style=""height:400px;""></stim_listA>","is being seduced by","","","","","",""
"null","<div style=""font-size:60px;"">+</div>","","html-keyboard-response","306","1014663","0.0-17.0-0.15","35012","List2A","white","woman","","","","null","","","","","","","","",""
"null","<img src=""stim_listA/hug2.gif""style=""height:400px;""></stim_listA>","","html-keyboard-response","307","1016673","0.0-17.0-1.15","35012","List2A","white","woman","","","","null","","","","","","","","",""
"null","is being hugged by","","html-keyboard-response","308","1018688","0.0-17.0-2.15","35012","List2A","white","woman","","","","null","","","","","","","","",""
"4727.0999999940395","","","survey-text","309","1023423","0.0-17.0-3.15","35012","List2A","white","woman","","","","","{""Q0"":""jane is being hugged by dave""}","<img src=""stim_listA/hug2.gif""style=""height:400px;""></stim_listA>","is being hugged by","","","","","",""
"null","<div style=""font-size:60px;"">+</div>","","html-keyboard-response","310","1023929","0.0-17.0-0.16","35012","List2A","white","woman","","","","null","","","","","","","","",""
"null","<img src=""stim_listA/touch5.gif""style=""height:400px;""></stim_listA>","","html-keyboard-response","311","1025940","0.0-17.0-1.16","35012","List2A","white","woman","","","","null","","","","","","","","",""
"null","is touching","","html-keyboard-response","312","1027954","0.0-17.0-2.16","35012","List2A","white","woman","","","","null","","","","","","","","",""
"6011","","","survey-text","313","1033970","0.0-17.0-3.16","35012","List2A","white","woman","","","","","{""Q0"":""dave is touching mike""}","<img src=""stim_listA/touch5.gif""style=""height:400px;""></stim_listA>","is touching","","","","","",""
"null","<div style=""font-size:60px;"">+</div>","","html-keyboard-response","314","1034475","0.0-17.0-0.17","35012","List2A","white","woman","","","","null","","","","","","","","",""
"null","<img src=""stim_listA/look8.gif""style=""height:400px;""></stim_listA>","","html-keyboard-response","315","1036488","0.0-17.0-1.17","35012","List2A","white","woman","","","","null","","","","","","","","",""
"null","is being looked at by","","html-keyboard-response","316","1038497","0.0-17.0-2.17","35012","List2A","white","woman","","","","null","","","","","","","","",""
"4761.199999988079","","","survey-text","317","1043264","0.0-17.0-3.17","35012","List2A","white","woman","","","","","{""Q0"":""kate is being looked at by jane""}","<img src=""stim_listA/look8.gif""style=""height:400px;""></stim_listA>","is being looked at by","","","","","",""
"null","<div style=""font-size:60px;"">+</div>","","html-keyboard-response","318","1043778","0.0-17.0-0.18","35012","List2A","white","woman","","","","null","","","","","","","","",""
"null","<img src=""stim_listA/touch2.gif""style=""height:400px;""></stim_listA>","","html-keyboard-response","319","1045788","0.0-17.0-1.18","35012","List2A","white","woman","","","","null","","","","","","","","",""
"null","is being touched by","","html-keyboard-response","320","1047792","0.0-17.0-2.18","35012","List2A","white","woman","","","","null","","","","","","","","",""
"4146.299999982119","","","survey-text","321","1051962","0.0-17.0-3.18","35012","List2A","white","woman","","","","","{""Q0"":""ruth is being touched by luke""}","<img src=""stim_listA/touch2.gif""style=""height:400px;""></stim_listA>","is being touched by","","","","","",""
"null","<div style=""font-size:60px;"">+</div>","","html-keyboard-response","322","1052473","0.0-17.0-0.19","35012","List2A","white","woman","","","","null","","","","","","","","",""
"null","<img src=""stim_listA/look1.gif""style=""height:400px;""></stim_listA>","","html-keyboard-response","323","1054476","0.0-17.0-1.19","35012","List2A","white","woman","","","","null","","","","","","","","",""
"null","is looking at","","html-keyboard-response","324","1056486","0.0-17.0-2.19","35012","List2A","white","woman","","","","null","","","","","","","","",""
"3512","","","survey-text","325","1060010","0.0-17.0-3.19","35012","List2A","white","woman","","","","","{""Q0"":""ruth is looking at luke""}","<img src=""stim_listA/look1.gif""style=""height:400px;""></stim_listA>","is looking at","","","","","",""
"4287.199999988079","<img src='img/portrait_matrix_list2.jpg' style='width:900px;height:500px;''></img><p>If you have memorised all the portraits and names and are ready to start, press Continue.</p><p><strong>Please note: Your memory of these faces will be tested 4 times during this experiment.</strong></p>","0","html-button-response","326","1064301","0.0-18.0-0.0","35012","List2A","white","woman","","","","","","","","","","","","",""
"1381.2000000178814","<img src=""portrait/BM2.jpg""style=""height:400px;""></img>","5","html-button-response","327","1066693","0.0-18.0-1.0","35012","List2A","white","woman","","true","5","","","","","","","","","",""
"null","CORRECT","","html-keyboard-response","328","1068214","0.0-18.0-2.0-0.0","35012","List2A","white","woman","","","","null","","","","","","","","",""
"1523.4000000059605","<img src=""portrait/WW2.jpg""style=""height:400px;""></img>","3","html-button-response","329","1069739","0.0-18.0-4.0","35012","List2A","white","woman","","true","3","","","","","","","","","",""
"null","CORRECT","","html-keyboard-response","330","1071259","0.0-18.0-5.0-0.0","35012","List2A","white","woman","","","","null","","","","","","","","",""
"1152.800000011921","<img src=""portrait/WW1.jpg""style=""height:400px;""></img>","1","html-button-response","331","1072414","0.0-18.0-7.0","35012","List2A","white","woman","","true","1","","","","","","","","","",""
"null","CORRECT","","html-keyboard-response","332","1073933","0.0-18.0-8.0-0.0","35012","List2A","white","woman","","","","null","","","","","","","","",""
"1756.1000000238419","<img src=""portrait/WM2.jpg""style=""height:400px;""></img>","7","html-button-response","333","1075691","0.0-18.0-10.0","35012","List2A","white","woman","","true","7","","","","","","","","","",""
"null","CORRECT","","html-keyboard-response","334","1077203","0.0-18.0-11.0-0.0","35012","List2A","white","woman","","","","null","","","","","","","","",""
"1998","<img src=""portrait/WM1.jpg""style=""height:400px;""></img>","6","html-button-response","335","1079203","0.0-18.0-13.0","35012","List2A","white","woman","","true","6","","","","","","","","","",""
"null","CORRECT","","html-keyboard-response","336","1080722","0.0-18.0-14.0-0.0","35012","List2A","white","woman","","","","null","","","","","","","","",""
"1322.9000000059605","<img src=""portrait/BW1.jpg""style=""height:400px;""></img>","0","html-button-response","337","1082047","0.0-18.0-16.0","35012","List2A","white","woman","","true","0","","","","","","","","","",""
"null","CORRECT","","html-keyboard-response","338","1083571","0.0-18.0-17.0-0.0","35012","List2A","white","woman","","","","null","","","","","","","","",""
"975","<img src=""portrait/BM1.jpg""style=""height:400px;""></img>","4","html-button-response","339","1084548","0.0-18.0-19.0","35012","List2A","white","woman","","true","4","","","","","","","","","",""
"null","CORRECT","","html-keyboard-response","340","1086069","0.0-18.0-20.0-0.0","35012","List2A","white","woman","","","","null","","","","","","","","",""
"801.1999999880791","<img src=""portrait/BW2.jpg""style=""height:400px;""></img>","2","html-button-response","341","1086872","0.0-18.0-22.0","35012","List2A","white","woman","","true","2","","","","","","","","","",""
"null","CORRECT","","html-keyboard-response","342","1088402","0.0-18.0-23.0-0.0","35012","List2A","white","woman","","","","null","","","","","","","","",""
"767.1999999880791","<p>You got 8 out of 8 right first time. Press Continue.</p>","0","html-button-response","343","1089172","0.0-18.0-25.0","35012","List2A","white","woman","","","","","","","","","","","","",""
"null","<div style=""font-size:60px;"">+</div>","","html-keyboard-response","344","1090675","0.0-19.0-0.0","35012","List2A","white","woman","","","","null","","","","","","","","",""
"null","<img src=""stim_listA/touch1.gif""style=""height:400px;""></stim_listA>","","html-keyboard-response","345","1092692","0.0-19.0-1.0","35012","List2A","white","woman","","","","null","","","","","","","","",""
"null","is touching","","html-keyboard-response","346","1094695","0.0-19.0-2.0","35012","List2A","white","woman","","","","null","","","","","","","","",""
"4573.699999988079","","","survey-text","347","1099277","0.0-19.0-3.0","35012","List2A","white","woman","","","","","{""Q0"":""dave is touching jane""}","<img src=""stim_listA/touch1.gif""style=""height:400px;""></stim_listA>","is touching","","","","","",""
"null","<div style=""font-size:60px;"">+</div>","","html-keyboard-response","348","1099788","0.0-19.0-0.1","35012","List2A","white","woman","","","","null","","","","","","","","",""
"null","<img src=""stim_listA/copy7.gif""style=""height:400px;""></stim_listA>","","html-keyboard-response","349","1101800","0.0-19.0-1.1","35012","List2A","white","woman","","","","null","","","","","","","","",""
"null","is copying","","html-keyboard-response","350","1103806","0.0-19.0-2.1","35012","List2A","white","woman","","","","null","","","","","","","","",""
"3295.699999988079","","","survey-text","351","1107107","0.0-19.0-3.1","35012","List2A","white","woman","","","","","{""Q0"":""jane is copying ruth""}","<img src=""stim_listA/copy7.gif""style=""height:400px;""></stim_listA>","is copying","","","","","",""
"null","<div style=""font-size:60px;"">+</div>","","html-keyboard-response","352","1107617","0.0-19.0-0.2","35012","List2A","white","woman","","","","null","","","","","","","","",""
"null","<img src=""stim_listA/look6.gif""style=""height:400px;""></stim_listA>","","html-keyboard-response","353","1109621","0.0-19.0-1.2","35012","List2A","white","woman","","","","null","","","","","","","","",""
"null","is being looked at by","","html-keyboard-response","354","1111636","0.0-19.0-2.2","35012","List2A","white","woman","","","","null","","","","","","","","",""
"4592.700000017881","","","survey-text","355","1116235","0.0-19.0-3.2","35012","List2A","white","woman","","","","","{""Q0"":""mike is being looked at by dave""}","<img src=""stim_listA/look6.gif""style=""height:400px;""></stim_listA>","is being looked at by","","","","","",""
"null","<div style=""font-size:60px;"">+</div>","","html-keyboard-response","356","1116743","0.0-19.0-0.3","35012","List2A","white","woman","","","","null","","","","","","","","",""
"null","<img src=""stim_listA/shout8.gif""style=""height:400px;""></stim_listA>","","html-keyboard-response","357","1118753","0.0-19.0-1.3","35012","List2A","white","woman","","","","null","","","","","","","","",""
"null","is being shouted at by","","html-keyboard-response","358","1120758","0.0-19.0-2.3","35012","List2A","white","woman","","","","null","","","","","","","","",""
"4365.600000023842","","","survey-text","359","1125130","0.0-19.0-3.3","35012","List2A","white","woman","","","","","{""Q0"":""kate is being shouted at by jane""}","<img src=""stim_listA/shout8.gif""style=""height:400px;""></stim_listA>","is being shouted at by","","","","","",""
"null","<div style=""font-size:60px;"">+</div>","","html-keyboard-response","360","1125641","0.0-19.0-0.4","35012","List2A","white","woman","","","","null","","","","","","","","",""
"null","<img src=""stim_listA/kiss6.gif""style=""height:400px;""></stim_listA>","","html-keyboard-response","361","1127658","0.0-19.0-1.4","35012","List2A","white","woman","","","","null","","","","","","","","",""
"null","is being kissed by","","html-keyboard-response","362","1129664","0.0-19.0-2.4","35012","List2A","white","woman","","","","null","","","","","","","","",""
"4562.5","","","survey-text","363","1134233","0.0-19.0-3.4","35012","List2A","white","woman","","","","","{""Q0"":""mike is being kissed by dave""}","<img src=""stim_listA/kiss6.gif""style=""height:400px;""></stim_listA>","is being kissed by","","","","","",""
"null","<div style=""font-size:60px;"">+</div>","","html-keyboard-response","364","1134751","0.0-19.0-0.5","35012","List2A","white","woman","","","","null","","","","","","","","",""
"null","<img src=""stim_listA/challenge7.gif""style=""height:400px;""></stim_listA>","","html-keyboard-response","365","1136759","0.0-19.0-1.5","35012","List2A","white","woman","","","","null","","","","","","","","",""
"null","is challenging","","html-keyboard-response","366","1138765","0.0-19.0-2.5","35012","List2A","white","woman","","","","null","","","","","","","","",""
"8068.199999988079","","","survey-text","367","1146839","0.0-19.0-3.5","35012","List2A","white","woman","","","","","{""Q0"":""jane is challenging beth""}","<img src=""stim_listA/challenge7.gif""style=""height:400px;""></stim_listA>","is challenging","","","","","",""
"null","<div style=""font-size:60px;"">+</div>","","html-keyboard-response","368","1147355","0.0-19.0-0.6","35012","List2A","white","woman","","","","null","","","","","","","","",""
"null","<img src=""stim_listA/touch7.gif""style=""height:400px;""></stim_listA>","","html-keyboard-response","369","1149373","0.0-19.0-1.6","35012","List2A","white","woman","","","","null","","","","","","","","",""
"null","is touching","","html-keyboard-response","370","1151382","0.0-19.0-2.6","35012","List2A","white","woman","","","","null","","","","","","","","",""
"3987","","","survey-text","371","1155374","0.0-19.0-3.6","35012","List2A","white","woman","","","","","{""Q0"":""jane is touching kate""}","<img src=""stim_listA/touch7.gif""style=""height:400px;""></stim_listA>","is touching","","","","","",""
"null","<div style=""font-size:60px;"">+</div>","","html-keyboard-response","372","1155879","0.0-19.0-0.7","35012","List2A","white","woman","","","","null","","","","","","","","",""
"null","<img src=""stim_listA/copy1.gif""style=""height:400px;""></stim_listA>","","html-keyboard-response","373","1157893","0.0-19.0-1.7","35012","List2A","white","woman","","","","null","","","","","","","","",""
"null","is copying","","html-keyboard-response","374","1159896","0.0-19.0-2.7","35012","List2A","white","woman","","","","null","","","","","","","","",""
"4166.200000017881","","","survey-text","375","1164066","0.0-19.0-3.7","35012","List2A","white","woman","","","","","{""Q0"":""dave is copying ruth""}","<img src=""stim_listA/copy1.gif""style=""height:400px;""></stim_listA>","is copying","","","","","",""
"null","<div style=""font-size:60px;"">+</div>","","html-keyboard-response","376","1164579","0.0-19.0-0.8","35012","List2A","white","woman","","","","null","","","","","","","","",""
"null","<img src=""stim_listA/challenge1.gif""style=""height:400px;""></stim_listA>","","html-keyboard-response","377","1166582","0.0-19.0-1.8","35012","List2A","white","woman","","","","null","","","","","","","","",""
"null","is challenging","","html-keyboard-response","378","1168589","0.0-19.0-2.8","35012","List2A","white","woman","","","","null","","","","","","","","",""
"5994.100000023842","","","survey-text","379","1174591","0.0-19.0-3.8","35012","List2A","white","woman","","","","","{""Q0"":""dave is challenging ruth""}","<img src=""stim_listA/challenge1.gif""style=""height:400px;""></stim_listA>","is challenging","","","","","",""
"null","<div style=""font-size:60px;"">+</div>","","html-keyboard-response","380","1175097","0.0-19.0-0.9","35012","List2A","white","woman","","","","null","","","","","","","","",""
"null","<img src=""stim_listA/hug1.gif""style=""height:400px;""></stim_listA>","","html-keyboard-response","381","1177108","0.0-19.0-1.9","35012","List2A","white","woman","","","","null","","","","","","","","",""
"null","is hugging","","html-keyboard-response","382","1179111","0.0-19.0-2.9","35012","List2A","white","woman","","","","null","","","","","","","","",""
"5772.0999999940395","","","survey-text","383","1184889","0.0-19.0-3.9","35012","List2A","white","woman","","","","","{""Q0"":""luke is hugging ruth""}","<img src=""stim_listA/hug1.gif""style=""height:400px;""></stim_listA>","is hugging","","","","","",""
"null","<div style=""font-size:60px;"">+</div>","","html-keyboard-response","384","1185394","0.0-19.0-0.10","35012","List2A","white","woman","","","","null","","","","","","","","",""
"null","<img src=""stim_listA/copy3.gif""style=""height:400px;""></stim_listA>","","html-keyboard-response","385","1187400","0.0-19.0-1.10","35012","List2A","white","woman","","","","null","","","","","","","","",""
"null","is copying","","html-keyboard-response","386","1189409","0.0-19.0-2.10","35012","List2A","white","woman","","","","null","","","","","","","","",""
"3864.5999999940395","","","survey-text","387","1193301","0.0-19.0-3.10","35012","List2A","white","woman","","","","","{""Q0"":""mike is copying beth""}","<img src=""stim_listA/copy3.gif""style=""height:400px;""></stim_listA>","is copying","","","","","",""
"null","<div style=""font-size:60px;"">+</div>","","html-keyboard-response","388","1193813","0.0-19.0-0.11","35012","List2A","white","woman","","","","null","","","","","","","","",""
"null","<img src=""stim_listA/greet7.gif""style=""height:400px;""></stim_listA>","","html-keyboard-response","389","1195826","0.0-19.0-1.11","35012","List2A","white","woman","","","","null","","","","","","","","",""
"null","is greeting","","html-keyboard-response","390","1197831","0.0-19.0-2.11","35012","List2A","white","woman","","","","null","","","","","","","","",""
"3227.9000000059605","","","survey-text","391","1201075","0.0-19.0-3.11","35012","List2A","white","woman","","","","","{""Q0"":""jane is greeting beth""}","<img src=""stim_listA/greet7.gif""style=""height:400px;""></stim_listA>","is greeting","","","","","",""
"null","<div style=""font-size:60px;"">+</div>","","html-keyboard-response","392","1201590","0.0-19.0-0.12","35012","List2A","white","woman","","","","null","","","","","","","","",""
"null","<img src=""stim_listA/greet6.gif""style=""height:400px;""></stim_listA>","","html-keyboard-response","393","1203595","0.0-19.0-1.12","35012","List2A","white","woman","","","","null","","","","","","","","",""
"null","is being greeted by","","html-keyboard-response","394","1205605","0.0-19.0-2.12","35012","List2A","white","woman","","","","null","","","","","","","","",""
"6005.299999982119","","","survey-text","395","1211617","0.0-19.0-3.12","35012","List2A","white","woman","","","","","{""Q0"":""mike is being greeted by luke""}","<img src=""stim_listA/greet6.gif""style=""height:400px;""></stim_listA>","is being greeted by","","","","","",""
"null","<div style=""font-size:60px;"">+</div>","","html-keyboard-response","396","1212126","0.0-19.0-0.13","35012","List2A","white","woman","","","","null","","","","","","","","",""
"null","<img src=""stim_listA/kiss8.gif""style=""height:400px;""></stim_listA>","","html-keyboard-response","397","1214131","0.0-19.0-1.13","35012","List2A","white","woman","","","","null","","","","","","","","",""
"null","is being kissed by","","html-keyboard-response","398","1216143","0.0-19.0-2.13","35012","List2A","white","woman","","","","null","","","","","","","","",""
"4637.0999999940395","","","survey-text","399","1220811","0.0-19.0-3.13","35012","List2A","white","woman","","","","","{""Q0"":""jane is being kissed by kate""}","<img src=""stim_listA/kiss8.gif""style=""height:400px;""></stim_listA>","is being kissed by","","","","","",""
"null","<div style=""font-size:60px;"">+</div>","","html-keyboard-response","400","1221325","0.0-19.0-0.14","35012","List2A","white","woman","","","","null","","","","","","","","",""
"null","<img src=""stim_listA/oppose6.gif""style=""height:400px;""></stim_listA>","","html-keyboard-response","401","1223329","0.0-19.0-1.14","35012","List2A","white","woman","","","","null","","","","","","","","",""
"null","is being opposed by","","html-keyboard-response","402","1225331","0.0-19.0-2.14","35012","List2A","white","woman","","","","null","","","","","","","","",""
"11342.200000017881","","","survey-text","403","1236678","0.0-19.0-3.14","35012","List2A","white","woman","","","","","{""Q0"":""fred is being opposed by luke""}","<img src=""stim_listA/oppose6.gif""style=""height:400px;""></stim_listA>","is being opposed by","","","","","",""
"null","<div style=""font-size:60px;"">+</div>","","html-keyboard-response","404","1237181","0.0-19.0-0.15","35012","List2A","white","woman","","","","null","","","","","","","","",""
"null","<img src=""stim_listA/copy5.gif""style=""height:400px;""></stim_listA>","","html-keyboard-response","405","1239199","0.0-19.0-1.15","35012","List2A","white","woman","","","","null","","","","","","","","",""
"null","is copying","","html-keyboard-response","406","1241202","0.0-19.0-2.15","35012","List2A","white","woman","","","","null","","","","","","","","",""
"3904.2999999821186","","","survey-text","407","1245129","0.0-19.0-3.15","35012","List2A","white","woman","","","","","{""Q0"":""dave is copying fred""}","<img src=""stim_listA/copy5.gif""style=""height:400px;""></stim_listA>","is copying","","","","","",""
"null","<div style=""font-size:60px;"">+</div>","","html-keyboard-response","408","1245633","0.0-19.0-0.16","35012","List2A","white","woman","","","","null","","","","","","","","",""
"null","<img src=""stim_listA/hug6.gif""style=""height:400px;""></stim_listA>","","html-keyboard-response","409","1247642","0.0-19.0-1.16","35012","List2A","white","woman","","","","null","","","","","","","","",""
"null","is being hugged by","","html-keyboard-response","410","1249651","0.0-19.0-2.16","35012","List2A","white","woman","","","","null","","","","","","","","",""
"4845.5","","","survey-text","411","1254526","0.0-19.0-3.16","35012","List2A","white","woman","","","","","{""Q0"":""mike is being hugged by dave""}","<img src=""stim_listA/hug6.gif""style=""height:400px;""></stim_listA>","is being hugged by","","","","","",""
"null","<div style=""font-size:60px;"">+</div>","","html-keyboard-response","412","1255038","0.0-19.0-0.17","35012","List2A","white","woman","","","","null","","","","","","","","",""
"null","<img src=""stim_listA/greet2.gif""style=""height:400px;""></stim_listA>","","html-keyboard-response","413","1257047","0.0-19.0-1.17","35012","List2A","white","woman","","","","null","","","","","","","","",""
"null","is being greeted by","","html-keyboard-response","414","1259061","0.0-19.0-2.17","35012","List2A","white","woman","","","","null","","","","","","","","",""
"4787.9000000059605","","","survey-text","415","1263854","0.0-19.0-3.17","35012","List2A","white","woman","","","","","{""Q0"":""jane is being greeted by luke""}","<img src=""stim_listA/greet2.gif""style=""height:400px;""></stim_listA>","is being greeted by","","","","","",""
"null","<div style=""font-size:60px;"">+</div>","","html-keyboard-response","416","1264357","0.0-19.0-0.18","35012","List2A","white","woman","","","","null","","","","","","","","",""
"null","<img src=""stim_listA/touch8.gif""style=""height:400px;""></stim_listA>","","html-keyboard-response","417","1266371","0.0-19.0-1.18","35012","List2A","white","woman","","","","null","","","","","","","","",""
"null","is being touched by","","html-keyboard-response","418","1268385","0.0-19.0-2.18","35012","List2A","white","woman","","","","null","","","","","","","","",""
"5027.199999988079","","","survey-text","419","1273415","0.0-19.0-3.18","35012","List2A","white","woman","","","","","{""Q0"":""beth is being touched by ruth""}","<img src=""stim_listA/touch8.gif""style=""height:400px;""></stim_listA>","is being touched by","","","","","",""
"null","<div style=""font-size:60px;"">+</div>","","html-keyboard-response","420","1273917","0.0-19.0-0.19","35012","List2A","white","woman","","","","null","","","","","","","","",""
"null","<img src=""stim_listA/touch4.gif""style=""height:400px;""></stim_listA>","","html-keyboard-response","421","1275921","0.0-19.0-1.19","35012","List2A","white","woman","","","","null","","","","","","","","",""
"null","is being touched by","","html-keyboard-response","422","1277925","0.0-19.0-2.19","35012","List2A","white","woman","","","","null","","","","","","","","",""
"4617.0999999940395","","","survey-text","423","1282546","0.0-19.0-3.19","35012","List2A","white","woman","","","","","{""Q0"":""beth is being touched by fred""}","<img src=""stim_listA/touch4.gif""style=""height:400px;""></stim_listA>","is being touched by","","","","","",""
"2871.699999988079","<p>Thank you for completing that task.</p><p>The final part of this session is a questionnaire that will take about 4 minutes.</p><p>Press Continue.</p>","0","html-button-response","424","1285420","0.0-20.0","35012","List2A","white","woman","","","","","","","","","","","","",""
"28009","","","survey-text","425","1314452","0.0-21.0","35012","List2A","white","woman","","","","","{""Q0"":""20"",""Q1"":""English"",""Q2"":""English"",""Q3"":""United States"",""Q4"":""American"",""Q5"":""Caucasian"",""Q6"":""Female""}","","","demographics","","","","",""
"2069.600000023842","<p>Have you lived in the USA for the last 5 years or more?</p>","0","html-button-response","426","1316525","0.0-22.0","35012","List2A","white","woman","","","","","","","","fiveyears","","","","",""
"1600.2999999821186","<p>Move the slider to show the extent to which you agree with the following statements.</p>","0","html-button-response","427","1319144","0.0-23.0","35012","List2A","white","woman","","","","","","","","","","","","",""
"5509.800000011921","","","html-slider-response","428","1325665","0.0-24.0-0.0-0.0","35012","List2A","white","woman","","","","","","","","survey_race","22","","","Being my age gives me a good feeling.","filler"
"2832.4000000059605","","","html-slider-response","429","1328501","0.0-24.0-0.0-0.1","35012","List2A","white","woman","","","","","","","","survey_race","33","","","I consider myself an extrovert.","filler"
"7548.100000023842","","","html-slider-response","430","1336052","0.0-24.0-0.0-0.2","35012","List2A","white","woman","","","","","","","","survey_race","24","","","I feel a bond with my race.","bond"
"4076.9000000059605","","","html-slider-response","431","1340132","0.0-24.0-0.0-0.3","35012","List2A","white","woman","","","","","","","","survey_race","24","","","Being my race is an important part of how I see myself.","important"
"4434","","","html-slider-response","432","1344568","0.0-24.0-0.0-0.4","35012","List2A","white","woman","","","","","","","","survey_race","34","","","My age is not an important part of who I am.","filler"
"4550.799999982119","","","html-slider-response","433","1349122","0.0-24.0-0.0-0.5","35012","List2A","white","woman","","","","","","","","survey_race","54","","","I am glad to be the age I am.","filler"
"4454.5999999940395","","","html-slider-response","434","1353580","0.0-24.0-0.0-0.6","35012","List2A","white","woman","","","","","","","","survey_race","37","","","I have a lot in common with people of a similar age to me.","filler"
"15486.300000011921","","","html-slider-response","435","1369068","0.0-24.0-0.0-0.7","35012","List2A","white","woman","","","","","","","","survey_race","55","","","It is pleasant to be my race.","pleasant"
"8559.300000011921","","","html-slider-response","436","1377630","0.0-24.0-0.0-0.8","35012","List2A","white","woman","","","","","","","","survey_race","53","","","Being my race gives me a good feeling.","feeling"
"5458.299999982119","","","html-slider-response","437","1383092","0.0-24.0-0.0-0.9","35012","List2A","white","woman","","","","","","","","survey_race","41","","","I am similar to the average person of my race.","similar"
"4411.9000000059605","","","html-slider-response","438","1387507","0.0-24.0-0.0-0.10","35012","List2A","white","woman","","","","","","","","survey_race","56","","","I am glad to be my age.","filler"
"6926.100000023842","","","html-slider-response","439","1394436","0.0-24.0-0.0-0.11","35012","List2A","white","woman","","","","","","","","survey_race","53","","","People of my race have a lot in common with each other.","common"
"4885.699999988079","","","html-slider-response","440","1399324","0.0-24.0-0.0-0.12","35012","List2A","white","woman","","","","","","","","survey_race","28","","","I feel a bond with people the same age as me.","filler"
"3748.5999999940395","","","html-slider-response","441","1403076","0.0-24.0-0.0-0.13","35012","List2A","white","woman","","","","","","","","survey_race","37","","","I have a lot in common with the average person of my race.","average"
"7153.5","","","html-slider-response","442","1410232","0.0-24.0-0.0-0.14","35012","List2A","white","woman","","","","","","","","survey_race","43","","","I often think about the fact that I am my race.","often"
"5087.200000017881","","","html-slider-response","443","1415322","0.0-24.0-0.0-0.15","35012","List2A","white","woman","","","","","","","","survey_race","20","","","Getting older does not worry me.","filler"
"4363.199999988079","","","html-slider-response","444","1419688","0.0-24.0-0.0-0.16","35012","List2A","white","woman","","","","","","","","survey_race","24","","","The fact that I am my race is an important part of my identity.","identity"
"2927.2999999821186","","","html-slider-response","445","1422617","0.0-24.0-0.0-0.17","35012","List2A","white","woman","","","","","","","","survey_race","85","","","I often think about the fact that I am my age.","filler"
"5600.5","","","html-slider-response","446","1428220","0.0-24.0-0.0-0.18","35012","List2A","white","woman","","","","","","","","survey_race","54","","","I think that my race has a lot to be proud of.","proud"
"2647.5999999940395","","","html-slider-response","447","1430869","0.0-24.0-0.0-0.19","35012","List2A","white","woman","","","","","","","","survey_race","53","","","I am glad to be my race.","glad"
"2848","","","html-slider-response","448","1433719","0.0-24.0-0.0-0.20","35012","List2A","white","woman","","","","","","","","survey_race","22","","","The older I get, the wiser I feel.","filler"
"4535.5","","","html-slider-response","449","1438257","0.0-24.0-0.0-0.21","35012","List2A","white","woman","","","","","","","","survey_race","33","","","I feel solidarity with my race.","solidarity"
"4885.600000023842","","","html-slider-response","450","1443146","0.0-24.0-0.0-0.22","35012","List2A","white","woman","","","","","","","","survey_race","58","","","I feel solidarity with people the same age as me.","filler"
"5629.300000011921","","","html-slider-response","451","1448778","0.0-24.0-0.0-0.23","35012","List2A","white","woman","","","","","","","","survey_race","22","","","People of my race are very similar to each other.","verysimilar"
"3555.5999999940395","","","html-slider-response","452","1452336","0.0-24.0-0.0-0.24","35012","List2A","white","woman","","","","","","","","survey_race","54","","","People my age have a lot in common with each other.","filler"
"3207.2999999821186","","","html-slider-response","453","1455546","0.0-24.0-0.0-0.25","35012","List2A","white","woman","","","","","","","","survey_race","46","","","I enjoy being in large groups.","filler"
"4767.200000017881","","","html-slider-response","454","1460316","0.0-24.0-0.0-0.26","35012","List2A","white","woman","","","","","","","","survey_race","25","","","I feel committed to my race.","committed"
"2467.199999988079","","","html-slider-response","455","1462786","0.0-24.0-0.0-0.27","35012","List2A","white","woman","","","","","","","","survey_race","89","","","I consider myself an introvert.","filler"
"5949.9000000059605","","","html-slider-response","456","1468738","0.0-24.0-1.0-0.0","35012","List2A","white","woman","","","","","","","","survey_gender","55","","","Being my gender is an important part of how I see myself.","important"
"2405.5","","","html-slider-response","457","1471146","0.0-24.0-1.0-0.1","35012","List2A","white","woman","","","","","","","","survey_gender","98","","","I consider myself a highly empathetic person.","filler"
"3221.800000011921","","","html-slider-response","458","1474369","0.0-24.0-1.0-0.2","35012","List2A","white","woman","","","","","","","","survey_gender","80","","","It is pleasant to be my gender.","pleasant"
"2228.5","","","html-slider-response","459","1476600","0.0-24.0-1.0-0.3","35012","List2A","white","woman","","","","","","","","survey_gender","94","","","I am glad to have the friends that I have.","filler"
"2561.2000000178814","","","html-slider-response","460","1479163","0.0-24.0-1.0-0.4","35012","List2A","white","woman","","","","","","","","survey_gender","100","","","I often think about my actions.","filler"
"3284.199999988079","","","html-slider-response","461","1482450","0.0-24.0-1.0-0.5","35012","List2A","white","woman","","","","","","","","survey_gender","26","","","Most of the friends in my life are very similar to me.","filler"
"6813.9000000059605","","","html-slider-response","462","1489266","0.0-24.0-1.0-0.6","35012","List2A","white","woman","","","","","","","","survey_gender","27","","","The fact that I am my gender is an important part of my identity.","identity"
"3911.5","","","html-slider-response","463","1493180","0.0-24.0-1.0-0.7","35012","List2A","white","woman","","","","","","","","survey_gender","68","","","My friends have a lot in common with each other.","filler"
"2553.7000000178814","","","html-slider-response","464","1495736","0.0-24.0-1.0-0.8","35012","List2A","white","woman","","","","","","","","survey_gender","74","","","My friends understand me.","filler"
"3408.800000011921","","","html-slider-response","465","1499148","0.0-24.0-1.0-0.9","35012","List2A","white","woman","","","","","","","","survey_gender","70","","","I think that my gender has a lot to be proud of.","proud"
"3633.9000000059605","","","html-slider-response","466","1502784","0.0-24.0-1.0-0.10","35012","List2A","white","woman","","","","","","","","survey_gender","71","","","I feel committed to my gender.","committed"
"1736.5999999940395","","","html-slider-response","467","1504523","0.0-24.0-1.0-0.11","35012","List2A","white","woman","","","","","","","","survey_gender","81","","","I feel a bond with my gender.","bond"
"1956.2000000178814","","","html-slider-response","468","1506481","0.0-24.0-1.0-0.12","35012","List2A","white","woman","","","","","","","","survey_gender","97","","","I would say I am an animal person.","filler"
"2318.5999999940395","","","html-slider-response","469","1508803","0.0-24.0-1.0-0.13","35012","List2A","white","woman","","","","","","","","survey_gender","4","","","Routine is not important to me.","filler"
"2632","","","html-slider-response","470","1511437","0.0-24.0-1.0-0.14","35012","List2A","white","woman","","","","","","","","survey_gender","84","","","I often think about the fact that I am my gender.","often"
"1985.2999999821186","","","html-slider-response","471","1513425","0.0-24.0-1.0-0.15","35012","List2A","white","woman","","","","","","","","survey_gender","100","","","I feel a bond with my friends.","filler"
"4037.399999976158","","","html-slider-response","472","1517464","0.0-24.0-1.0-0.16","35012","List2A","white","woman","","","","","","","","survey_gender","62","","","I have a lot in common with my friends.","filler"
"4528.4000000059605","","","html-slider-response","473","1521995","0.0-24.0-1.0-0.17","35012","List2A","white","woman","","","","","","","","survey_gender","62","","","Being my gender gives me a good feeling.","feeling"
"3533.4000000059605","","","html-slider-response","474","1525531","0.0-24.0-1.0-0.18","35012","List2A","white","woman","","","","","","","","survey_gender","100","","","It is not always easy for people to know what I am thinking.","filler"
"2801.800000011921","","","html-slider-response","475","1528335","0.0-24.0-1.0-0.19","35012","List2A","white","woman","","","","","","","","survey_gender","34","","","I have a lot in common with the average person of my gender.","average"
