rt,stimulus,button_pressed,trial_type,trial_index,time_elapsed,internal_node_id,subject,list,ppt_race,ppt_gender,url,first_guess,correct,key_press,responses,image_type,phrase_type,test_part,response,stimulus1,stimulus2,question_type,survey_item
3337,Welcome to the experiment. Press Continue to begin.,0,html-button-response,0,3343,0.0-0.0,35725,List1A,white,woman,,,,,,,,,,,,,
19075,,,external-html,1,23646,0.0-1.0,35725,List1A,white,woman,consent.html,,,,,,,,,,,,
11934,"<p>On the next page, you will see portraits of 8 people and their names.</p><p>Your first task is to take a few minutes to memorise the names of these people.</p><p>You will have to recall their names during the rest of the experiment, so it is</p><p>essential that you try to memorise these people and their names as best as you can.</p><br><p><strong>You will then be tested on your memory of these names and portraits.</strong></p><br><p>The experiment will start after you have completed this memory test.</p><br><p>Ready?</p>",0,html-button-response,2,35582,0.0-2.0,35725,List1A,white,woman,,,,,,,,,,,,,
71652,"<img src='img/portrait_matrix_list1.jpg' style='width:900px;height:500px;''></img><p>If you have memorised all the portraits and names and are ready to start, press Continue.</p><p><strong>Please note: Your memory of these faces will be tested 4 times during this experiment.</strong></p>",0,html-button-response,3,108240,0.0-3.0-0.0,35725,List1A,white,woman,,,,,,,,,,,,,
10675,"<img src=""portrait/WW1.jpg""style=""height:400px;""></img>",1,html-button-response,4,119918,0.0-3.0-1.0,35725,List1A,white,woman,,TRUE,1,,,,,,,,,,
null,CORRECT,,html-keyboard-response,5,121423,0.0-3.0-2.0-0.0,35725,List1A,white,woman,,,,null,,,,,,,,,
5705,"<img src=""portrait/BW1.jpg""style=""height:400px;""></img>",0,html-button-response,6,127131,0.0-3.0-4.0,35725,List1A,white,woman,,TRUE,0,,,,,,,,,,
null,CORRECT,,html-keyboard-response,7,128634,0.0-3.0-5.0-0.0,35725,List1A,white,woman,,,,null,,,,,,,,,
4391,"<img src=""portrait/BM1.jpg""style=""height:400px;""></img>",4,html-button-response,8,133027,0.0-3.0-7.0,35725,List1A,white,woman,,TRUE,4,,,,,,,,,,
null,CORRECT,,html-keyboard-response,9,134529,0.0-3.0-8.0-0.0,35725,List1A,white,woman,,,,null,,,,,,,,,
23617,"<img src=""portrait/WM2.jpg""style=""height:400px;""></img>",3,html-button-response,10,158148,0.0-3.0-10.0,35725,List1A,white,woman,,TRUE,7,,,,,,,,,,
12998,"<img src=""portrait/WM2.jpg""style=""height:400px;""></img>",7,html-button-response,11,172148,0.0-3.0-12.0-0.0,35725,List1A,white,woman,,FALSE,7,,,,,,,,,,
null,CORRECT,,html-keyboard-response,12,173651,0.0-3.0-12.0-1.0-0.0,35725,List1A,white,woman,,,,null,,,,,,,,,
5173,"<img src=""portrait/BM2.jpg""style=""height:400px;""></img>",5,html-button-response,13,178826,0.0-3.0-13.0,35725,List1A,white,woman,,TRUE,5,,,,,,,,,,
null,CORRECT,,html-keyboard-response,14,180329,0.0-3.0-14.0-0.0,35725,List1A,white,woman,,,,null,,,,,,,,,
4116,"<img src=""portrait/BW2.jpg""style=""height:400px;""></img>",2,html-button-response,15,184448,0.0-3.0-16.0,35725,List1A,white,woman,,TRUE,2,,,,,,,,,,
null,CORRECT,,html-keyboard-response,16,185951,0.0-3.0-17.0-0.0,35725,List1A,white,woman,,,,null,,,,,,,,,
8182,"<img src=""portrait/WW2.jpg""style=""height:400px;""></img>",3,html-button-response,17,194135,0.0-3.0-19.0,35725,List1A,white,woman,,TRUE,3,,,,,,,,,,
null,CORRECT,,html-keyboard-response,18,195639,0.0-3.0-20.0-0.0,35725,List1A,white,woman,,,,null,,,,,,,,,
2620,"<img src=""portrait/WM1.jpg""style=""height:400px;""></img>",6,html-button-response,19,198261,0.0-3.0-22.0,35725,List1A,white,woman,,TRUE,6,,,,,,,,,,
null,CORRECT,,html-keyboard-response,20,199763,0.0-3.0-23.0-0.0,35725,List1A,white,woman,,,,null,,,,,,,,,
1506,<p>You got 7 out of 8 right first time. Press Continue.</p>,0,html-button-response,21,201271,0.0-3.0-25.0,35725,List1A,white,woman,,,,,,,,,,,,,
2058,"As you did not score 100%, the memory game will repeat. Press Continue.",0,html-button-response,22,204330,0.0-3.0-26.0-0.0,35725,List1A,white,woman,,,,,,,,,,,,,
7418,"<img src='img/portrait_matrix_list1.jpg' style='width:900px;height:500px;''></img><p>If you have memorised all the portraits and names and are ready to start, press Continue.</p><p><strong>Please note: Your memory of these faces will be tested 4 times during this experiment.</strong></p>",0,html-button-response,23,212750,0.0-3.1-0.1,35725,List1A,white,woman,,,,,,,,,,,,,
4327,"<img src=""portrait/WW1.jpg""style=""height:400px;""></img>",1,html-button-response,24,218083,0.0-3.1-1.1,35725,List1A,white,woman,,TRUE,1,,,,,,,,,,
null,CORRECT,,html-keyboard-response,25,219587,0.0-3.1-2.1-0.1,35725,List1A,white,woman,,,,null,,,,,,,,,
3027,"<img src=""portrait/BW1.jpg""style=""height:400px;""></img>",0,html-button-response,26,222616,0.0-3.1-4.1,35725,List1A,white,woman,,TRUE,0,,,,,,,,,,
null,CORRECT,,html-keyboard-response,27,224119,0.0-3.1-5.1-0.1,35725,List1A,white,woman,,,,null,,,,,,,,,
4478,"<img src=""portrait/BM1.jpg""style=""height:400px;""></img>",4,html-button-response,28,228599,0.0-3.1-7.1,35725,List1A,white,woman,,TRUE,4,,,,,,,,,,
null,CORRECT,,html-keyboard-response,29,230102,0.0-3.1-8.1-0.1,35725,List1A,white,woman,,,,null,,,,,,,,,
4905,"<img src=""portrait/WM2.jpg""style=""height:400px;""></img>",7,html-button-response,30,235010,0.0-3.1-10.1,35725,List1A,white,woman,,TRUE,7,,,,,,,,,,
null,CORRECT,,html-keyboard-response,31,236513,0.0-3.1-11.1-0.1,35725,List1A,white,woman,,,,null,,,,,,,,,
5794,"<img src=""portrait/BM2.jpg""style=""height:400px;""></img>",5,html-button-response,32,242310,0.0-3.1-13.1,35725,List1A,white,woman,,TRUE,5,,,,,,,,,,
null,CORRECT,,html-keyboard-response,33,243813,0.0-3.1-14.1-0.1,35725,List1A,white,woman,,,,null,,,,,,,,,
4728,"<img src=""portrait/BW2.jpg""style=""height:400px;""></img>",2,html-button-response,34,248544,0.0-3.1-16.1,35725,List1A,white,woman,,TRUE,2,,,,,,,,,,
null,CORRECT,,html-keyboard-response,35,250047,0.0-3.1-17.1-0.1,35725,List1A,white,woman,,,,null,,,,,,,,,
4679,"<img src=""portrait/WW2.jpg""style=""height:400px;""></img>",3,html-button-response,36,254729,0.0-3.1-19.1,35725,List1A,white,woman,,TRUE,3,,,,,,,,,,
null,CORRECT,,html-keyboard-response,37,256230,0.0-3.1-20.1-0.1,35725,List1A,white,woman,,,,null,,,,,,,,,
2864,"<img src=""portrait/WM1.jpg""style=""height:400px;""></img>",6,html-button-response,38,259096,0.0-3.1-22.1,35725,List1A,white,woman,,TRUE,6,,,,,,,,,,
null,CORRECT,,html-keyboard-response,39,260600,0.0-3.1-23.1-0.1,35725,List1A,white,woman,,,,null,,,,,,,,,
1417,<p>You got 8 out of 8 right first time. Press Continue.</p>,0,html-button-response,40,262019,0.0-3.1-25.1,35725,List1A,white,woman,,,,,,,,,,,,,
24237,"<p>In this experiment, you will view photographs of the people from the memory game interacting.</p><p>By using the <strong>exact</strong> phrase given <i>after</i> the photograph appears and recalling the correct names of the people in the photographs, form a sentence describing the interaction. You do not need to capitalise names.</p><p>Type your answer in the space provided. Please complete every sentence before moving onto the next trial.</p><p>You will only have a few seconds to memorise each given photograph and phrase before you can respond, so try your best to focus.</p><p>An example is given below. Press 'Continue' when you are ready.</p><img src='img/speaking_example.jpg' style='width:800px;height:460px;''></img>",0,html-button-response,41,287259,0.0-4.0,35725,List1A,white,woman,,,,,,,,,,,,,
3539,"<p>Before the experiment starts, you will watch two example trials. Press 'Continue'.</p>",0,html-button-response,42,291798,0.0-5.0,35725,List1A,white,woman,,,,,,,,,,,,,
null,<img src='img/play_eg.gif' style='height:400px;''></img>,,html-keyboard-response,43,294804,0.0-6.0,35725,List1A,white,woman,,,,null,,,,,,,,,
null,<p>is playing with</p>,,html-keyboard-response,44,296806,0.0-7.0,35725,List1A,white,woman,,,,null,,,,,,,,,
6057,<p><b>Answer:</b> kate is playing with beth</p>,0,html-button-response,45,302865,0.0-8.0,35725,List1A,white,woman,,,,,,,,,,,,,
null,<img src='img/dance_eg.gif' style='height:400px;''></img>,,html-keyboard-response,46,305867,0.0-9.0,35725,List1A,white,woman,,,,null,,,,,,,,,
null,<p>is being entertained by</p>,,html-keyboard-response,47,307869,0.0-10.0,35725,List1A,white,woman,,,,null,,,,,,,,,
2855,<p><b>Answer:</b> luke is being entertained by dave</p>,0,html-button-response,48,310726,0.0-11.0,35725,List1A,white,woman,,,,,,,,,,,,,
8076,"<p>Ready to start the experiment?</p><br><p><strong>Remember to describe the picture using a full sentence,</strong></p><p><strong>that combines the names of the people with the <i>exact</i> phrase given.</strong></p><p><strong>To receive full payment you must do this correctly.</strong></p><p><strong> You do not need to capitalise names or use punctuation.</strong></p><br><p>Press 'Continue' to begin.</p>",0,html-button-response,49,319804,0.0-12.0,35725,List1A,white,woman,,,,,,,,,,,,,
null,"<div style=""font-size:60px;"">+</div>",,html-keyboard-response,50,321308,0.0-13.0-0.0,35725,List1A,white,woman,,,,null,,,,,,,,,
null,"<img src=""stim_listA/touch6.gif""style=""height:400px;""></stim_listA>",,html-keyboard-response,51,323311,0.0-13.0-1.0,35725,List1A,white,woman,,,,null,,,,,,,,,
null,is being touched by,,html-keyboard-response,52,325314,0.0-13.0-2.0,35725,List1A,white,woman,,,,null,,,,,,,,,
9933,,,survey-text,53,335280,0.0-13.0-3.0,35725,List1A,white,woman,,,,,"{""Q0"":""fred is being touched by Luke""}","<img src=""stim_listA/touch6.gif""style=""height:400px;""></stim_listA>",is being touched by,,,,,,
null,"<div style=""font-size:60px;"">+</div>",,html-keyboard-response,54,335783,0.0-13.0-0.1,35725,List1A,white,woman,,,,null,,,,,,,,,
null,"<img src=""stim_listA/shout8.gif""style=""height:400px;""></stim_listA>",,html-keyboard-response,55,337785,0.0-13.0-1.1,35725,List1A,white,woman,,,,null,,,,,,,,,
null,is being shouted at by,,html-keyboard-response,56,339788,0.0-13.0-2.1,35725,List1A,white,woman,,,,null,,,,,,,,,
11457,,,survey-text,57,351258,0.0-13.0-3.1,35725,List1A,white,woman,,,,,"{""Q0"":""Jane is being yelled at by Kate""}","<img src=""stim_listA/shout8.gif""style=""height:400px;""></stim_listA>",is being shouted at by,,,,,,
null,"<div style=""font-size:60px;"">+</div>",,html-keyboard-response,58,351760,0.0-13.0-0.2,35725,List1A,white,woman,,,,null,,,,,,,,,
null,"<img src=""stim_listA/seduce7.gif""style=""height:400px;""></stim_listA>",,html-keyboard-response,59,353763,0.0-13.0-1.2,35725,List1A,white,woman,,,,null,,,,,,,,,
null,is seducing,,html-keyboard-response,60,355765,0.0-13.0-2.2,35725,List1A,white,woman,,,,null,,,,,,,,,
9592,,,survey-text,61,365366,0.0-13.0-3.2,35725,List1A,white,woman,,,,,"{""Q0"":""Beth is seducing Jane""}","<img src=""stim_listA/seduce7.gif""style=""height:400px;""></stim_listA>",is seducing,,,,,,
null,"<div style=""font-size:60px;"">+</div>",,html-keyboard-response,62,365869,0.0-13.0-0.3,35725,List1A,white,woman,,,,null,,,,,,,,,
null,"<img src=""stim_listA/touch3.gif""style=""height:400px;""></stim_listA>",,html-keyboard-response,63,367871,0.0-13.0-1.3,35725,List1A,white,woman,,,,null,,,,,,,,,
null,is touching,,html-keyboard-response,64,369873,0.0-13.0-2.3,35725,List1A,white,woman,,,,null,,,,,,,,,
6963,,,survey-text,65,376846,0.0-13.0-3.3,35725,List1A,white,woman,,,,,"{""Q0"":""Jane is touching Dave""}","<img src=""stim_listA/touch3.gif""style=""height:400px;""></stim_listA>",is touching,,,,,,
null,"<div style=""font-size:60px;"">+</div>",,html-keyboard-response,66,377347,0.0-13.0-0.4,35725,List1A,white,woman,,,,null,,,,,,,,,
null,"<img src=""stim_listA/challenge7.gif""style=""height:400px;""></stim_listA>",,html-keyboard-response,67,379350,0.0-13.0-1.4,35725,List1A,white,woman,,,,null,,,,,,,,,
null,is challenging,,html-keyboard-response,68,381352,0.0-13.0-2.4,35725,List1A,white,woman,,,,null,,,,,,,,,
11086,,,survey-text,69,392450,0.0-13.0-3.4,35725,List1A,white,woman,,,,,"{""Q0"":""ruth is challenging Kate""}","<img src=""stim_listA/challenge7.gif""style=""height:400px;""></stim_listA>",is challenging,,,,,,
null,"<div style=""font-size:60px;"">+</div>",,html-keyboard-response,70,392953,0.0-13.0-0.5,35725,List1A,white,woman,,,,null,,,,,,,,,
null,"<img src=""stim_listA/look7.gif""style=""height:400px;""></stim_listA>",,html-keyboard-response,71,394955,0.0-13.0-1.5,35725,List1A,white,woman,,,,null,,,,,,,,,
null,is looking at,,html-keyboard-response,72,396958,0.0-13.0-2.5,35725,List1A,white,woman,,,,null,,,,,,,,,
15547,,,survey-text,73,412517,0.0-13.0-3.5,35725,List1A,white,woman,,,,,"{""Q0"":""ruth is looking at Beth ""}","<img src=""stim_listA/look7.gif""style=""height:400px;""></stim_listA>",is looking at,,,,,,
null,"<div style=""font-size:60px;"">+</div>",,html-keyboard-response,74,413018,0.0-13.0-0.6,35725,List1A,white,woman,,,,null,,,,,,,,,
null,"<img src=""stim_listA/look5.gif""style=""height:400px;""></stim_listA>",,html-keyboard-response,75,415020,0.0-13.0-1.6,35725,List1A,white,woman,,,,null,,,,,,,,,
null,is looking at,,html-keyboard-response,76,417023,0.0-13.0-2.6,35725,List1A,white,woman,,,,null,,,,,,,,,
11272,,,survey-text,77,428305,0.0-13.0-3.6,35725,List1A,white,woman,,,,,"{""Q0"":""fred is looking at Luke""}","<img src=""stim_listA/look5.gif""style=""height:400px;""></stim_listA>",is looking at,,,,,,
null,"<div style=""font-size:60px;"">+</div>",,html-keyboard-response,78,428807,0.0-13.0-0.7,35725,List1A,white,woman,,,,null,,,,,,,,,
null,"<img src=""stim_listA/touch7.gif""style=""height:400px;""></stim_listA>",,html-keyboard-response,79,430809,0.0-13.0-1.7,35725,List1A,white,woman,,,,null,,,,,,,,,
null,is touching,,html-keyboard-response,80,432812,0.0-13.0-2.7,35725,List1A,white,woman,,,,null,,,,,,,,,
14276,,,survey-text,81,447100,0.0-13.0-3.7,35725,List1A,white,woman,,,,,"{""Q0"":""Jane is touching Kate ""}","<img src=""stim_listA/touch7.gif""style=""height:400px;""></stim_listA>",is touching,,,,,,
null,"<div style=""font-size:60px;"">+</div>",,html-keyboard-response,82,447601,0.0-13.0-0.8,35725,List1A,white,woman,,,,null,,,,,,,,,
null,"<img src=""stim_listA/greet6.gif""style=""height:400px;""></stim_listA>",,html-keyboard-response,83,449602,0.0-13.0-1.8,35725,List1A,white,woman,,,,null,,,,,,,,,
null,is being greeted by,,html-keyboard-response,84,451607,0.0-13.0-2.8,35725,List1A,white,woman,,,,null,,,,,,,,,
20613,,,survey-text,85,472232,0.0-13.0-3.8,35725,List1A,white,woman,,,,,"{""Q0"":""fred is being greeted by Dave""}","<img src=""stim_listA/greet6.gif""style=""height:400px;""></stim_listA>",is being greeted by,,,,,,
null,"<div style=""font-size:60px;"">+</div>",,html-keyboard-response,86,472734,0.0-13.0-0.9,35725,List1A,white,woman,,,,null,,,,,,,,,
null,"<img src=""stim_listA/seduce4.gif""style=""height:400px;""></stim_listA>",,html-keyboard-response,87,474738,0.0-13.0-1.9,35725,List1A,white,woman,,,,null,,,,,,,,,
null,is being seduced by,,html-keyboard-response,88,476740,0.0-13.0-2.9,35725,List1A,white,woman,,,,null,,,,,,,,,
8865,,,survey-text,89,485616,0.0-13.0-3.9,35725,List1A,white,woman,,,,,"{""Q0"":""Dave is being seduced by ruth""}","<img src=""stim_listA/seduce4.gif""style=""height:400px;""></stim_listA>",is being seduced by,,,,,,
null,"<div style=""font-size:60px;"">+</div>",,html-keyboard-response,90,486118,0.0-13.0-0.10,35725,List1A,white,woman,,,,null,,,,,,,,,
null,"<img src=""stim_listA/oppose5.gif""style=""height:400px;""></stim_listA>",,html-keyboard-response,91,488121,0.0-13.0-1.10,35725,List1A,white,woman,,,,null,,,,,,,,,
null,is opposing,,html-keyboard-response,92,490122,0.0-13.0-2.10,35725,List1A,white,woman,,,,null,,,,,,,,,
11711,,,survey-text,93,501844,0.0-13.0-3.10,35725,List1A,white,woman,,,,,"{""Q0"":""Dave is opposing mike""}","<img src=""stim_listA/oppose5.gif""style=""height:400px;""></stim_listA>",is opposing,,,,,,
null,"<div style=""font-size:60px;"">+</div>",,html-keyboard-response,94,502347,0.0-13.0-0.11,35725,List1A,white,woman,,,,null,,,,,,,,,
null,"<img src=""stim_listA/seduce6.gif""style=""height:400px;""></stim_listA>",,html-keyboard-response,95,504350,0.0-13.0-1.11,35725,List1A,white,woman,,,,null,,,,,,,,,
null,is being seduced by,,html-keyboard-response,96,506352,0.0-13.0-2.11,35725,List1A,white,woman,,,,null,,,,,,,,,
12850,,,survey-text,97,519215,0.0-13.0-3.11,35725,List1A,white,woman,,,,,"{""Q0"":""Luke is being seduced by mike""}","<img src=""stim_listA/seduce6.gif""style=""height:400px;""></stim_listA>",is being seduced by,,,,,,
null,"<div style=""font-size:60px;"">+</div>",,html-keyboard-response,98,519717,0.0-13.0-0.12,35725,List1A,white,woman,,,,null,,,,,,,,,
null,"<img src=""stim_listA/oppose3.gif""style=""height:400px;""></stim_listA>",,html-keyboard-response,99,521719,0.0-13.0-1.12,35725,List1A,white,woman,,,,null,,,,,,,,,
null,is opposing,,html-keyboard-response,100,523721,0.0-13.0-2.12,35725,List1A,white,woman,,,,null,,,,,,,,,
4876,,,survey-text,101,528607,0.0-13.0-3.12,35725,List1A,white,woman,,,,,"{""Q0"":""Dave is opposing Jane""}","<img src=""stim_listA/oppose3.gif""style=""height:400px;""></stim_listA>",is opposing,,,,,,
null,"<div style=""font-size:60px;"">+</div>",,html-keyboard-response,102,529108,0.0-13.0-0.13,35725,List1A,white,woman,,,,null,,,,,,,,,
null,"<img src=""stim_listA/look1.gif""style=""height:400px;""></stim_listA>",,html-keyboard-response,103,531111,0.0-13.0-1.13,35725,List1A,white,woman,,,,null,,,,,,,,,
null,is looking at,,html-keyboard-response,104,533112,0.0-13.0-2.13,35725,List1A,white,woman,,,,null,,,,,,,,,
9596,,,survey-text,105,542720,0.0-13.0-3.13,35725,List1A,white,woman,,,,,"{""Q0"":""fred is looking at Beth ""}","<img src=""stim_listA/look1.gif""style=""height:400px;""></stim_listA>",is looking at,,,,,,
null,"<div style=""font-size:60px;"">+</div>",,html-keyboard-response,106,543221,0.0-13.0-0.14,35725,List1A,white,woman,,,,null,,,,,,,,,
null,"<img src=""stim_listA/challenge8.gif""style=""height:400px;""></stim_listA>",,html-keyboard-response,107,545224,0.0-13.0-1.14,35725,List1A,white,woman,,,,null,,,,,,,,,
null,is being challenged by,,html-keyboard-response,108,547227,0.0-13.0-2.14,35725,List1A,white,woman,,,,null,,,,,,,,,
11596,,,survey-text,109,558832,0.0-13.0-3.14,35725,List1A,white,woman,,,,,"{""Q0"":""Jane is being challenged by Beth""}","<img src=""stim_listA/challenge8.gif""style=""height:400px;""></stim_listA>",is being challenged by,,,,,,
null,"<div style=""font-size:60px;"">+</div>",,html-keyboard-response,110,559333,0.0-13.0-0.15,35725,List1A,white,woman,,,,null,,,,,,,,,
null,"<img src=""stim_listA/shout6.gif""style=""height:400px;""></stim_listA>",,html-keyboard-response,111,561335,0.0-13.0-1.15,35725,List1A,white,woman,,,,null,,,,,,,,,
null,is being shouted at by,,html-keyboard-response,112,563337,0.0-13.0-2.15,35725,List1A,white,woman,,,,null,,,,,,,,,
9476,,,survey-text,113,572824,0.0-13.0-3.15,35725,List1A,white,woman,,,,,"{""Q0"":""Dave is being shouted at by mike""}","<img src=""stim_listA/shout6.gif""style=""height:400px;""></stim_listA>",is being shouted at by,,,,,,
null,"<div style=""font-size:60px;"">+</div>",,html-keyboard-response,114,573327,0.0-13.0-0.16,35725,List1A,white,woman,,,,null,,,,,,,,,
null,"<img src=""stim_listA/shout1.gif""style=""height:400px;""></stim_listA>",,html-keyboard-response,115,575328,0.0-13.0-1.16,35725,List1A,white,woman,,,,null,,,,,,,,,
null,is shouting at,,html-keyboard-response,116,577331,0.0-13.0-2.16,35725,List1A,white,woman,,,,null,,,,,,,,,
9781,,,survey-text,117,587124,0.0-13.0-3.16,35725,List1A,white,woman,,,,,"{""Q0"":""fred is shouting at Beth ""}","<img src=""stim_listA/shout1.gif""style=""height:400px;""></stim_listA>",is shouting at,,,,,,
null,"<div style=""font-size:60px;"">+</div>",,html-keyboard-response,118,587627,0.0-13.0-0.17,35725,List1A,white,woman,,,,null,,,,,,,,,
null,"<img src=""stim_listA/seduce5.gif""style=""height:400px;""></stim_listA>",,html-keyboard-response,119,589630,0.0-13.0-1.17,35725,List1A,white,woman,,,,null,,,,,,,,,
null,is seducing,,html-keyboard-response,120,591632,0.0-13.0-2.17,35725,List1A,white,woman,,,,null,,,,,,,,,
5797,,,survey-text,121,597439,0.0-13.0-3.17,35725,List1A,white,woman,,,,,"{""Q0"":""fred is seducing Dave""}","<img src=""stim_listA/seduce5.gif""style=""height:400px;""></stim_listA>",is seducing,,,,,,
null,"<div style=""font-size:60px;"">+</div>",,html-keyboard-response,122,597941,0.0-13.0-0.18,35725,List1A,white,woman,,,,null,,,,,,,,,
null,"<img src=""stim_listA/touch1.gif""style=""height:400px;""></stim_listA>",,html-keyboard-response,123,599942,0.0-13.0-1.18,35725,List1A,white,woman,,,,null,,,,,,,,,
null,is touching,,html-keyboard-response,124,601944,0.0-13.0-2.18,35725,List1A,white,woman,,,,null,,,,,,,,,
7029,,,survey-text,125,608979,0.0-13.0-3.18,35725,List1A,white,woman,,,,,"{""Q0"":""mike is touching Kate ""}","<img src=""stim_listA/touch1.gif""style=""height:400px;""></stim_listA>",is touching,,,,,,
null,"<div style=""font-size:60px;"">+</div>",,html-keyboard-response,126,609480,0.0-13.0-0.19,35725,List1A,white,woman,,,,null,,,,,,,,,
null,"<img src=""stim_listA/touch4.gif""style=""height:400px;""></stim_listA>",,html-keyboard-response,127,611482,0.0-13.0-1.19,35725,List1A,white,woman,,,,null,,,,,,,,,
null,is being touched by,,html-keyboard-response,128,613485,0.0-13.0-2.19,35725,List1A,white,woman,,,,null,,,,,,,,,
11222,,,survey-text,129,624715,0.0-13.0-3.19,35725,List1A,white,woman,,,,,"{""Q0"":""luke is being touched by ruth""}","<img src=""stim_listA/touch4.gif""style=""height:400px;""></stim_listA>",is being touched by,,,,,,
9893,"<img src='img/portrait_matrix_list1.jpg' style='width:900px;height:500px;''></img><p>If you have memorised all the portraits and names and are ready to start, press Continue.</p><p><strong>Please note: Your memory of these faces will be tested 4 times during this experiment.</strong></p>",0,html-button-response,130,634612,0.0-14.0-0.0,35725,List1A,white,woman,,,,,,,,,,,,,
6972,"<img src=""portrait/WW2.jpg""style=""height:400px;""></img>",3,html-button-response,131,642587,0.0-14.0-1.0,35725,List1A,white,woman,,TRUE,3,,,,,,,,,,
null,CORRECT,,html-keyboard-response,132,644091,0.0-14.0-2.0-0.0,35725,List1A,white,woman,,,,null,,,,,,,,,
2228,"<img src=""portrait/WM2.jpg""style=""height:400px;""></img>",7,html-button-response,133,646322,0.0-14.0-4.0,35725,List1A,white,woman,,TRUE,7,,,,,,,,,,
null,CORRECT,,html-keyboard-response,134,647825,0.0-14.0-5.0-0.0,35725,List1A,white,woman,,,,null,,,,,,,,,
1996,"<img src=""portrait/BW2.jpg""style=""height:400px;""></img>",2,html-button-response,135,649823,0.0-14.0-7.0,35725,List1A,white,woman,,TRUE,2,,,,,,,,,,
null,CORRECT,,html-keyboard-response,136,651326,0.0-14.0-8.0-0.0,35725,List1A,white,woman,,,,null,,,,,,,,,
3324,"<img src=""portrait/WM1.jpg""style=""height:400px;""></img>",6,html-button-response,137,654652,0.0-14.0-10.0,35725,List1A,white,woman,,TRUE,6,,,,,,,,,,
null,CORRECT,,html-keyboard-response,138,656155,0.0-14.0-11.0-0.0,35725,List1A,white,woman,,,,null,,,,,,,,,
2498,"<img src=""portrait/WW1.jpg""style=""height:400px;""></img>",1,html-button-response,139,658654,0.0-14.0-13.0,35725,List1A,white,woman,,TRUE,1,,,,,,,,,,
null,CORRECT,,html-keyboard-response,140,660156,0.0-14.0-14.0-0.0,35725,List1A,white,woman,,,,null,,,,,,,,,
6112,"<img src=""portrait/BW1.jpg""style=""height:400px;""></img>",0,html-button-response,141,666270,0.0-14.0-16.0,35725,List1A,white,woman,,TRUE,0,,,,,,,,,,
null,CORRECT,,html-keyboard-response,142,667772,0.0-14.0-17.0-0.0,35725,List1A,white,woman,,,,null,,,,,,,,,
4298,"<img src=""portrait/BM2.jpg""style=""height:400px;""></img>",5,html-button-response,143,672073,0.0-14.0-19.0,35725,List1A,white,woman,,TRUE,5,,,,,,,,,,
null,CORRECT,,html-keyboard-response,144,673574,0.0-14.0-20.0-0.0,35725,List1A,white,woman,,,,null,,,,,,,,,
2337,"<img src=""portrait/BM1.jpg""style=""height:400px;""></img>",4,html-button-response,145,675911,0.0-14.0-22.0,35725,List1A,white,woman,,TRUE,4,,,,,,,,,,
null,CORRECT,,html-keyboard-response,146,677413,0.0-14.0-23.0-0.0,35725,List1A,white,woman,,,,null,,,,,,,,,
3396,<p>You got 8 out of 8 right first time. Press Continue.</p>,0,html-button-response,147,680809,0.0-14.0-25.0,35725,List1A,white,woman,,,,,,,,,,,,,
null,"<div style=""font-size:60px;"">+</div>",,html-keyboard-response,148,682315,0.0-15.0-0.0,35725,List1A,white,woman,,,,null,,,,,,,,,
null,"<img src=""stim_listA/hug2.gif""style=""height:400px;""></stim_listA>",,html-keyboard-response,149,684317,0.0-15.0-1.0,35725,List1A,white,woman,,,,null,,,,,,,,,
null,is being hugged by,,html-keyboard-response,150,686319,0.0-15.0-2.0,35725,List1A,white,woman,,,,null,,,,,,,,,
12560,,,survey-text,151,698885,0.0-15.0-3.0,35725,List1A,white,woman,,,,,"{""Q0"":""mike is being hugged by Kate""}","<img src=""stim_listA/hug2.gif""style=""height:400px;""></stim_listA>",is being hugged by,,,,,,
null,"<div style=""font-size:60px;"">+</div>",,html-keyboard-response,152,699388,0.0-15.0-0.1,35725,List1A,white,woman,,,,null,,,,,,,,,
null,"<img src=""stim_listA/seduce1.gif""style=""height:400px;""></stim_listA>",,html-keyboard-response,153,701390,0.0-15.0-1.1,35725,List1A,white,woman,,,,null,,,,,,,,,
null,is seducing,,html-keyboard-response,154,703392,0.0-15.0-2.1,35725,List1A,white,woman,,,,null,,,,,,,,,
6384,,,survey-text,155,709786,0.0-15.0-3.1,35725,List1A,white,woman,,,,,"{""Q0"":""fred is seducing Kate""}","<img src=""stim_listA/seduce1.gif""style=""height:400px;""></stim_listA>",is seducing,,,,,,
null,"<div style=""font-size:60px;"">+</div>",,html-keyboard-response,156,710289,0.0-15.0-0.2,35725,List1A,white,woman,,,,null,,,,,,,,,
null,"<img src=""stim_listA/kiss1.gif""style=""height:400px;""></stim_listA>",,html-keyboard-response,157,712291,0.0-15.0-1.2,35725,List1A,white,woman,,,,null,,,,,,,,,
null,is kissing,,html-keyboard-response,158,714292,0.0-15.0-2.2,35725,List1A,white,woman,,,,null,,,,,,,,,
6850,,,survey-text,159,721150,0.0-15.0-3.2,35725,List1A,white,woman,,,,,"{""Q0"":""fred is kissing Beth""}","<img src=""stim_listA/kiss1.gif""style=""height:400px;""></stim_listA>",is kissing,,,,,,
null,"<div style=""font-size:60px;"">+</div>",,html-keyboard-response,160,721653,0.0-15.0-0.3,35725,List1A,white,woman,,,,null,,,,,,,,,
null,"<img src=""stim_listA/challenge3.gif""style=""height:400px;""></stim_listA>",,html-keyboard-response,161,723655,0.0-15.0-1.3,35725,List1A,white,woman,,,,null,,,,,,,,,
null,is challenging,,html-keyboard-response,162,725657,0.0-15.0-2.3,35725,List1A,white,woman,,,,null,,,,,,,,,
6206,,,survey-text,163,731870,0.0-15.0-3.3,35725,List1A,white,woman,,,,,"{""Q0"":""ruth is challenging Dave""}","<img src=""stim_listA/challenge3.gif""style=""height:400px;""></stim_listA>",is challenging,,,,,,
null,"<div style=""font-size:60px;"">+</div>",,html-keyboard-response,164,732371,0.0-15.0-0.4,35725,List1A,white,woman,,,,null,,,,,,,,,
null,"<img src=""stim_listA/oppose6.gif""style=""height:400px;""></stim_listA>",,html-keyboard-response,165,734373,0.0-15.0-1.4,35725,List1A,white,woman,,,,null,,,,,,,,,
null,is being opposed by,,html-keyboard-response,166,736374,0.0-15.0-2.4,35725,List1A,white,woman,,,,null,,,,,,,,,
10151,,,survey-text,167,746534,0.0-15.0-3.4,35725,List1A,white,woman,,,,,"{""Q0"":""Luke is being opposed by fred""}","<img src=""stim_listA/oppose6.gif""style=""height:400px;""></stim_listA>",is being opposed by,,,,,,
null,"<div style=""font-size:60px;"">+</div>",,html-keyboard-response,168,747035,0.0-15.0-0.5,35725,List1A,white,woman,,,,null,,,,,,,,,
null,"<img src=""stim_listA/hug1.gif""style=""height:400px;""></stim_listA>",,html-keyboard-response,169,749038,0.0-15.0-1.5,35725,List1A,white,woman,,,,null,,,,,,,,,
null,is hugging,,html-keyboard-response,170,751040,0.0-15.0-2.5,35725,List1A,white,woman,,,,null,,,,,,,,,
7175,,,survey-text,171,758225,0.0-15.0-3.5,35725,List1A,white,woman,,,,,"{""Q0"":""fred is hugging Beth""}","<img src=""stim_listA/hug1.gif""style=""height:400px;""></stim_listA>",is hugging,,,,,,
null,"<div style=""font-size:60px;"">+</div>",,html-keyboard-response,172,758727,0.0-15.0-0.6,35725,List1A,white,woman,,,,null,,,,,,,,,
null,"<img src=""stim_listA/greet3.gif""style=""height:400px;""></stim_listA>",,html-keyboard-response,173,760729,0.0-15.0-1.6,35725,List1A,white,woman,,,,null,,,,,,,,,
null,is greeting,,html-keyboard-response,174,762731,0.0-15.0-2.6,35725,List1A,white,woman,,,,null,,,,,,,,,
8419,,,survey-text,175,771158,0.0-15.0-3.6,35725,List1A,white,woman,,,,,"{""Q0"":""Dave is greeting ruth""}","<img src=""stim_listA/greet3.gif""style=""height:400px;""></stim_listA>",is greeting,,,,,,
null,"<div style=""font-size:60px;"">+</div>",,html-keyboard-response,176,771660,0.0-15.0-0.7,35725,List1A,white,woman,,,,null,,,,,,,,,
null,"<img src=""stim_listA/greet8.gif""style=""height:400px;""></stim_listA>",,html-keyboard-response,177,773663,0.0-15.0-1.7,35725,List1A,white,woman,,,,null,,,,,,,,,
null,is being greeted by,,html-keyboard-response,178,775665,0.0-15.0-2.7,35725,List1A,white,woman,,,,null,,,,,,,,,
17385,,,survey-text,179,793060,0.0-15.0-3.7,35725,List1A,white,woman,,,,,"{""Q0"":""Jane is being greeted by Beth ""}","<img src=""stim_listA/greet8.gif""style=""height:400px;""></stim_listA>",is being greeted by,,,,,,
null,"<div style=""font-size:60px;"">+</div>",,html-keyboard-response,180,793562,0.0-15.0-0.8,35725,List1A,white,woman,,,,null,,,,,,,,,
null,"<img src=""stim_listA/shout7.gif""style=""height:400px;""></stim_listA>",,html-keyboard-response,181,795565,0.0-15.0-1.8,35725,List1A,white,woman,,,,null,,,,,,,,,
null,is shouting at,,html-keyboard-response,182,797567,0.0-15.0-2.8,35725,List1A,white,woman,,,,null,,,,,,,,,
10610,,,survey-text,183,808188,0.0-15.0-3.8,35725,List1A,white,woman,,,,,"{""Q0"":""Beth is shouting at ruth""}","<img src=""stim_listA/shout7.gif""style=""height:400px;""></stim_listA>",is shouting at,,,,,,
null,"<div style=""font-size:60px;"">+</div>",,html-keyboard-response,184,808692,0.0-15.0-0.9,35725,List1A,white,woman,,,,null,,,,,,,,,
null,"<img src=""stim_listA/shout5.gif""style=""height:400px;""></stim_listA>",,html-keyboard-response,185,810693,0.0-15.0-1.9,35725,List1A,white,woman,,,,null,,,,,,,,,
null,is shouting at,,html-keyboard-response,186,812695,0.0-15.0-2.9,35725,List1A,white,woman,,,,null,,,,,,,,,
8095,,,survey-text,187,820800,0.0-15.0-3.9,35725,List1A,white,woman,,,,,"{""Q0"":""fred is shouting at Luke""}","<img src=""stim_listA/shout5.gif""style=""height:400px;""></stim_listA>",is shouting at,,,,,,
null,"<div style=""font-size:60px;"">+</div>",,html-keyboard-response,188,821302,0.0-15.0-0.10,35725,List1A,white,woman,,,,null,,,,,,,,,
null,"<img src=""stim_listA/greet4.gif""style=""height:400px;""></stim_listA>",,html-keyboard-response,189,823304,0.0-15.0-1.10,35725,List1A,white,woman,,,,null,,,,,,,,,
null,is being greeted by,,html-keyboard-response,190,825306,0.0-15.0-2.10,35725,List1A,white,woman,,,,null,,,,,,,,,
6186,,,survey-text,191,831503,0.0-15.0-3.10,35725,List1A,white,woman,,,,,"{""Q0"":""Jane is being greeted by Luke ""}","<img src=""stim_listA/greet4.gif""style=""height:400px;""></stim_listA>",is being greeted by,,,,,,
null,"<div style=""font-size:60px;"">+</div>",,html-keyboard-response,192,832004,0.0-15.0-0.11,35725,List1A,white,woman,,,,null,,,,,,,,,
null,"<img src=""stim_listA/oppose2.gif""style=""height:400px;""></stim_listA>",,html-keyboard-response,193,834007,0.0-15.0-1.11,35725,List1A,white,woman,,,,null,,,,,,,,,
null,is being opposed by,,html-keyboard-response,194,836009,0.0-15.0-2.11,35725,List1A,white,woman,,,,null,,,,,,,,,
6991,,,survey-text,195,843012,0.0-15.0-3.11,35725,List1A,white,woman,,,,,"{""Q0"":""fred is being opposed by Beth ""}","<img src=""stim_listA/oppose2.gif""style=""height:400px;""></stim_listA>",is being opposed by,,,,,,
null,"<div style=""font-size:60px;"">+</div>",,html-keyboard-response,196,843514,0.0-15.0-0.12,35725,List1A,white,woman,,,,null,,,,,,,,,
null,"<img src=""stim_listA/copy2.gif""style=""height:400px;""></stim_listA>",,html-keyboard-response,197,845516,0.0-15.0-1.12,35725,List1A,white,woman,,,,null,,,,,,,,,
null,is being copied by,,html-keyboard-response,198,847517,0.0-15.0-2.12,35725,List1A,white,woman,,,,null,,,,,,,,,
9182,,,survey-text,199,856708,0.0-15.0-3.12,35725,List1A,white,woman,,,,,"{""Q0"":""fred is being copied by Kate""}","<img src=""stim_listA/copy2.gif""style=""height:400px;""></stim_listA>",is being copied by,,,,,,
null,"<div style=""font-size:60px;"">+</div>",,html-keyboard-response,200,857210,0.0-15.0-0.13,35725,List1A,white,woman,,,,null,,,,,,,,,
null,"<img src=""stim_listA/copy8.gif""style=""height:400px;""></stim_listA>",,html-keyboard-response,201,859212,0.0-15.0-1.13,35725,List1A,white,woman,,,,null,,,,,,,,,
null,is being copied by,,html-keyboard-response,202,861218,0.0-15.0-2.13,35725,List1A,white,woman,,,,null,,,,,,,,,
8524,,,survey-text,203,869751,0.0-15.0-3.13,35725,List1A,white,woman,,,,,"{""Q0"":""Jane is being copied by Beth""}","<img src=""stim_listA/copy8.gif""style=""height:400px;""></stim_listA>",is being copied by,,,,,,
null,"<div style=""font-size:60px;"">+</div>",,html-keyboard-response,204,870253,0.0-15.0-0.14,35725,List1A,white,woman,,,,null,,,,,,,,,
null,"<img src=""stim_listA/oppose8.gif""style=""height:400px;""></stim_listA>",,html-keyboard-response,205,872255,0.0-15.0-1.14,35725,List1A,white,woman,,,,null,,,,,,,,,
null,is being opposed by,,html-keyboard-response,206,874257,0.0-15.0-2.14,35725,List1A,white,woman,,,,null,,,,,,,,,
9207,,,survey-text,207,883474,0.0-15.0-3.14,35725,List1A,white,woman,,,,,"{""Q0"":""Beth is being opposed by ruth ""}","<img src=""stim_listA/oppose8.gif""style=""height:400px;""></stim_listA>",is being opposed by,,,,,,
null,"<div style=""font-size:60px;"">+</div>",,html-keyboard-response,208,883976,0.0-15.0-0.15,35725,List1A,white,woman,,,,null,,,,,,,,,
null,"<img src=""stim_listA/challenge1.gif""style=""height:400px;""></stim_listA>",,html-keyboard-response,209,885977,0.0-15.0-1.15,35725,List1A,white,woman,,,,null,,,,,,,,,
null,is challenging,,html-keyboard-response,210,887979,0.0-15.0-2.15,35725,List1A,white,woman,,,,null,,,,,,,,,
5541,,,survey-text,211,893530,0.0-15.0-3.15,35725,List1A,white,woman,,,,,"{""Q0"":""mike is challenging Beth""}","<img src=""stim_listA/challenge1.gif""style=""height:400px;""></stim_listA>",is challenging,,,,,,
null,"<div style=""font-size:60px;"">+</div>",,html-keyboard-response,212,894032,0.0-15.0-0.16,35725,List1A,white,woman,,,,null,,,,,,,,,
null,"<img src=""stim_listA/seduce3.gif""style=""height:400px;""></stim_listA>",,html-keyboard-response,213,896034,0.0-15.0-1.16,35725,List1A,white,woman,,,,null,,,,,,,,,
null,is seducing,,html-keyboard-response,214,898036,0.0-15.0-2.16,35725,List1A,white,woman,,,,null,,,,,,,,,
5838,,,survey-text,215,903883,0.0-15.0-3.16,35725,List1A,white,woman,,,,,"{""Q0"":""Luke is seducing Jane ""}","<img src=""stim_listA/seduce3.gif""style=""height:400px;""></stim_listA>",is seducing,,,,,,
null,"<div style=""font-size:60px;"">+</div>",,html-keyboard-response,216,904386,0.0-15.0-0.17,35725,List1A,white,woman,,,,null,,,,,,,,,
null,"<img src=""stim_listA/hug4.gif""style=""height:400px;""></stim_listA>",,html-keyboard-response,217,906388,0.0-15.0-1.17,35725,List1A,white,woman,,,,null,,,,,,,,,
null,is being hugged by,,html-keyboard-response,218,908389,0.0-15.0-2.17,35725,List1A,white,woman,,,,null,,,,,,,,,
5539,,,survey-text,219,913936,0.0-15.0-3.17,35725,List1A,white,woman,,,,,"{""Q0"":""Jane is being hugged by Dave""}","<img src=""stim_listA/hug4.gif""style=""height:400px;""></stim_listA>",is being hugged by,,,,,,
null,"<div style=""font-size:60px;"">+</div>",,html-keyboard-response,220,914439,0.0-15.0-0.18,35725,List1A,white,woman,,,,null,,,,,,,,,
null,"<img src=""stim_listA/hug6.gif""style=""height:400px;""></stim_listA>",,html-keyboard-response,221,916441,0.0-15.0-1.18,35725,List1A,white,woman,,,,null,,,,,,,,,
null,is being hugged by,,html-keyboard-response,222,918444,0.0-15.0-2.18,35725,List1A,white,woman,,,,null,,,,,,,,,
5009,,,survey-text,223,923460,0.0-15.0-3.18,35725,List1A,white,woman,,,,,"{""Q0"":""Dave is being hugged by mike ""}","<img src=""stim_listA/hug6.gif""style=""height:400px;""></stim_listA>",is being hugged by,,,,,,
null,"<div style=""font-size:60px;"">+</div>",,html-keyboard-response,224,923962,0.0-15.0-0.19,35725,List1A,white,woman,,,,null,,,,,,,,,
null,"<img src=""stim_listA/look8.gif""style=""height:400px;""></stim_listA>",,html-keyboard-response,225,925964,0.0-15.0-1.19,35725,List1A,white,woman,,,,null,,,,,,,,,
null,is being looked at by,,html-keyboard-response,226,927965,0.0-15.0-2.19,35725,List1A,white,woman,,,,null,,,,,,,,,
6360,,,survey-text,227,934333,0.0-15.0-3.19,35725,List1A,white,woman,,,,,"{""Q0"":""Jane is being looked at by Kate""}","<img src=""stim_listA/look8.gif""style=""height:400px;""></stim_listA>",is being looked at by,,,,,,
2731,"<img src='img/portrait_matrix_list1.jpg' style='width:900px;height:500px;''></img><p>If you have memorised all the portraits and names and are ready to start, press Continue.</p><p><strong>Please note: Your memory of these faces will be tested 4 times during this experiment.</strong></p>",0,html-button-response,228,937065,0.0-16.0-0.0,35725,List1A,white,woman,,,,,,,,,,,,,
2009,"<img src=""portrait/BM1.jpg""style=""height:400px;""></img>",4,html-button-response,229,940077,0.0-16.0-1.0,35725,List1A,white,woman,,TRUE,4,,,,,,,,,,
null,CORRECT,,html-keyboard-response,230,941580,0.0-16.0-2.0-0.0,35725,List1A,white,woman,,,,null,,,,,,,,,
2029,"<img src=""portrait/WM1.jpg""style=""height:400px;""></img>",6,html-button-response,231,943611,0.0-16.0-4.0,35725,List1A,white,woman,,TRUE,6,,,,,,,,,,
null,CORRECT,,html-keyboard-response,232,945114,0.0-16.0-5.0-0.0,35725,List1A,white,woman,,,,null,,,,,,,,,
2601,"<img src=""portrait/BM2.jpg""style=""height:400px;""></img>",5,html-button-response,233,947717,0.0-16.0-7.0,35725,List1A,white,woman,,TRUE,5,,,,,,,,,,
null,CORRECT,,html-keyboard-response,234,949219,0.0-16.0-8.0-0.0,35725,List1A,white,woman,,,,null,,,,,,,,,
3698,"<img src=""portrait/BW1.jpg""style=""height:400px;""></img>",0,html-button-response,235,952918,0.0-16.0-10.0,35725,List1A,white,woman,,TRUE,0,,,,,,,,,,
null,CORRECT,,html-keyboard-response,236,954421,0.0-16.0-11.0-0.0,35725,List1A,white,woman,,,,null,,,,,,,,,
2125,"<img src=""portrait/WW2.jpg""style=""height:400px;""></img>",3,html-button-response,237,956549,0.0-16.0-13.0,35725,List1A,white,woman,,TRUE,3,,,,,,,,,,
null,CORRECT,,html-keyboard-response,238,958050,0.0-16.0-14.0-0.0,35725,List1A,white,woman,,,,null,,,,,,,,,
1762,"<img src=""portrait/BW2.jpg""style=""height:400px;""></img>",2,html-button-response,239,959815,0.0-16.0-16.0,35725,List1A,white,woman,,TRUE,2,,,,,,,,,,
null,CORRECT,,html-keyboard-response,240,961319,0.0-16.0-17.0-0.0,35725,List1A,white,woman,,,,null,,,,,,,,,
1839,"<img src=""portrait/WW1.jpg""style=""height:400px;""></img>",1,html-button-response,241,963160,0.0-16.0-19.0,35725,List1A,white,woman,,TRUE,1,,,,,,,,,,
null,CORRECT,,html-keyboard-response,242,964663,0.0-16.0-20.0-0.0,35725,List1A,white,woman,,,,null,,,,,,,,,
2318,"<img src=""portrait/WM2.jpg""style=""height:400px;""></img>",7,html-button-response,243,966983,0.0-16.0-22.0,35725,List1A,white,woman,,TRUE,7,,,,,,,,,,
null,CORRECT,,html-keyboard-response,244,968486,0.0-16.0-23.0-0.0,35725,List1A,white,woman,,,,null,,,,,,,,,
22332,<p>You got 8 out of 8 right first time. Press Continue.</p>,0,html-button-response,245,990820,0.0-16.0-25.0,35725,List1A,white,woman,,,,,,,,,,,,,
null,"<div style=""font-size:60px;"">+</div>",,html-keyboard-response,246,992323,0.0-17.0-0.0,35725,List1A,white,woman,,,,null,,,,,,,,,
null,"<img src=""stim_listA/copy7.gif""style=""height:400px;""></stim_listA>",,html-keyboard-response,247,994326,0.0-17.0-1.0,35725,List1A,white,woman,,,,null,,,,,,,,,
null,is copying,,html-keyboard-response,248,996329,0.0-17.0-2.0,35725,List1A,white,woman,,,,null,,,,,,,,,
5349,,,survey-text,249,1001689,0.0-17.0-3.0,35725,List1A,white,woman,,,,,"{""Q0"":""Ruth is copying Kate""}","<img src=""stim_listA/copy7.gif""style=""height:400px;""></stim_listA>",is copying,,,,,,
null,"<div style=""font-size:60px;"">+</div>",,html-keyboard-response,250,1002191,0.0-17.0-0.1,35725,List1A,white,woman,,,,null,,,,,,,,,
null,"<img src=""stim_listA/look4.gif""style=""height:400px;""></stim_listA>",,html-keyboard-response,251,1004194,0.0-17.0-1.1,35725,List1A,white,woman,,,,null,,,,,,,,,
null,is being looked at by,,html-keyboard-response,252,1006196,0.0-17.0-2.1,35725,List1A,white,woman,,,,null,,,,,,,,,
7012,,,survey-text,253,1013216,0.0-17.0-3.1,35725,List1A,white,woman,,,,,"{""Q0"":""Jane is being looked at by Dave ""}","<img src=""stim_listA/look4.gif""style=""height:400px;""></stim_listA>",is being looked at by,,,,,,
null,"<div style=""font-size:60px;"">+</div>",,html-keyboard-response,254,1013718,0.0-17.0-0.2,35725,List1A,white,woman,,,,null,,,,,,,,,
null,"<img src=""stim_listA/touch2.gif""style=""height:400px;""></stim_listA>",,html-keyboard-response,255,1015719,0.0-17.0-1.2,35725,List1A,white,woman,,,,null,,,,,,,,,
null,is being touched by,,html-keyboard-response,256,1017721,0.0-17.0-2.2,35725,List1A,white,woman,,,,null,,,,,,,,,
4978,,,survey-text,257,1022711,0.0-17.0-3.2,35725,List1A,white,woman,,,,,"{""Q0"":""Beth is being touched by fred ""}","<img src=""stim_listA/touch2.gif""style=""height:400px;""></stim_listA>",is being touched by,,,,,,
null,"<div style=""font-size:60px;"">+</div>",,html-keyboard-response,258,1023213,0.0-17.0-0.3,35725,List1A,white,woman,,,,null,,,,,,,,,
null,"<img src=""stim_listA/greet5.gif""style=""height:400px;""></stim_listA>",,html-keyboard-response,259,1025214,0.0-17.0-1.3,35725,List1A,white,woman,,,,null,,,,,,,,,
null,is greeting,,html-keyboard-response,260,1027216,0.0-17.0-2.3,35725,List1A,white,woman,,,,null,,,,,,,,,
4756,,,survey-text,261,1031980,0.0-17.0-3.3,35725,List1A,white,woman,,,,,"{""Q0"":""mike is greeting Luke ""}","<img src=""stim_listA/greet5.gif""style=""height:400px;""></stim_listA>",is greeting,,,,,,
null,"<div style=""font-size:60px;"">+</div>",,html-keyboard-response,262,1032482,0.0-17.0-0.4,35725,List1A,white,woman,,,,null,,,,,,,,,
null,"<img src=""stim_listA/kiss8.gif""style=""height:400px;""></stim_listA>",,html-keyboard-response,263,1034485,0.0-17.0-1.4,35725,List1A,white,woman,,,,null,,,,,,,,,
null,is being kissed by,,html-keyboard-response,264,1036487,0.0-17.0-2.4,35725,List1A,white,woman,,,,null,,,,,,,,,
5723,,,survey-text,265,1042221,0.0-17.0-3.4,35725,List1A,white,woman,,,,,"{""Q0"":""Jane is being kissed by Kate ""}","<img src=""stim_listA/kiss8.gif""style=""height:400px;""></stim_listA>",is being kissed by,,,,,,
null,"<div style=""font-size:60px;"">+</div>",,html-keyboard-response,266,1042722,0.0-17.0-0.5,35725,List1A,white,woman,,,,null,,,,,,,,,
null,"<img src=""stim_listA/shout4.gif""style=""height:400px;""></stim_listA>",,html-keyboard-response,267,1044724,0.0-17.0-1.5,35725,List1A,white,woman,,,,null,,,,,,,,,
null,is being shouted at by,,html-keyboard-response,268,1046727,0.0-17.0-2.5,35725,List1A,white,woman,,,,null,,,,,,,,,
12827,,,survey-text,269,1059564,0.0-17.0-3.5,35725,List1A,white,woman,,,,,"{""Q0"":""Jane is being shouted at by Dave""}","<img src=""stim_listA/shout4.gif""style=""height:400px;""></stim_listA>",is being shouted at by,,,,,,
null,"<div style=""font-size:60px;"">+</div>",,html-keyboard-response,270,1060065,0.0-17.0-0.6,35725,List1A,white,woman,,,,null,,,,,,,,,
null,"<img src=""stim_listA/copy5.gif""style=""height:400px;""></stim_listA>",,html-keyboard-response,271,1062067,0.0-17.0-1.6,35725,List1A,white,woman,,,,null,,,,,,,,,
null,is copying,,html-keyboard-response,272,1064068,0.0-17.0-2.6,35725,List1A,white,woman,,,,null,,,,,,,,,
4321,,,survey-text,273,1068396,0.0-17.0-3.6,35725,List1A,white,woman,,,,,"{""Q0"":""mike is copying Luke ""}","<img src=""stim_listA/copy5.gif""style=""height:400px;""></stim_listA>",is copying,,,,,,
null,"<div style=""font-size:60px;"">+</div>",,html-keyboard-response,274,1068898,0.0-17.0-0.7,35725,List1A,white,woman,,,,null,,,,,,,,,
null,"<img src=""stim_listA/oppose4.gif""style=""height:400px;""></stim_listA>",,html-keyboard-response,275,1070900,0.0-17.0-1.7,35725,List1A,white,woman,,,,null,,,,,,,,,
null,is being opposed by,,html-keyboard-response,276,1072902,0.0-17.0-2.7,35725,List1A,white,woman,,,,null,,,,,,,,,
5976,,,survey-text,277,1078886,0.0-17.0-3.7,35725,List1A,white,woman,,,,,"{""Q0"":""Luke is being opposed by ruth ""}","<img src=""stim_listA/oppose4.gif""style=""height:400px;""></stim_listA>",is being opposed by,,,,,,
null,"<div style=""font-size:60px;"">+</div>",,html-keyboard-response,278,1079388,0.0-17.0-0.8,35725,List1A,white,woman,,,,null,,,,,,,,,
null,"<img src=""stim_listA/copy3.gif""style=""height:400px;""></stim_listA>",,html-keyboard-response,279,1081391,0.0-17.0-1.8,35725,List1A,white,woman,,,,null,,,,,,,,,
null,is copying,,html-keyboard-response,280,1083393,0.0-17.0-2.8,35725,List1A,white,woman,,,,null,,,,,,,,,
4452,,,survey-text,281,1087852,0.0-17.0-3.8,35725,List1A,white,woman,,,,,"{""Q0"":""Dave is copying ruth ""}","<img src=""stim_listA/copy3.gif""style=""height:400px;""></stim_listA>",is copying,,,,,,
null,"<div style=""font-size:60px;"">+</div>",,html-keyboard-response,282,1088354,0.0-17.0-0.9,35725,List1A,white,woman,,,,null,,,,,,,,,
null,"<img src=""stim_listA/seduce2.gif""style=""height:400px;""></stim_listA>",,html-keyboard-response,283,1090357,0.0-17.0-1.9,35725,List1A,white,woman,,,,null,,,,,,,,,
null,is being seduced by,,html-keyboard-response,284,1092358,0.0-17.0-2.9,35725,List1A,white,woman,,,,null,,,,,,,,,
9333,,,survey-text,285,1101700,0.0-17.0-3.9,35725,List1A,white,woman,,,,,"{""Q0"":""beth is being seduced by mike ""}","<img src=""stim_listA/seduce2.gif""style=""height:400px;""></stim_listA>",is being seduced by,,,,,,
null,"<div style=""font-size:60px;"">+</div>",,html-keyboard-response,286,1102203,0.0-17.0-0.10,35725,List1A,white,woman,,,,null,,,,,,,,,
null,"<img src=""stim_listA/copy4.gif""style=""height:400px;""></stim_listA>",,html-keyboard-response,287,1104205,0.0-17.0-1.10,35725,List1A,white,woman,,,,null,,,,,,,,,
null,is being copied by,,html-keyboard-response,288,1106207,0.0-17.0-2.10,35725,List1A,white,woman,,,,null,,,,,,,,,
8341,,,survey-text,289,1114557,0.0-17.0-3.10,35725,List1A,white,woman,,,,,"{""Q0"":""Jane is being copied by Luke ""}","<img src=""stim_listA/copy4.gif""style=""height:400px;""></stim_listA>",is being copied by,,,,,,
null,"<div style=""font-size:60px;"">+</div>",,html-keyboard-response,290,1115059,0.0-17.0-0.11,35725,List1A,white,woman,,,,null,,,,,,,,,
null,"<img src=""stim_listA/touch5.gif""style=""height:400px;""></stim_listA>",,html-keyboard-response,291,1117061,0.0-17.0-1.11,35725,List1A,white,woman,,,,null,,,,,,,,,
null,is touching,,html-keyboard-response,292,1119063,0.0-17.0-2.11,35725,List1A,white,woman,,,,null,,,,,,,,,
4360,,,survey-text,293,1123434,0.0-17.0-3.11,35725,List1A,white,woman,,,,,"{""Q0"":""mike is touching Dave ""}","<img src=""stim_listA/touch5.gif""style=""height:400px;""></stim_listA>",is touching,,,,,,
null,"<div style=""font-size:60px;"">+</div>",,html-keyboard-response,294,1123936,0.0-17.0-0.12,35725,List1A,white,woman,,,,null,,,,,,,,,
null,"<img src=""stim_listA/copy6.gif""style=""height:400px;""></stim_listA>",,html-keyboard-response,295,1125938,0.0-17.0-1.12,35725,List1A,white,woman,,,,null,,,,,,,,,
null,is being copied by,,html-keyboard-response,296,1127940,0.0-17.0-2.12,35725,List1A,white,woman,,,,null,,,,,,,,,
7295,,,survey-text,297,1135242,0.0-17.0-3.12,35725,List1A,white,woman,,,,,"{""Q0"":""fred is being copied by Dave ""}","<img src=""stim_listA/copy6.gif""style=""height:400px;""></stim_listA>",is being copied by,,,,,,
null,"<div style=""font-size:60px;"">+</div>",,html-keyboard-response,298,1135744,0.0-17.0-0.13,35725,List1A,white,woman,,,,null,,,,,,,,,
null,"<img src=""stim_listA/oppose1.gif""style=""height:400px;""></stim_listA>",,html-keyboard-response,299,1137746,0.0-17.0-1.13,35725,List1A,white,woman,,,,null,,,,,,,,,
null,is opposing,,html-keyboard-response,300,1139749,0.0-17.0-2.13,35725,List1A,white,woman,,,,null,,,,,,,,,
5798,,,survey-text,301,1145557,0.0-17.0-3.13,35725,List1A,white,woman,,,,,"{""Q0"":""mike is opposing Kate ""}","<img src=""stim_listA/oppose1.gif""style=""height:400px;""></stim_listA>",is opposing,,,,,,
null,"<div style=""font-size:60px;"">+</div>",,html-keyboard-response,302,1146060,0.0-17.0-0.14,35725,List1A,white,woman,,,,null,,,,,,,,,
null,"<img src=""stim_listA/challenge5.gif""style=""height:400px;""></stim_listA>",,html-keyboard-response,303,1148061,0.0-17.0-1.14,35725,List1A,white,woman,,,,null,,,,,,,,,
null,is challenging,,html-keyboard-response,304,1150064,0.0-17.0-2.14,35725,List1A,white,woman,,,,null,,,,,,,,,
6231,,,survey-text,305,1156305,0.0-17.0-3.14,35725,List1A,white,woman,,,,,"{""Q0"":""mike is challenging Luke ""}","<img src=""stim_listA/challenge5.gif""style=""height:400px;""></stim_listA>",is challenging,,,,,,
null,"<div style=""font-size:60px;"">+</div>",,html-keyboard-response,306,1156807,0.0-17.0-0.15,35725,List1A,white,woman,,,,null,,,,,,,,,
null,"<img src=""stim_listA/hug5.gif""style=""height:400px;""></stim_listA>",,html-keyboard-response,307,1158809,0.0-17.0-1.15,35725,List1A,white,woman,,,,null,,,,,,,,,
null,is hugging,,html-keyboard-response,308,1160811,0.0-17.0-2.15,35725,List1A,white,woman,,,,null,,,,,,,,,
7341,,,survey-text,309,1168160,0.0-17.0-3.15,35725,List1A,white,woman,,,,,"{""Q0"":""fred is hugging Luke ""}","<img src=""stim_listA/hug5.gif""style=""height:400px;""></stim_listA>",is hugging,,,,,,
null,"<div style=""font-size:60px;"">+</div>",,html-keyboard-response,310,1168662,0.0-17.0-0.16,35725,List1A,white,woman,,,,null,,,,,,,,,
null,"<img src=""stim_listA/greet1.gif""style=""height:400px;""></stim_listA>",,html-keyboard-response,311,1170665,0.0-17.0-1.16,35725,List1A,white,woman,,,,null,,,,,,,,,
null,is greeting,,html-keyboard-response,312,1172666,0.0-17.0-2.16,35725,List1A,white,woman,,,,null,,,,,,,,,
4502,,,survey-text,313,1177178,0.0-17.0-3.16,35725,List1A,white,woman,,,,,"{""Q0"":""mike is greeting Beth ""}","<img src=""stim_listA/greet1.gif""style=""height:400px;""></stim_listA>",is greeting,,,,,,
null,"<div style=""font-size:60px;"">+</div>",,html-keyboard-response,314,1177680,0.0-17.0-0.17,35725,List1A,white,woman,,,,null,,,,,,,,,
null,"<img src=""stim_listA/greet2.gif""style=""height:400px;""></stim_listA>",,html-keyboard-response,315,1179682,0.0-17.0-1.17,35725,List1A,white,woman,,,,null,,,,,,,,,
null,is being greeted by,,html-keyboard-response,316,1181685,0.0-17.0-2.17,35725,List1A,white,woman,,,,null,,,,,,,,,
6437,,,survey-text,317,1188129,0.0-17.0-3.17,35725,List1A,white,woman,,,,,"{""Q0"":""Kate is being greeted by fred ""}","<img src=""stim_listA/greet2.gif""style=""height:400px;""></stim_listA>",is being greeted by,,,,,,
null,"<div style=""font-size:60px;"">+</div>",,html-keyboard-response,318,1188630,0.0-17.0-0.18,35725,List1A,white,woman,,,,null,,,,,,,,,
null,"<img src=""stim_listA/touch8.gif""style=""height:400px;""></stim_listA>",,html-keyboard-response,319,1190633,0.0-17.0-1.18,35725,List1A,white,woman,,,,null,,,,,,,,,
null,is being touched by,,html-keyboard-response,320,1192636,0.0-17.0-2.18,35725,List1A,white,woman,,,,null,,,,,,,,,
7491,,,survey-text,321,1200138,0.0-17.0-3.18,35725,List1A,white,woman,,,,,"{""Q0"":""ruth is being touched by Beth ""}","<img src=""stim_listA/touch8.gif""style=""height:400px;""></stim_listA>",is being touched by,,,,,,
null,"<div style=""font-size:60px;"">+</div>",,html-keyboard-response,322,1200641,0.0-17.0-0.19,35725,List1A,white,woman,,,,null,,,,,,,,,
null,"<img src=""stim_listA/copy1.gif""style=""height:400px;""></stim_listA>",,html-keyboard-response,323,1202644,0.0-17.0-1.19,35725,List1A,white,woman,,,,null,,,,,,,,,
null,is copying,,html-keyboard-response,324,1204647,0.0-17.0-2.19,35725,List1A,white,woman,,,,null,,,,,,,,,
5329,,,survey-text,325,1209982,0.0-17.0-3.19,35725,List1A,white,woman,,,,,"{""Q0"":""mike is copying Beth ""}","<img src=""stim_listA/copy1.gif""style=""height:400px;""></stim_listA>",is copying,,,,,,
2149,"<img src='img/portrait_matrix_list1.jpg' style='width:900px;height:500px;''></img><p>If you have memorised all the portraits and names and are ready to start, press Continue.</p><p><strong>Please note: Your memory of these faces will be tested 4 times during this experiment.</strong></p>",0,html-button-response,326,1212132,0.0-18.0-0.0,35725,List1A,white,woman,,,,,,,,,,,,,
1734,"<img src=""portrait/WM1.jpg""style=""height:400px;""></img>",6,html-button-response,327,1214870,0.0-18.0-1.0,35725,List1A,white,woman,,TRUE,6,,,,,,,,,,
null,CORRECT,,html-keyboard-response,328,1216372,0.0-18.0-2.0-0.0,35725,List1A,white,woman,,,,null,,,,,,,,,
2193,"<img src=""portrait/WW1.jpg""style=""height:400px;""></img>",1,html-button-response,329,1218567,0.0-18.0-4.0,35725,List1A,white,woman,,TRUE,1,,,,,,,,,,
null,CORRECT,,html-keyboard-response,330,1220069,0.0-18.0-5.0-0.0,35725,List1A,white,woman,,,,null,,,,,,,,,
2133,"<img src=""portrait/BW1.jpg""style=""height:400px;""></img>",0,html-button-response,331,1222205,0.0-18.0-7.0,35725,List1A,white,woman,,TRUE,0,,,,,,,,,,
null,CORRECT,,html-keyboard-response,332,1223707,0.0-18.0-8.0-0.0,35725,List1A,white,woman,,,,null,,,,,,,,,
1975,"<img src=""portrait/BM2.jpg""style=""height:400px;""></img>",5,html-button-response,333,1225684,0.0-18.0-10.0,35725,List1A,white,woman,,TRUE,5,,,,,,,,,,
null,CORRECT,,html-keyboard-response,334,1227186,0.0-18.0-11.0-0.0,35725,List1A,white,woman,,,,null,,,,,,,,,
1756,"<img src=""portrait/BW2.jpg""style=""height:400px;""></img>",2,html-button-response,335,1228945,0.0-18.0-13.0,35725,List1A,white,woman,,TRUE,2,,,,,,,,,,
null,CORRECT,,html-keyboard-response,336,1230446,0.0-18.0-14.0-0.0,35725,List1A,white,woman,,,,null,,,,,,,,,
1815,"<img src=""portrait/WM2.jpg""style=""height:400px;""></img>",7,html-button-response,337,1232264,0.0-18.0-16.0,35725,List1A,white,woman,,TRUE,7,,,,,,,,,,
null,CORRECT,,html-keyboard-response,338,1233768,0.0-18.0-17.0-0.0,35725,List1A,white,woman,,,,null,,,,,,,,,
2406,"<img src=""portrait/WW2.jpg""style=""height:400px;""></img>",3,html-button-response,339,1236176,0.0-18.0-19.0,35725,List1A,white,woman,,TRUE,3,,,,,,,,,,
null,CORRECT,,html-keyboard-response,340,1237679,0.0-18.0-20.0-0.0,35725,List1A,white,woman,,,,null,,,,,,,,,
1636,"<img src=""portrait/BM1.jpg""style=""height:400px;""></img>",4,html-button-response,341,1239317,0.0-18.0-22.0,35725,List1A,white,woman,,TRUE,4,,,,,,,,,,
null,CORRECT,,html-keyboard-response,342,1240820,0.0-18.0-23.0-0.0,35725,List1A,white,woman,,,,null,,,,,,,,,
1523,<p>You got 8 out of 8 right first time. Press Continue.</p>,0,html-button-response,343,1242344,0.0-18.0-25.0,35725,List1A,white,woman,,,,,,,,,,,,,
null,"<div style=""font-size:60px;"">+</div>",,html-keyboard-response,344,1243848,0.0-19.0-0.0,35725,List1A,white,woman,,,,null,,,,,,,,,
null,"<img src=""stim_listA/oppose7.gif""style=""height:400px;""></stim_listA>",,html-keyboard-response,345,1245851,0.0-19.0-1.0,35725,List1A,white,woman,,,,null,,,,,,,,,
null,is opposing,,html-keyboard-response,346,1247853,0.0-19.0-2.0,35725,List1A,white,woman,,,,null,,,,,,,,,
4397,,,survey-text,347,1252258,0.0-19.0-3.0,35725,List1A,white,woman,,,,,"{""Q0"":""Kate is opposing Jane ""}","<img src=""stim_listA/oppose7.gif""style=""height:400px;""></stim_listA>",is opposing,,,,,,
null,"<div style=""font-size:60px;"">+</div>",,html-keyboard-response,348,1252761,0.0-19.0-0.1,35725,List1A,white,woman,,,,null,,,,,,,,,
null,"<img src=""stim_listA/hug3.gif""style=""height:400px;""></stim_listA>",,html-keyboard-response,349,1254763,0.0-19.0-1.1,35725,List1A,white,woman,,,,null,,,,,,,,,
null,is hugging,,html-keyboard-response,350,1256766,0.0-19.0-2.1,35725,List1A,white,woman,,,,null,,,,,,,,,
3816,,,survey-text,351,1260590,0.0-19.0-3.1,35725,List1A,white,woman,,,,,"{""Q0"":""Luke is hugging ruth""}","<img src=""stim_listA/hug3.gif""style=""height:400px;""></stim_listA>",is hugging,,,,,,
null,"<div style=""font-size:60px;"">+</div>",,html-keyboard-response,352,1261092,0.0-19.0-0.2,35725,List1A,white,woman,,,,null,,,,,,,,,
null,"<img src=""stim_listA/shout2.gif""style=""height:400px;""></stim_listA>",,html-keyboard-response,353,1263095,0.0-19.0-1.2,35725,List1A,white,woman,,,,null,,,,,,,,,
null,is being shouted at by,,html-keyboard-response,354,1265101,0.0-19.0-2.2,35725,List1A,white,woman,,,,null,,,,,,,,,
4839,,,survey-text,355,1269949,0.0-19.0-3.2,35725,List1A,white,woman,,,,,"{""Q0"":""Kate is being shouted at by mike ""}","<img src=""stim_listA/shout2.gif""style=""height:400px;""></stim_listA>",is being shouted at by,,,,,,
null,"<div style=""font-size:60px;"">+</div>",,html-keyboard-response,356,1270451,0.0-19.0-0.3,35725,List1A,white,woman,,,,null,,,,,,,,,
null,"<img src=""stim_listA/kiss2.gif""style=""height:400px;""></stim_listA>",,html-keyboard-response,357,1272454,0.0-19.0-1.3,35725,List1A,white,woman,,,,null,,,,,,,,,
null,is being kissed by,,html-keyboard-response,358,1274456,0.0-19.0-2.3,35725,List1A,white,woman,,,,null,,,,,,,,,
5425,,,survey-text,359,1279892,0.0-19.0-3.3,35725,List1A,white,woman,,,,,"{""Q0"":""Kate is being kissed by mike""}","<img src=""stim_listA/kiss2.gif""style=""height:400px;""></stim_listA>",is being kissed by,,,,,,
null,"<div style=""font-size:60px;"">+</div>",,html-keyboard-response,360,1280393,0.0-19.0-0.4,35725,List1A,white,woman,,,,null,,,,,,,,,
null,"<img src=""stim_listA/kiss7.gif""style=""height:400px;""></stim_listA>",,html-keyboard-response,361,1282396,0.0-19.0-1.4,35725,List1A,white,woman,,,,null,,,,,,,,,
null,is kissing,,html-keyboard-response,362,1284398,0.0-19.0-2.4,35725,List1A,white,woman,,,,null,,,,,,,,,
4296,,,survey-text,363,1288705,0.0-19.0-3.4,35725,List1A,white,woman,,,,,"{""Q0"":""Beth is kissing ruth ""}","<img src=""stim_listA/kiss7.gif""style=""height:400px;""></stim_listA>",is kissing,,,,,,
null,"<div style=""font-size:60px;"">+</div>",,html-keyboard-response,364,1289208,0.0-19.0-0.5,35725,List1A,white,woman,,,,null,,,,,,,,,
null,"<img src=""stim_listA/hug8.gif""style=""height:400px;""></stim_listA>",,html-keyboard-response,365,1291210,0.0-19.0-1.5,35725,List1A,white,woman,,,,null,,,,,,,,,
null,is being hugged by,,html-keyboard-response,366,1293212,0.0-19.0-2.5,35725,List1A,white,woman,,,,null,,,,,,,,,
24386,,,survey-text,367,1317607,0.0-19.0-3.5,35725,List1A,white,woman,,,,,"{""Q0"":""Jane is being hugged by Kate ""}","<img src=""stim_listA/hug8.gif""style=""height:400px;""></stim_listA>",is being hugged by,,,,,,
null,"<div style=""font-size:60px;"">+</div>",,html-keyboard-response,368,1318109,0.0-19.0-0.6,35725,List1A,white,woman,,,,null,,,,,,,,,
null,"<img src=""stim_listA/seduce8.gif""style=""height:400px;""></stim_listA>",,html-keyboard-response,369,1320112,0.0-19.0-1.6,35725,List1A,white,woman,,,,null,,,,,,,,,
null,is being seduced by,,html-keyboard-response,370,1322114,0.0-19.0-2.6,35725,List1A,white,woman,,,,null,,,,,,,,,
4975,,,survey-text,371,1327097,0.0-19.0-3.6,35725,List1A,white,woman,,,,,"{""Q0"":""ruth is being seduced by Kate""}","<img src=""stim_listA/seduce8.gif""style=""height:400px;""></stim_listA>",is being seduced by,,,,,,
null,"<div style=""font-size:60px;"">+</div>",,html-keyboard-response,372,1327599,0.0-19.0-0.7,35725,List1A,white,woman,,,,null,,,,,,,,,
null,"<img src=""stim_listA/hug7.gif""style=""height:400px;""></stim_listA>",,html-keyboard-response,373,1329602,0.0-19.0-1.7,35725,List1A,white,woman,,,,null,,,,,,,,,
null,is hugging,,html-keyboard-response,374,1331604,0.0-19.0-2.7,35725,List1A,white,woman,,,,null,,,,,,,,,
3484,,,survey-text,375,1335099,0.0-19.0-3.7,35725,List1A,white,woman,,,,,"{""Q0"":""Beth is hugging ruth ""}","<img src=""stim_listA/hug7.gif""style=""height:400px;""></stim_listA>",is hugging,,,,,,
null,"<div style=""font-size:60px;"">+</div>",,html-keyboard-response,376,1335602,0.0-19.0-0.8,35725,List1A,white,woman,,,,null,,,,,,,,,
null,"<img src=""stim_listA/kiss3.gif""style=""height:400px;""></stim_listA>",,html-keyboard-response,377,1337604,0.0-19.0-1.8,35725,List1A,white,woman,,,,null,,,,,,,,,
null,is kissing,,html-keyboard-response,378,1339605,0.0-19.0-2.8,35725,List1A,white,woman,,,,null,,,,,,,,,
3609,,,survey-text,379,1343222,0.0-19.0-3.8,35725,List1A,white,woman,,,,,"{""Q0"":""Luke is kissing ruth ""}","<img src=""stim_listA/kiss3.gif""style=""height:400px;""></stim_listA>",is kissing,,,,,,
null,"<div style=""font-size:60px;"">+</div>",,html-keyboard-response,380,1343724,0.0-19.0-0.9,35725,List1A,white,woman,,,,null,,,,,,,,,
null,"<img src=""stim_listA/challenge2.gif""style=""height:400px;""></stim_listA>",,html-keyboard-response,381,1345726,0.0-19.0-1.9,35725,List1A,white,woman,,,,null,,,,,,,,,
null,is being challenged by,,html-keyboard-response,382,1347728,0.0-19.0-2.9,35725,List1A,white,woman,,,,null,,,,,,,,,
9780,,,survey-text,383,1357517,0.0-19.0-3.9,35725,List1A,white,woman,,,,,"{""Q0"":""Kate is being challenged by fred ""}","<img src=""stim_listA/challenge2.gif""style=""height:400px;""></stim_listA>",is being challenged by,,,,,,
null,"<div style=""font-size:60px;"">+</div>",,html-keyboard-response,384,1358019,0.0-19.0-0.10,35725,List1A,white,woman,,,,null,,,,,,,,,
null,"<img src=""stim_listA/challenge6.gif""style=""height:400px;""></stim_listA>",,html-keyboard-response,385,1360022,0.0-19.0-1.10,35725,List1A,white,woman,,,,null,,,,,,,,,
null,is being challenged by,,html-keyboard-response,386,1362024,0.0-19.0-2.10,35725,List1A,white,woman,,,,null,,,,,,,,,
5893,,,survey-text,387,1367927,0.0-19.0-3.10,35725,List1A,white,woman,,,,,"{""Q0"":""Dave is being challenged by fred ""}","<img src=""stim_listA/challenge6.gif""style=""height:400px;""></stim_listA>",is being challenged by,,,,,,
null,"<div style=""font-size:60px;"">+</div>",,html-keyboard-response,388,1368429,0.0-19.0-0.11,35725,List1A,white,woman,,,,null,,,,,,,,,
null,"<img src=""stim_listA/shout3.gif""style=""height:400px;""></stim_listA>",,html-keyboard-response,389,1370430,0.0-19.0-1.11,35725,List1A,white,woman,,,,null,,,,,,,,,
null,is shouting at,,html-keyboard-response,390,1372433,0.0-19.0-2.11,35725,List1A,white,woman,,,,null,,,,,,,,,
5438,,,survey-text,391,1377881,0.0-19.0-3.11,35725,List1A,white,woman,,,,,"{""Q0"":""Ruth is shouting at Luke ""}","<img src=""stim_listA/shout3.gif""style=""height:400px;""></stim_listA>",is shouting at,,,,,,
null,"<div style=""font-size:60px;"">+</div>",,html-keyboard-response,392,1378383,0.0-19.0-0.12,35725,List1A,white,woman,,,,null,,,,,,,,,
null,"<img src=""stim_listA/greet7.gif""style=""height:400px;""></stim_listA>",,html-keyboard-response,393,1380385,0.0-19.0-1.12,35725,List1A,white,woman,,,,null,,,,,,,,,
null,is greeting,,html-keyboard-response,394,1382388,0.0-19.0-2.12,35725,List1A,white,woman,,,,null,,,,,,,,,
7482,,,survey-text,395,1389881,0.0-19.0-3.12,35725,List1A,white,woman,,,,,"{""Q0"":""Kate is greeting ruth ""}","<img src=""stim_listA/greet7.gif""style=""height:400px;""></stim_listA>",is greeting,,,,,,
null,"<div style=""font-size:60px;"">+</div>",,html-keyboard-response,396,1390383,0.0-19.0-0.13,35725,List1A,white,woman,,,,null,,,,,,,,,
null,"<img src=""stim_listA/kiss6.gif""style=""height:400px;""></stim_listA>",,html-keyboard-response,397,1392386,0.0-19.0-1.13,35725,List1A,white,woman,,,,null,,,,,,,,,
null,is being kissed by,,html-keyboard-response,398,1394388,0.0-19.0-2.13,35725,List1A,white,woman,,,,null,,,,,,,,,
4655,,,survey-text,399,1399050,0.0-19.0-3.13,35725,List1A,white,woman,,,,,"{""Q0"":""Dave is being kissed by mike ""}","<img src=""stim_listA/kiss6.gif""style=""height:400px;""></stim_listA>",is being kissed by,,,,,,
null,"<div style=""font-size:60px;"">+</div>",,html-keyboard-response,400,1399552,0.0-19.0-0.14,35725,List1A,white,woman,,,,null,,,,,,,,,
null,"<img src=""stim_listA/look2.gif""style=""height:400px;""></stim_listA>",,html-keyboard-response,401,1401554,0.0-19.0-1.14,35725,List1A,white,woman,,,,null,,,,,,,,,
null,is being looked at by,,html-keyboard-response,402,1403556,0.0-19.0-2.14,35725,List1A,white,woman,,,,null,,,,,,,,,
4984,,,survey-text,403,1408551,0.0-19.0-3.14,35725,List1A,white,woman,,,,,"{""Q0"":""Kate is being looked at by mike ""}","<img src=""stim_listA/look2.gif""style=""height:400px;""></stim_listA>",is being looked at by,,,,,,
null,"<div style=""font-size:60px;"">+</div>",,html-keyboard-response,404,1409053,0.0-19.0-0.15,35725,List1A,white,woman,,,,null,,,,,,,,,
null,"<img src=""stim_listA/look6.gif""style=""height:400px;""></stim_listA>",,html-keyboard-response,405,1411056,0.0-19.0-1.15,35725,List1A,white,woman,,,,null,,,,,,,,,
null,is being looked at by,,html-keyboard-response,406,1413058,0.0-19.0-2.15,35725,List1A,white,woman,,,,null,,,,,,,,,
4852,,,survey-text,407,1417920,0.0-19.0-3.15,35725,List1A,white,woman,,,,,"{""Q0"":""Dave is being looked at by mike ""}","<img src=""stim_listA/look6.gif""style=""height:400px;""></stim_listA>",is being looked at by,,,,,,
null,"<div style=""font-size:60px;"">+</div>",,html-keyboard-response,408,1418421,0.0-19.0-0.16,35725,List1A,white,woman,,,,null,,,,,,,,,
null,"<img src=""stim_listA/look3.gif""style=""height:400px;""></stim_listA>",,html-keyboard-response,409,1420424,0.0-19.0-1.16,35725,List1A,white,woman,,,,null,,,,,,,,,
null,is looking at,,html-keyboard-response,410,1422431,0.0-19.0-2.16,35725,List1A,white,woman,,,,null,,,,,,,,,
4406,,,survey-text,411,1426846,0.0-19.0-3.16,35725,List1A,white,woman,,,,,"{""Q0"":""ruth is looking at Luke ""}","<img src=""stim_listA/look3.gif""style=""height:400px;""></stim_listA>",is looking at,,,,,,
null,"<div style=""font-size:60px;"">+</div>",,html-keyboard-response,412,1427348,0.0-19.0-0.17,35725,List1A,white,woman,,,,null,,,,,,,,,
null,"<img src=""stim_listA/kiss5.gif""style=""height:400px;""></stim_listA>",,html-keyboard-response,413,1429350,0.0-19.0-1.17,35725,List1A,white,woman,,,,null,,,,,,,,,
null,is kissing,,html-keyboard-response,414,1431351,0.0-19.0-2.17,35725,List1A,white,woman,,,,null,,,,,,,,,
22153,,,survey-text,415,1453515,0.0-19.0-3.17,35725,List1A,white,woman,,,,,"{""Q0"":""fred is kissing Luke ""}","<img src=""stim_listA/kiss5.gif""style=""height:400px;""></stim_listA>",is kissing,,,,,,
null,"<div style=""font-size:60px;"">+</div>",,html-keyboard-response,416,1454017,0.0-19.0-0.18,35725,List1A,white,woman,,,,null,,,,,,,,,
null,"<img src=""stim_listA/challenge4.gif""style=""height:400px;""></stim_listA>",,html-keyboard-response,417,1456019,0.0-19.0-1.18,35725,List1A,white,woman,,,,null,,,,,,,,,
null,is being challenged by,,html-keyboard-response,418,1458022,0.0-19.0-2.18,35725,List1A,white,woman,,,,null,,,,,,,,,
5649,,,survey-text,419,1463680,0.0-19.0-3.18,35725,List1A,white,woman,,,,,"{""Q0"":""Jane is being challenged by Luke ""}","<img src=""stim_listA/challenge4.gif""style=""height:400px;""></stim_listA>",is being challenged by,,,,,,
null,"<div style=""font-size:60px;"">+</div>",,html-keyboard-response,420,1464182,0.0-19.0-0.19,35725,List1A,white,woman,,,,null,,,,,,,,,
null,"<img src=""stim_listA/kiss4.gif""style=""height:400px;""></stim_listA>",,html-keyboard-response,421,1466185,0.0-19.0-1.19,35725,List1A,white,woman,,,,null,,,,,,,,,
null,is being kissed by,,html-keyboard-response,422,1468188,0.0-19.0-2.19,35725,List1A,white,woman,,,,null,,,,,,,,,
4163,,,survey-text,423,1472359,0.0-19.0-3.19,35725,List1A,white,woman,,,,,"{""Q0"":""Jane is being kissed by Dave ""}","<img src=""stim_listA/kiss4.gif""style=""height:400px;""></stim_listA>",is being kissed by,,,,,,
3790,<p>Thank you for completing that task.</p><p>The final part of this session is a questionnaire that will take about 4 minutes.</p><p>Press Continue.</p>,0,html-button-response,424,1476150,0.0-20.0,35725,List1A,white,woman,,,,,,,,,,,,,
27506,,,survey-text,425,1504675,0.0-21.0,35725,List1A,white,woman,,,,,"{""Q0"":""28"",""Q1"":""english"",""Q2"":""English"",""Q3"":""United States"",""Q4"":""irish/italian"",""Q5"":""white"",""Q6"":""female""}",,,demographics,,,,,
2189,<p>Have you lived in the USA for the last 5 years or more?</p>,0,html-button-response,426,1506866,0.0-22.0,35725,List1A,white,woman,,,,,,,,fiveyears,,,,,
3734,<p>Move the slider to show the extent to which you agree with the following statements.</p>,0,html-button-response,427,1511602,0.0-23.0,35725,List1A,white,woman,,,,,,,,,,,,,
5184,,,html-slider-response,428,1517794,0.0-24.0-0.0-0.0,35725,List1A,white,woman,,,,,,,,survey_gender,80,,,I have a lot in common with my friends.,filler
7646,,,html-slider-response,429,1525444,0.0-24.0-0.0-0.1,35725,List1A,white,woman,,,,,,,,survey_gender,27,,,I often think about the fact that I am my gender.,often
4714,,,html-slider-response,430,1530163,0.0-24.0-0.0-0.2,35725,List1A,white,woman,,,,,,,,survey_gender,82,,,My friends have a lot in common with each other.,filler
5858,,,html-slider-response,431,1536024,0.0-24.0-0.0-0.3,35725,List1A,white,woman,,,,,,,,survey_gender,80,,,Being my gender is an important part of how I see myself.,important
3524,,,html-slider-response,432,1539551,0.0-24.0-0.0-0.4,35725,List1A,white,woman,,,,,,,,survey_gender,85,,,I feel committed to my gender.,committed
4892,,,html-slider-response,433,1544446,0.0-24.0-0.0-0.5,35725,List1A,white,woman,,,,,,,,survey_gender,58,,,I am similar to the average person of my gender.,similar
3292,,,html-slider-response,434,1547740,0.0-24.0-0.0-0.6,35725,List1A,white,woman,,,,,,,,survey_gender,93,,,I feel a bond with my gender.,bond
3283,,,html-slider-response,435,1551026,0.0-24.0-0.0-0.7,35725,List1A,white,woman,,,,,,,,survey_gender,93,,,I would say I am an animal person.,filler
5392,,,html-slider-response,436,1556421,0.0-24.0-0.0-0.8,35725,List1A,white,woman,,,,,,,,survey_gender,47,,,People of my gender are very similar to each other.,verysimilar
4898,,,html-slider-response,437,1561324,0.0-24.0-0.0-0.9,35725,List1A,white,woman,,,,,,,,survey_gender,46,,,People of my gender have a lot in common with each other.,common
3776,,,html-slider-response,438,1565102,0.0-24.0-0.0-0.10,35725,List1A,white,woman,,,,,,,,survey_gender,61,,,I have a lot in common with the average person of my gender.,average
3975,,,html-slider-response,439,1569080,0.0-24.0-0.0-0.11,35725,List1A,white,woman,,,,,,,,survey_gender,26,,,I consider myself a highly empathetic person.,filler
5558,,,html-slider-response,440,1574640,0.0-24.0-0.0-0.12,35725,List1A,white,woman,,,,,,,,survey_gender,68,,,Most of the friends in my life are very similar to me.,filler
4211,,,html-slider-response,441,1578855,0.0-24.0-0.0-0.13,35725,List1A,white,woman,,,,,,,,survey_gender,70,,,Being my gender gives me a good feeling.,feeling
3815,,,html-slider-response,442,1582672,0.0-24.0-0.0-0.14,35725,List1A,white,woman,,,,,,,,survey_gender,94,,,I feel solidarity with my gender.,solidarity
3721,,,html-slider-response,443,1586395,0.0-24.0-0.0-0.15,35725,List1A,white,woman,,,,,,,,survey_gender,99,,,I feel a bond with my friends.,filler
3667,,,html-slider-response,444,1590065,0.0-24.0-0.0-0.16,35725,List1A,white,woman,,,,,,,,survey_gender,25,,,It is pleasant to be my gender.,pleasant
4452,,,html-slider-response,445,1594518,0.0-24.0-0.0-0.17,35725,List1A,white,woman,,,,,,,,survey_gender,69,,,Being around my friends gives me a good feeling.,filler
3340,,,html-slider-response,446,1597862,0.0-24.0-0.0-0.18,35725,List1A,white,woman,,,,,,,,survey_gender,81,,,I think that my gender has a lot to be proud of.,proud
3829,,,html-slider-response,447,1601695,0.0-24.0-0.0-0.19,35725,List1A,white,woman,,,,,,,,survey_gender,83,,,I am glad to have the friends that I have.,filler
3409,,,html-slider-response,448,1605108,0.0-24.0-0.0-0.20,35725,List1A,white,woman,,,,,,,,survey_gender,84,,,I feel solidarity with my friends.,filler
3615,,,html-slider-response,449,1608725,0.0-24.0-0.0-0.21,35725,List1A,white,woman,,,,,,,,survey_gender,71,,,I am glad to be my gender.,glad
3634,,,html-slider-response,450,1612364,0.0-24.0-0.0-0.22,35725,List1A,white,woman,,,,,,,,survey_gender,0,,,Routine is not important to me.,filler
4216,,,html-slider-response,451,1616584,0.0-24.0-0.0-0.23,35725,List1A,white,woman,,,,,,,,survey_gender,76,,,The fact that I am my gender is an important part of my identity.,identity
3388,,,html-slider-response,452,1619974,0.0-24.0-0.0-0.24,35725,List1A,white,woman,,,,,,,,survey_gender,98,,,I often think about my actions.,filler
6931,,,html-slider-response,453,1626908,0.0-24.0-0.0-0.25,35725,List1A,white,woman,,,,,,,,survey_gender,71,,,Family is not more important to me than friendship.,filler
5810,,,html-slider-response,454,1632721,0.0-24.0-0.0-0.26,35725,List1A,white,woman,,,,,,,,survey_gender,80,,,It is not always easy for people to know what I am thinking.,filler
3671,,,html-slider-response,455,1636393,0.0-24.0-0.0-0.27,35725,List1A,white,woman,,,,,,,,survey_gender,64,,,My friends understand me.,filler
4544,,,html-slider-response,456,1640943,0.0-24.0-1.0-0.0,35725,List1A,white,woman,,,,,,,,survey_race,60,,,Being my age gives me a good feeling.,filler
4939,,,html-slider-response,457,1645887,0.0-24.0-1.0-0.1,35725,List1A,white,woman,,,,,,,,survey_race,57,,,I have a lot in common with people of a similar age to me.,filler
5502,,,html-slider-response,458,1651393,0.0-24.0-1.0-0.2,35725,List1A,white,woman,,,,,,,,survey_race,53,,,I am glad to be my race.,glad
3357,,,html-slider-response,459,1654752,0.0-24.0-1.0-0.3,35725,List1A,white,woman,,,,,,,,survey_race,25,,,I feel a bond with my race.,bond
3619,,,html-slider-response,460,1658375,0.0-24.0-1.0-0.4,35725,List1A,white,woman,,,,,,,,survey_race,75,,,I often think about the fact that I am my race.,often
4370,,,html-slider-response,461,1662748,0.0-24.0-1.0-0.5,35725,List1A,white,woman,,,,,,,,survey_race,18,,,Getting older does not worry me.,filler
4584,,,html-slider-response,462,1667337,0.0-24.0-1.0-0.6,35725,List1A,white,woman,,,,,,,,survey_race,62,,,I feel solidarity with people the same age as me.,filler
3487,,,html-slider-response,463,1670824,0.0-24.0-1.0-0.7,35725,List1A,white,woman,,,,,,,,survey_race,64,,,It is pleasant to be my race.,pleasant
4659,,,html-slider-response,464,1675487,0.0-24.0-1.0-0.8,35725,List1A,white,woman,,,,,,,,survey_race,57,,,I am similar to the average person of my race.,similar
3864,,,html-slider-response,465,1679353,0.0-24.0-1.0-0.9,35725,List1A,white,woman,,,,,,,,survey_race,59,,,I have a lot in common with the average person of my race.,average
5036,,,html-slider-response,466,1684392,0.0-24.0-1.0-0.10,35725,List1A,white,woman,,,,,,,,survey_race,36,,,My age is not an important part of who I am.,filler
5273,,,html-slider-response,467,1689668,0.0-24.0-1.0-0.11,35725,List1A,white,woman,,,,,,,,survey_race,71,,,I consider myself an introvert.,filler
2953,,,html-slider-response,468,1692624,0.0-24.0-1.0-0.12,35725,List1A,white,woman,,,,,,,,survey_race,24,,,I feel committed to my race.,committed
3710,,,html-slider-response,469,1696337,0.0-24.0-1.0-0.13,35725,List1A,white,woman,,,,,,,,survey_race,63,,,I often think about the fact that I am my age.,filler
3540,,,html-slider-response,470,1699880,0.0-24.0-1.0-0.14,35725,List1A,white,woman,,,,,,,,survey_race,16,,,I enjoy being in large groups.,filler
3202,,,html-slider-response,471,1703086,0.0-24.0-1.0-0.15,35725,List1A,white,woman,,,,,,,,survey_race,58,,,I am glad to be the age I am.,filler
3162,,,html-slider-response,472,1706250,0.0-24.0-1.0-0.16,35725,List1A,white,woman,,,,,,,,survey_race,21,,,Being my race gives me a good feeling.,feeling
4412,,,html-slider-response,473,1710664,0.0-24.0-1.0-0.17,35725,List1A,white,woman,,,,,,,,survey_race,64,,,People my age have a lot in common with each other.,filler
3043,,,html-slider-response,474,1713709,0.0-24.0-1.0-0.18,35725,List1A,white,woman,,,,,,,,survey_race,31,,,People of my race are very similar to each other.,verysimilar
6672,,,html-slider-response,475,1720384,0.0-24.0-1.0-0.19,35725,List1A,white,woman,,,,,,,,survey_race,53,,,People of my race have a lot in common with each other.,common
3740,,,html-slider-response,476,1724128,0.0-24.0-1.0-0.20,35725,List1A,white,woman,,,,,,,,survey_race,63,,,I feel a bond with people the same age as me.,filler
3888,,,html-slider-response,477,1728017,0.0-24.0-1.0-0.21,35725,List1A,white,woman,,,,,,,,survey_race,13,,,I think that my race has a lot to be proud of.,proud
3677,,,html-slider-response,478,1731698,0.0-24.0-1.0-0.22,35725,List1A,white,woman,,,,,,,,survey_race,62,,,I am glad to be my age.,filler
3783,,,html-slider-response,479,1735484,0.0-24.0-1.0-0.23,35725,List1A,white,woman,,,,,,,,survey_race,15,,,I feel solidarity with my race.,solidarity
3586,,,html-slider-response,480,1739073,0.0-24.0-1.0-0.24,35725,List1A,white,woman,,,,,,,,survey_race,24,,,Being my race is an important part of how I see myself.,important
3539,,,html-slider-response,481,1742615,0.0-24.0-1.0-0.25,35725,List1A,white,woman,,,,,,,,survey_race,68,,,"The older I get, the wiser I feel.",filler
3914,,,html-slider-response,482,1746531,0.0-24.0-1.0-0.26,35725,List1A,white,woman,,,,,,,,survey_race,8,,,I consider myself an extrovert.,filler
4418,,,html-slider-response,483,1750950,0.0-24.0-1.0-0.27,35725,List1A,white,woman,,,,,,,,survey_race,20,,,The fact that I am my race is an important part of my identity.,identity
14073,,,survey-text,484,1765036,0.0-25.0,35725,List1A,white,woman,,,,,"{""Q0"":""ccc""}",,,worker_id,,,,,
19972,,,external-html,485,1785222,0.0-26.0,35725,List1A,white,woman,debrief.html,,,,,,,,,,,,
