"rt","stimulus","button_pressed","trial_type","trial_index","time_elapsed","internal_node_id","subject","list","ppt_race","ppt_gender","url","first_guess","correct","key_press","responses","image_type","phrase_type","test_part","response","stimulus1","stimulus2","question_type","survey_item"
"2790.399999999907","Welcome to the experiment. Press Continue to begin.","0","html-button-response","0","2793","0.0-0.0","35773","List1A","white","woman","","","","","","","","","","","","",""
"45753.09999999986","","","external-html","1","49711","0.0-1.0","35773","List1A","white","woman","consent.html","","","","","","","","","","","",""
"10818.600000000093","<p>On the next page, you will see portraits of 8 people and their names.</p><p>Your first task is to take a few minutes to memorise the names of these people.</p><p>You will have to recall their names during the rest of the experiment, so it is</p><p>essential that you try to memorise these people and their names as best as you can.</p><br><p><strong>You will then be tested on your memory of these names and portraits.</strong></p><br><p>The experiment will start after you have completed this memory test.</p><br><p>Ready?</p>","0","html-button-response","2","60539","0.0-2.0","35773","List1A","white","woman","","","","","","","","","","","","",""
"112238","<img src='img/portrait_matrix_list1.jpg' style='width:900px;height:500px;''></img><p>If you have memorised all the portraits and names and are ready to start, press Continue.</p><p><strong>Please note: Your memory of these faces will be tested 4 times during this experiment.</strong></p>","0","html-button-response","3","173783","0.0-3.0-0.0","35773","List1A","white","woman","","","","","","","","","","","","",""
"6637.90000000014","<img src=""portrait/BM2.jpg""style=""height:400px;""></img>","5","html-button-response","4","181437","0.0-3.0-1.0","35773","List1A","white","woman","","true","5","","","","","","","","","",""
"null","CORRECT","","html-keyboard-response","5","182961","0.0-3.0-2.0-0.0","35773","List1A","white","woman","","","","null","","","","","","","","",""
"2720.100000000093","<img src=""portrait/WW1.jpg""style=""height:400px;""></img>","1","html-button-response","6","185684","0.0-3.0-4.0","35773","List1A","white","woman","","true","1","","","","","","","","","",""
"null","CORRECT","","html-keyboard-response","7","187212","0.0-3.0-5.0-0.0","35773","List1A","white","woman","","","","null","","","","","","","","",""
"5819.700000000186","<img src=""portrait/WM2.jpg""style=""height:400px;""></img>","7","html-button-response","8","193034","0.0-3.0-7.0","35773","List1A","white","woman","","true","7","","","","","","","","","",""
"null","CORRECT","","html-keyboard-response","9","194547","0.0-3.0-8.0-0.0","35773","List1A","white","woman","","","","null","","","","","","","","",""
"4230.700000000186","<img src=""portrait/WM1.jpg""style=""height:400px;""></img>","6","html-button-response","10","198780","0.0-3.0-10.0","35773","List1A","white","woman","","true","6","","","","","","","","","",""
"null","CORRECT","","html-keyboard-response","11","200301","0.0-3.0-11.0-0.0","35773","List1A","white","woman","","","","null","","","","","","","","",""
"3964.5999999998603","<img src=""portrait/BW2.jpg""style=""height:400px;""></img>","2","html-button-response","12","204267","0.0-3.0-13.0","35773","List1A","white","woman","","true","2","","","","","","","","","",""
"null","CORRECT","","html-keyboard-response","13","205784","0.0-3.0-14.0-0.0","35773","List1A","white","woman","","","","null","","","","","","","","",""
"5963.09999999986","<img src=""portrait/BM1.jpg""style=""height:400px;""></img>","4","html-button-response","14","211748","0.0-3.0-16.0","35773","List1A","white","woman","","true","4","","","","","","","","","",""
"null","CORRECT","","html-keyboard-response","15","213275","0.0-3.0-17.0-0.0","35773","List1A","white","woman","","","","null","","","","","","","","",""
"2607.4000000001397","<img src=""portrait/WW2.jpg""style=""height:400px;""></img>","3","html-button-response","16","215884","0.0-3.0-19.0","35773","List1A","white","woman","","true","3","","","","","","","","","",""
"null","CORRECT","","html-keyboard-response","17","217408","0.0-3.0-20.0-0.0","35773","List1A","white","woman","","","","null","","","","","","","","",""
"2920.100000000093","<img src=""portrait/BW1.jpg""style=""height:400px;""></img>","0","html-button-response","18","220330","0.0-3.0-22.0","35773","List1A","white","woman","","true","0","","","","","","","","","",""
"null","CORRECT","","html-keyboard-response","19","221847","0.0-3.0-23.0-0.0","35773","List1A","white","woman","","","","null","","","","","","","","",""
"2363.3000000000466","<p>You got 8 out of 8 right first time. Press Continue.</p>","0","html-button-response","20","224212","0.0-3.0-25.0","35773","List1A","white","woman","","","","","","","","","","","","",""
"31831.100000000093","<p>In this experiment, you will view photographs of the people from the memory game interacting.</p><p>By using the <strong>exact</strong> phrase given <i>after</i> the photograph appears and recalling the correct names of the people in the photographs, form a sentence describing the interaction. You do not need to capitalise names.</p><p>Type your answer in the space provided. Please complete every sentence before moving onto the next trial.</p><p>You will only have a few seconds to memorise each given photograph and phrase before you can respond, so try your best to focus.</p><p>An example is given below. Press 'Continue' when you are ready.</p><img src='img/speaking_example.jpg' style='width:800px;height:460px;''></img>","0","html-button-response","21","257061","0.0-4.0","35773","List1A","white","woman","","","","","","","","","","","","",""
"2411.5","<p>Before the experiment starts, you will watch two example trials. Press 'Continue'.</p>","0","html-button-response","22","260477","0.0-5.0","35773","List1A","white","woman","","","","","","","","","","","","",""
"null","<img src='img/play_eg.gif' style='height:400px;''></img>","","html-keyboard-response","23","263490","0.0-6.0","35773","List1A","white","woman","","","","null","","","","","","","","",""
"null","<p>is playing with</p>","","html-keyboard-response","24","265496","0.0-7.0","35773","List1A","white","woman","","","","null","","","","","","","","",""
"2428.8000000000466","<p><b>Answer:</b> kate is playing with beth</p>","0","html-button-response","25","267926","0.0-8.0","35773","List1A","white","woman","","","","","","","","","","","","",""
"null","<img src='img/dance_eg.gif' style='height:400px;''></img>","","html-keyboard-response","26","270946","0.0-9.0","35773","List1A","white","woman","","","","null","","","","","","","","",""
"null","<p>is being entertained by</p>","","html-keyboard-response","27","272957","0.0-10.0","35773","List1A","white","woman","","","","null","","","","","","","","",""
"2202","<p><b>Answer:</b> luke is being entertained by dave</p>","0","html-button-response","28","275161","0.0-11.0","35773","List1A","white","woman","","","","","","","","","","","","",""
"7479.200000000186","<p>Ready to start the experiment?</p><br><p><strong>Remember to describe the picture using a full sentence,</strong></p><p><strong>that combines the names of the people with the <i>exact</i> phrase given.</strong></p><p><strong>To receive full payment you must do this correctly.</strong></p><p><strong> You do not need to capitalise names or use punctuation.</strong></p><br><p>Press 'Continue' to begin.</p>","0","html-button-response","29","283644","0.0-12.0","35773","List1A","white","woman","","","","","","","","","","","","",""
"null","<div style=""font-size:60px;"">+</div>","","html-keyboard-response","30","285172","0.0-13.0-0.0","35773","List1A","white","woman","","","","null","","","","","","","","",""
"null","<img src=""stim_listA/look7.gif""style=""height:400px;""></stim_listA>","","html-keyboard-response","31","287189","0.0-13.0-1.0","35773","List1A","white","woman","","","","null","","","","","","","","",""
"null","is looking at","","html-keyboard-response","32","289196","0.0-13.0-2.0","35773","List1A","white","woman","","","","null","","","","","","","","",""
"8559.100000000093","","","survey-text","33","297768","0.0-13.0-3.0","35773","List1A","white","woman","","","","","{""Q0"":""Jane is looking at Beth""}","<img src=""stim_listA/look7.gif""style=""height:400px;""></stim_listA>","is looking at","","","","","",""
"null","<div style=""font-size:60px;"">+</div>","","html-keyboard-response","34","298272","0.0-13.0-0.1","35773","List1A","white","woman","","","","null","","","","","","","","",""
"null","<img src=""stim_listA/kiss4.gif""style=""height:400px;""></stim_listA>","","html-keyboard-response","35","300288","0.0-13.0-1.1","35773","List1A","white","woman","","","","null","","","","","","","","",""
"null","is being kissed by","","html-keyboard-response","36","302303","0.0-13.0-2.1","35773","List1A","white","woman","","","","null","","","","","","","","",""
"9841.59999999986","","","survey-text","37","312148","0.0-13.0-3.1","35773","List1A","white","woman","","","","","{""Q0"":""Dave is being kissed by Jane""}","<img src=""stim_listA/kiss4.gif""style=""height:400px;""></stim_listA>","is being kissed by","","","","","",""
"null","<div style=""font-size:60px;"">+</div>","","html-keyboard-response","38","312656","0.0-13.0-0.2","35773","List1A","white","woman","","","","null","","","","","","","","",""
"null","<img src=""stim_listA/look3.gif""style=""height:400px;""></stim_listA>","","html-keyboard-response","39","314660","0.0-13.0-1.2","35773","List1A","white","woman","","","","null","","","","","","","","",""
"null","is looking at","","html-keyboard-response","40","316661","0.0-13.0-2.2","35773","List1A","white","woman","","","","null","","","","","","","","",""
"14956.5","","","survey-text","41","331623","0.0-13.0-3.2","35773","List1A","white","woman","","","","","{""Q0"":""Ruth is looking at Luke""}","<img src=""stim_listA/look3.gif""style=""height:400px;""></stim_listA>","is looking at","","","","","",""
"null","<div style=""font-size:60px;"">+</div>","","html-keyboard-response","42","332130","0.0-13.0-0.3","35773","List1A","white","woman","","","","null","","","","","","","","",""
"null","<img src=""stim_listA/copy6.gif""style=""height:400px;""></stim_listA>","","html-keyboard-response","43","334139","0.0-13.0-1.3","35773","List1A","white","woman","","","","null","","","","","","","","",""
"null","is being copied by","","html-keyboard-response","44","336143","0.0-13.0-2.3","35773","List1A","white","woman","","","","null","","","","","","","","",""
"12909.100000000093","","","survey-text","45","349056","0.0-13.0-3.3","35773","List1A","white","woman","","","","","{""Q0"":""Fred is being copied by Dave""}","<img src=""stim_listA/copy6.gif""style=""height:400px;""></stim_listA>","is being copied by","","","","","",""
"null","<div style=""font-size:60px;"">+</div>","","html-keyboard-response","46","349569","0.0-13.0-0.4","35773","List1A","white","woman","","","","null","","","","","","","","",""
"null","<img src=""stim_listA/touch5.gif""style=""height:400px;""></stim_listA>","","html-keyboard-response","47","351578","0.0-13.0-1.4","35773","List1A","white","woman","","","","null","","","","","","","","",""
"null","is touching","","html-keyboard-response","48","353591","0.0-13.0-2.4","35773","List1A","white","woman","","","","null","","","","","","","","",""
"9427.399999999907","","","survey-text","49","363022","0.0-13.0-3.4","35773","List1A","white","woman","","","","","{""Q0"":""Mike is touching Dave""}","<img src=""stim_listA/touch5.gif""style=""height:400px;""></stim_listA>","is touching","","","","","",""
"null","<div style=""font-size:60px;"">+</div>","","html-keyboard-response","50","363534","0.0-13.0-0.5","35773","List1A","white","woman","","","","null","","","","","","","","",""
"null","<img src=""stim_listA/touch2.gif""style=""height:400px;""></stim_listA>","","html-keyboard-response","51","365538","0.0-13.0-1.5","35773","List1A","white","woman","","","","null","","","","","","","","",""
"null","is being touched by","","html-keyboard-response","52","367542","0.0-13.0-2.5","35773","List1A","white","woman","","","","null","","","","","","","","",""
"8379.09999999986","","","survey-text","53","375926","0.0-13.0-3.5","35773","List1A","white","woman","","","","","{""Q0"":""Beth is being touched by Fred""}","<img src=""stim_listA/touch2.gif""style=""height:400px;""></stim_listA>","is being touched by","","","","","",""
"null","<div style=""font-size:60px;"">+</div>","","html-keyboard-response","54","376435","0.0-13.0-0.6","35773","List1A","white","woman","","","","null","","","","","","","","",""
"null","<img src=""stim_listA/greet5.gif""style=""height:400px;""></stim_listA>","","html-keyboard-response","55","378451","0.0-13.0-1.6","35773","List1A","white","woman","","","","null","","","","","","","","",""
"null","is greeting","","html-keyboard-response","56","380465","0.0-13.0-2.6","35773","List1A","white","woman","","","","null","","","","","","","","",""
"10053.800000000047","","","survey-text","57","390523","0.0-13.0-3.6","35773","List1A","white","woman","","","","","{""Q0"":""Luke is greeting Mike""}","<img src=""stim_listA/greet5.gif""style=""height:400px;""></stim_listA>","is greeting","","","","","",""
"null","<div style=""font-size:60px;"">+</div>","","html-keyboard-response","58","391038","0.0-13.0-0.7","35773","List1A","white","woman","","","","null","","","","","","","","",""
"null","<img src=""stim_listA/greet7.gif""style=""height:400px;""></stim_listA>","","html-keyboard-response","59","393049","0.0-13.0-1.7","35773","List1A","white","woman","","","","null","","","","","","","","",""
"null","is greeting","","html-keyboard-response","60","395051","0.0-13.0-2.7","35773","List1A","white","woman","","","","null","","","","","","","","",""
"7572.399999999907","","","survey-text","61","402626","0.0-13.0-3.7","35773","List1A","white","woman","","","","","{""Q0"":""Kate is greeting Jane""}","<img src=""stim_listA/greet7.gif""style=""height:400px;""></stim_listA>","is greeting","","","","","",""
"null","<div style=""font-size:60px;"">+</div>","","html-keyboard-response","62","403133","0.0-13.0-0.8","35773","List1A","white","woman","","","","null","","","","","","","","",""
"null","<img src=""stim_listA/kiss2.gif""style=""height:400px;""></stim_listA>","","html-keyboard-response","63","405141","0.0-13.0-1.8","35773","List1A","white","woman","","","","null","","","","","","","","",""
"null","is being kissed by","","html-keyboard-response","64","407157","0.0-13.0-2.8","35773","List1A","white","woman","","","","null","","","","","","","","",""
"13484.399999999907","","","survey-text","65","420645","0.0-13.0-3.8","35773","List1A","white","woman","","","","","{""Q0"":""Kate is being kissed by Mike""}","<img src=""stim_listA/kiss2.gif""style=""height:400px;""></stim_listA>","is being kissed by","","","","","",""
"null","<div style=""font-size:60px;"">+</div>","","html-keyboard-response","66","421150","0.0-13.0-0.9","35773","List1A","white","woman","","","","null","","","","","","","","",""
"null","<img src=""stim_listA/challenge4.gif""style=""height:400px;""></stim_listA>","","html-keyboard-response","67","423166","0.0-13.0-1.9","35773","List1A","white","woman","","","","null","","","","","","","","",""
"null","is being challenged by","","html-keyboard-response","68","425184","0.0-13.0-2.9","35773","List1A","white","woman","","","","null","","","","","","","","",""
"9648.100000000093","","","survey-text","69","434836","0.0-13.0-3.9","35773","List1A","white","woman","","","","","{""Q0"":""Jane is being challenged by Luke""}","<img src=""stim_listA/challenge4.gif""style=""height:400px;""></stim_listA>","is being challenged by","","","","","",""
"null","<div style=""font-size:60px;"">+</div>","","html-keyboard-response","70","435351","0.0-13.0-0.10","35773","List1A","white","woman","","","","null","","","","","","","","",""
"null","<img src=""stim_listA/seduce5.gif""style=""height:400px;""></stim_listA>","","html-keyboard-response","71","437355","0.0-13.0-1.10","35773","List1A","white","woman","","","","null","","","","","","","","",""
"null","is seducing","","html-keyboard-response","72","439357","0.0-13.0-2.10","35773","List1A","white","woman","","","","null","","","","","","","","",""
"8693.5","","","survey-text","73","448053","0.0-13.0-3.10","35773","List1A","white","woman","","","","","{""Q0"":""Fred is seducing Dave""}","<img src=""stim_listA/seduce5.gif""style=""height:400px;""></stim_listA>","is seducing","","","","","",""
"null","<div style=""font-size:60px;"">+</div>","","html-keyboard-response","74","448562","0.0-13.0-0.11","35773","List1A","white","woman","","","","null","","","","","","","","",""
"null","<img src=""stim_listA/oppose6.gif""style=""height:400px;""></stim_listA>","","html-keyboard-response","75","450571","0.0-13.0-1.11","35773","List1A","white","woman","","","","null","","","","","","","","",""
"null","is being opposed by","","html-keyboard-response","76","452573","0.0-13.0-2.11","35773","List1A","white","woman","","","","null","","","","","","","","",""
"11038.699999999953","","","survey-text","77","463615","0.0-13.0-3.11","35773","List1A","white","woman","","","","","{""Q0"":""Luke is being opposed by Fred""}","<img src=""stim_listA/oppose6.gif""style=""height:400px;""></stim_listA>","is being opposed by","","","","","",""
"null","<div style=""font-size:60px;"">+</div>","","html-keyboard-response","78","464126","0.0-13.0-0.12","35773","List1A","white","woman","","","","null","","","","","","","","",""
"null","<img src=""stim_listA/hug5.gif""style=""height:400px;""></stim_listA>","","html-keyboard-response","79","466135","0.0-13.0-1.12","35773","List1A","white","woman","","","","null","","","","","","","","",""
"null","is hugging","","html-keyboard-response","80","468149","0.0-13.0-2.12","35773","List1A","white","woman","","","","null","","","","","","","","",""
"9295.5","","","survey-text","81","477448","0.0-13.0-3.12","35773","List1A","white","woman","","","","","{""Q0"":""Luke is hugging Fred""}","<img src=""stim_listA/hug5.gif""style=""height:400px;""></stim_listA>","is hugging","","","","","",""
"null","<div style=""font-size:60px;"">+</div>","","html-keyboard-response","82","477956","0.0-13.0-0.13","35773","List1A","white","woman","","","","null","","","","","","","","",""
"null","<img src=""stim_listA/hug8.gif""style=""height:400px;""></stim_listA>","","html-keyboard-response","83","479963","0.0-13.0-1.13","35773","List1A","white","woman","","","","null","","","","","","","","",""
"null","is being hugged by","","html-keyboard-response","84","481977","0.0-13.0-2.13","35773","List1A","white","woman","","","","null","","","","","","","","",""
"9174","","","survey-text","85","491155","0.0-13.0-3.13","35773","List1A","white","woman","","","","","{""Q0"":""Jane is being hugged by Kate""}","<img src=""stim_listA/hug8.gif""style=""height:400px;""></stim_listA>","is being hugged by","","","","","",""
"null","<div style=""font-size:60px;"">+</div>","","html-keyboard-response","86","491667","0.0-13.0-0.14","35773","List1A","white","woman","","","","null","","","","","","","","",""
"null","<img src=""stim_listA/copy2.gif""style=""height:400px;""></stim_listA>","","html-keyboard-response","87","493678","0.0-13.0-1.14","35773","List1A","white","woman","","","","null","","","","","","","","",""
"null","is being copied by","","html-keyboard-response","88","495680","0.0-13.0-2.14","35773","List1A","white","woman","","","","null","","","","","","","","",""
"12514.100000000093","","","survey-text","89","508197","0.0-13.0-3.14","35773","List1A","white","woman","","","","","{""Q0"":""Kate is being copied by Fred""}","<img src=""stim_listA/copy2.gif""style=""height:400px;""></stim_listA>","is being copied by","","","","","",""
"null","<div style=""font-size:60px;"">+</div>","","html-keyboard-response","90","508709","0.0-13.0-0.15","35773","List1A","white","woman","","","","null","","","","","","","","",""
"null","<img src=""stim_listA/hug4.gif""style=""height:400px;""></stim_listA>","","html-keyboard-response","91","510711","0.0-13.0-1.15","35773","List1A","white","woman","","","","null","","","","","","","","",""
"null","is being hugged by","","html-keyboard-response","92","512727","0.0-13.0-2.15","35773","List1A","white","woman","","","","null","","","","","","","","",""
"9269","","","survey-text","93","521999","0.0-13.0-3.15","35773","List1A","white","woman","","","","","{""Q0"":""Dave is being hugged by Jane""}","<img src=""stim_listA/hug4.gif""style=""height:400px;""></stim_listA>","is being hugged by","","","","","",""
"null","<div style=""font-size:60px;"">+</div>","","html-keyboard-response","94","522511","0.0-13.0-0.16","35773","List1A","white","woman","","","","null","","","","","","","","",""
"null","<img src=""stim_listA/challenge1.gif""style=""height:400px;""></stim_listA>","","html-keyboard-response","95","524519","0.0-13.0-1.16","35773","List1A","white","woman","","","","null","","","","","","","","",""
"null","is challenging","","html-keyboard-response","96","526525","0.0-13.0-2.16","35773","List1A","white","woman","","","","null","","","","","","","","",""
"12167.59999999986","","","survey-text","97","538695","0.0-13.0-3.16","35773","List1A","white","woman","","","","","{""Q0"":""Mike is challenging Beth""}","<img src=""stim_listA/challenge1.gif""style=""height:400px;""></stim_listA>","is challenging","","","","","",""
"null","<div style=""font-size:60px;"">+</div>","","html-keyboard-response","98","539206","0.0-13.0-0.17","35773","List1A","white","woman","","","","null","","","","","","","","",""
"null","<img src=""stim_listA/shout8.gif""style=""height:400px;""></stim_listA>","","html-keyboard-response","99","541216","0.0-13.0-1.17","35773","List1A","white","woman","","","","null","","","","","","","","",""
"null","is being shouted at by","","html-keyboard-response","100","543218","0.0-13.0-2.17","35773","List1A","white","woman","","","","null","","","","","","","","",""
"10723.800000000047","","","survey-text","101","553945","0.0-13.0-3.17","35773","List1A","white","woman","","","","","{""Q0"":""Jane is being shouted at by Kate""}","<img src=""stim_listA/shout8.gif""style=""height:400px;""></stim_listA>","is being shouted at by","","","","","",""
"null","<div style=""font-size:60px;"">+</div>","","html-keyboard-response","102","554455","0.0-13.0-0.18","35773","List1A","white","woman","","","","null","","","","","","","","",""
"null","<img src=""stim_listA/copy1.gif""style=""height:400px;""></stim_listA>","","html-keyboard-response","103","556457","0.0-13.0-1.18","35773","List1A","white","woman","","","","null","","","","","","","","",""
"null","is copying","","html-keyboard-response","104","558472","0.0-13.0-2.18","35773","List1A","white","woman","","","","null","","","","","","","","",""
"8175.800000000047","","","survey-text","105","566651","0.0-13.0-3.18","35773","List1A","white","woman","","","","","{""Q0"":""Mike is copying Beth""}","<img src=""stim_listA/copy1.gif""style=""height:400px;""></stim_listA>","is copying","","","","","",""
"null","<div style=""font-size:60px;"">+</div>","","html-keyboard-response","106","567156","0.0-13.0-0.19","35773","List1A","white","woman","","","","null","","","","","","","","",""
"null","<img src=""stim_listA/look5.gif""style=""height:400px;""></stim_listA>","","html-keyboard-response","107","569172","0.0-13.0-1.19","35773","List1A","white","woman","","","","null","","","","","","","","",""
"null","is looking at","","html-keyboard-response","108","571175","0.0-13.0-2.19","35773","List1A","white","woman","","","","null","","","","","","","","",""
"8757.40000000014","","","survey-text","109","579935","0.0-13.0-3.19","35773","List1A","white","woman","","","","","{""Q0"":""Fred is looking at Luke""}","<img src=""stim_listA/look5.gif""style=""height:400px;""></stim_listA>","is looking at","","","","","",""
"14783.100000000093","<img src='img/portrait_matrix_list1.jpg' style='width:900px;height:500px;''></img><p>If you have memorised all the portraits and names and are ready to start, press Continue.</p><p><strong>Please note: Your memory of these faces will be tested 4 times during this experiment.</strong></p>","0","html-button-response","110","594721","0.0-14.0-0.0","35773","List1A","white","woman","","","","","","","","","","","","",""
"3825","<img src=""portrait/BW2.jpg""style=""height:400px;""></img>","2","html-button-response","111","599559","0.0-14.0-1.0","35773","List1A","white","woman","","true","2","","","","","","","","","",""
"null","CORRECT","","html-keyboard-response","112","601083","0.0-14.0-2.0-0.0","35773","List1A","white","woman","","","","null","","","","","","","","",""
"3137.5","<img src=""portrait/BM1.jpg""style=""height:400px;""></img>","4","html-button-response","113","604223","0.0-14.0-4.0","35773","List1A","white","woman","","true","4","","","","","","","","","",""
"null","CORRECT","","html-keyboard-response","114","605752","0.0-14.0-5.0-0.0","35773","List1A","white","woman","","","","null","","","","","","","","",""
"3566.5","<img src=""portrait/WM1.jpg""style=""height:400px;""></img>","6","html-button-response","115","609321","0.0-14.0-7.0","35773","List1A","white","woman","","true","6","","","","","","","","","",""
"null","CORRECT","","html-keyboard-response","116","610835","0.0-14.0-8.0-0.0","35773","List1A","white","woman","","","","null","","","","","","","","",""
"3571.600000000093","<img src=""portrait/BW1.jpg""style=""height:400px;""></img>","0","html-button-response","117","614408","0.0-14.0-10.0","35773","List1A","white","woman","","true","0","","","","","","","","","",""
"null","CORRECT","","html-keyboard-response","118","615919","0.0-14.0-11.0-0.0","35773","List1A","white","woman","","","","null","","","","","","","","",""
"5419.300000000047","<img src=""portrait/WM2.jpg""style=""height:400px;""></img>","7","html-button-response","119","621340","0.0-14.0-13.0","35773","List1A","white","woman","","true","7","","","","","","","","","",""
"null","CORRECT","","html-keyboard-response","120","622869","0.0-14.0-14.0-0.0","35773","List1A","white","woman","","","","null","","","","","","","","",""
"4385.899999999907","<img src=""portrait/BM2.jpg""style=""height:400px;""></img>","5","html-button-response","121","627257","0.0-14.0-16.0","35773","List1A","white","woman","","true","5","","","","","","","","","",""
"null","CORRECT","","html-keyboard-response","122","628783","0.0-14.0-17.0-0.0","35773","List1A","white","woman","","","","null","","","","","","","","",""
"2286.3000000000466","<img src=""portrait/WW2.jpg""style=""height:400px;""></img>","3","html-button-response","123","631071","0.0-14.0-19.0","35773","List1A","white","woman","","true","3","","","","","","","","","",""
"null","CORRECT","","html-keyboard-response","124","632600","0.0-14.0-20.0-0.0","35773","List1A","white","woman","","","","null","","","","","","","","",""
"2209.5","<img src=""portrait/WW1.jpg""style=""height:400px;""></img>","1","html-button-response","125","634811","0.0-14.0-22.0","35773","List1A","white","woman","","true","1","","","","","","","","","",""
"null","CORRECT","","html-keyboard-response","126","636324","0.0-14.0-23.0-0.0","35773","List1A","white","woman","","","","null","","","","","","","","",""
"2260","<p>You got 8 out of 8 right first time. Press Continue.</p>","0","html-button-response","127","638586","0.0-14.0-25.0","35773","List1A","white","woman","","","","","","","","","","","","",""
"null","<div style=""font-size:60px;"">+</div>","","html-keyboard-response","128","640101","0.0-15.0-0.0","35773","List1A","white","woman","","","","null","","","","","","","","",""
"null","<img src=""stim_listA/greet2.gif""style=""height:400px;""></stim_listA>","","html-keyboard-response","129","642104","0.0-15.0-1.0","35773","List1A","white","woman","","","","null","","","","","","","","",""
"null","is being greeted by","","html-keyboard-response","130","644107","0.0-15.0-2.0","35773","List1A","white","woman","","","","null","","","","","","","","",""
"10585.40000000014","","","survey-text","131","654697","0.0-15.0-3.0","35773","List1A","white","woman","","","","","{""Q0"":""Kate is being greeted by Fred""}","<img src=""stim_listA/greet2.gif""style=""height:400px;""></stim_listA>","is being greeted by","","","","","",""
"null","<div style=""font-size:60px;"">+</div>","","html-keyboard-response","132","655214","0.0-15.0-0.1","35773","List1A","white","woman","","","","null","","","","","","","","",""
"null","<img src=""stim_listA/oppose5.gif""style=""height:400px;""></stim_listA>","","html-keyboard-response","133","657218","0.0-15.0-1.1","35773","List1A","white","woman","","","","null","","","","","","","","",""
"null","is opposing","","html-keyboard-response","134","659229","0.0-15.0-2.1","35773","List1A","white","woman","","","","null","","","","","","","","",""
"9173.90000000014","","","survey-text","135","668407","0.0-15.0-3.1","35773","List1A","white","woman","","","","","{""Q0"":""Mike is opposing Dave""}","<img src=""stim_listA/oppose5.gif""style=""height:400px;""></stim_listA>","is opposing","","","","","",""
"null","<div style=""font-size:60px;"">+</div>","","html-keyboard-response","136","668914","0.0-15.0-0.2","35773","List1A","white","woman","","","","null","","","","","","","","",""
"null","<img src=""stim_listA/kiss5.gif""style=""height:400px;""></stim_listA>","","html-keyboard-response","137","670918","0.0-15.0-1.2","35773","List1A","white","woman","","","","null","","","","","","","","",""
"null","is kissing","","html-keyboard-response","138","672920","0.0-15.0-2.2","35773","List1A","white","woman","","","","null","","","","","","","","",""
"7462.5","","","survey-text","139","680385","0.0-15.0-3.2","35773","List1A","white","woman","","","","","{""Q0"":""Luke is kissing Fred""}","<img src=""stim_listA/kiss5.gif""style=""height:400px;""></stim_listA>","is kissing","","","","","",""
"null","<div style=""font-size:60px;"">+</div>","","html-keyboard-response","140","680898","0.0-15.0-0.3","35773","List1A","white","woman","","","","null","","","","","","","","",""
"null","<img src=""stim_listA/challenge5.gif""style=""height:400px;""></stim_listA>","","html-keyboard-response","141","682908","0.0-15.0-1.3","35773","List1A","white","woman","","","","null","","","","","","","","",""
"null","is challenging","","html-keyboard-response","142","684917","0.0-15.0-2.3","35773","List1A","white","woman","","","","null","","","","","","","","",""
"9098.700000000186","","","survey-text","143","694014","0.0-15.0-3.3","35773","List1A","white","woman","","","","","{""Q0"":""Dave is challenging Luke""}","<img src=""stim_listA/challenge5.gif""style=""height:400px;""></stim_listA>","is challenging","","","","","",""
"null","<div style=""font-size:60px;"">+</div>","","html-keyboard-response","144","694525","0.0-15.0-0.4","35773","List1A","white","woman","","","","null","","","","","","","","",""
"null","<img src=""stim_listA/kiss7.gif""style=""height:400px;""></stim_listA>","","html-keyboard-response","145","696530","0.0-15.0-1.4","35773","List1A","white","woman","","","","null","","","","","","","","",""
"null","is kissing","","html-keyboard-response","146","698535","0.0-15.0-2.4","35773","List1A","white","woman","","","","null","","","","","","","","",""
"10160.799999999814","","","survey-text","147","708699","0.0-15.0-3.4","35773","List1A","white","woman","","","","","{""Q0"":""Ruth is kissing Beth""}","<img src=""stim_listA/kiss7.gif""style=""height:400px;""></stim_listA>","is kissing","","","","","",""
"null","<div style=""font-size:60px;"">+</div>","","html-keyboard-response","148","709206","0.0-15.0-0.5","35773","List1A","white","woman","","","","null","","","","","","","","",""
"null","<img src=""stim_listA/hug7.gif""style=""height:400px;""></stim_listA>","","html-keyboard-response","149","711215","0.0-15.0-1.5","35773","List1A","white","woman","","","","null","","","","","","","","",""
"null","is hugging","","html-keyboard-response","150","713226","0.0-15.0-2.5","35773","List1A","white","woman","","","","null","","","","","","","","",""
"7716.90000000014","","","survey-text","151","720946","0.0-15.0-3.5","35773","List1A","white","woman","","","","","{""Q0"":""Ruth is hugging Beth""}","<img src=""stim_listA/hug7.gif""style=""height:400px;""></stim_listA>","is hugging","","","","","",""
"null","<div style=""font-size:60px;"">+</div>","","html-keyboard-response","152","721462","0.0-15.0-0.6","35773","List1A","white","woman","","","","null","","","","","","","","",""
"null","<img src=""stim_listA/hug3.gif""style=""height:400px;""></stim_listA>","","html-keyboard-response","153","723465","0.0-15.0-1.6","35773","List1A","white","woman","","","","null","","","","","","","","",""
"null","is hugging","","html-keyboard-response","154","725468","0.0-15.0-2.6","35773","List1A","white","woman","","","","null","","","","","","","","",""
"8541.199999999953","","","survey-text","155","734012","0.0-15.0-3.6","35773","List1A","white","woman","","","","","{""Q0"":""Luke is hugging Ruth""}","<img src=""stim_listA/hug3.gif""style=""height:400px;""></stim_listA>","is hugging","","","","","",""
"null","<div style=""font-size:60px;"">+</div>","","html-keyboard-response","156","734523","0.0-15.0-0.7","35773","List1A","white","woman","","","","null","","","","","","","","",""
"null","<img src=""stim_listA/shout5.gif""style=""height:400px;""></stim_listA>","","html-keyboard-response","157","736540","0.0-15.0-1.7","35773","List1A","white","woman","","","","null","","","","","","","","",""
"null","is shouting at","","html-keyboard-response","158","738545","0.0-15.0-2.7","35773","List1A","white","woman","","","","null","","","","","","","","",""
"8319.100000000093","","","survey-text","159","746868","0.0-15.0-3.7","35773","List1A","white","woman","","","","","{""Q0"":""Fred is shouting at Luke""}","<img src=""stim_listA/shout5.gif""style=""height:400px;""></stim_listA>","is shouting at","","","","","",""
"null","<div style=""font-size:60px;"">+</div>","","html-keyboard-response","160","747378","0.0-15.0-0.8","35773","List1A","white","woman","","","","null","","","","","","","","",""
"null","<img src=""stim_listA/touch7.gif""style=""height:400px;""></stim_listA>","","html-keyboard-response","161","749395","0.0-15.0-1.8","35773","List1A","white","woman","","","","null","","","","","","","","",""
"null","is touching","","html-keyboard-response","162","751399","0.0-15.0-2.8","35773","List1A","white","woman","","","","null","","","","","","","","",""
"8853.90000000014","","","survey-text","163","760255","0.0-15.0-3.8","35773","List1A","white","woman","","","","","{""Q0"":""Kate is touching Jane""}","<img src=""stim_listA/touch7.gif""style=""height:400px;""></stim_listA>","is touching","","","","","",""
"null","<div style=""font-size:60px;"">+</div>","","html-keyboard-response","164","760763","0.0-15.0-0.9","35773","List1A","white","woman","","","","null","","","","","","","","",""
"null","<img src=""stim_listA/seduce7.gif""style=""height:400px;""></stim_listA>","","html-keyboard-response","165","762777","0.0-15.0-1.9","35773","List1A","white","woman","","","","null","","","","","","","","",""
"null","is seducing","","html-keyboard-response","166","764792","0.0-15.0-2.9","35773","List1A","white","woman","","","","null","","","","","","","","",""
"7041.5","","","survey-text","167","771838","0.0-15.0-3.9","35773","List1A","white","woman","","","","","{""Q0"":""Beth is seducing Jane""}","<img src=""stim_listA/seduce7.gif""style=""height:400px;""></stim_listA>","is seducing","","","","","",""
"null","<div style=""font-size:60px;"">+</div>","","html-keyboard-response","168","772342","0.0-15.0-0.10","35773","List1A","white","woman","","","","null","","","","","","","","",""
"null","<img src=""stim_listA/oppose3.gif""style=""height:400px;""></stim_listA>","","html-keyboard-response","169","774360","0.0-15.0-1.10","35773","List1A","white","woman","","","","null","","","","","","","","",""
"null","is opposing","","html-keyboard-response","170","776371","0.0-15.0-2.10","35773","List1A","white","woman","","","","null","","","","","","","","",""
"8013.799999999814","","","survey-text","171","784389","0.0-15.0-3.10","35773","List1A","white","woman","","","","","{""Q0"":""Jane is opposing Dave""}","<img src=""stim_listA/oppose3.gif""style=""height:400px;""></stim_listA>","is opposing","","","","","",""
"null","<div style=""font-size:60px;"">+</div>","","html-keyboard-response","172","784895","0.0-15.0-0.11","35773","List1A","white","woman","","","","null","","","","","","","","",""
"null","<img src=""stim_listA/seduce8.gif""style=""height:400px;""></stim_listA>","","html-keyboard-response","173","786897","0.0-15.0-1.11","35773","List1A","white","woman","","","","null","","","","","","","","",""
"null","is being seduced by","","html-keyboard-response","174","788899","0.0-15.0-2.11","35773","List1A","white","woman","","","","null","","","","","","","","",""
"8910.399999999907","","","survey-text","175","797812","0.0-15.0-3.11","35773","List1A","white","woman","","","","","{""Q0"":""Ruth is being seduced by Kate""}","<img src=""stim_listA/seduce8.gif""style=""height:400px;""></stim_listA>","is being seduced by","","","","","",""
"null","<div style=""font-size:60px;"">+</div>","","html-keyboard-response","176","798323","0.0-15.0-0.12","35773","List1A","white","woman","","","","null","","","","","","","","",""
"null","<img src=""stim_listA/touch1.gif""style=""height:400px;""></stim_listA>","","html-keyboard-response","177","800331","0.0-15.0-1.12","35773","List1A","white","woman","","","","null","","","","","","","","",""
"null","is touching","","html-keyboard-response","178","802333","0.0-15.0-2.12","35773","List1A","white","woman","","","","null","","","","","","","","",""
"7748.799999999814","","","survey-text","179","810087","0.0-15.0-3.12","35773","List1A","white","woman","","","","","{""Q0"":""Dave is touching Kate""}","<img src=""stim_listA/touch1.gif""style=""height:400px;""></stim_listA>","is touching","","","","","",""
"null","<div style=""font-size:60px;"">+</div>","","html-keyboard-response","180","810592","0.0-15.0-0.13","35773","List1A","white","woman","","","","null","","","","","","","","",""
"null","<img src=""stim_listA/challenge7.gif""style=""height:400px;""></stim_listA>","","html-keyboard-response","181","812608","0.0-15.0-1.13","35773","List1A","white","woman","","","","null","","","","","","","","",""
"null","is challenging","","html-keyboard-response","182","814619","0.0-15.0-2.13","35773","List1A","white","woman","","","","null","","","","","","","","",""
"7423.800000000047","","","survey-text","183","822046","0.0-15.0-3.13","35773","List1A","white","woman","","","","","{""Q0"":""Ruth is challenging Kate""}","<img src=""stim_listA/challenge7.gif""style=""height:400px;""></stim_listA>","is challenging","","","","","",""
"null","<div style=""font-size:60px;"">+</div>","","html-keyboard-response","184","822556","0.0-15.0-0.14","35773","List1A","white","woman","","","","null","","","","","","","","",""
"null","<img src=""stim_listA/challenge8.gif""style=""height:400px;""></stim_listA>","","html-keyboard-response","185","824565","0.0-15.0-1.14","35773","List1A","white","woman","","","","null","","","","","","","","",""
"null","is being challenged by","","html-keyboard-response","186","826568","0.0-15.0-2.14","35773","List1A","white","woman","","","","null","","","","","","","","",""
"8892.100000000093","","","survey-text","187","835463","0.0-15.0-3.14","35773","List1A","white","woman","","","","","{""Q0"":""Jane is being challenged by Beth""}","<img src=""stim_listA/challenge8.gif""style=""height:400px;""></stim_listA>","is being challenged by","","","","","",""
"null","<div style=""font-size:60px;"">+</div>","","html-keyboard-response","188","835977","0.0-15.0-0.15","35773","List1A","white","woman","","","","null","","","","","","","","",""
"null","<img src=""stim_listA/touch3.gif""style=""height:400px;""></stim_listA>","","html-keyboard-response","189","837980","0.0-15.0-1.15","35773","List1A","white","woman","","","","null","","","","","","","","",""
"null","is touching","","html-keyboard-response","190","839997","0.0-15.0-2.15","35773","List1A","white","woman","","","","null","","","","","","","","",""
"7100.40000000014","","","survey-text","191","847101","0.0-15.0-3.15","35773","List1A","white","woman","","","","","{""Q0"":""Dave is touching Jane""}","<img src=""stim_listA/touch3.gif""style=""height:400px;""></stim_listA>","is touching","","","","","",""
"null","<div style=""font-size:60px;"">+</div>","","html-keyboard-response","192","847613","0.0-15.0-0.16","35773","List1A","white","woman","","","","null","","","","","","","","",""
"null","<img src=""stim_listA/touch6.gif""style=""height:400px;""></stim_listA>","","html-keyboard-response","193","849616","0.0-15.0-1.16","35773","List1A","white","woman","","","","null","","","","","","","","",""
"null","is being touched by","","html-keyboard-response","194","851633","0.0-15.0-2.16","35773","List1A","white","woman","","","","null","","","","","","","","",""
"9766.600000000093","","","survey-text","195","861403","0.0-15.0-3.16","35773","List1A","white","woman","","","","","{""Q0"":""Luke is being touched by Fred""}","<img src=""stim_listA/touch6.gif""style=""height:400px;""></stim_listA>","is being touched by","","","","","",""
"null","<div style=""font-size:60px;"">+</div>","","html-keyboard-response","196","861920","0.0-15.0-0.17","35773","List1A","white","woman","","","","null","","","","","","","","",""
"null","<img src=""stim_listA/shout7.gif""style=""height:400px;""></stim_listA>","","html-keyboard-response","197","863926","0.0-15.0-1.17","35773","List1A","white","woman","","","","null","","","","","","","","",""
"null","is shouting at","","html-keyboard-response","198","865936","0.0-15.0-2.17","35773","List1A","white","woman","","","","null","","","","","","","","",""
"8703.700000000186","","","survey-text","199","874644","0.0-15.0-3.17","35773","List1A","white","woman","","","","","{""Q0"":""Beth is shouting at Ruth""}","<img src=""stim_listA/shout7.gif""style=""height:400px;""></stim_listA>","is shouting at","","","","","",""
"null","<div style=""font-size:60px;"">+</div>","","html-keyboard-response","200","875151","0.0-15.0-0.18","35773","List1A","white","woman","","","","null","","","","","","","","",""
"null","<img src=""stim_listA/challenge6.gif""style=""height:400px;""></stim_listA>","","html-keyboard-response","201","877155","0.0-15.0-1.18","35773","List1A","white","woman","","","","null","","","","","","","","",""
"null","is being challenged by","","html-keyboard-response","202","879172","0.0-15.0-2.18","35773","List1A","white","woman","","","","null","","","","","","","","",""
"10731.199999999953","","","survey-text","203","889908","0.0-15.0-3.18","35773","List1A","white","woman","","","","","{""Q0"":""Dave is being challenged by Fred""}","<img src=""stim_listA/challenge6.gif""style=""height:400px;""></stim_listA>","is being challenged by","","","","","",""
"null","<div style=""font-size:60px;"">+</div>","","html-keyboard-response","204","890419","0.0-15.0-0.19","35773","List1A","white","woman","","","","null","","","","","","","","",""
"null","<img src=""stim_listA/copy5.gif""style=""height:400px;""></stim_listA>","","html-keyboard-response","205","892437","0.0-15.0-1.19","35773","List1A","white","woman","","","","null","","","","","","","","",""
"null","is copying","","html-keyboard-response","206","894440","0.0-15.0-2.19","35773","List1A","white","woman","","","","null","","","","","","","","",""
"7350.699999999953","","","survey-text","207","901793","0.0-15.0-3.19","35773","List1A","white","woman","","","","","{""Q0"":""Mike is copying Luke""}","<img src=""stim_listA/copy5.gif""style=""height:400px;""></stim_listA>","is copying","","","","","",""
"11609.600000000093","<img src='img/portrait_matrix_list1.jpg' style='width:900px;height:500px;''></img><p>If you have memorised all the portraits and names and are ready to start, press Continue.</p><p><strong>Please note: Your memory of these faces will be tested 4 times during this experiment.</strong></p>","0","html-button-response","208","913404","0.0-16.0-0.0","35773","List1A","white","woman","","","","","","","","","","","","",""
"2979.5","<img src=""portrait/BM2.jpg""style=""height:400px;""></img>","5","html-button-response","209","917390","0.0-16.0-1.0","35773","List1A","white","woman","","true","5","","","","","","","","","",""
"null","CORRECT","","html-keyboard-response","210","918908","0.0-16.0-2.0-0.0","35773","List1A","white","woman","","","","null","","","","","","","","",""
"2045","<img src=""portrait/BM1.jpg""style=""height:400px;""></img>","4","html-button-response","211","920955","0.0-16.0-4.0","35773","List1A","white","woman","","true","4","","","","","","","","","",""
"null","CORRECT","","html-keyboard-response","212","922484","0.0-16.0-5.0-0.0","35773","List1A","white","woman","","","","null","","","","","","","","",""
"2449.399999999907","<img src=""portrait/WM1.jpg""style=""height:400px;""></img>","6","html-button-response","213","924937","0.0-16.0-7.0","35773","List1A","white","woman","","true","6","","","","","","","","","",""
"null","CORRECT","","html-keyboard-response","214","926460","0.0-16.0-8.0-0.0","35773","List1A","white","woman","","","","null","","","","","","","","",""
"2010","<img src=""portrait/WW2.jpg""style=""height:400px;""></img>","3","html-button-response","215","928472","0.0-16.0-10.0","35773","List1A","white","woman","","true","3","","","","","","","","","",""
"null","CORRECT","","html-keyboard-response","216","930000","0.0-16.0-11.0-0.0","35773","List1A","white","woman","","","","null","","","","","","","","",""
"2335.899999999907","<img src=""portrait/BW1.jpg""style=""height:400px;""></img>","0","html-button-response","217","932338","0.0-16.0-13.0","35773","List1A","white","woman","","true","0","","","","","","","","","",""
"null","CORRECT","","html-keyboard-response","218","933866","0.0-16.0-14.0-0.0","35773","List1A","white","woman","","","","null","","","","","","","","",""
"2604.2000000001863","<img src=""portrait/WM2.jpg""style=""height:400px;""></img>","7","html-button-response","219","936472","0.0-16.0-16.0","35773","List1A","white","woman","","true","7","","","","","","","","","",""
"null","CORRECT","","html-keyboard-response","220","937998","0.0-16.0-17.0-0.0","35773","List1A","white","woman","","","","null","","","","","","","","",""
"2170.600000000093","<img src=""portrait/WW1.jpg""style=""height:400px;""></img>","1","html-button-response","221","940170","0.0-16.0-19.0","35773","List1A","white","woman","","true","1","","","","","","","","","",""
"null","CORRECT","","html-keyboard-response","222","941690","0.0-16.0-20.0-0.0","35773","List1A","white","woman","","","","null","","","","","","","","",""
"1911.8999999999069","<img src=""portrait/BW2.jpg""style=""height:400px;""></img>","2","html-button-response","223","943604","0.0-16.0-22.0","35773","List1A","white","woman","","true","2","","","","","","","","","",""
"null","CORRECT","","html-keyboard-response","224","945116","0.0-16.0-23.0-0.0","35773","List1A","white","woman","","","","null","","","","","","","","",""
"2000","<p>You got 8 out of 8 right first time. Press Continue.</p>","0","html-button-response","225","947118","0.0-16.0-25.0","35773","List1A","white","woman","","","","","","","","","","","","",""
"null","<div style=""font-size:60px;"">+</div>","","html-keyboard-response","226","948644","0.0-17.0-0.0","35773","List1A","white","woman","","","","null","","","","","","","","",""
"null","<img src=""stim_listA/seduce6.gif""style=""height:400px;""></stim_listA>","","html-keyboard-response","227","950650","0.0-17.0-1.0","35773","List1A","white","woman","","","","null","","","","","","","","",""
"null","is being seduced by","","html-keyboard-response","228","952661","0.0-17.0-2.0","35773","List1A","white","woman","","","","null","","","","","","","","",""
"9144.200000000186","","","survey-text","229","961810","0.0-17.0-3.0","35773","List1A","white","woman","","","","","{""Q0"":""Dave is being seduced by Luke""}","<img src=""stim_listA/seduce6.gif""style=""height:400px;""></stim_listA>","is being seduced by","","","","","",""
"null","<div style=""font-size:60px;"">+</div>","","html-keyboard-response","230","962315","0.0-17.0-0.1","35773","List1A","white","woman","","","","null","","","","","","","","",""
"null","<img src=""stim_listA/greet4.gif""style=""height:400px;""></stim_listA>","","html-keyboard-response","231","964332","0.0-17.0-1.1","35773","List1A","white","woman","","","","null","","","","","","","","",""
"null","is being greeted by","","html-keyboard-response","232","966345","0.0-17.0-2.1","35773","List1A","white","woman","","","","null","","","","","","","","",""
"8352.200000000186","","","survey-text","233","974701","0.0-17.0-3.1","35773","List1A","white","woman","","","","","{""Q0"":""Luke is being greeted by Jane""}","<img src=""stim_listA/greet4.gif""style=""height:400px;""></stim_listA>","is being greeted by","","","","","",""
"null","<div style=""font-size:60px;"">+</div>","","html-keyboard-response","234","975213","0.0-17.0-0.2","35773","List1A","white","woman","","","","null","","","","","","","","",""
"null","<img src=""stim_listA/oppose2.gif""style=""height:400px;""></stim_listA>","","html-keyboard-response","235","977222","0.0-17.0-1.2","35773","List1A","white","woman","","","","null","","","","","","","","",""
"null","is being opposed by","","html-keyboard-response","236","979227","0.0-17.0-2.2","35773","List1A","white","woman","","","","null","","","","","","","","",""
"9111.899999999907","","","survey-text","237","988342","0.0-17.0-3.2","35773","List1A","white","woman","","","","","{""Q0"":""Fred is being opposed by Beth""}","<img src=""stim_listA/oppose2.gif""style=""height:400px;""></stim_listA>","is being opposed by","","","","","",""
"null","<div style=""font-size:60px;"">+</div>","","html-keyboard-response","238","988846","0.0-17.0-0.3","35773","List1A","white","woman","","","","null","","","","","","","","",""
"null","<img src=""stim_listA/look4.gif""style=""height:400px;""></stim_listA>","","html-keyboard-response","239","990855","0.0-17.0-1.3","35773","List1A","white","woman","","","","null","","","","","","","","",""
"null","is being looked at by","","html-keyboard-response","240","992857","0.0-17.0-2.3","35773","List1A","white","woman","","","","null","","","","","","","","",""
"9792.399999999907","","","survey-text","241","1002652","0.0-17.0-3.3","35773","List1A","white","woman","","","","","{""Q0"":""Jane is being looked at by Dave""}","<img src=""stim_listA/look4.gif""style=""height:400px;""></stim_listA>","is being looked at by","","","","","",""
"null","<div style=""font-size:60px;"">+</div>","","html-keyboard-response","242","1003160","0.0-17.0-0.4","35773","List1A","white","woman","","","","null","","","","","","","","",""
"null","<img src=""stim_listA/oppose7.gif""style=""height:400px;""></stim_listA>","","html-keyboard-response","243","1005162","0.0-17.0-1.4","35773","List1A","white","woman","","","","null","","","","","","","","",""
"null","is opposing","","html-keyboard-response","244","1007175","0.0-17.0-2.4","35773","List1A","white","woman","","","","null","","","","","","","","",""
"7920.299999999814","","","survey-text","245","1015099","0.0-17.0-3.4","35773","List1A","white","woman","","","","","{""Q0"":""Kate is opposing Jane""}","<img src=""stim_listA/oppose7.gif""style=""height:400px;""></stim_listA>","is opposing","","","","","",""
"null","<div style=""font-size:60px;"">+</div>","","html-keyboard-response","246","1015613","0.0-17.0-0.5","35773","List1A","white","woman","","","","null","","","","","","","","",""
"null","<img src=""stim_listA/touch8.gif""style=""height:400px;""></stim_listA>","","html-keyboard-response","247","1017629","0.0-17.0-1.5","35773","List1A","white","woman","","","","null","","","","","","","","",""
"null","is being touched by","","html-keyboard-response","248","1019638","0.0-17.0-2.5","35773","List1A","white","woman","","","","null","","","","","","","","",""
"8865.399999999907","","","survey-text","249","1028507","0.0-17.0-3.5","35773","List1A","white","woman","","","","","{""Q0"":""Ruth is being touched by Beth""}","<img src=""stim_listA/touch8.gif""style=""height:400px;""></stim_listA>","is being touched by","","","","","",""
"null","<div style=""font-size:60px;"">+</div>","","html-keyboard-response","250","1029013","0.0-17.0-0.6","35773","List1A","white","woman","","","","null","","","","","","","","",""
"null","<img src=""stim_listA/oppose8.gif""style=""height:400px;""></stim_listA>","","html-keyboard-response","251","1031016","0.0-17.0-1.6","35773","List1A","white","woman","","","","null","","","","","","","","",""
"null","is being opposed by","","html-keyboard-response","252","1033019","0.0-17.0-2.6","35773","List1A","white","woman","","","","null","","","","","","","","",""
"8862.600000000093","","","survey-text","253","1041884","0.0-17.0-3.6","35773","List1A","white","woman","","","","","{""Q0"":""Ruth is being opposed by Beth""}","<img src=""stim_listA/oppose8.gif""style=""height:400px;""></stim_listA>","is being opposed by","","","","","",""
"null","<div style=""font-size:60px;"">+</div>","","html-keyboard-response","254","1042392","0.0-17.0-0.7","35773","List1A","white","woman","","","","null","","","","","","","","",""
"null","<img src=""stim_listA/copy3.gif""style=""height:400px;""></stim_listA>","","html-keyboard-response","255","1044409","0.0-17.0-1.7","35773","List1A","white","woman","","","","null","","","","","","","","",""
"null","is copying","","html-keyboard-response","256","1046411","0.0-17.0-2.7","35773","List1A","white","woman","","","","null","","","","","","","","",""
"7944.600000000093","","","survey-text","257","1054359","0.0-17.0-3.7","35773","List1A","white","woman","","","","","{""Q0"":""Ruth is copying Dave""}","<img src=""stim_listA/copy3.gif""style=""height:400px;""></stim_listA>","is copying","","","","","",""
"null","<div style=""font-size:60px;"">+</div>","","html-keyboard-response","258","1054868","0.0-17.0-0.8","35773","List1A","white","woman","","","","null","","","","","","","","",""
"null","<img src=""stim_listA/greet1.gif""style=""height:400px;""></stim_listA>","","html-keyboard-response","259","1056876","0.0-17.0-1.8","35773","List1A","white","woman","","","","null","","","","","","","","",""
"null","is greeting","","html-keyboard-response","260","1058883","0.0-17.0-2.8","35773","List1A","white","woman","","","","null","","","","","","","","",""
"7596","","","survey-text","261","1066483","0.0-17.0-3.8","35773","List1A","white","woman","","","","","{""Q0"":""Mike is greeting Beth""}","<img src=""stim_listA/greet1.gif""style=""height:400px;""></stim_listA>","is greeting","","","","","",""
"null","<div style=""font-size:60px;"">+</div>","","html-keyboard-response","262","1066991","0.0-17.0-0.9","35773","List1A","white","woman","","","","null","","","","","","","","",""
"null","<img src=""stim_listA/oppose1.gif""style=""height:400px;""></stim_listA>","","html-keyboard-response","263","1069003","0.0-17.0-1.9","35773","List1A","white","woman","","","","null","","","","","","","","",""
"null","is opposing","","html-keyboard-response","264","1071006","0.0-17.0-2.9","35773","List1A","white","woman","","","","null","","","","","","","","",""
"6904.899999999907","","","survey-text","265","1077914","0.0-17.0-3.9","35773","List1A","white","woman","","","","","{""Q0"":""Mike is opposing Kate""}","<img src=""stim_listA/oppose1.gif""style=""height:400px;""></stim_listA>","is opposing","","","","","",""
"null","<div style=""font-size:60px;"">+</div>","","html-keyboard-response","266","1078431","0.0-17.0-0.10","35773","List1A","white","woman","","","","null","","","","","","","","",""
"null","<img src=""stim_listA/kiss3.gif""style=""height:400px;""></stim_listA>","","html-keyboard-response","267","1080441","0.0-17.0-1.10","35773","List1A","white","woman","","","","null","","","","","","","","",""
"null","is kissing","","html-keyboard-response","268","1082443","0.0-17.0-2.10","35773","List1A","white","woman","","","","null","","","","","","","","",""
"7787.200000000186","","","survey-text","269","1090233","0.0-17.0-3.10","35773","List1A","white","woman","","","","","{""Q0"":""Luke is kissing Ruth""}","<img src=""stim_listA/kiss3.gif""style=""height:400px;""></stim_listA>","is kissing","","","","","",""
"null","<div style=""font-size:60px;"">+</div>","","html-keyboard-response","270","1090741","0.0-17.0-0.11","35773","List1A","white","woman","","","","null","","","","","","","","",""
"null","<img src=""stim_listA/kiss1.gif""style=""height:400px;""></stim_listA>","","html-keyboard-response","271","1092758","0.0-17.0-1.11","35773","List1A","white","woman","","","","null","","","","","","","","",""
"null","is kissing","","html-keyboard-response","272","1094771","0.0-17.0-2.11","35773","List1A","white","woman","","","","null","","","","","","","","",""
"7756.800000000279","","","survey-text","273","1102531","0.0-17.0-3.11","35773","List1A","white","woman","","","","","{""Q0"":""Fred is kissing Beth""}","<img src=""stim_listA/kiss1.gif""style=""height:400px;""></stim_listA>","is kissing","","","","","",""
"null","<div style=""font-size:60px;"">+</div>","","html-keyboard-response","274","1103032","0.0-17.0-0.12","35773","List1A","white","woman","","","","null","","","","","","","","",""
"null","<img src=""stim_listA/look1.gif""style=""height:400px;""></stim_listA>","","html-keyboard-response","275","1105043","0.0-17.0-1.12","35773","List1A","white","woman","","","","null","","","","","","","","",""
"null","is looking at","","html-keyboard-response","276","1107050","0.0-17.0-2.12","35773","List1A","white","woman","","","","null","","","","","","","","",""
"9144.799999999814","","","survey-text","277","1116199","0.0-17.0-3.12","35773","List1A","white","woman","","","","","{""Q0"":""Beth is looking at Fred""}","<img src=""stim_listA/look1.gif""style=""height:400px;""></stim_listA>","is looking at","","","","","",""
"null","<div style=""font-size:60px;"">+</div>","","html-keyboard-response","278","1116714","0.0-17.0-0.13","35773","List1A","white","woman","","","","null","","","","","","","","",""
"null","<img src=""stim_listA/copy4.gif""style=""height:400px;""></stim_listA>","","html-keyboard-response","279","1118723","0.0-17.0-1.13","35773","List1A","white","woman","","","","null","","","","","","","","",""
"null","is being copied by","","html-keyboard-response","280","1120724","0.0-17.0-2.13","35773","List1A","white","woman","","","","null","","","","","","","","",""
"8957","","","survey-text","281","1129685","0.0-17.0-3.13","35773","List1A","white","woman","","","","","{""Q0"":""Jane is being copied by Luke""}","<img src=""stim_listA/copy4.gif""style=""height:400px;""></stim_listA>","is being copied by","","","","","",""
"null","<div style=""font-size:60px;"">+</div>","","html-keyboard-response","282","1130191","0.0-17.0-0.14","35773","List1A","white","woman","","","","null","","","","","","","","",""
"null","<img src=""stim_listA/copy8.gif""style=""height:400px;""></stim_listA>","","html-keyboard-response","283","1132198","0.0-17.0-1.14","35773","List1A","white","woman","","","","null","","","","","","","","",""
"null","is being copied by","","html-keyboard-response","284","1134203","0.0-17.0-2.14","35773","List1A","white","woman","","","","null","","","","","","","","",""
"8146.199999999721","","","survey-text","285","1142353","0.0-17.0-3.14","35773","List1A","white","woman","","","","","{""Q0"":""Jane is being copied by Beth""}","<img src=""stim_listA/copy8.gif""style=""height:400px;""></stim_listA>","is being copied by","","","","","",""
"null","<div style=""font-size:60px;"">+</div>","","html-keyboard-response","286","1142856","0.0-17.0-0.15","35773","List1A","white","woman","","","","null","","","","","","","","",""
"null","<img src=""stim_listA/seduce4.gif""style=""height:400px;""></stim_listA>","","html-keyboard-response","287","1144863","0.0-17.0-1.15","35773","List1A","white","woman","","","","null","","","","","","","","",""
"null","is being seduced by","","html-keyboard-response","288","1146868","0.0-17.0-2.15","35773","List1A","white","woman","","","","null","","","","","","","","",""
"13171.200000000186","","","survey-text","289","1160044","0.0-17.0-3.15","35773","List1A","white","woman","","","","","{""Q0"":""Dave is being seduced by Ruth""}","<img src=""stim_listA/seduce4.gif""style=""height:400px;""></stim_listA>","is being seduced by","","","","","",""
"null","<div style=""font-size:60px;"">+</div>","","html-keyboard-response","290","1160561","0.0-17.0-0.16","35773","List1A","white","woman","","","","null","","","","","","","","",""
"null","<img src=""stim_listA/greet8.gif""style=""height:400px;""></stim_listA>","","html-keyboard-response","291","1162576","0.0-17.0-1.16","35773","List1A","white","woman","","","","null","","","","","","","","",""
"null","is being greeted by","","html-keyboard-response","292","1164578","0.0-17.0-2.16","35773","List1A","white","woman","","","","null","","","","","","","","",""
"12250.799999999814","","","survey-text","293","1176832","0.0-17.0-3.16","35773","List1A","white","woman","","","","","{""Q0"":""Beth is being greeted by Jane""}","<img src=""stim_listA/greet8.gif""style=""height:400px;""></stim_listA>","is being greeted by","","","","","",""
"null","<div style=""font-size:60px;"">+</div>","","html-keyboard-response","294","1177337","0.0-17.0-0.17","35773","List1A","white","woman","","","","null","","","","","","","","",""
"null","<img src=""stim_listA/shout1.gif""style=""height:400px;""></stim_listA>","","html-keyboard-response","295","1179353","0.0-17.0-1.17","35773","List1A","white","woman","","","","null","","","","","","","","",""
"null","is shouting at","","html-keyboard-response","296","1181355","0.0-17.0-2.17","35773","List1A","white","woman","","","","null","","","","","","","","",""
"8747.099999999627","","","survey-text","297","1190106","0.0-17.0-3.17","35773","List1A","white","woman","","","","","{""Q0"":""Beth is shouting at Fred""}","<img src=""stim_listA/shout1.gif""style=""height:400px;""></stim_listA>","is shouting at","","","","","",""
"null","<div style=""font-size:60px;"">+</div>","","html-keyboard-response","298","1190623","0.0-17.0-0.18","35773","List1A","white","woman","","","","null","","","","","","","","",""
"null","<img src=""stim_listA/look6.gif""style=""height:400px;""></stim_listA>","","html-keyboard-response","299","1192639","0.0-17.0-1.18","35773","List1A","white","woman","","","","null","","","","","","","","",""
"null","is being looked at by","","html-keyboard-response","300","1194661","0.0-17.0-2.18","35773","List1A","white","woman","","","","null","","","","","","","","",""
"8888.19999999972","","","survey-text","301","1203554","0.0-17.0-3.18","35773","List1A","white","woman","","","","","{""Q0"":""Mike is being looked at by Dave""}","<img src=""stim_listA/look6.gif""style=""height:400px;""></stim_listA>","is being looked at by","","","","","",""
"null","<div style=""font-size:60px;"">+</div>","","html-keyboard-response","302","1204066","0.0-17.0-0.19","35773","List1A","white","woman","","","","null","","","","","","","","",""
"null","<img src=""stim_listA/look8.gif""style=""height:400px;""></stim_listA>","","html-keyboard-response","303","1206076","0.0-17.0-1.19","35773","List1A","white","woman","","","","null","","","","","","","","",""
"null","is being looked at by","","html-keyboard-response","304","1208083","0.0-17.0-2.19","35773","List1A","white","woman","","","","null","","","","","","","","",""
"9650.5","","","survey-text","305","1217738","0.0-17.0-3.19","35773","List1A","white","woman","","","","","{""Q0"":""Jane is being looked at by Kate""}","<img src=""stim_listA/look8.gif""style=""height:400px;""></stim_listA>","is being looked at by","","","","","",""
"7279.4000000003725","<img src='img/portrait_matrix_list1.jpg' style='width:900px;height:500px;''></img><p>If you have memorised all the portraits and names and are ready to start, press Continue.</p><p><strong>Please note: Your memory of these faces will be tested 4 times during this experiment.</strong></p>","0","html-button-response","306","1225019","0.0-18.0-0.0","35773","List1A","white","woman","","","","","","","","","","","","",""
"2582.5","<img src=""portrait/WM1.jpg""style=""height:400px;""></img>","6","html-button-response","307","1228608","0.0-18.0-1.0","35773","List1A","white","woman","","true","6","","","","","","","","","",""
"null","CORRECT","","html-keyboard-response","308","1230120","0.0-18.0-2.0-0.0","35773","List1A","white","woman","","","","null","","","","","","","","",""
"2266.2000000001863","<img src=""portrait/WM2.jpg""style=""height:400px;""></img>","5","html-button-response","309","1232388","0.0-18.0-4.0","35773","List1A","white","woman","","true","7","","","","","","","","","",""
"3202.1999999997206","<img src=""portrait/WM2.jpg""style=""height:400px;""></img>","7","html-button-response","310","1236603","0.0-18.0-6.0-0.0","35773","List1A","white","woman","","false","7","","","","","","","","","",""
"null","CORRECT","","html-keyboard-response","311","1238121","0.0-18.0-6.0-1.0-0.0","35773","List1A","white","woman","","","","null","","","","","","","","",""
"1818.7999999998137","<img src=""portrait/WW2.jpg""style=""height:400px;""></img>","3","html-button-response","312","1239942","0.0-18.0-7.0","35773","List1A","white","woman","","true","3","","","","","","","","","",""
"null","CORRECT","","html-keyboard-response","313","1241448","0.0-18.0-8.0-0.0","35773","List1A","white","woman","","","","null","","","","","","","","",""
"4650.699999999721","<img src=""portrait/BM2.jpg""style=""height:400px;""></img>","5","html-button-response","314","1246101","0.0-18.0-10.0","35773","List1A","white","woman","","true","5","","","","","","","","","",""
"null","CORRECT","","html-keyboard-response","315","1247617","0.0-18.0-11.0-0.0","35773","List1A","white","woman","","","","null","","","","","","","","",""
"2648.8000000002794","<img src=""portrait/WW1.jpg""style=""height:400px;""></img>","1","html-button-response","316","1250268","0.0-18.0-13.0","35773","List1A","white","woman","","true","1","","","","","","","","","",""
"null","CORRECT","","html-keyboard-response","317","1251779","0.0-18.0-14.0-0.0","35773","List1A","white","woman","","","","null","","","","","","","","",""
"1953.1000000000931","<img src=""portrait/BW2.jpg""style=""height:400px;""></img>","2","html-button-response","318","1253734","0.0-18.0-16.0","35773","List1A","white","woman","","true","2","","","","","","","","","",""
"null","CORRECT","","html-keyboard-response","319","1255247","0.0-18.0-17.0-0.0","35773","List1A","white","woman","","","","null","","","","","","","","",""
"2336.7999999998137","<img src=""portrait/BW1.jpg""style=""height:400px;""></img>","0","html-button-response","320","1257586","0.0-18.0-19.0","35773","List1A","white","woman","","true","0","","","","","","","","","",""
"null","CORRECT","","html-keyboard-response","321","1259113","0.0-18.0-20.0-0.0","35773","List1A","white","woman","","","","null","","","","","","","","",""
"2636.7999999998137","<img src=""portrait/BM1.jpg""style=""height:400px;""></img>","4","html-button-response","322","1261751","0.0-18.0-22.0","35773","List1A","white","woman","","true","4","","","","","","","","","",""
"null","CORRECT","","html-keyboard-response","323","1263279","0.0-18.0-23.0-0.0","35773","List1A","white","woman","","","","null","","","","","","","","",""
"2473.899999999907","<p>You got 7 out of 8 right first time. Press Continue.</p>","0","html-button-response","324","1265755","0.0-18.0-25.0","35773","List1A","white","woman","","","","","","","","","","","","",""
"7366.5","As you did not score 100%, the memory game will repeat. Press Continue.","0","html-button-response","325","1274133","0.0-18.0-26.0-0.0","35773","List1A","white","woman","","","","","","","","","","","","",""
"4957.399999999907","<img src='img/portrait_matrix_list1.jpg' style='width:900px;height:500px;''></img><p>If you have memorised all the portraits and names and are ready to start, press Continue.</p><p><strong>Please note: Your memory of these faces will be tested 4 times during this experiment.</strong></p>","0","html-button-response","326","1280101","0.0-18.1-0.1","35773","List1A","white","woman","","","","","","","","","","","","",""
"2385.2000000001863","<img src=""portrait/WM1.jpg""style=""height:400px;""></img>","6","html-button-response","327","1283500","0.0-18.1-1.1","35773","List1A","white","woman","","true","6","","","","","","","","","",""
"null","CORRECT","","html-keyboard-response","328","1285025","0.0-18.1-2.1-0.1","35773","List1A","white","woman","","","","null","","","","","","","","",""
"2504.399999999907","<img src=""portrait/WM2.jpg""style=""height:400px;""></img>","7","html-button-response","329","1287532","0.0-18.1-4.1","35773","List1A","white","woman","","true","7","","","","","","","","","",""
"null","CORRECT","","html-keyboard-response","330","1289045","0.0-18.1-5.1-0.1","35773","List1A","white","woman","","","","null","","","","","","","","",""
"2168.100000000093","<img src=""portrait/WW2.jpg""style=""height:400px;""></img>","3","html-button-response","331","1291215","0.0-18.1-7.1","35773","List1A","white","woman","","true","3","","","","","","","","","",""
"null","CORRECT","","html-keyboard-response","332","1292729","0.0-18.1-8.1-0.1","35773","List1A","white","woman","","","","null","","","","","","","","",""
"2667.399999999907","<img src=""portrait/BM2.jpg""style=""height:400px;""></img>","5","html-button-response","333","1295398","0.0-18.1-10.1","35773","List1A","white","woman","","true","5","","","","","","","","","",""
"null","CORRECT","","html-keyboard-response","334","1296905","0.0-18.1-11.1-0.1","35773","List1A","white","woman","","","","null","","","","","","","","",""
"2292.100000000093","<img src=""portrait/WW1.jpg""style=""height:400px;""></img>","1","html-button-response","335","1299198","0.0-18.1-13.1","35773","List1A","white","woman","","true","1","","","","","","","","","",""
"null","CORRECT","","html-keyboard-response","336","1300716","0.0-18.1-14.1-0.1","35773","List1A","white","woman","","","","null","","","","","","","","",""
"2114.100000000093","<img src=""portrait/BW2.jpg""style=""height:400px;""></img>","2","html-button-response","337","1302831","0.0-18.1-16.1","35773","List1A","white","woman","","true","2","","","","","","","","","",""
"null","CORRECT","","html-keyboard-response","338","1304344","0.0-18.1-17.1-0.1","35773","List1A","white","woman","","","","null","","","","","","","","",""
"2236.5","<img src=""portrait/BW1.jpg""style=""height:400px;""></img>","0","html-button-response","339","1306583","0.0-18.1-19.1","35773","List1A","white","woman","","true","0","","","","","","","","","",""
"null","CORRECT","","html-keyboard-response","340","1308095","0.0-18.1-20.1-0.1","35773","List1A","white","woman","","","","null","","","","","","","","",""
"2886.2000000001863","<img src=""portrait/BM1.jpg""style=""height:400px;""></img>","4","html-button-response","341","1310982","0.0-18.1-22.1","35773","List1A","white","woman","","true","4","","","","","","","","","",""
"null","CORRECT","","html-keyboard-response","342","1312497","0.0-18.1-23.1-0.1","35773","List1A","white","woman","","","","null","","","","","","","","",""
"1947.2999999998137","<p>You got 8 out of 8 right first time. Press Continue.</p>","0","html-button-response","343","1314446","0.0-18.1-25.1","35773","List1A","white","woman","","","","","","","","","","","","",""
"null","<div style=""font-size:60px;"">+</div>","","html-keyboard-response","344","1315969","0.0-19.0-0.0","35773","List1A","white","woman","","","","null","","","","","","","","",""
"null","<img src=""stim_listA/hug2.gif""style=""height:400px;""></stim_listA>","","html-keyboard-response","345","1317982","0.0-19.0-1.0","35773","List1A","white","woman","","","","null","","","","","","","","",""
"null","is being hugged by","","html-keyboard-response","346","1319987","0.0-19.0-2.0","35773","List1A","white","woman","","","","null","","","","","","","","",""
"10333.700000000186","","","survey-text","347","1330324","0.0-19.0-3.0","35773","List1A","white","woman","","","","","{""Q0"":""Mike is being hugged by Kate""}","<img src=""stim_listA/hug2.gif""style=""height:400px;""></stim_listA>","is being hugged by","","","","","",""
"null","<div style=""font-size:60px;"">+</div>","","html-keyboard-response","348","1330830","0.0-19.0-0.1","35773","List1A","white","woman","","","","null","","","","","","","","",""
"null","<img src=""stim_listA/hug6.gif""style=""height:400px;""></stim_listA>","","html-keyboard-response","349","1332834","0.0-19.0-1.1","35773","List1A","white","woman","","","","null","","","","","","","","",""
"null","is being hugged by","","html-keyboard-response","350","1334845","0.0-19.0-2.1","35773","List1A","white","woman","","","","null","","","","","","","","",""
"8332.69999999972","","","survey-text","351","1343181","0.0-19.0-3.1","35773","List1A","white","woman","","","","","{""Q0"":""Dave is being hugged by Mike""}","<img src=""stim_listA/hug6.gif""style=""height:400px;""></stim_listA>","is being hugged by","","","","","",""
"null","<div style=""font-size:60px;"">+</div>","","html-keyboard-response","352","1343696","0.0-19.0-0.2","35773","List1A","white","woman","","","","null","","","","","","","","",""
"null","<img src=""stim_listA/challenge2.gif""style=""height:400px;""></stim_listA>","","html-keyboard-response","353","1345714","0.0-19.0-1.2","35773","List1A","white","woman","","","","null","","","","","","","","",""
"null","is being challenged by","","html-keyboard-response","354","1347716","0.0-19.0-2.2","35773","List1A","white","woman","","","","null","","","","","","","","",""
"11545.799999999814","","","survey-text","355","1359264","0.0-19.0-3.2","35773","List1A","white","woman","","","","","{""Q0"":""Fred is being challenged by Kate""}","<img src=""stim_listA/challenge2.gif""style=""height:400px;""></stim_listA>","is being challenged by","","","","","",""
"null","<div style=""font-size:60px;"">+</div>","","html-keyboard-response","356","1359775","0.0-19.0-0.3","35773","List1A","white","woman","","","","null","","","","","","","","",""
"null","<img src=""stim_listA/look2.gif""style=""height:400px;""></stim_listA>","","html-keyboard-response","357","1361783","0.0-19.0-1.3","35773","List1A","white","woman","","","","null","","","","","","","","",""
"null","is being looked at by","","html-keyboard-response","358","1363797","0.0-19.0-2.3","35773","List1A","white","woman","","","","null","","","","","","","","",""
"12584.600000000093","","","survey-text","359","1376386","0.0-19.0-3.3","35773","List1A","white","woman","","","","","{""Q0"":""Mike is being looked at by Kate""}","<img src=""stim_listA/look2.gif""style=""height:400px;""></stim_listA>","is being looked at by","","","","","",""
"null","<div style=""font-size:60px;"">+</div>","","html-keyboard-response","360","1376892","0.0-19.0-0.4","35773","List1A","white","woman","","","","null","","","","","","","","",""
"null","<img src=""stim_listA/kiss6.gif""style=""height:400px;""></stim_listA>","","html-keyboard-response","361","1378907","0.0-19.0-1.4","35773","List1A","white","woman","","","","null","","","","","","","","",""
"null","is being kissed by","","html-keyboard-response","362","1380923","0.0-19.0-2.4","35773","List1A","white","woman","","","","null","","","","","","","","",""
"14268.900000000373","","","survey-text","363","1395196","0.0-19.0-3.4","35773","List1A","white","woman","","","","","{""Q0"":""Mike is being kissed by Dave""}","<img src=""stim_listA/kiss6.gif""style=""height:400px;""></stim_listA>","is being kissed by","","","","","",""
"null","<div style=""font-size:60px;"">+</div>","","html-keyboard-response","364","1395710","0.0-19.0-0.5","35773","List1A","white","woman","","","","null","","","","","","","","",""
"null","<img src=""stim_listA/hug1.gif""style=""height:400px;""></stim_listA>","","html-keyboard-response","365","1397724","0.0-19.0-1.5","35773","List1A","white","woman","","","","null","","","","","","","","",""
"null","is hugging","","html-keyboard-response","366","1399725","0.0-19.0-2.5","35773","List1A","white","woman","","","","null","","","","","","","","",""
"8388.399999999907","","","survey-text","367","1408117","0.0-19.0-3.5","35773","List1A","white","woman","","","","","{""Q0"":""Fred is hugging Beth""}","<img src=""stim_listA/hug1.gif""style=""height:400px;""></stim_listA>","is hugging","","","","","",""
"null","<div style=""font-size:60px;"">+</div>","","html-keyboard-response","368","1408621","0.0-19.0-0.6","35773","List1A","white","woman","","","","null","","","","","","","","",""
"null","<img src=""stim_listA/greet6.gif""style=""height:400px;""></stim_listA>","","html-keyboard-response","369","1410629","0.0-19.0-1.6","35773","List1A","white","woman","","","","null","","","","","","","","",""
"null","is being greeted by","","html-keyboard-response","370","1412638","0.0-19.0-2.6","35773","List1A","white","woman","","","","null","","","","","","","","",""
"11698.5","","","survey-text","371","1424341","0.0-19.0-3.6","35773","List1A","white","woman","","","","","{""Q0"":""Dave is being greeted by Fred""}","<img src=""stim_listA/greet6.gif""style=""height:400px;""></stim_listA>","is being greeted by","","","","","",""
"null","<div style=""font-size:60px;"">+</div>","","html-keyboard-response","372","1424852","0.0-19.0-0.7","35773","List1A","white","woman","","","","null","","","","","","","","",""
"null","<img src=""stim_listA/touch4.gif""style=""height:400px;""></stim_listA>","","html-keyboard-response","373","1426870","0.0-19.0-1.7","35773","List1A","white","woman","","","","null","","","","","","","","",""
"null","is being touched by","","html-keyboard-response","374","1428878","0.0-19.0-2.7","35773","List1A","white","woman","","","","null","","","","","","","","",""
"9591.899999999907","","","survey-text","375","1438473","0.0-19.0-3.7","35773","List1A","white","woman","","","","","{""Q0"":""Ruth is being touched by Luke""}","<img src=""stim_listA/touch4.gif""style=""height:400px;""></stim_listA>","is being touched by","","","","","",""
"null","<div style=""font-size:60px;"">+</div>","","html-keyboard-response","376","1438984","0.0-19.0-0.8","35773","List1A","white","woman","","","","null","","","","","","","","",""
"null","<img src=""stim_listA/challenge3.gif""style=""height:400px;""></stim_listA>","","html-keyboard-response","377","1440988","0.0-19.0-1.8","35773","List1A","white","woman","","","","null","","","","","","","","",""
"null","is challenging","","html-keyboard-response","378","1442994","0.0-19.0-2.8","35773","List1A","white","woman","","","","null","","","","","","","","",""
"11942.200000000186","","","survey-text","379","1454939","0.0-19.0-3.8","35773","List1A","white","woman","","","","","{""Q0"":""Dave is challenging Ruth""}","<img src=""stim_listA/challenge3.gif""style=""height:400px;""></stim_listA>","is challenging","","","","","",""
"null","<div style=""font-size:60px;"">+</div>","","html-keyboard-response","380","1455451","0.0-19.0-0.9","35773","List1A","white","woman","","","","null","","","","","","","","",""
"null","<img src=""stim_listA/seduce1.gif""style=""height:400px;""></stim_listA>","","html-keyboard-response","381","1457458","0.0-19.0-1.9","35773","List1A","white","woman","","","","null","","","","","","","","",""
"null","is seducing","","html-keyboard-response","382","1459467","0.0-19.0-2.9","35773","List1A","white","woman","","","","null","","","","","","","","",""
"7551.100000000093","","","survey-text","383","1467022","0.0-19.0-3.9","35773","List1A","white","woman","","","","","{""Q0"":""Fred is seducing Kate""}","<img src=""stim_listA/seduce1.gif""style=""height:400px;""></stim_listA>","is seducing","","","","","",""
"null","<div style=""font-size:60px;"">+</div>","","html-keyboard-response","384","1467532","0.0-19.0-0.10","35773","List1A","white","woman","","","","null","","","","","","","","",""
"null","<img src=""stim_listA/kiss8.gif""style=""height:400px;""></stim_listA>","","html-keyboard-response","385","1469541","0.0-19.0-1.10","35773","List1A","white","woman","","","","null","","","","","","","","",""
"null","is being kissed by","","html-keyboard-response","386","1471554","0.0-19.0-2.10","35773","List1A","white","woman","","","","null","","","","","","","","",""
"7917.100000000093","","","survey-text","387","1479476","0.0-19.0-3.10","35773","List1A","white","woman","","","","","{""Q0"":""Kate is being kissed by Jane""}","<img src=""stim_listA/kiss8.gif""style=""height:400px;""></stim_listA>","is being kissed by","","","","","",""
"null","<div style=""font-size:60px;"">+</div>","","html-keyboard-response","388","1479991","0.0-19.0-0.11","35773","List1A","white","woman","","","","null","","","","","","","","",""
"null","<img src=""stim_listA/seduce3.gif""style=""height:400px;""></stim_listA>","","html-keyboard-response","389","1482005","0.0-19.0-1.11","35773","List1A","white","woman","","","","null","","","","","","","","",""
"null","is seducing","","html-keyboard-response","390","1484022","0.0-19.0-2.11","35773","List1A","white","woman","","","","null","","","","","","","","",""
"7198","","","survey-text","391","1491223","0.0-19.0-3.11","35773","List1A","white","woman","","","","","{""Q0"":""Jane is seducing Luke""}","<img src=""stim_listA/seduce3.gif""style=""height:400px;""></stim_listA>","is seducing","","","","","",""
"null","<div style=""font-size:60px;"">+</div>","","html-keyboard-response","392","1491730","0.0-19.0-0.12","35773","List1A","white","woman","","","","null","","","","","","","","",""
"null","<img src=""stim_listA/shout2.gif""style=""height:400px;""></stim_listA>","","html-keyboard-response","393","1493739","0.0-19.0-1.12","35773","List1A","white","woman","","","","null","","","","","","","","",""
"null","is being shouted at by","","html-keyboard-response","394","1495743","0.0-19.0-2.12","35773","List1A","white","woman","","","","null","","","","","","","","",""
"14055.100000000093","","","survey-text","395","1509802","0.0-19.0-3.12","35773","List1A","white","woman","","","","","{""Q0"":""Mike is being shouted at by Kate""}","<img src=""stim_listA/shout2.gif""style=""height:400px;""></stim_listA>","is being shouted at by","","","","","",""
"null","<div style=""font-size:60px;"">+</div>","","html-keyboard-response","396","1510317","0.0-19.0-0.13","35773","List1A","white","woman","","","","null","","","","","","","","",""
"null","<img src=""stim_listA/shout3.gif""style=""height:400px;""></stim_listA>","","html-keyboard-response","397","1512323","0.0-19.0-1.13","35773","List1A","white","woman","","","","null","","","","","","","","",""
"null","is shouting at","","html-keyboard-response","398","1514325","0.0-19.0-2.13","35773","List1A","white","woman","","","","null","","","","","","","","",""
"7513.5","","","survey-text","399","1521842","0.0-19.0-3.13","35773","List1A","white","woman","","","","","{""Q0"":""Ruth is shouting at Luke""}","<img src=""stim_listA/shout3.gif""style=""height:400px;""></stim_listA>","is shouting at","","","","","",""
"null","<div style=""font-size:60px;"">+</div>","","html-keyboard-response","400","1522348","0.0-19.0-0.14","35773","List1A","white","woman","","","","null","","","","","","","","",""
"null","<img src=""stim_listA/greet3.gif""style=""height:400px;""></stim_listA>","","html-keyboard-response","401","1524364","0.0-19.0-1.14","35773","List1A","white","woman","","","","null","","","","","","","","",""
"null","is greeting","","html-keyboard-response","402","1526373","0.0-19.0-2.14","35773","List1A","white","woman","","","","null","","","","","","","","",""
"9229.5","","","survey-text","403","1535607","0.0-19.0-3.14","35773","List1A","white","woman","","","","","{""Q0"":""Dave is greeting Ruth""}","<img src=""stim_listA/greet3.gif""style=""height:400px;""></stim_listA>","is greeting","","","","","",""
"null","<div style=""font-size:60px;"">+</div>","","html-keyboard-response","404","1536116","0.0-19.0-0.15","35773","List1A","white","woman","","","","null","","","","","","","","",""
"null","<img src=""stim_listA/shout4.gif""style=""height:400px;""></stim_listA>","","html-keyboard-response","405","1538131","0.0-19.0-1.15","35773","List1A","white","woman","","","","null","","","","","","","","",""
"null","is being shouted at by","","html-keyboard-response","406","1540142","0.0-19.0-2.15","35773","List1A","white","woman","","","","null","","","","","","","","",""
"9594.100000000093","","","survey-text","407","1549740","0.0-19.0-3.15","35773","List1A","white","woman","","","","","{""Q0"":""Dave is being shouted at by Jane""}","<img src=""stim_listA/shout4.gif""style=""height:400px;""></stim_listA>","is being shouted at by","","","","","",""
"null","<div style=""font-size:60px;"">+</div>","","html-keyboard-response","408","1550245","0.0-19.0-0.16","35773","List1A","white","woman","","","","null","","","","","","","","",""
"null","<img src=""stim_listA/shout6.gif""style=""height:400px;""></stim_listA>","","html-keyboard-response","409","1552249","0.0-19.0-1.16","35773","List1A","white","woman","","","","null","","","","","","","","",""
"null","is being shouted at by","","html-keyboard-response","410","1554260","0.0-19.0-2.16","35773","List1A","white","woman","","","","null","","","","","","","","",""
"10199","","","survey-text","411","1564463","0.0-19.0-3.16","35773","List1A","white","woman","","","","","{""Q0"":""Mike is being shouted at by Dave""}","<img src=""stim_listA/shout6.gif""style=""height:400px;""></stim_listA>","is being shouted at by","","","","","",""
"null","<div style=""font-size:60px;"">+</div>","","html-keyboard-response","412","1564979","0.0-19.0-0.17","35773","List1A","white","woman","","","","null","","","","","","","","",""
"null","<img src=""stim_listA/copy7.gif""style=""height:400px;""></stim_listA>","","html-keyboard-response","413","1566983","0.0-19.0-1.17","35773","List1A","white","woman","","","","null","","","","","","","","",""
"null","is copying","","html-keyboard-response","414","1568988","0.0-19.0-2.17","35773","List1A","white","woman","","","","null","","","","","","","","",""
"9339.899999999907","","","survey-text","415","1578333","0.0-19.0-3.17","35773","List1A","white","woman","","","","","{""Q0"":""Jane is copying Kate""}","<img src=""stim_listA/copy7.gif""style=""height:400px;""></stim_listA>","is copying","","","","","",""
"null","<div style=""font-size:60px;"">+</div>","","html-keyboard-response","416","1578843","0.0-19.0-0.18","35773","List1A","white","woman","","","","null","","","","","","","","",""
"null","<img src=""stim_listA/oppose4.gif""style=""height:400px;""></stim_listA>","","html-keyboard-response","417","1580849","0.0-19.0-1.18","35773","List1A","white","woman","","","","null","","","","","","","","",""
"null","is being opposed by","","html-keyboard-response","418","1582854","0.0-19.0-2.18","35773","List1A","white","woman","","","","null","","","","","","","","",""
"9326.399999999907","","","survey-text","419","1592184","0.0-19.0-3.18","35773","List1A","white","woman","","","","","{""Q0"":""Luke is being opposed by Ruth""}","<img src=""stim_listA/oppose4.gif""style=""height:400px;""></stim_listA>","is being opposed by","","","","","",""
"null","<div style=""font-size:60px;"">+</div>","","html-keyboard-response","420","1592698","0.0-19.0-0.19","35773","List1A","white","woman","","","","null","","","","","","","","",""
"null","<img src=""stim_listA/seduce2.gif""style=""height:400px;""></stim_listA>","","html-keyboard-response","421","1594702","0.0-19.0-1.19","35773","List1A","white","woman","","","","null","","","","","","","","",""
"null","is being seduced by","","html-keyboard-response","422","1596706","0.0-19.0-2.19","35773","List1A","white","woman","","","","null","","","","","","","","",""
"12261.30000000028","","","survey-text","423","1608971","0.0-19.0-3.19","35773","List1A","white","woman","","","","","{""Q0"":""Mike is being seduced by Beth""}","<img src=""stim_listA/seduce2.gif""style=""height:400px;""></stim_listA>","is being seduced by","","","","","",""
"2822.7999999998137","<p>Thank you for completing that task.</p><p>The final part of this session is a questionnaire that will take about 4 minutes.</p><p>Press Continue.</p>","0","html-button-response","424","1611797","0.0-20.0","35773","List1A","white","woman","","","","","","","","","","","","",""
"36936.69999999972","","","survey-text","425","1649744","0.0-21.0","35773","List1A","white","woman","","","","","{""Q0"":""31"",""Q1"":""English"",""Q2"":""English"",""Q3"":""United States"",""Q4"":""American"",""Q5"":""White"",""Q6"":""Female ""}","","","demographics","","","","",""
"2611","<p>Have you lived in the USA for the last 5 years or more?</p>","0","html-button-response","426","1652364","0.0-22.0","35773","List1A","white","woman","","","","","","","","fiveyears","","","","",""
"2211.6999999997206","<p>Move the slider to show the extent to which you agree with the following statements.</p>","0","html-button-response","427","1655594","0.0-23.0","35773","List1A","white","woman","","","","","","","","","","","","",""
"5813.699999999721","","","html-slider-response","428","1662416","0.0-24.0-0.0-0.0","35773","List1A","white","woman","","","","","","","","survey_gender","100","","","I feel a bond with my friends.","filler"
"8607.700000000186","","","html-slider-response","429","1671026","0.0-24.0-0.0-0.1","35773","List1A","white","woman","","","","","","","","survey_gender","10","","","The fact that I am my gender is an important part of my identity.","identity"
"6847.5999999996275","","","html-slider-response","430","1677876","0.0-24.0-0.0-0.2","35773","List1A","white","woman","","","","","","","","survey_gender","94","","","I often think about my actions.","filler"
"12763.600000000093","","","html-slider-response","431","1690642","0.0-24.0-0.0-0.3","35773","List1A","white","woman","","","","","","","","survey_gender","51","","","Routine is not important to me.","filler"
"7095.300000000279","","","html-slider-response","432","1697740","0.0-24.0-0.0-0.4","35773","List1A","white","woman","","","","","","","","survey_gender","36","","","Most of the friends in my life are very similar to me.","filler"
"4215.5","","","html-slider-response","433","1701957","0.0-24.0-0.0-0.5","35773","List1A","white","woman","","","","","","","","survey_gender","100","","","I would say I am an animal person.","filler"
"5165.100000000093","","","html-slider-response","434","1707125","0.0-24.0-0.0-0.6","35773","List1A","white","woman","","","","","","","","survey_gender","29","","","I feel a bond with my gender.","bond"
"7862.799999999814","","","html-slider-response","435","1714990","0.0-24.0-0.0-0.7","35773","List1A","white","woman","","","","","","","","survey_gender","70","","","I am glad to be my gender.","glad"
"8630.100000000093","","","html-slider-response","436","1723623","0.0-24.0-0.0-0.8","35773","List1A","white","woman","","","","","","","","survey_gender","48","","","I feel solidarity with my gender.","solidarity"
"6563.600000000093","","","html-slider-response","437","1730190","0.0-24.0-0.0-0.9","35773","List1A","white","woman","","","","","","","","survey_gender","92","","","It is not always easy for people to know what I am thinking.","filler"
"6613.899999999907","","","html-slider-response","438","1736806","0.0-24.0-0.0-0.10","35773","List1A","white","woman","","","","","","","","survey_gender","49","","","It is pleasant to be my gender.","pleasant"
"4866.899999999907","","","html-slider-response","439","1741676","0.0-24.0-0.0-0.11","35773","List1A","white","woman","","","","","","","","survey_gender","93","","","My friends understand me.","filler"
"5710.100000000093","","","html-slider-response","440","1747388","0.0-24.0-0.0-0.12","35773","List1A","white","woman","","","","","","","","survey_gender","32","","","I am similar to the average person of my gender.","similar"
"5484.899999999907","","","html-slider-response","441","1752876","0.0-24.0-0.0-0.13","35773","List1A","white","woman","","","","","","","","survey_gender","64","","","I have a lot in common with my friends.","filler"
"5892.299999999814","","","html-slider-response","442","1758771","0.0-24.0-0.0-0.14","35773","List1A","white","woman","","","","","","","","survey_gender","17","","","People of my gender are very similar to each other.","verysimilar"
"5896.4000000003725","","","html-slider-response","443","1764670","0.0-24.0-0.0-0.15","35773","List1A","white","woman","","","","","","","","survey_gender","58","","","My friends have a lot in common with each other.","filler"
"4513.200000000186","","","html-slider-response","444","1769186","0.0-24.0-0.0-0.16","35773","List1A","white","woman","","","","","","","","survey_gender","100","","","Being around my friends gives me a good feeling.","filler"
"11107.5","","","html-slider-response","445","1780296","0.0-24.0-0.0-0.17","35773","List1A","white","woman","","","","","","","","survey_gender","51","","","I have a lot in common with the average person of my gender.","average"
"6888.100000000093","","","html-slider-response","446","1787186","0.0-24.0-0.0-0.18","35773","List1A","white","woman","","","","","","","","survey_gender","93","","","Family is not more important to me than friendship.","filler"
"4480.800000000279","","","html-slider-response","447","1791669","0.0-24.0-0.0-0.19","35773","List1A","white","woman","","","","","","","","survey_gender","18","","","Being my gender is an important part of how I see myself.","important"
"5249","","","html-slider-response","448","1796920","0.0-24.0-0.0-0.20","35773","List1A","white","woman","","","","","","","","survey_gender","29","","","People of my gender have a lot in common with each other.","common"
"5817","","","html-slider-response","449","1802739","0.0-24.0-0.0-0.21","35773","List1A","white","woman","","","","","","","","survey_gender","49","","","I feel committed to my gender.","committed"
"7467.600000000093","","","html-slider-response","450","1810209","0.0-24.0-0.0-0.22","35773","List1A","white","woman","","","","","","","","survey_gender","49","","","I think that my gender has a lot to be proud of.","proud"
"4788.800000000279","","","html-slider-response","451","1815000","0.0-24.0-0.0-0.23","35773","List1A","white","woman","","","","","","","","survey_gender","65","","","I consider myself a highly empathetic person.","filler"
"4281.700000000186","","","html-slider-response","452","1819285","0.0-24.0-0.0-0.24","35773","List1A","white","woman","","","","","","","","survey_gender","56","","","Being my gender gives me a good feeling.","feeling"
"5329.699999999721","","","html-slider-response","453","1824617","0.0-24.0-0.0-0.25","35773","List1A","white","woman","","","","","","","","survey_gender","27","","","I often think about the fact that I am my gender.","often"
"4664.899999999907","","","html-slider-response","454","1829284","0.0-24.0-0.0-0.26","35773","List1A","white","woman","","","","","","","","survey_gender","79","","","I feel solidarity with my friends.","filler"
"3879.7999999998137","","","html-slider-response","455","1833167","0.0-24.0-0.0-0.27","35773","List1A","white","woman","","","","","","","","survey_gender","100","","","I am glad to have the friends that I have.","filler"
"7597.399999999907","","","html-slider-response","456","1840766","0.0-24.0-1.0-0.0","35773","List1A","white","woman","","","","","","","","survey_race","41","","","Being my race gives me a good feeling.","feeling"
"4980.0999999996275","","","html-slider-response","457","1845749","0.0-24.0-1.0-0.1","35773","List1A","white","woman","","","","","","","","survey_race","27","","","I feel committed to my race.","committed"
"5481.399999999907","","","html-slider-response","458","1851233","0.0-24.0-1.0-0.2","35773","List1A","white","woman","","","","","","","","survey_race","13","","","People of my race have a lot in common with each other.","common"
"5063.600000000093","","","html-slider-response","459","1856298","0.0-24.0-1.0-0.3","35773","List1A","white","woman","","","","","","","","survey_race","41","","","I feel a bond with people the same age as me.","filler"
"4920.100000000093","","","html-slider-response","460","1861221","0.0-24.0-1.0-0.4","35773","List1A","white","woman","","","","","","","","survey_race","19","","","People of my race are very similar to each other.","verysimilar"
"5962.300000000279","","","html-slider-response","461","1867186","0.0-24.0-1.0-0.5","35773","List1A","white","woman","","","","","","","","survey_race","35","","","I often think about the fact that I am my race.","often"
"4175.299999999814","","","html-slider-response","462","1871364","0.0-24.0-1.0-0.6","35773","List1A","white","woman","","","","","","","","survey_race","30","","","I consider myself an introvert.","filler"
"6130.5","","","html-slider-response","463","1877497","0.0-24.0-1.0-0.7","35773","List1A","white","woman","","","","","","","","survey_race","9","","","I have a lot in common with the average person of my race.","average"
"5899","","","html-slider-response","464","1883398","0.0-24.0-1.0-0.8","35773","List1A","white","woman","","","","","","","","survey_race","33","","","Being my age gives me a good feeling.","filler"
"4928","","","html-slider-response","465","1888329","0.0-24.0-1.0-0.9","35773","List1A","white","woman","","","","","","","","survey_race","3","","","I have a lot in common with people of a similar age to me.","filler"
"4231.600000000093","","","html-slider-response","466","1892562","0.0-24.0-1.0-0.10","35773","List1A","white","woman","","","","","","","","survey_race","38","","","The older I get, the wiser I feel.","filler"
"5479.299999999814","","","html-slider-response","467","1898046","0.0-24.0-1.0-0.11","35773","List1A","white","woman","","","","","","","","survey_race","37","","","The fact that I am my race is an important part of my identity.","identity"
"4065","","","html-slider-response","468","1902113","0.0-24.0-1.0-0.12","35773","List1A","white","woman","","","","","","","","survey_race","46","","","I am glad to be my race.","glad"
"4996.5999999996275","","","html-slider-response","469","1907112","0.0-24.0-1.0-0.13","35773","List1A","white","woman","","","","","","","","survey_race","4","","","I am glad to be my age.","filler"
"6584","","","html-slider-response","470","1913699","0.0-24.0-1.0-0.14","35773","List1A","white","woman","","","","","","","","survey_race","33","","","People my age have a lot in common with each other.","filler"
"4225","","","html-slider-response","471","1917926","0.0-24.0-1.0-0.15","35773","List1A","white","woman","","","","","","","","survey_race","33","","","I am similar to the average person of my race.","similar"
"4882.9000000003725","","","html-slider-response","472","1922811","0.0-24.0-1.0-0.16","35773","List1A","white","woman","","","","","","","","survey_race","33","","","I feel solidarity with people the same age as me.","filler"
"4429.800000000279","","","html-slider-response","473","1927243","0.0-24.0-1.0-0.17","35773","List1A","white","woman","","","","","","","","survey_race","34","","","My age is not an important part of who I am.","filler"
"4549.899999999907","","","html-slider-response","474","1931795","0.0-24.0-1.0-0.18","35773","List1A","white","woman","","","","","","","","survey_race","20","","","I am glad to be the age I am.","filler"
"6231.300000000279","","","html-slider-response","475","1938028","0.0-24.0-1.0-0.19","35773","List1A","white","woman","","","","","","","","survey_race","63","","","Getting older does not worry me.","filler"
