rt,stimulus,button_pressed,trial_type,trial_index,time_elapsed,internal_node_id,subject,list,ppt_race,ppt_gender,url,first_guess,correct,key_press,responses,image_type,phrase_type,test_part,response,stimulus1,stimulus2,question_type,survey_item
3377,Welcome to the experiment. Press Continue to begin.,0,html-button-response,0,3382,0.0-0.0,36237,List2A,black,man,,,,,,,,,,,,,
5158.1,,,external-html,1,11672,0.0-1.0,36237,List2A,black,man,consent.html,,,,,,,,,,,,
6649.8,"<p>On the next page, you will see portraits of 8 people and their names.</p><p>Your first task is to take a few minutes to memorise the names of these people.</p><p>You will have to recall their names during the rest of the experiment, so it is</p><p>essential that you try to memorise these people and their names as best as you can.</p><br><p><strong>You will then be tested on your memory of these names and portraits.</strong></p><br><p>The experiment will start after you have completed this memory test.</p><br><p>Ready?</p>",0,html-button-response,2,18324,0.0-2.0,36237,List2A,black,man,,,,,,,,,,,,,
19669.6,"<img src='img/portrait_matrix_list2.jpg' style='width:900px;height:500px;''></img><p>If you have memorised all the portraits and names and are ready to start, press Continue.</p><p><strong>Please note: Your memory of these faces will be tested 4 times during this experiment.</strong></p>",0,html-button-response,3,39004,0.0-3.0-0.0,36237,List2A,black,man,,,,,,,,,,,,,
30770.7,"<img src=""portrait/WW2.jpg""style=""height:400px;""></img>",3,html-button-response,4,70790,0.0-3.0-1.0,36237,List2A,black,man,,TRUE,3,,,,,,,,,,
null,CORRECT,,html-keyboard-response,5,72312,0.0-3.0-2.0-0.0,36237,List2A,black,man,,,,null,,,,,,,,,
6677.7,"<img src=""portrait/BW2.jpg""style=""height:400px;""></img>",2,html-button-response,6,78992,0.0-3.0-4.0,36237,List2A,black,man,,TRUE,2,,,,,,,,,,
null,CORRECT,,html-keyboard-response,7,80504,0.0-3.0-5.0-0.0,36237,List2A,black,man,,,,null,,,,,,,,,
6635.9,"<img src=""portrait/WW1.jpg""style=""height:400px;""></img>",1,html-button-response,8,87142,0.0-3.0-7.0,36237,List2A,black,man,,TRUE,1,,,,,,,,,,
null,CORRECT,,html-keyboard-response,9,88653,0.0-3.0-8.0-0.0,36237,List2A,black,man,,,,null,,,,,,,,,
12639,"<img src=""portrait/BM2.jpg""style=""height:400px;""></img>",5,html-button-response,10,101294,0.0-3.0-10.0,36237,List2A,black,man,,TRUE,5,,,,,,,,,,
null,CORRECT,,html-keyboard-response,11,102816,0.0-3.0-11.0-0.0,36237,List2A,black,man,,,,null,,,,,,,,,
8236.5,"<img src=""portrait/BW1.jpg""style=""height:400px;""></img>",0,html-button-response,12,111054,0.0-3.0-13.0,36237,List2A,black,man,,TRUE,0,,,,,,,,,,
null,CORRECT,,html-keyboard-response,13,112562,0.0-3.0-14.0-0.0,36237,List2A,black,man,,,,null,,,,,,,,,
7058.2,"<img src=""portrait/WM2.jpg""style=""height:400px;""></img>",7,html-button-response,14,119622,0.0-3.0-16.0,36237,List2A,black,man,,TRUE,7,,,,,,,,,,
null,CORRECT,,html-keyboard-response,15,121142,0.0-3.0-17.0-0.0,36237,List2A,black,man,,,,null,,,,,,,,,
6844.5,"<img src=""portrait/WM1.jpg""style=""height:400px;""></img>",6,html-button-response,16,127988,0.0-3.0-19.0,36237,List2A,black,man,,TRUE,6,,,,,,,,,,
null,CORRECT,,html-keyboard-response,17,129517,0.0-3.0-20.0-0.0,36237,List2A,black,man,,,,null,,,,,,,,,
8322.1,"<img src=""portrait/BM1.jpg""style=""height:400px;""></img>",4,html-button-response,18,137840,0.0-3.0-22.0,36237,List2A,black,man,,TRUE,4,,,,,,,,,,
null,CORRECT,,html-keyboard-response,19,139358,0.0-3.0-23.0-0.0,36237,List2A,black,man,,,,null,,,,,,,,,
6116.7,<p>You got 8 out of 8 right first time. Press Continue.</p>,0,html-button-response,20,145481,0.0-3.0-25.0,36237,List2A,black,man,,,,,,,,,,,,,
35802,"<p>In this experiment, you will view photographs of the people from the memory game interacting.</p><p>By using the <strong>exact</strong> phrase given <i>after</i> the photograph appears and recalling the correct names of the people in the photographs, form a sentence describing the interaction. You do not need to capitalise names.</p><p>Type your answer in the space provided. Please complete every sentence before moving onto the next trial.</p><p>You will only have a few seconds to memorise each given photograph and phrase before you can respond, so try your best to focus.</p><p>An example is given below. Press 'Continue' when you are ready.</p><img src='img/speaking_example.jpg' style='width:800px;height:460px;''></img>",0,html-button-response,21,182290,0.0-4.0,36237,List2A,black,man,,,,,,,,,,,,,
3469,"<p>Before the experiment starts, you will watch two example trials. Press 'Continue'.</p>",0,html-button-response,22,186773,0.0-5.0,36237,List2A,black,man,,,,,,,,,,,,,
null,<img src='img/play_eg.gif' style='height:400px;''></img>,,html-keyboard-response,23,189780,0.0-6.0,36237,List2A,black,man,,,,null,,,,,,,,,
null,<p>is playing with</p>,,html-keyboard-response,24,191796,0.0-7.0,36237,List2A,black,man,,,,null,,,,,,,,,
9075.7,<p><b>Answer:</b> jane is playing with ruth</p>,0,html-button-response,25,200872,0.0-8.0,36237,List2A,black,man,,,,,,,,,,,,,
null,<img src='img/dance_eg.gif' style='height:400px;''></img>,,html-keyboard-response,26,203892,0.0-9.0,36237,List2A,black,man,,,,null,,,,,,,,,
null,<p>is being entertained by</p>,,html-keyboard-response,27,205905,0.0-10.0,36237,List2A,black,man,,,,null,,,,,,,,,
6528.3,<p><b>Answer:</b> fred is being entertained by mike</p>,0,html-button-response,28,212434,0.0-11.0,36237,List2A,black,man,,,,,,,,,,,,,
24557.4,"<p>Ready to start the experiment?</p><br><p><strong>Remember to describe the picture using a full sentence,</strong></p><p><strong>that combines the names of the people with the <i>exact</i> phrase given.</strong></p><p><strong>To receive full payment you must do this correctly.</strong></p><p><strong> You do not need to capitalise names or use punctuation.</strong></p><br><p>Press 'Continue' to begin.</p>",0,html-button-response,29,238005,0.0-12.0,36237,List2A,black,man,,,,,,,,,,,,,
null,"<div style=""font-size:60px;"">+</div>",,html-keyboard-response,30,239530,0.0-13.0-0.0,36237,List2A,black,man,,,,null,,,,,,,,,
null,"<img src=""stim_listA/greet7.gif""style=""height:400px;""></stim_listA>",,html-keyboard-response,31,241537,0.0-13.0-1.0,36237,List2A,black,man,,,,null,,,,,,,,,
null,is greeting,,html-keyboard-response,32,243542,0.0-13.0-2.0,36237,List2A,black,man,,,,null,,,,,,,,,
35192,,,survey-text,33,278738,0.0-13.0-3.0,36237,List2A,black,man,,,,,"{""Q0"":""jane is greeting beth""}","<img src=""stim_listA/greet7.gif""style=""height:400px;""></stim_listA>",is greeting,,,,,,
null,"<div style=""font-size:60px;"">+</div>",,html-keyboard-response,34,279246,0.0-13.0-0.1,36237,List2A,black,man,,,,null,,,,,,,,,
null,"<img src=""stim_listA/greet4.gif""style=""height:400px;""></stim_listA>",,html-keyboard-response,35,281259,0.0-13.0-1.1,36237,List2A,black,man,,,,null,,,,,,,,,
null,is being greeted by,,html-keyboard-response,36,283269,0.0-13.0-2.1,36237,List2A,black,man,,,,null,,,,,,,,,
42553.4,,,survey-text,37,325825,0.0-13.0-3.1,36237,List2A,black,man,,,,,"{""Q0"":""kate is being greeted by fred""}","<img src=""stim_listA/greet4.gif""style=""height:400px;""></stim_listA>",is being greeted by,,,,,,
null,"<div style=""font-size:60px;"">+</div>",,html-keyboard-response,38,326335,0.0-13.0-0.2,36237,List2A,black,man,,,,null,,,,,,,,,
null,"<img src=""stim_listA/challenge1.gif""style=""height:400px;""></stim_listA>",,html-keyboard-response,39,328343,0.0-13.0-1.2,36237,List2A,black,man,,,,null,,,,,,,,,
null,is challenging,,html-keyboard-response,40,330351,0.0-13.0-2.2,36237,List2A,black,man,,,,null,,,,,,,,,
40274.1,,,survey-text,41,370628,0.0-13.0-3.2,36237,List2A,black,man,,,,,"{""Q0"":""luke is challenging mike""}","<img src=""stim_listA/challenge1.gif""style=""height:400px;""></stim_listA>",is challenging,,,,,,
null,"<div style=""font-size:60px;"">+</div>",,html-keyboard-response,42,371138,0.0-13.0-0.3,36237,List2A,black,man,,,,null,,,,,,,,,
null,"<img src=""stim_listA/kiss7.gif""style=""height:400px;""></stim_listA>",,html-keyboard-response,43,373151,0.0-13.0-1.3,36237,List2A,black,man,,,,null,,,,,,,,,
null,is kissing,,html-keyboard-response,44,375158,0.0-13.0-2.3,36237,List2A,black,man,,,,null,,,,,,,,,
33417.4,,,survey-text,45,408577,0.0-13.0-3.3,36237,List2A,black,man,,,,,"{""Q0"":""beth is kissing ruth""}","<img src=""stim_listA/kiss7.gif""style=""height:400px;""></stim_listA>",is kissing,,,,,,
null,"<div style=""font-size:60px;"">+</div>",,html-keyboard-response,46,409083,0.0-13.0-0.4,36237,List2A,black,man,,,,null,,,,,,,,,
null,"<img src=""stim_listA/touch2.gif""style=""height:400px;""></stim_listA>",,html-keyboard-response,47,411086,0.0-13.0-1.4,36237,List2A,black,man,,,,null,,,,,,,,,
null,is being touched by,,html-keyboard-response,48,413102,0.0-13.0-2.4,36237,List2A,black,man,,,,null,,,,,,,,,
31148.1,,,survey-text,49,444252,0.0-13.0-3.4,36237,List2A,black,man,,,,,"{""Q0"":""luke is being touched by ruth""}","<img src=""stim_listA/touch2.gif""style=""height:400px;""></stim_listA>",is being touched by,,,,,,
null,"<div style=""font-size:60px;"">+</div>",,html-keyboard-response,50,444766,0.0-13.0-0.5,36237,List2A,black,man,,,,null,,,,,,,,,
null,"<img src=""stim_listA/seduce1.gif""style=""height:400px;""></stim_listA>",,html-keyboard-response,51,446774,0.0-13.0-1.5,36237,List2A,black,man,,,,null,,,,,,,,,
null,is seducing,,html-keyboard-response,52,448788,0.0-13.0-2.5,36237,List2A,black,man,,,,null,,,,,,,,,
31703.8,,,survey-text,53,480495,0.0-13.0-3.5,36237,List2A,black,man,,,,,"{""Q0"":""jane is seducing luke""}","<img src=""stim_listA/seduce1.gif""style=""height:400px;""></stim_listA>",is seducing,,,,,,
null,"<div style=""font-size:60px;"">+</div>",,html-keyboard-response,54,481003,0.0-13.0-0.6,36237,List2A,black,man,,,,null,,,,,,,,,
null,"<img src=""stim_listA/copy7.gif""style=""height:400px;""></stim_listA>",,html-keyboard-response,55,483013,0.0-13.0-1.6,36237,List2A,black,man,,,,null,,,,,,,,,
null,is copying,,html-keyboard-response,56,485024,0.0-13.0-2.6,36237,List2A,black,man,,,,null,,,,,,,,,
50407.9,,,survey-text,57,535435,0.0-13.0-3.6,36237,List2A,black,man,,,,,"{""Q0"":""beth is copying jane""}","<img src=""stim_listA/copy7.gif""style=""height:400px;""></stim_listA>",is copying,,,,,,
null,"<div style=""font-size:60px;"">+</div>",,html-keyboard-response,58,535943,0.0-13.0-0.7,36237,List2A,black,man,,,,null,,,,,,,,,
null,"<img src=""stim_listA/touch5.gif""style=""height:400px;""></stim_listA>",,html-keyboard-response,59,537952,0.0-13.0-1.7,36237,List2A,black,man,,,,null,,,,,,,,,
null,is touching,,html-keyboard-response,60,539961,0.0-13.0-2.7,36237,List2A,black,man,,,,null,,,,,,,,,
27695.5,,,survey-text,61,567659,0.0-13.0-3.7,36237,List2A,black,man,,,,,"{""Q0"":""mike is touching dave""}","<img src=""stim_listA/touch5.gif""style=""height:400px;""></stim_listA>",is touching,,,,,,
null,"<div style=""font-size:60px;"">+</div>",,html-keyboard-response,62,568171,0.0-13.0-0.8,36237,List2A,black,man,,,,null,,,,,,,,,
null,"<img src=""stim_listA/look4.gif""style=""height:400px;""></stim_listA>",,html-keyboard-response,63,570173,0.0-13.0-1.8,36237,List2A,black,man,,,,null,,,,,,,,,
null,is being looked at by,,html-keyboard-response,64,572184,0.0-13.0-2.8,36237,List2A,black,man,,,,null,,,,,,,,,
37386.9,,,survey-text,65,609573,0.0-13.0-3.8,36237,List2A,black,man,,,,,"{""Q0"":""mike is being looked at by kate""}","<img src=""stim_listA/look4.gif""style=""height:400px;""></stim_listA>",is being looked at by,,,,,,
null,"<div style=""font-size:60px;"">+</div>",,html-keyboard-response,66,610077,0.0-13.0-0.9,36237,List2A,black,man,,,,null,,,,,,,,,
null,"<img src=""stim_listA/shout1.gif""style=""height:400px;""></stim_listA>",,html-keyboard-response,67,612088,0.0-13.0-1.9,36237,List2A,black,man,,,,null,,,,,,,,,
null,is shouting at,,html-keyboard-response,68,614092,0.0-13.0-2.9,36237,List2A,black,man,,,,null,,,,,,,,,
51929.4,,,survey-text,69,666024,0.0-13.0-3.9,36237,List2A,black,man,,,,,"{""Q0"":""ruth is shouting at luke""}","<img src=""stim_listA/shout1.gif""style=""height:400px;""></stim_listA>",is shouting at,,,,,,
null,"<div style=""font-size:60px;"">+</div>",,html-keyboard-response,70,666532,0.0-13.0-0.10,36237,List2A,black,man,,,,null,,,,,,,,,
null,"<img src=""stim_listA/seduce8.gif""style=""height:400px;""></stim_listA>",,html-keyboard-response,71,668534,0.0-13.0-1.10,36237,List2A,black,man,,,,null,,,,,,,,,
null,is being seduced by,,html-keyboard-response,72,670549,0.0-13.0-2.10,36237,List2A,black,man,,,,null,,,,,,,,,
46373.9,,,survey-text,73,716925,0.0-13.0-3.10,36237,List2A,black,man,,,,,"{""Q0"":""beth is seducing jane""}","<img src=""stim_listA/seduce8.gif""style=""height:400px;""></stim_listA>",is being seduced by,,,,,,
null,"<div style=""font-size:60px;"">+</div>",,html-keyboard-response,74,717428,0.0-13.0-0.11,36237,List2A,black,man,,,,null,,,,,,,,,
null,"<img src=""stim_listA/kiss3.gif""style=""height:400px;""></stim_listA>",,html-keyboard-response,75,719441,0.0-13.0-1.11,36237,List2A,black,man,,,,null,,,,,,,,,
null,is kissing,,html-keyboard-response,76,721451,0.0-13.0-2.11,36237,List2A,black,man,,,,null,,,,,,,,,
19863.8,,,survey-text,77,741319,0.0-13.0-3.11,36237,List2A,black,man,,,,,"{""Q0"":""beth is kissing fred""}","<img src=""stim_listA/kiss3.gif""style=""height:400px;""></stim_listA>",is kissing,,,,,,
null,"<div style=""font-size:60px;"">+</div>",,html-keyboard-response,78,741824,0.0-13.0-0.12,36237,List2A,black,man,,,,null,,,,,,,,,
null,"<img src=""stim_listA/challenge6.gif""style=""height:400px;""></stim_listA>",,html-keyboard-response,79,743836,0.0-13.0-1.12,36237,List2A,black,man,,,,null,,,,,,,,,
null,is being challenged by,,html-keyboard-response,80,745839,0.0-13.0-2.12,36237,List2A,black,man,,,,null,,,,,,,,,
24276.8,,,survey-text,81,770121,0.0-13.0-3.12,36237,List2A,black,man,,,,,"{""Q0"":""mike is being challenged by luke""}","<img src=""stim_listA/challenge6.gif""style=""height:400px;""></stim_listA>",is being challenged by,,,,,,
null,"<div style=""font-size:60px;"">+</div>",,html-keyboard-response,82,770635,0.0-13.0-0.13,36237,List2A,black,man,,,,null,,,,,,,,,
null,"<img src=""stim_listA/look6.gif""style=""height:400px;""></stim_listA>",,html-keyboard-response,83,772651,0.0-13.0-1.13,36237,List2A,black,man,,,,null,,,,,,,,,
null,is being looked at by,,html-keyboard-response,84,774666,0.0-13.0-2.13,36237,List2A,black,man,,,,null,,,,,,,,,
14176.7,,,survey-text,85,788845,0.0-13.0-3.13,36237,List2A,black,man,,,,,"{""Q0"":""mike is being looked at by dave""}","<img src=""stim_listA/look6.gif""style=""height:400px;""></stim_listA>",is being looked at by,,,,,,
null,"<div style=""font-size:60px;"">+</div>",,html-keyboard-response,86,789361,0.0-13.0-0.14,36237,List2A,black,man,,,,null,,,,,,,,,
null,"<img src=""stim_listA/touch6.gif""style=""height:400px;""></stim_listA>",,html-keyboard-response,87,791363,0.0-13.0-1.14,36237,List2A,black,man,,,,null,,,,,,,,,
null,is being touched by,,html-keyboard-response,88,793376,0.0-13.0-2.14,36237,List2A,black,man,,,,null,,,,,,,,,
16064.2,,,survey-text,89,809443,0.0-13.0-3.14,36237,List2A,black,man,,,,,"{""Q0"":""fred is being touched by luke""}","<img src=""stim_listA/touch6.gif""style=""height:400px;""></stim_listA>",is being touched by,,,,,,
null,"<div style=""font-size:60px;"">+</div>",,html-keyboard-response,90,809948,0.0-13.0-0.15,36237,List2A,black,man,,,,null,,,,,,,,,
null,"<img src=""stim_listA/copy6.gif""style=""height:400px;""></stim_listA>",,html-keyboard-response,91,811962,0.0-13.0-1.15,36237,List2A,black,man,,,,null,,,,,,,,,
null,is being copied by,,html-keyboard-response,92,813974,0.0-13.0-2.15,36237,List2A,black,man,,,,null,,,,,,,,,
34260.4,,,survey-text,93,848237,0.0-13.0-3.15,36237,List2A,black,man,,,,,"{""Q0"":""mike is being copied by luke""}","<img src=""stim_listA/copy6.gif""style=""height:400px;""></stim_listA>",is being copied by,,,,,,
null,"<div style=""font-size:60px;"">+</div>",,html-keyboard-response,94,848750,0.0-13.0-0.16,36237,List2A,black,man,,,,null,,,,,,,,,
null,"<img src=""stim_listA/look7.gif""style=""height:400px;""></stim_listA>",,html-keyboard-response,95,850767,0.0-13.0-1.16,36237,List2A,black,man,,,,null,,,,,,,,,
null,is looking at,,html-keyboard-response,96,852783,0.0-13.0-2.16,36237,List2A,black,man,,,,null,,,,,,,,,
16965.9,,,survey-text,97,869752,0.0-13.0-3.16,36237,List2A,black,man,,,,,"{""Q0"":""ruth is looking at beth""}","<img src=""stim_listA/look7.gif""style=""height:400px;""></stim_listA>",is looking at,,,,,,
null,"<div style=""font-size:60px;"">+</div>",,html-keyboard-response,98,870267,0.0-13.0-0.17,36237,List2A,black,man,,,,null,,,,,,,,,
null,"<img src=""stim_listA/challenge8.gif""style=""height:400px;""></stim_listA>",,html-keyboard-response,99,872278,0.0-13.0-1.17,36237,List2A,black,man,,,,null,,,,,,,,,
null,is being challenged by,,html-keyboard-response,100,874293,0.0-13.0-2.17,36237,List2A,black,man,,,,null,,,,,,,,,
24999.1,,,survey-text,101,899295,0.0-13.0-3.17,36237,List2A,black,man,,,,,"{""Q0"":""ruth is being challenged by beth""}","<img src=""stim_listA/challenge8.gif""style=""height:400px;""></stim_listA>",is being challenged by,,,,,,
null,"<div style=""font-size:60px;"">+</div>",,html-keyboard-response,102,899806,0.0-13.0-0.18,36237,List2A,black,man,,,,null,,,,,,,,,
null,"<img src=""stim_listA/oppose2.gif""style=""height:400px;""></stim_listA>",,html-keyboard-response,103,901820,0.0-13.0-1.18,36237,List2A,black,man,,,,null,,,,,,,,,
null,is being opposed by,,html-keyboard-response,104,903834,0.0-13.0-2.18,36237,List2A,black,man,,,,null,,,,,,,,,
23370.4,,,survey-text,105,927207,0.0-13.0-3.18,36237,List2A,black,man,,,,,"{""Q0"":""mike is being opposed by ruth""}","<img src=""stim_listA/oppose2.gif""style=""height:400px;""></stim_listA>",is being opposed by,,,,,,
null,"<div style=""font-size:60px;"">+</div>",,html-keyboard-response,106,927714,0.0-13.0-0.19,36237,List2A,black,man,,,,null,,,,,,,,,
null,"<img src=""stim_listA/copy3.gif""style=""height:400px;""></stim_listA>",,html-keyboard-response,107,929718,0.0-13.0-1.19,36237,List2A,black,man,,,,null,,,,,,,,,
null,is copying,,html-keyboard-response,108,931723,0.0-13.0-2.19,36237,List2A,black,man,,,,null,,,,,,,,,
11852.9,,,survey-text,109,943579,0.0-13.0-3.19,36237,List2A,black,man,,,,,"{""Q0"":""mike is copying beth""}","<img src=""stim_listA/copy3.gif""style=""height:400px;""></stim_listA>",is copying,,,,,,
10471,"<img src='img/portrait_matrix_list2.jpg' style='width:900px;height:500px;''></img><p>If you have memorised all the portraits and names and are ready to start, press Continue.</p><p><strong>Please note: Your memory of these faces will be tested 4 times during this experiment.</strong></p>",0,html-button-response,110,954051,0.0-14.0-0.0,36237,List2A,black,man,,,,,,,,,,,,,
4159.5,"<img src=""portrait/WM2.jpg""style=""height:400px;""></img>",7,html-button-response,111,959225,0.0-14.0-1.0,36237,List2A,black,man,,TRUE,7,,,,,,,,,,
null,CORRECT,,html-keyboard-response,112,960741,0.0-14.0-2.0-0.0,36237,List2A,black,man,,,,null,,,,,,,,,
2933.8,"<img src=""portrait/BM2.jpg""style=""height:400px;""></img>",5,html-button-response,113,963677,0.0-14.0-4.0,36237,List2A,black,man,,TRUE,5,,,,,,,,,,
null,CORRECT,,html-keyboard-response,114,965192,0.0-14.0-5.0-0.0,36237,List2A,black,man,,,,null,,,,,,,,,
5900.7,"<img src=""portrait/BW1.jpg""style=""height:400px;""></img>",0,html-button-response,115,971094,0.0-14.0-7.0,36237,List2A,black,man,,TRUE,0,,,,,,,,,,
null,CORRECT,,html-keyboard-response,116,972610,0.0-14.0-8.0-0.0,36237,List2A,black,man,,,,null,,,,,,,,,
3249.7,"<img src=""portrait/BM1.jpg""style=""height:400px;""></img>",4,html-button-response,117,975861,0.0-14.0-10.0,36237,List2A,black,man,,TRUE,4,,,,,,,,,,
null,CORRECT,,html-keyboard-response,118,977378,0.0-14.0-11.0-0.0,36237,List2A,black,man,,,,null,,,,,,,,,
3972.6,"<img src=""portrait/WW2.jpg""style=""height:400px;""></img>",3,html-button-response,119,981352,0.0-14.0-13.0,36237,List2A,black,man,,TRUE,3,,,,,,,,,,
null,CORRECT,,html-keyboard-response,120,982876,0.0-14.0-14.0-0.0,36237,List2A,black,man,,,,null,,,,,,,,,
2174,"<img src=""portrait/WW1.jpg""style=""height:400px;""></img>",1,html-button-response,121,985052,0.0-14.0-16.0,36237,List2A,black,man,,TRUE,1,,,,,,,,,,
null,CORRECT,,html-keyboard-response,122,986574,0.0-14.0-17.0-0.0,36237,List2A,black,man,,,,null,,,,,,,,,
3142.5,"<img src=""portrait/WM1.jpg""style=""height:400px;""></img>",6,html-button-response,123,989718,0.0-14.0-19.0,36237,List2A,black,man,,TRUE,6,,,,,,,,,,
null,CORRECT,,html-keyboard-response,124,991235,0.0-14.0-20.0-0.0,36237,List2A,black,man,,,,null,,,,,,,,,
3818.9,"<img src=""portrait/BW2.jpg""style=""height:400px;""></img>",2,html-button-response,125,995055,0.0-14.0-22.0,36237,List2A,black,man,,TRUE,2,,,,,,,,,,
null,CORRECT,,html-keyboard-response,126,996575,0.0-14.0-23.0-0.0,36237,List2A,black,man,,,,null,,,,,,,,,
2238.7,<p>You got 8 out of 8 right first time. Press Continue.</p>,0,html-button-response,127,998815,0.0-14.0-25.0,36237,List2A,black,man,,,,,,,,,,,,,
null,"<div style=""font-size:60px;"">+</div>",,html-keyboard-response,128,1000333,0.0-15.0-0.0,36237,List2A,black,man,,,,null,,,,,,,,,
null,"<img src=""stim_listA/copy2.gif""style=""height:400px;""></stim_listA>",,html-keyboard-response,129,1002336,0.0-15.0-1.0,36237,List2A,black,man,,,,null,,,,,,,,,
null,is being copied by,,html-keyboard-response,130,1004347,0.0-15.0-2.0,36237,List2A,black,man,,,,null,,,,,,,,,
20961.7,,,survey-text,131,1025312,0.0-15.0-3.0,36237,List2A,black,man,,,,,"{""Q0"":""luke is being copied by jane""}","<img src=""stim_listA/copy2.gif""style=""height:400px;""></stim_listA>",is being copied by,,,,,,
null,"<div style=""font-size:60px;"">+</div>",,html-keyboard-response,132,1025818,0.0-15.0-0.1,36237,List2A,black,man,,,,null,,,,,,,,,
null,"<img src=""stim_listA/touch8.gif""style=""height:400px;""></stim_listA>",,html-keyboard-response,133,1027831,0.0-15.0-1.1,36237,List2A,black,man,,,,null,,,,,,,,,
null,is being touched by,,html-keyboard-response,134,1029847,0.0-15.0-2.1,36237,List2A,black,man,,,,null,,,,,,,,,
262967.9,,,survey-text,135,1292816,0.0-15.0-3.1,36237,List2A,black,man,,,,,"{""Q0"":""beth is being touched by ruth""}","<img src=""stim_listA/touch8.gif""style=""height:400px;""></stim_listA>",is being touched by,,,,,,
null,"<div style=""font-size:60px;"">+</div>",,html-keyboard-response,136,1293319,0.0-15.0-0.2,36237,List2A,black,man,,,,null,,,,,,,,,
null,"<img src=""stim_listA/seduce4.gif""style=""height:400px;""></stim_listA>",,html-keyboard-response,137,1295331,0.0-15.0-1.2,36237,List2A,black,man,,,,null,,,,,,,,,
null,is being seduced by,,html-keyboard-response,138,1297342,0.0-15.0-2.2,36237,List2A,black,man,,,,null,,,,,,,,,
21125.8,,,survey-text,139,1318470,0.0-15.0-3.2,36237,List2A,black,man,,,,,"{""Q0"":""mike is being seduced by beth""}","<img src=""stim_listA/seduce4.gif""style=""height:400px;""></stim_listA>",is being seduced by,,,,,,
null,"<div style=""font-size:60px;"">+</div>",,html-keyboard-response,140,1318973,0.0-15.0-0.3,36237,List2A,black,man,,,,null,,,,,,,,,
null,"<img src=""stim_listA/shout3.gif""style=""height:400px;""></stim_listA>",,html-keyboard-response,141,1320975,0.0-15.0-1.3,36237,List2A,black,man,,,,null,,,,,,,,,
null,is shouting at,,html-keyboard-response,142,1322976,0.0-15.0-2.3,36237,List2A,black,man,,,,null,,,,,,,,,
45921,,,survey-text,143,1368900,0.0-15.0-3.3,36237,List2A,black,man,,,,,"{""Q0"":""fred is shouting at beth""}","<img src=""stim_listA/shout3.gif""style=""height:400px;""></stim_listA>",is shouting at,,,,,,
null,"<div style=""font-size:60px;"">+</div>",,html-keyboard-response,144,1369413,0.0-15.0-0.4,36237,List2A,black,man,,,,null,,,,,,,,,
null,"<img src=""stim_listA/greet1.gif""style=""height:400px;""></stim_listA>",,html-keyboard-response,145,1371416,0.0-15.0-1.4,36237,List2A,black,man,,,,null,,,,,,,,,
null,is greeting,,html-keyboard-response,146,1373421,0.0-15.0-2.4,36237,List2A,black,man,,,,null,,,,,,,,,
24028.7,,,survey-text,147,1397452,0.0-15.0-3.4,36237,List2A,black,man,,,,,"{""Q0"":""dave is greeting ruth""}","<img src=""stim_listA/greet1.gif""style=""height:400px;""></stim_listA>",is greeting,,,,,,
null,"<div style=""font-size:60px;"">+</div>",,html-keyboard-response,148,1397956,0.0-15.0-0.5,36237,List2A,black,man,,,,null,,,,,,,,,
null,"<img src=""stim_listA/greet5.gif""style=""height:400px;""></stim_listA>",,html-keyboard-response,149,1399970,0.0-15.0-1.5,36237,List2A,black,man,,,,null,,,,,,,,,
null,is greeting,,html-keyboard-response,150,1401974,0.0-15.0-2.5,36237,List2A,black,man,,,,null,,,,,,,,,
8422,,,survey-text,151,1410399,0.0-15.0-3.5,36237,List2A,black,man,,,,,"{""Q0"":""dave is greeting fred""}","<img src=""stim_listA/greet5.gif""style=""height:400px;""></stim_listA>",is greeting,,,,,,
null,"<div style=""font-size:60px;"">+</div>",,html-keyboard-response,152,1410913,0.0-15.0-0.6,36237,List2A,black,man,,,,null,,,,,,,,,
null,"<img src=""stim_listA/challenge5.gif""style=""height:400px;""></stim_listA>",,html-keyboard-response,153,1412915,0.0-15.0-1.6,36237,List2A,black,man,,,,null,,,,,,,,,
null,is challenging,,html-keyboard-response,154,1414918,0.0-15.0-2.6,36237,List2A,black,man,,,,null,,,,,,,,,
11309.5,,,survey-text,155,1426230,0.0-15.0-3.6,36237,List2A,black,man,,,,,"{""Q0"":""dave is challenging fred""}","<img src=""stim_listA/challenge5.gif""style=""height:400px;""></stim_listA>",is challenging,,,,,,
null,"<div style=""font-size:60px;"">+</div>",,html-keyboard-response,156,1426742,0.0-15.0-0.7,36237,List2A,black,man,,,,null,,,,,,,,,
null,"<img src=""stim_listA/look5.gif""style=""height:400px;""></stim_listA>",,html-keyboard-response,157,1428761,0.0-15.0-1.7,36237,List2A,black,man,,,,null,,,,,,,,,
null,is looking at,,html-keyboard-response,158,1430769,0.0-15.0-2.7,36237,List2A,black,man,,,,null,,,,,,,,,
12195.3,,,survey-text,159,1442967,0.0-15.0-3.7,36237,List2A,black,man,,,,,"{""Q0"":""luke is looking at fred""}","<img src=""stim_listA/look5.gif""style=""height:400px;""></stim_listA>",is looking at,,,,,,
null,"<div style=""font-size:60px;"">+</div>",,html-keyboard-response,160,1443474,0.0-15.0-0.8,36237,List2A,black,man,,,,null,,,,,,,,,
null,"<img src=""stim_listA/greet8.gif""style=""height:400px;""></stim_listA>",,html-keyboard-response,161,1445483,0.0-15.0-1.8,36237,List2A,black,man,,,,null,,,,,,,,,
null,is being greeted by,,html-keyboard-response,162,1447492,0.0-15.0-2.8,36237,List2A,black,man,,,,null,,,,,,,,,
22353.3,,,survey-text,163,1469849,0.0-15.0-3.8,36237,List2A,black,man,,,,,"{""Q0"":""ruth is being greeted by kate""}","<img src=""stim_listA/greet8.gif""style=""height:400px;""></stim_listA>",is being greeted by,,,,,,
null,"<div style=""font-size:60px;"">+</div>",,html-keyboard-response,164,1470358,0.0-15.0-0.9,36237,List2A,black,man,,,,null,,,,,,,,,
null,"<img src=""stim_listA/hug7.gif""style=""height:400px;""></stim_listA>",,html-keyboard-response,165,1472367,0.0-15.0-1.9,36237,List2A,black,man,,,,null,,,,,,,,,
null,is hugging,,html-keyboard-response,166,1474378,0.0-15.0-2.9,36237,List2A,black,man,,,,null,,,,,,,,,
7662.8,,,survey-text,167,1482043,0.0-15.0-3.9,36237,List2A,black,man,,,,,"{""Q0"":""beth is hugging ruth""}","<img src=""stim_listA/hug7.gif""style=""height:400px;""></stim_listA>",is hugging,,,,,,
null,"<div style=""font-size:60px;"">+</div>",,html-keyboard-response,168,1482548,0.0-15.0-0.10,36237,List2A,black,man,,,,null,,,,,,,,,
null,"<img src=""stim_listA/greet6.gif""style=""height:400px;""></stim_listA>",,html-keyboard-response,169,1484551,0.0-15.0-1.10,36237,List2A,black,man,,,,null,,,,,,,,,
null,is being greeted by,,html-keyboard-response,170,1486554,0.0-15.0-2.10,36237,List2A,black,man,,,,null,,,,,,,,,
10204.9,,,survey-text,171,1496762,0.0-15.0-3.10,36237,List2A,black,man,,,,,"{""Q0"":""mike is being greeted by luke""}","<img src=""stim_listA/greet6.gif""style=""height:400px;""></stim_listA>",is being greeted by,,,,,,
null,"<div style=""font-size:60px;"">+</div>",,html-keyboard-response,172,1497272,0.0-15.0-0.11,36237,List2A,black,man,,,,null,,,,,,,,,
null,"<img src=""stim_listA/hug2.gif""style=""height:400px;""></stim_listA>",,html-keyboard-response,173,1499274,0.0-15.0-1.11,36237,List2A,black,man,,,,null,,,,,,,,,
null,is being hugged by,,html-keyboard-response,174,1501276,0.0-15.0-2.11,36237,List2A,black,man,,,,null,,,,,,,,,
18976.1,,,survey-text,175,1520254,0.0-15.0-3.11,36237,List2A,black,man,,,,,"{""Q0"":""dave is being hugged by jane""}","<img src=""stim_listA/hug2.gif""style=""height:400px;""></stim_listA>",is being hugged by,,,,,,
null,"<div style=""font-size:60px;"">+</div>",,html-keyboard-response,176,1520761,0.0-15.0-0.12,36237,List2A,black,man,,,,null,,,,,,,,,
null,"<img src=""stim_listA/shout8.gif""style=""height:400px;""></stim_listA>",,html-keyboard-response,177,1522764,0.0-15.0-1.12,36237,List2A,black,man,,,,null,,,,,,,,,
null,is being shouted at by,,html-keyboard-response,178,1524769,0.0-15.0-2.12,36237,List2A,black,man,,,,null,,,,,,,,,
18158.8,,,survey-text,179,1542930,0.0-15.0-3.12,36237,List2A,black,man,,,,,"{""Q0"":""jane is being shouted at by kate""}","<img src=""stim_listA/shout8.gif""style=""height:400px;""></stim_listA>",is being shouted at by,,,,,,
null,"<div style=""font-size:60px;"">+</div>",,html-keyboard-response,180,1543446,0.0-15.0-0.13,36237,List2A,black,man,,,,null,,,,,,,,,
null,"<img src=""stim_listA/greet2.gif""style=""height:400px;""></stim_listA>",,html-keyboard-response,181,1545449,0.0-15.0-1.13,36237,List2A,black,man,,,,null,,,,,,,,,
null,is being greeted by,,html-keyboard-response,182,1547463,0.0-15.0-2.13,36237,List2A,black,man,,,,null,,,,,,,,,
22253.8,,,survey-text,183,1569720,0.0-15.0-3.13,36237,List2A,black,man,,,,,"{""Q0"":""luke is being greeted by jane""}","<img src=""stim_listA/greet2.gif""style=""height:400px;""></stim_listA>",is being greeted by,,,,,,
null,"<div style=""font-size:60px;"">+</div>",,html-keyboard-response,184,1570237,0.0-15.0-0.14,36237,List2A,black,man,,,,null,,,,,,,,,
null,"<img src=""stim_listA/oppose1.gif""style=""height:400px;""></stim_listA>",,html-keyboard-response,185,1572246,0.0-15.0-1.14,36237,List2A,black,man,,,,null,,,,,,,,,
null,is opposing,,html-keyboard-response,186,1574252,0.0-15.0-2.14,36237,List2A,black,man,,,,null,,,,,,,,,
10969.6,,,survey-text,187,1585224,0.0-15.0-3.14,36237,List2A,black,man,,,,,"{""Q0"":""dave is opposing jane""}","<img src=""stim_listA/oppose1.gif""style=""height:400px;""></stim_listA>",is opposing,,,,,,
null,"<div style=""font-size:60px;"">+</div>",,html-keyboard-response,188,1585733,0.0-15.0-0.15,36237,List2A,black,man,,,,null,,,,,,,,,
null,"<img src=""stim_listA/kiss6.gif""style=""height:400px;""></stim_listA>",,html-keyboard-response,189,1587743,0.0-15.0-1.15,36237,List2A,black,man,,,,null,,,,,,,,,
null,is being kissed by,,html-keyboard-response,190,1589752,0.0-15.0-2.15,36237,List2A,black,man,,,,null,,,,,,,,,
13621.4,,,survey-text,191,1603376,0.0-15.0-3.15,36237,List2A,black,man,,,,,"{""Q0"":""mike is being kissed by dave""}","<img src=""stim_listA/kiss6.gif""style=""height:400px;""></stim_listA>",is being kissed by,,,,,,
null,"<div style=""font-size:60px;"">+</div>",,html-keyboard-response,192,1603882,0.0-15.0-0.16,36237,List2A,black,man,,,,null,,,,,,,,,
null,"<img src=""stim_listA/seduce6.gif""style=""height:400px;""></stim_listA>",,html-keyboard-response,193,1605895,0.0-15.0-1.16,36237,List2A,black,man,,,,null,,,,,,,,,
null,is being seduced by,,html-keyboard-response,194,1607910,0.0-15.0-2.16,36237,List2A,black,man,,,,null,,,,,,,,,
19318.7,,,survey-text,195,1627233,0.0-15.0-3.16,36237,List2A,black,man,,,,,"{""Q0"":""dave is being seduced by fred""}","<img src=""stim_listA/seduce6.gif""style=""height:400px;""></stim_listA>",is being seduced by,,,,,,
null,"<div style=""font-size:60px;"">+</div>",,html-keyboard-response,196,1627742,0.0-15.0-0.17,36237,List2A,black,man,,,,null,,,,,,,,,
null,"<img src=""stim_listA/look1.gif""style=""height:400px;""></stim_listA>",,html-keyboard-response,197,1629758,0.0-15.0-1.17,36237,List2A,black,man,,,,null,,,,,,,,,
null,is looking at,,html-keyboard-response,198,1631774,0.0-15.0-2.17,36237,List2A,black,man,,,,null,,,,,,,,,
18135.2,,,survey-text,199,1649913,0.0-15.0-3.17,36237,List2A,black,man,,,,,"{""Q0"":""ruth is looking at luke""}","<img src=""stim_listA/look1.gif""style=""height:400px;""></stim_listA>",is looking at,,,,,,
null,"<div style=""font-size:60px;"">+</div>",,html-keyboard-response,200,1650422,0.0-15.0-0.18,36237,List2A,black,man,,,,null,,,,,,,,,
null,"<img src=""stim_listA/challenge4.gif""style=""height:400px;""></stim_listA>",,html-keyboard-response,201,1652425,0.0-15.0-1.18,36237,List2A,black,man,,,,null,,,,,,,,,
null,is being challenged by,,html-keyboard-response,202,1654441,0.0-15.0-2.18,36237,List2A,black,man,,,,null,,,,,,,,,
12812.4,,,survey-text,203,1667256,0.0-15.0-3.18,36237,List2A,black,man,,,,,"{""Q0"":""kate is being challenged by fred""}","<img src=""stim_listA/challenge4.gif""style=""height:400px;""></stim_listA>",is being challenged by,,,,,,
null,"<div style=""font-size:60px;"">+</div>",,html-keyboard-response,204,1667771,0.0-15.0-0.19,36237,List2A,black,man,,,,null,,,,,,,,,
null,"<img src=""stim_listA/seduce3.gif""style=""height:400px;""></stim_listA>",,html-keyboard-response,205,1669780,0.0-15.0-1.19,36237,List2A,black,man,,,,null,,,,,,,,,
null,is seducing,,html-keyboard-response,206,1671788,0.0-15.0-2.19,36237,List2A,black,man,,,,null,,,,,,,,,
11703.5,,,survey-text,207,1683495,0.0-15.0-3.19,36237,List2A,black,man,,,,,"{""Q0"":""kate is seducing  fred""}","<img src=""stim_listA/seduce3.gif""style=""height:400px;""></stim_listA>",is seducing,,,,,,
1742597.7,"<img src='img/portrait_matrix_list2.jpg' style='width:900px;height:500px;''></img><p>If you have memorised all the portraits and names and are ready to start, press Continue.</p><p><strong>Please note: Your memory of these faces will be tested 4 times during this experiment.</strong></p>",0,html-button-response,208,3426093,0.0-16.0-0.0,36237,List2A,black,man,,,,,,,,,,,,,
4069.6,"<img src=""portrait/BM2.jpg""style=""height:400px;""></img>",5,html-button-response,209,3431166,0.0-16.0-1.0,36237,List2A,black,man,,TRUE,5,,,,,,,,,,
null,CORRECT,,html-keyboard-response,210,3432697,0.0-16.0-2.0-0.0,36237,List2A,black,man,,,,null,,,,,,,,,
3224.1,"<img src=""portrait/WW1.jpg""style=""height:400px;""></img>",1,html-button-response,211,3435923,0.0-16.0-4.0,36237,List2A,black,man,,TRUE,1,,,,,,,,,,
null,CORRECT,,html-keyboard-response,212,3437432,0.0-16.0-5.0-0.0,36237,List2A,black,man,,,,null,,,,,,,,,
2778.1,"<img src=""portrait/WM2.jpg""style=""height:400px;""></img>",7,html-button-response,213,3440212,0.0-16.0-7.0,36237,List2A,black,man,,TRUE,7,,,,,,,,,,
null,CORRECT,,html-keyboard-response,214,3441717,0.0-16.0-8.0-0.0,36237,List2A,black,man,,,,null,,,,,,,,,
2935.5,"<img src=""portrait/BW2.jpg""style=""height:400px;""></img>",2,html-button-response,215,3444654,0.0-16.0-10.0,36237,List2A,black,man,,TRUE,2,,,,,,,,,,
null,CORRECT,,html-keyboard-response,216,3446171,0.0-16.0-11.0-0.0,36237,List2A,black,man,,,,null,,,,,,,,,
3325,"<img src=""portrait/WW2.jpg""style=""height:400px;""></img>",3,html-button-response,217,3449497,0.0-16.0-13.0,36237,List2A,black,man,,TRUE,3,,,,,,,,,,
null,CORRECT,,html-keyboard-response,218,3451023,0.0-16.0-14.0-0.0,36237,List2A,black,man,,,,null,,,,,,,,,
2880.9,"<img src=""portrait/BM1.jpg""style=""height:400px;""></img>",4,html-button-response,219,3453905,0.0-16.0-16.0,36237,List2A,black,man,,TRUE,4,,,,,,,,,,
null,CORRECT,,html-keyboard-response,220,3455414,0.0-16.0-17.0-0.0,36237,List2A,black,man,,,,null,,,,,,,,,
7587.6,"<img src=""portrait/BW1.jpg""style=""height:400px;""></img>",0,html-button-response,221,3463003,0.0-16.0-19.0,36237,List2A,black,man,,TRUE,0,,,,,,,,,,
null,CORRECT,,html-keyboard-response,222,3464522,0.0-16.0-20.0-0.0,36237,List2A,black,man,,,,null,,,,,,,,,
4185.1,"<img src=""portrait/WM1.jpg""style=""height:400px;""></img>",6,html-button-response,223,3468709,0.0-16.0-22.0,36237,List2A,black,man,,TRUE,6,,,,,,,,,,
null,CORRECT,,html-keyboard-response,224,3470226,0.0-16.0-23.0-0.0,36237,List2A,black,man,,,,null,,,,,,,,,
6977.1,<p>You got 8 out of 8 right first time. Press Continue.</p>,0,html-button-response,225,3477207,0.0-16.0-25.0,36237,List2A,black,man,,,,,,,,,,,,,
null,"<div style=""font-size:60px;"">+</div>",,html-keyboard-response,226,3478716,0.0-17.0-0.0,36237,List2A,black,man,,,,null,,,,,,,,,
null,"<img src=""stim_listA/kiss1.gif""style=""height:400px;""></stim_listA>",,html-keyboard-response,227,3480727,0.0-17.0-1.0,36237,List2A,black,man,,,,null,,,,,,,,,
null,is kissing,,html-keyboard-response,228,3482728,0.0-17.0-2.0,36237,List2A,black,man,,,,null,,,,,,,,,
16939.4,,,survey-text,229,3499671,0.0-17.0-3.0,36237,List2A,black,man,,,,,"{""Q0"":""luke is kissing ruth""}","<img src=""stim_listA/kiss1.gif""style=""height:400px;""></stim_listA>",is kissing,,,,,,
null,"<div style=""font-size:60px;"">+</div>",,html-keyboard-response,230,3500182,0.0-17.0-0.1,36237,List2A,black,man,,,,null,,,,,,,,,
null,"<img src=""stim_listA/touch3.gif""style=""height:400px;""></stim_listA>",,html-keyboard-response,231,3502186,0.0-17.0-1.1,36237,List2A,black,man,,,,null,,,,,,,,,
null,is touching,,html-keyboard-response,232,3504192,0.0-17.0-2.1,36237,List2A,black,man,,,,null,,,,,,,,,
19357.2,,,survey-text,233,3523552,0.0-17.0-3.1,36237,List2A,black,man,,,,,"{""Q0"":""kate is touching mike""}","<img src=""stim_listA/touch3.gif""style=""height:400px;""></stim_listA>",is touching,,,,,,
null,"<div style=""font-size:60px;"">+</div>",,html-keyboard-response,234,3524058,0.0-17.0-0.2,36237,List2A,black,man,,,,null,,,,,,,,,
null,"<img src=""stim_listA/look3.gif""style=""height:400px;""></stim_listA>",,html-keyboard-response,235,3526064,0.0-17.0-1.2,36237,List2A,black,man,,,,null,,,,,,,,,
null,is looking at,,html-keyboard-response,236,3528065,0.0-17.0-2.2,36237,List2A,black,man,,,,null,,,,,,,,,
9585.2,,,survey-text,237,3537653,0.0-17.0-3.2,36237,List2A,black,man,,,,,"{""Q0"":""fred is looking at beth""}","<img src=""stim_listA/look3.gif""style=""height:400px;""></stim_listA>",is looking at,,,,,,
null,"<div style=""font-size:60px;"">+</div>",,html-keyboard-response,238,3538170,0.0-17.0-0.3,36237,List2A,black,man,,,,null,,,,,,,,,
null,"<img src=""stim_listA/shout7.gif""style=""height:400px;""></stim_listA>",,html-keyboard-response,239,3540182,0.0-17.0-1.3,36237,List2A,black,man,,,,null,,,,,,,,,
null,is shouting at,,html-keyboard-response,240,3542189,0.0-17.0-2.3,36237,List2A,black,man,,,,null,,,,,,,,,
11689.3,,,survey-text,241,3553881,0.0-17.0-3.3,36237,List2A,black,man,,,,,"{""Q0"":""beth is shouting at ruth""}","<img src=""stim_listA/shout7.gif""style=""height:400px;""></stim_listA>",is shouting at,,,,,,
null,"<div style=""font-size:60px;"">+</div>",,html-keyboard-response,242,3554394,0.0-17.0-0.4,36237,List2A,black,man,,,,null,,,,,,,,,
null,"<img src=""stim_listA/kiss5.gif""style=""height:400px;""></stim_listA>",,html-keyboard-response,243,3556404,0.0-17.0-1.4,36237,List2A,black,man,,,,null,,,,,,,,,
null,is kissing,,html-keyboard-response,244,3558410,0.0-17.0-2.4,36237,List2A,black,man,,,,null,,,,,,,,,
12807.4,,,survey-text,245,3571220,0.0-17.0-3.4,36237,List2A,black,man,,,,,"{""Q0"":""fred is kissing  luke""}","<img src=""stim_listA/kiss5.gif""style=""height:400px;""></stim_listA>",is kissing,,,,,,
null,"<div style=""font-size:60px;"">+</div>",,html-keyboard-response,246,3571725,0.0-17.0-0.5,36237,List2A,black,man,,,,null,,,,,,,,,
null,"<img src=""stim_listA/oppose4.gif""style=""height:400px;""></stim_listA>",,html-keyboard-response,247,3573737,0.0-17.0-1.5,36237,List2A,black,man,,,,null,,,,,,,,,
null,is being opposed by,,html-keyboard-response,248,3575738,0.0-17.0-2.5,36237,List2A,black,man,,,,null,,,,,,,,,
18932.8,,,survey-text,249,3594673,0.0-17.0-3.5,36237,List2A,black,man,,,,,"{""Q0"":""fred is being opposed by beth""}","<img src=""stim_listA/oppose4.gif""style=""height:400px;""></stim_listA>",is being opposed by,,,,,,
null,"<div style=""font-size:60px;"">+</div>",,html-keyboard-response,250,3595180,0.0-17.0-0.6,36237,List2A,black,man,,,,null,,,,,,,,,
null,"<img src=""stim_listA/shout4.gif""style=""height:400px;""></stim_listA>",,html-keyboard-response,251,3597189,0.0-17.0-1.6,36237,List2A,black,man,,,,null,,,,,,,,,
null,is being shouted at by,,html-keyboard-response,252,3599194,0.0-17.0-2.6,36237,List2A,black,man,,,,null,,,,,,,,,
11776.5,,,survey-text,253,3610973,0.0-17.0-3.6,36237,List2A,black,man,,,,,"{""Q0"":""mike is being shouted at by kate""}","<img src=""stim_listA/shout4.gif""style=""height:400px;""></stim_listA>",is being shouted at by,,,,,,
null,"<div style=""font-size:60px;"">+</div>",,html-keyboard-response,254,3611479,0.0-17.0-0.7,36237,List2A,black,man,,,,null,,,,,,,,,
null,"<img src=""stim_listA/kiss8.gif""style=""height:400px;""></stim_listA>",,html-keyboard-response,255,3613486,0.0-17.0-1.7,36237,List2A,black,man,,,,null,,,,,,,,,
null,is being kissed by,,html-keyboard-response,256,3615498,0.0-17.0-2.7,36237,List2A,black,man,,,,null,,,,,,,,,
11742.3,,,survey-text,257,3627243,0.0-17.0-3.7,36237,List2A,black,man,,,,,"{""Q0"":""kate is being kissed by jane""}","<img src=""stim_listA/kiss8.gif""style=""height:400px;""></stim_listA>",is being kissed by,,,,,,
null,"<div style=""font-size:60px;"">+</div>",,html-keyboard-response,258,3627754,0.0-17.0-0.8,36237,List2A,black,man,,,,null,,,,,,,,,
null,"<img src=""stim_listA/oppose5.gif""style=""height:400px;""></stim_listA>",,html-keyboard-response,259,3629764,0.0-17.0-1.8,36237,List2A,black,man,,,,null,,,,,,,,,
null,is opposing,,html-keyboard-response,260,3631771,0.0-17.0-2.8,36237,List2A,black,man,,,,null,,,,,,,,,
11740.4,,,survey-text,261,3643515,0.0-17.0-3.8,36237,List2A,black,man,,,,,"{""Q0"":""mike is opposing dave""}","<img src=""stim_listA/oppose5.gif""style=""height:400px;""></stim_listA>",is opposing,,,,,,
null,"<div style=""font-size:60px;"">+</div>",,html-keyboard-response,262,3644020,0.0-17.0-0.9,36237,List2A,black,man,,,,null,,,,,,,,,
null,"<img src=""stim_listA/oppose3.gif""style=""height:400px;""></stim_listA>",,html-keyboard-response,263,3646031,0.0-17.0-1.9,36237,List2A,black,man,,,,null,,,,,,,,,
null,is opposing,,html-keyboard-response,264,3648038,0.0-17.0-2.9,36237,List2A,black,man,,,,null,,,,,,,,,
10236.6,,,survey-text,265,3658276,0.0-17.0-3.9,36237,List2A,black,man,,,,,"{""Q0"":""mike is opposing kate""}","<img src=""stim_listA/oppose3.gif""style=""height:400px;""></stim_listA>",is opposing,,,,,,
null,"<div style=""font-size:60px;"">+</div>",,html-keyboard-response,266,3658791,0.0-17.0-0.10,36237,List2A,black,man,,,,null,,,,,,,,,
null,"<img src=""stim_listA/look8.gif""style=""height:400px;""></stim_listA>",,html-keyboard-response,267,3660794,0.0-17.0-1.10,36237,List2A,black,man,,,,null,,,,,,,,,
null,is being looked at by,,html-keyboard-response,268,3662799,0.0-17.0-2.10,36237,List2A,black,man,,,,null,,,,,,,,,
17359.4,,,survey-text,269,3680162,0.0-17.0-3.10,36237,List2A,black,man,,,,,"{""Q0"":""kate is being looked at by jane""}","<img src=""stim_listA/look8.gif""style=""height:400px;""></stim_listA>",is being looked at by,,,,,,
null,"<div style=""font-size:60px;"">+</div>",,html-keyboard-response,270,3680666,0.0-17.0-0.11,36237,List2A,black,man,,,,null,,,,,,,,,
null,"<img src=""stim_listA/touch1.gif""style=""height:400px;""></stim_listA>",,html-keyboard-response,271,3682668,0.0-17.0-1.11,36237,List2A,black,man,,,,null,,,,,,,,,
null,is touching,,html-keyboard-response,272,3684669,0.0-17.0-2.11,36237,List2A,black,man,,,,null,,,,,,,,,
12911.5,,,survey-text,273,3697583,0.0-17.0-3.11,36237,List2A,black,man,,,,,"{""Q0"":""dave is touching jane""}","<img src=""stim_listA/touch1.gif""style=""height:400px;""></stim_listA>",is touching,,,,,,
null,"<div style=""font-size:60px;"">+</div>",,html-keyboard-response,274,3698091,0.0-17.0-0.12,36237,List2A,black,man,,,,null,,,,,,,,,
null,"<img src=""stim_listA/challenge3.gif""style=""height:400px;""></stim_listA>",,html-keyboard-response,275,3700108,0.0-17.0-1.12,36237,List2A,black,man,,,,null,,,,,,,,,
null,is challenging,,html-keyboard-response,276,3702110,0.0-17.0-2.12,36237,List2A,black,man,,,,null,,,,,,,,,
11660,,,survey-text,277,3713772,0.0-17.0-3.12,36237,List2A,black,man,,,,,"{""Q0"":""beth is challenging mike""}","<img src=""stim_listA/challenge3.gif""style=""height:400px;""></stim_listA>",is challenging,,,,,,
null,"<div style=""font-size:60px;"">+</div>",,html-keyboard-response,278,3714283,0.0-17.0-0.13,36237,List2A,black,man,,,,null,,,,,,,,,
null,"<img src=""stim_listA/challenge2.gif""style=""height:400px;""></stim_listA>",,html-keyboard-response,279,3716294,0.0-17.0-1.13,36237,List2A,black,man,,,,null,,,,,,,,,
null,is being challenged by,,html-keyboard-response,280,3718299,0.0-17.0-2.13,36237,List2A,black,man,,,,null,,,,,,,,,
25664.6,,,survey-text,281,3743966,0.0-17.0-3.13,36237,List2A,black,man,,,,,"{""Q0"":""luke is being challenged by jane ""}","<img src=""stim_listA/challenge2.gif""style=""height:400px;""></stim_listA>",is being challenged by,,,,,,
null,"<div style=""font-size:60px;"">+</div>",,html-keyboard-response,282,3744477,0.0-17.0-0.14,36237,List2A,black,man,,,,null,,,,,,,,,
null,"<img src=""stim_listA/hug8.gif""style=""height:400px;""></stim_listA>",,html-keyboard-response,283,3746486,0.0-17.0-1.14,36237,List2A,black,man,,,,null,,,,,,,,,
null,is being hugged by,,html-keyboard-response,284,3748494,0.0-17.0-2.14,36237,List2A,black,man,,,,null,,,,,,,,,
10190.3,,,survey-text,285,3758687,0.0-17.0-3.14,36237,List2A,black,man,,,,,"{""Q0"":""jane is being hugged by kate""}","<img src=""stim_listA/hug8.gif""style=""height:400px;""></stim_listA>",is being hugged by,,,,,,
null,"<div style=""font-size:60px;"">+</div>",,html-keyboard-response,286,3759195,0.0-17.0-0.15,36237,List2A,black,man,,,,null,,,,,,,,,
null,"<img src=""stim_listA/oppose6.gif""style=""height:400px;""></stim_listA>",,html-keyboard-response,287,3761203,0.0-17.0-1.15,36237,List2A,black,man,,,,null,,,,,,,,,
null,is being opposed by,,html-keyboard-response,288,3763205,0.0-17.0-2.15,36237,List2A,black,man,,,,null,,,,,,,,,
37583.7,,,survey-text,289,3800791,0.0-17.0-3.15,36237,List2A,black,man,,,,,"{""Q0"":""kate is being opposed by jane""}","<img src=""stim_listA/oppose6.gif""style=""height:400px;""></stim_listA>",is being opposed by,,,,,,
null,"<div style=""font-size:60px;"">+</div>",,html-keyboard-response,290,3801308,0.0-17.0-0.16,36237,List2A,black,man,,,,null,,,,,,,,,
null,"<img src=""stim_listA/hug3.gif""style=""height:400px;""></stim_listA>",,html-keyboard-response,291,3803318,0.0-17.0-1.16,36237,List2A,black,man,,,,null,,,,,,,,,
null,is hugging,,html-keyboard-response,292,3805329,0.0-17.0-2.16,36237,List2A,black,man,,,,null,,,,,,,,,
12629.6,,,survey-text,293,3817961,0.0-17.0-3.16,36237,List2A,black,man,,,,,"{""Q0"":""beth is hugging fred""}","<img src=""stim_listA/hug3.gif""style=""height:400px;""></stim_listA>",is hugging,,,,,,
null,"<div style=""font-size:60px;"">+</div>",,html-keyboard-response,294,3818476,0.0-17.0-0.17,36237,List2A,black,man,,,,null,,,,,,,,,
null,"<img src=""stim_listA/seduce7.gif""style=""height:400px;""></stim_listA>",,html-keyboard-response,295,3820482,0.0-17.0-1.17,36237,List2A,black,man,,,,null,,,,,,,,,
null,is seducing,,html-keyboard-response,296,3822495,0.0-17.0-2.17,36237,List2A,black,man,,,,null,,,,,,,,,
9443.4,,,survey-text,297,3831940,0.0-17.0-3.17,36237,List2A,black,man,,,,,"{""Q0"":""ruth is seducing kate""}","<img src=""stim_listA/seduce7.gif""style=""height:400px;""></stim_listA>",is seducing,,,,,,
null,"<div style=""font-size:60px;"">+</div>",,html-keyboard-response,298,3832454,0.0-17.0-0.18,36237,List2A,black,man,,,,null,,,,,,,,,
null,"<img src=""stim_listA/copy1.gif""style=""height:400px;""></stim_listA>",,html-keyboard-response,299,3834462,0.0-17.0-1.18,36237,List2A,black,man,,,,null,,,,,,,,,
null,is copying,,html-keyboard-response,300,3836473,0.0-17.0-2.18,36237,List2A,black,man,,,,null,,,,,,,,,
11940.4,,,survey-text,301,3848416,0.0-17.0-3.18,36237,List2A,black,man,,,,,"{""Q0"":""ruth is copying dave""}","<img src=""stim_listA/copy1.gif""style=""height:400px;""></stim_listA>",is copying,,,,,,
null,"<div style=""font-size:60px;"">+</div>",,html-keyboard-response,302,3848922,0.0-17.0-0.19,36237,List2A,black,man,,,,null,,,,,,,,,
null,"<img src=""stim_listA/kiss4.gif""style=""height:400px;""></stim_listA>",,html-keyboard-response,303,3850932,0.0-17.0-1.19,36237,List2A,black,man,,,,null,,,,,,,,,
null,is being kissed by,,html-keyboard-response,304,3852938,0.0-17.0-2.19,36237,List2A,black,man,,,,null,,,,,,,,,
23454.2,,,survey-text,305,3876397,0.0-17.0-3.19,36237,List2A,black,man,,,,,"{""Q0"":""mike is being kissed by beth""}","<img src=""stim_listA/kiss4.gif""style=""height:400px;""></stim_listA>",is being kissed by,,,,,,
11277.6,"<img src='img/portrait_matrix_list2.jpg' style='width:900px;height:500px;''></img><p>If you have memorised all the portraits and names and are ready to start, press Continue.</p><p><strong>Please note: Your memory of these faces will be tested 4 times during this experiment.</strong></p>",0,html-button-response,306,3887677,0.0-18.0-0.0,36237,List2A,black,man,,,,,,,,,,,,,
2042,"<img src=""portrait/BM1.jpg""style=""height:400px;""></img>",4,html-button-response,307,3890724,0.0-18.0-1.0,36237,List2A,black,man,,TRUE,4,,,,,,,,,,
null,CORRECT,,html-keyboard-response,308,3892257,0.0-18.0-2.0-0.0,36237,List2A,black,man,,,,null,,,,,,,,,
2131.3,"<img src=""portrait/BW2.jpg""style=""height:400px;""></img>",2,html-button-response,309,3894390,0.0-18.0-4.0,36237,List2A,black,man,,TRUE,2,,,,,,,,,,
null,CORRECT,,html-keyboard-response,310,3895926,0.0-18.0-5.0-0.0,36237,List2A,black,man,,,,null,,,,,,,,,
2344.1,"<img src=""portrait/BM2.jpg""style=""height:400px;""></img>",5,html-button-response,311,3898272,0.0-18.0-7.0,36237,List2A,black,man,,TRUE,5,,,,,,,,,,
null,CORRECT,,html-keyboard-response,312,3899797,0.0-18.0-8.0-0.0,36237,List2A,black,man,,,,null,,,,,,,,,
4616.9,"<img src=""portrait/BW1.jpg""style=""height:400px;""></img>",0,html-button-response,313,3904415,0.0-18.0-10.0,36237,List2A,black,man,,TRUE,0,,,,,,,,,,
null,CORRECT,,html-keyboard-response,314,3905917,0.0-18.0-11.0-0.0,36237,List2A,black,man,,,,null,,,,,,,,,
3163.3,"<img src=""portrait/WM2.jpg""style=""height:400px;""></img>",7,html-button-response,315,3909082,0.0-18.0-13.0,36237,List2A,black,man,,TRUE,7,,,,,,,,,,
null,CORRECT,,html-keyboard-response,316,3910602,0.0-18.0-14.0-0.0,36237,List2A,black,man,,,,null,,,,,,,,,
4814.9,"<img src=""portrait/WM1.jpg""style=""height:400px;""></img>",6,html-button-response,317,3915419,0.0-18.0-16.0,36237,List2A,black,man,,TRUE,6,,,,,,,,,,
null,CORRECT,,html-keyboard-response,318,3916947,0.0-18.0-17.0-0.0,36237,List2A,black,man,,,,null,,,,,,,,,
3084.7,"<img src=""portrait/WW2.jpg""style=""height:400px;""></img>",3,html-button-response,319,3920034,0.0-18.0-19.0,36237,List2A,black,man,,TRUE,3,,,,,,,,,,
null,CORRECT,,html-keyboard-response,320,3921551,0.0-18.0-20.0-0.0,36237,List2A,black,man,,,,null,,,,,,,,,
3350.2,"<img src=""portrait/WW1.jpg""style=""height:400px;""></img>",1,html-button-response,321,3924904,0.0-18.0-22.0,36237,List2A,black,man,,TRUE,1,,,,,,,,,,
null,CORRECT,,html-keyboard-response,322,3926420,0.0-18.0-23.0-0.0,36237,List2A,black,man,,,,null,,,,,,,,,
1996.1,<p>You got 8 out of 8 right first time. Press Continue.</p>,0,html-button-response,323,3928418,0.0-18.0-25.0,36237,List2A,black,man,,,,,,,,,,,,,
null,"<div style=""font-size:60px;"">+</div>",,html-keyboard-response,324,3929944,0.0-19.0-0.0,36237,List2A,black,man,,,,null,,,,,,,,,
null,"<img src=""stim_listA/oppose7.gif""style=""height:400px;""></stim_listA>",,html-keyboard-response,325,3931947,0.0-19.0-1.0,36237,List2A,black,man,,,,null,,,,,,,,,
null,is opposing,,html-keyboard-response,326,3933949,0.0-19.0-2.0,36237,List2A,black,man,,,,null,,,,,,,,,
7003.6,,,survey-text,327,3940955,0.0-19.0-3.0,36237,List2A,black,man,,,,,"{""Q0"":""kate is opposing jane""}","<img src=""stim_listA/oppose7.gif""style=""height:400px;""></stim_listA>",is opposing,,,,,,
null,"<div style=""font-size:60px;"">+</div>",,html-keyboard-response,328,3941471,0.0-19.0-0.1,36237,List2A,black,man,,,,null,,,,,,,,,
null,"<img src=""stim_listA/seduce2.gif""style=""height:400px;""></stim_listA>",,html-keyboard-response,329,3943483,0.0-19.0-1.1,36237,List2A,black,man,,,,null,,,,,,,,,
null,is being seduced by,,html-keyboard-response,330,3945488,0.0-19.0-2.1,36237,List2A,black,man,,,,null,,,,,,,,,
13833.4,,,survey-text,331,3959324,0.0-19.0-3.1,36237,List2A,black,man,,,,,"{""Q0"":""ruth is being seduced by dave""}","<img src=""stim_listA/seduce2.gif""style=""height:400px;""></stim_listA>",is being seduced by,,,,,,
null,"<div style=""font-size:60px;"">+</div>",,html-keyboard-response,332,3959831,0.0-19.0-0.2,36237,List2A,black,man,,,,null,,,,,,,,,
null,"<img src=""stim_listA/shout2.gif""style=""height:400px;""></stim_listA>",,html-keyboard-response,333,3961840,0.0-19.0-1.2,36237,List2A,black,man,,,,null,,,,,,,,,
null,is being shouted at by,,html-keyboard-response,334,3963851,0.0-19.0-2.2,36237,List2A,black,man,,,,null,,,,,,,,,
10935,,,survey-text,335,3974789,0.0-19.0-3.2,36237,List2A,black,man,,,,,"{""Q0"":""dave is being shouted at by jane""}","<img src=""stim_listA/shout2.gif""style=""height:400px;""></stim_listA>",is being shouted at by,,,,,,
null,"<div style=""font-size:60px;"">+</div>",,html-keyboard-response,336,3975298,0.0-19.0-0.3,36237,List2A,black,man,,,,null,,,,,,,,,
null,"<img src=""stim_listA/greet3.gif""style=""height:400px;""></stim_listA>",,html-keyboard-response,337,3977300,0.0-19.0-1.3,36237,List2A,black,man,,,,null,,,,,,,,,
null,is greeting,,html-keyboard-response,338,3979314,0.0-19.0-2.3,36237,List2A,black,man,,,,null,,,,,,,,,
12735.3,,,survey-text,339,3992052,0.0-19.0-3.3,36237,List2A,black,man,,,,,"{""Q0"":""beth is greeting mike""}","<img src=""stim_listA/greet3.gif""style=""height:400px;""></stim_listA>",is greeting,,,,,,
null,"<div style=""font-size:60px;"">+</div>",,html-keyboard-response,340,3992555,0.0-19.0-0.4,36237,List2A,black,man,,,,null,,,,,,,,,
null,"<img src=""stim_listA/shout6.gif""style=""height:400px;""></stim_listA>",,html-keyboard-response,341,3994567,0.0-19.0-1.4,36237,List2A,black,man,,,,null,,,,,,,,,
null,is being shouted at by,,html-keyboard-response,342,3996578,0.0-19.0-2.4,36237,List2A,black,man,,,,null,,,,,,,,,
14566.1,,,survey-text,343,4011147,0.0-19.0-3.4,36237,List2A,black,man,,,,,"{""Q0"":""mike is being shouted at by dave""}","<img src=""stim_listA/shout6.gif""style=""height:400px;""></stim_listA>",is being shouted at by,,,,,,
null,"<div style=""font-size:60px;"">+</div>",,html-keyboard-response,344,4011660,0.0-19.0-0.5,36237,List2A,black,man,,,,null,,,,,,,,,
null,"<img src=""stim_listA/look2.gif""style=""height:400px;""></stim_listA>",,html-keyboard-response,345,4013669,0.0-19.0-1.5,36237,List2A,black,man,,,,null,,,,,,,,,
null,is being looked at by,,html-keyboard-response,346,4015679,0.0-19.0-2.5,36237,List2A,black,man,,,,null,,,,,,,,,
17991.2,,,survey-text,347,4033673,0.0-19.0-3.5,36237,List2A,black,man,,,,,"{""Q0"":""dave is being looked at by jane""}","<img src=""stim_listA/look2.gif""style=""height:400px;""></stim_listA>",is being looked at by,,,,,,
null,"<div style=""font-size:60px;"">+</div>",,html-keyboard-response,348,4034180,0.0-19.0-0.6,36237,List2A,black,man,,,,null,,,,,,,,,
null,"<img src=""stim_listA/hug5.gif""style=""height:400px;""></stim_listA>",,html-keyboard-response,349,4036193,0.0-19.0-1.6,36237,List2A,black,man,,,,null,,,,,,,,,
null,is hugging,,html-keyboard-response,350,4038205,0.0-19.0-2.6,36237,List2A,black,man,,,,null,,,,,,,,,
21040.6,,,survey-text,351,4059248,0.0-19.0-3.6,36237,List2A,black,man,,,,,"{""Q0"":""fred is being hugged by luke""}","<img src=""stim_listA/hug5.gif""style=""height:400px;""></stim_listA>",is hugging,,,,,,
null,"<div style=""font-size:60px;"">+</div>",,html-keyboard-response,352,4059761,0.0-19.0-0.7,36237,List2A,black,man,,,,null,,,,,,,,,
null,"<img src=""stim_listA/touch7.gif""style=""height:400px;""></stim_listA>",,html-keyboard-response,353,4061771,0.0-19.0-1.7,36237,List2A,black,man,,,,null,,,,,,,,,
null,is touching,,html-keyboard-response,354,4063779,0.0-19.0-2.7,36237,List2A,black,man,,,,null,,,,,,,,,
9878.9,,,survey-text,355,4073661,0.0-19.0-3.7,36237,List2A,black,man,,,,,"{""Q0"":""jane is touching kate""}","<img src=""stim_listA/touch7.gif""style=""height:400px;""></stim_listA>",is touching,,,,,,
null,"<div style=""font-size:60px;"">+</div>",,html-keyboard-response,356,4074173,0.0-19.0-0.8,36237,List2A,black,man,,,,null,,,,,,,,,
null,"<img src=""stim_listA/oppose8.gif""style=""height:400px;""></stim_listA>",,html-keyboard-response,357,4076182,0.0-19.0-1.8,36237,List2A,black,man,,,,null,,,,,,,,,
null,is being opposed by,,html-keyboard-response,358,4078193,0.0-19.0-2.8,36237,List2A,black,man,,,,null,,,,,,,,,
26029.5,,,survey-text,359,4104224,0.0-19.0-3.8,36237,List2A,black,man,,,,,"{""Q0"":""ruth is being opposed by beth""}","<img src=""stim_listA/oppose8.gif""style=""height:400px;""></stim_listA>",is being opposed by,,,,,,
null,"<div style=""font-size:60px;"">+</div>",,html-keyboard-response,360,4104737,0.0-19.0-0.9,36237,List2A,black,man,,,,null,,,,,,,,,
null,"<img src=""stim_listA/copy5.gif""style=""height:400px;""></stim_listA>",,html-keyboard-response,361,4106739,0.0-19.0-1.9,36237,List2A,black,man,,,,null,,,,,,,,,
null,is copying,,html-keyboard-response,362,4108753,0.0-19.0-2.9,36237,List2A,black,man,,,,null,,,,,,,,,
8141.9,,,survey-text,363,4116899,0.0-19.0-3.9,36237,List2A,black,man,,,,,"{""Q0"":""fred is copying dave""}","<img src=""stim_listA/copy5.gif""style=""height:400px;""></stim_listA>",is copying,,,,,,
null,"<div style=""font-size:60px;"">+</div>",,html-keyboard-response,364,4117401,0.0-19.0-0.10,36237,List2A,black,man,,,,null,,,,,,,,,
null,"<img src=""stim_listA/shout5.gif""style=""height:400px;""></stim_listA>",,html-keyboard-response,365,4119414,0.0-19.0-1.10,36237,List2A,black,man,,,,null,,,,,,,,,
null,is shouting at,,html-keyboard-response,366,4121428,0.0-19.0-2.10,36237,List2A,black,man,,,,null,,,,,,,,,
12482.8,,,survey-text,367,4133913,0.0-19.0-3.10,36237,List2A,black,man,,,,,"{""Q0"":""luke is shouting at fred""}","<img src=""stim_listA/shout5.gif""style=""height:400px;""></stim_listA>",is shouting at,,,,,,
null,"<div style=""font-size:60px;"">+</div>",,html-keyboard-response,368,4134426,0.0-19.0-0.11,36237,List2A,black,man,,,,null,,,,,,,,,
null,"<img src=""stim_listA/kiss2.gif""style=""height:400px;""></stim_listA>",,html-keyboard-response,369,4136439,0.0-19.0-1.11,36237,List2A,black,man,,,,null,,,,,,,,,
null,is being kissed by,,html-keyboard-response,370,4138450,0.0-19.0-2.11,36237,List2A,black,man,,,,null,,,,,,,,,
24289.9,,,survey-text,371,4162743,0.0-19.0-3.11,36237,List2A,black,man,,,,,"{""Q0"":""jane is being kissed by dave""}","<img src=""stim_listA/kiss2.gif""style=""height:400px;""></stim_listA>",is being kissed by,,,,,,
null,"<div style=""font-size:60px;"">+</div>",,html-keyboard-response,372,4163258,0.0-19.0-0.12,36237,List2A,black,man,,,,null,,,,,,,,,
null,"<img src=""stim_listA/copy4.gif""style=""height:400px;""></stim_listA>",,html-keyboard-response,373,4165263,0.0-19.0-1.12,36237,List2A,black,man,,,,null,,,,,,,,,
null,is being copied by,,html-keyboard-response,374,4167268,0.0-19.0-2.12,36237,List2A,black,man,,,,null,,,,,,,,,
12458.8,,,survey-text,375,4179729,0.0-19.0-3.12,36237,List2A,black,man,,,,,"{""Q0"":""kate is being copied by fred""}","<img src=""stim_listA/copy4.gif""style=""height:400px;""></stim_listA>",is being copied by,,,,,,
null,"<div style=""font-size:60px;"">+</div>",,html-keyboard-response,376,4180239,0.0-19.0-0.13,36237,List2A,black,man,,,,null,,,,,,,,,
null,"<img src=""stim_listA/challenge7.gif""style=""height:400px;""></stim_listA>",,html-keyboard-response,377,4182241,0.0-19.0-1.13,36237,List2A,black,man,,,,null,,,,,,,,,
null,is challenging,,html-keyboard-response,378,4184243,0.0-19.0-2.13,36237,List2A,black,man,,,,null,,,,,,,,,
18202.2,,,survey-text,379,4202447,0.0-19.0-3.13,36237,List2A,black,man,,,,,"{""Q0"":""jane is challenging beth""}","<img src=""stim_listA/challenge7.gif""style=""height:400px;""></stim_listA>",is challenging,,,,,,
null,"<div style=""font-size:60px;"">+</div>",,html-keyboard-response,380,4202955,0.0-19.0-0.14,36237,List2A,black,man,,,,null,,,,,,,,,
null,"<img src=""stim_listA/hug4.gif""style=""height:400px;""></stim_listA>",,html-keyboard-response,381,4204966,0.0-19.0-1.14,36237,List2A,black,man,,,,null,,,,,,,,,
null,is being hugged by,,html-keyboard-response,382,4206977,0.0-19.0-2.14,36237,List2A,black,man,,,,null,,,,,,,,,
9244.9,,,survey-text,383,4216225,0.0-19.0-3.14,36237,List2A,black,man,,,,,"{""Q0"":""mike is being hugged by kate""}","<img src=""stim_listA/hug4.gif""style=""height:400px;""></stim_listA>",is being hugged by,,,,,,
null,"<div style=""font-size:60px;"">+</div>",,html-keyboard-response,384,4216731,0.0-19.0-0.15,36237,List2A,black,man,,,,null,,,,,,,,,
null,"<img src=""stim_listA/touch4.gif""style=""height:400px;""></stim_listA>",,html-keyboard-response,385,4218733,0.0-19.0-1.15,36237,List2A,black,man,,,,null,,,,,,,,,
null,is being touched by,,html-keyboard-response,386,4220734,0.0-19.0-2.15,36237,List2A,black,man,,,,null,,,,,,,,,
13476,,,survey-text,387,4234213,0.0-19.0-3.15,36237,List2A,black,man,,,,,"{""Q0"":""fred is being touched by beth""}","<img src=""stim_listA/touch4.gif""style=""height:400px;""></stim_listA>",is being touched by,,,,,,
null,"<div style=""font-size:60px;"">+</div>",,html-keyboard-response,388,4234721,0.0-19.0-0.16,36237,List2A,black,man,,,,null,,,,,,,,,
null,"<img src=""stim_listA/hug1.gif""style=""height:400px;""></stim_listA>",,html-keyboard-response,389,4236731,0.0-19.0-1.16,36237,List2A,black,man,,,,null,,,,,,,,,
null,is hugging,,html-keyboard-response,390,4238744,0.0-19.0-2.16,36237,List2A,black,man,,,,null,,,,,,,,,
10085.4,,,survey-text,391,4248852,0.0-19.0-3.16,36237,List2A,black,man,,,,,"{""Q0"":""luke is hugging ruth""}","<img src=""stim_listA/hug1.gif""style=""height:400px;""></stim_listA>",is hugging,,,,,,
null,"<div style=""font-size:60px;"">+</div>",,html-keyboard-response,392,4249360,0.0-19.0-0.17,36237,List2A,black,man,,,,null,,,,,,,,,
null,"<img src=""stim_listA/copy8.gif""style=""height:400px;""></stim_listA>",,html-keyboard-response,393,4251371,0.0-19.0-1.17,36237,List2A,black,man,,,,null,,,,,,,,,
null,is being copied by,,html-keyboard-response,394,4253386,0.0-19.0-2.17,36237,List2A,black,man,,,,null,,,,,,,,,
22027.8,,,survey-text,395,4275417,0.0-19.0-3.17,36237,List2A,black,man,,,,,"{""Q0"":""kate is being copied by ruth""}","<img src=""stim_listA/copy8.gif""style=""height:400px;""></stim_listA>",is being copied by,,,,,,
null,"<div style=""font-size:60px;"">+</div>",,html-keyboard-response,396,4275932,0.0-19.0-0.18,36237,List2A,black,man,,,,null,,,,,,,,,
null,"<img src=""stim_listA/hug6.gif""style=""height:400px;""></stim_listA>",,html-keyboard-response,397,4277934,0.0-19.0-1.18,36237,List2A,black,man,,,,null,,,,,,,,,
null,is being hugged by,,html-keyboard-response,398,4279948,0.0-19.0-2.18,36237,List2A,black,man,,,,null,,,,,,,,,
11023.3,,,survey-text,399,4290974,0.0-19.0-3.18,36237,List2A,black,man,,,,,"{""Q0"":""dave is being hugged by mike""}","<img src=""stim_listA/hug6.gif""style=""height:400px;""></stim_listA>",is being hugged by,,,,,,
null,"<div style=""font-size:60px;"">+</div>",,html-keyboard-response,400,4291482,0.0-19.0-0.19,36237,List2A,black,man,,,,null,,,,,,,,,
null,"<img src=""stim_listA/seduce5.gif""style=""height:400px;""></stim_listA>",,html-keyboard-response,401,4293493,0.0-19.0-1.19,36237,List2A,black,man,,,,null,,,,,,,,,
null,is seducing,,html-keyboard-response,402,4295506,0.0-19.0-2.19,36237,List2A,black,man,,,,null,,,,,,,,,
16970.8,,,survey-text,403,4312479,0.0-19.0-3.19,36237,List2A,black,man,,,,,"{""Q0"":""luke is seducing dave""}","<img src=""stim_listA/seduce5.gif""style=""height:400px;""></stim_listA>",is seducing,,,,,,
5540.1,<p>Thank you for completing that task.</p><p>The final part of this session is a questionnaire that will take about 4 minutes.</p><p>Press Continue.</p>,0,html-button-response,404,4318021,0.0-20.0,36237,List2A,black,man,,,,,,,,,,,,,
217812.6,,,survey-text,405,4536845,0.0-21.0,36237,List2A,black,man,,,,,"{""Q0"":""36"",""Q1"":""English"",""Q2"":""English"",""Q3"":""United states"",""Q4"":""American"",""Q5"":""black"",""Q6"":""male""}",,,demographics,,,,,
3174.5,<p>Have you lived in the USA for the last 5 years or more?</p>,0,html-button-response,406,4540023,0.0-22.0,36237,List2A,black,man,,,,,,,,fiveyears,,,,,
3512.2,<p>Move the slider to show the extent to which you agree with the following statements.</p>,0,html-button-response,407,4544545,0.0-23.0,36237,List2A,black,man,,,,,,,,,,,,,
4793.7,,,html-slider-response,408,4550392,0.0-24.0-0.0-0.0,36237,List2A,black,man,,,,,,,,survey_gender,88,,,Being around my friends gives me a good feeling.,filler
8930.5,,,html-slider-response,409,4559325,0.0-24.0-0.0-0.1,36237,List2A,black,man,,,,,,,,survey_gender,89,,,Being my gender gives me a good feeling.,feeling
5283.3,,,html-slider-response,410,4564610,0.0-24.0-0.0-0.2,36237,List2A,black,man,,,,,,,,survey_gender,70,,,I am similar to the average person of my gender.,similar
6333.9,,,html-slider-response,411,4570946,0.0-24.0-0.0-0.3,36237,List2A,black,man,,,,,,,,survey_gender,84,,,I think that my gender has a lot to be proud of.,proud
6557.7,,,html-slider-response,412,4577506,0.0-24.0-0.0-0.4,36237,List2A,black,man,,,,,,,,survey_gender,79,,,I am glad to be my gender.,glad
3826.2,,,html-slider-response,413,4581335,0.0-24.0-0.0-0.5,36237,List2A,black,man,,,,,,,,survey_gender,80,,,I have a lot in common with my friends.,filler
4306,,,html-slider-response,414,4585643,0.0-24.0-0.0-0.6,36237,List2A,black,man,,,,,,,,survey_gender,74,,,I have a lot in common with the average person of my gender.,average
7230.1,,,html-slider-response,415,4592876,0.0-24.0-0.0-0.7,36237,List2A,black,man,,,,,,,,survey_gender,82,,,Family is not more important to me than friendship.,filler
3920.6,,,html-slider-response,416,4596799,0.0-24.0-0.0-0.8,36237,List2A,black,man,,,,,,,,survey_gender,83,,,It is pleasant to be my gender.,pleasant
3897.1,,,html-slider-response,417,4600699,0.0-24.0-0.0-0.9,36237,List2A,black,man,,,,,,,,survey_gender,78,,,I often think about the fact that I am my gender.,often
8138.1,,,html-slider-response,418,4608839,0.0-24.0-0.0-0.10,36237,List2A,black,man,,,,,,,,survey_gender,74,,,My friends have a lot in common with each other.,filler
3104,,,html-slider-response,419,4611946,0.0-24.0-0.0-0.11,36237,List2A,black,man,,,,,,,,survey_gender,88,,,My friends understand me.,filler
4847.3,,,html-slider-response,420,4616795,0.0-24.0-0.0-0.12,36237,List2A,black,man,,,,,,,,survey_gender,74,,,I often think about my actions.,filler
4560.5,,,html-slider-response,421,4621358,0.0-24.0-0.0-0.13,36237,List2A,black,man,,,,,,,,survey_gender,33,,,Routine is not important to me.,filler
5417.8,,,html-slider-response,422,4626779,0.0-24.0-0.0-0.14,36237,List2A,black,man,,,,,,,,survey_gender,83,,,I feel solidarity with my friends.,filler
4122,,,html-slider-response,423,4630904,0.0-24.0-0.0-0.15,36237,List2A,black,man,,,,,,,,survey_gender,78,,,I consider myself a highly empathetic person.,filler
5712.1,,,html-slider-response,424,4636618,0.0-24.0-0.0-0.16,36237,List2A,black,man,,,,,,,,survey_gender,74,,,Being my gender is an important part of how I see myself.,important
5173.4,,,html-slider-response,425,4641794,0.0-24.0-0.0-0.17,36237,List2A,black,man,,,,,,,,survey_gender,80,,,I feel a bond with my friends.,filler
5365.5,,,html-slider-response,426,4647162,0.0-24.0-0.0-0.18,36237,List2A,black,man,,,,,,,,survey_gender,79,,,The fact that I am my gender is an important part of my identity.,identity
6486.7,,,html-slider-response,427,4653650,0.0-24.0-0.0-0.19,36237,List2A,black,man,,,,,,,,survey_gender,74,,,People of my gender have a lot in common with each other.,common
2972.6,,,html-slider-response,428,4656625,0.0-24.0-0.0-0.20,36237,List2A,black,man,,,,,,,,survey_gender,82,,,People of my gender are very similar to each other.,verysimilar
5051.2,,,html-slider-response,429,4661678,0.0-24.0-0.0-0.21,36237,List2A,black,man,,,,,,,,survey_gender,78,,,It is not always easy for people to know what I am thinking.,filler
7562,,,html-slider-response,430,4669242,0.0-24.0-0.0-0.22,36237,List2A,black,man,,,,,,,,survey_gender,73,,,I feel solidarity with my gender.,solidarity
8619.4,,,html-slider-response,431,4677864,0.0-24.0-0.0-0.23,36237,List2A,black,man,,,,,,,,survey_gender,83,,,Most of the friends in my life are very similar to me.,filler
4062.5,,,html-slider-response,432,4681929,0.0-24.0-0.0-0.24,36237,List2A,black,man,,,,,,,,survey_gender,83,,,I feel committed to my gender.,committed
6946,,,html-slider-response,433,4688877,0.0-24.0-0.0-0.25,36237,List2A,black,man,,,,,,,,survey_gender,85,,,I feel a bond with my gender.,bond
13659.3,,,html-slider-response,434,4702539,0.0-24.0-0.0-0.26,36237,List2A,black,man,,,,,,,,survey_gender,77,,,I am glad to have the friends that I have.,filler
5762.6,,,html-slider-response,435,4708304,0.0-24.0-0.0-0.27,36237,List2A,black,man,,,,,,,,survey_gender,14,,,I would say I am an animal person.,filler
5182.5,,,html-slider-response,436,4713488,0.0-24.0-1.0-0.0,36237,List2A,black,man,,,,,,,,survey_race,81,,,I enjoy being in large groups.,filler
5772.4,,,html-slider-response,437,4719264,0.0-24.0-1.0-0.1,36237,List2A,black,man,,,,,,,,survey_race,78,,,I feel a bond with my race.,bond
20900.6,,,html-slider-response,438,4740167,0.0-24.0-1.0-0.2,36237,List2A,black,man,,,,,,,,survey_race,73,,,Being my race is an important part of how I see myself.,important
26394.1,,,html-slider-response,439,4766564,0.0-24.0-1.0-0.3,36237,List2A,black,man,,,,,,,,survey_race,66,,,My age is not an important part of who I am.,filler
17481,,,html-slider-response,440,4784048,0.0-24.0-1.0-0.4,36237,List2A,black,man,,,,,,,,survey_race,64,,,Getting older does not worry me.,filler
3249,,,html-slider-response,441,4787299,0.0-24.0-1.0-0.5,36237,List2A,black,man,,,,,,,,survey_race,70,,,It is pleasant to be my race.,pleasant
6721.1,,,html-slider-response,442,4794022,0.0-24.0-1.0-0.6,36237,List2A,black,man,,,,,,,,survey_race,67,,,Being my race gives me a good feeling.,feeling
2840.8,,,html-slider-response,443,4796866,0.0-24.0-1.0-0.7,36237,List2A,black,man,,,,,,,,survey_race,68,,,I am glad to be my race.,glad
8138.1,,,html-slider-response,444,4805006,0.0-24.0-1.0-0.8,36237,List2A,black,man,,,,,,,,survey_race,70,,,I feel solidarity with people the same age as me.,filler
4235.6,,,html-slider-response,445,4809245,0.0-24.0-1.0-0.9,36237,List2A,black,man,,,,,,,,survey_race,75,,,I feel a bond with people the same age as me.,filler
5427.9,,,html-slider-response,446,4814675,0.0-24.0-1.0-0.10,36237,List2A,black,man,,,,,,,,survey_race,77,,,I am similar to the average person of my race.,similar
17787.3,,,html-slider-response,447,4832465,0.0-24.0-1.0-0.11,36237,List2A,black,man,,,,,,,,survey_race,80,,,I have a lot in common with people of a similar age to me.,filler
5406.6,,,html-slider-response,448,4837874,0.0-24.0-1.0-0.12,36237,List2A,black,man,,,,,,,,survey_race,77,,,I feel committed to my race.,committed
10784.4,,,html-slider-response,449,4848661,0.0-24.0-1.0-0.13,36237,List2A,black,man,,,,,,,,survey_race,73,,,Being my age gives me a good feeling.,filler
4908.4,,,html-slider-response,450,4853572,0.0-24.0-1.0-0.14,36237,List2A,black,man,,,,,,,,survey_race,76,,,I often think about the fact that I am my race.,often
4316.1,,,html-slider-response,451,4857890,0.0-24.0-1.0-0.15,36237,List2A,black,man,,,,,,,,survey_race,73,,,I have a lot in common with the average person of my race.,average
3808.1,,,html-slider-response,452,4861700,0.0-24.0-1.0-0.16,36237,List2A,black,man,,,,,,,,survey_race,77,,,The fact that I am my race is an important part of my identity.,identity
2932.7,,,html-slider-response,453,4864635,0.0-24.0-1.0-0.17,36237,List2A,black,man,,,,,,,,survey_race,79,,,"The older I get, the wiser I feel.",filler
8605.7,,,html-slider-response,454,4873241,0.0-24.0-1.0-0.18,36237,List2A,black,man,,,,,,,,survey_race,79,,,People of my race are very similar to each other.,verysimilar
15757.7,,,html-slider-response,455,4889002,0.0-24.0-1.0-0.19,36237,List2A,black,man,,,,,,,,survey_race,74,,,I think that my race has a lot to be proud of.,proud
6732.7,,,html-slider-response,456,4895737,0.0-24.0-1.0-0.20,36237,List2A,black,man,,,,,,,,survey_race,70,,,I consider myself an extrovert.,filler
7394.9,,,html-slider-response,457,4903134,0.0-24.0-1.0-0.21,36237,List2A,black,man,,,,,,,,survey_race,75,,,People my age have a lot in common with each other.,filler
3124.2,,,html-slider-response,458,4906261,0.0-24.0-1.0-0.22,36237,List2A,black,man,,,,,,,,survey_race,81,,,I am glad to be the age I am.,filler
3116.2,,,html-slider-response,459,4909379,0.0-24.0-1.0-0.23,36237,List2A,black,man,,,,,,,,survey_race,70,,,People of my race have a lot in common with each other.,common
3299.3,,,html-slider-response,460,4912680,0.0-24.0-1.0-0.24,36237,List2A,black,man,,,,,,,,survey_race,23,,,I consider myself an introvert.,filler
3919.4,,,html-slider-response,461,4916601,0.0-24.0-1.0-0.25,36237,List2A,black,man,,,,,,,,survey_race,74,,,I often think about the fact that I am my age.,filler
3502,,,html-slider-response,462,4920106,0.0-24.0-1.0-0.26,36237,List2A,black,man,,,,,,,,survey_race,75,,,I feel solidarity with my race.,solidarity
4492.6,,,html-slider-response,463,4924601,0.0-24.0-1.0-0.27,36237,List2A,black,man,,,,,,,,survey_race,72,,,I am glad to be my age.,filler
11088.5,,,survey-text,464,4935723,0.0-25.0,36237,List2A,black,man,,,,,"{""Q0"":""ccc""}",,,worker_id,,,,,
5481.9,,,external-html,465,4943639,0.0-26.0,36237,List2A,black,man,debrief.html,,,,,,,,,,,,
