"rt","stimulus","button_pressed","trial_type","trial_index","time_elapsed","internal_node_id","subject","list","ppt_race","ppt_gender","url","first_guess","correct","key_press","responses","image_type","phrase_type","test_part","response","stimulus1","stimulus2","question_type","survey_item"
"5121.699999988079","Welcome to the experiment. Press Continue to begin.","0","html-button-response","0","5128","0.0-0.0","37457","List2A","black","man","","","","","","","","","","","","",""
"10732.300000011921","","","external-html","1","16876","0.0-1.0","37457","List2A","black","man","consent.html","","","","","","","","","","","",""
"1817.0999999940395","<p>On the next page, you will see portraits of 8 people and their names.</p><p>Your first task is to take a few minutes to memorise the names of these people.</p><p>You will have to recall their names during the rest of the experiment, so it is</p><p>essential that you try to memorise these people and their names as best as you can.</p><br><p><strong>You will then be tested on your memory of these names and portraits.</strong></p><br><p>The experiment will start after you have completed this memory test.</p><br><p>Ready?</p>","0","html-button-response","2","18696","0.0-2.0","37457","List2A","black","man","","","","","","","","","","","","",""
"1654.0999999940395","<img src='img/portrait_matrix_list2.jpg' style='width:900px;height:500px;''></img><p>If you have memorised all the portraits and names and are ready to start, press Continue.</p><p><strong>Please note: Your memory of these faces will be tested 4 times during this experiment.</strong></p>","0","html-button-response","3","21359","0.0-3.0-0.0","37457","List2A","black","man","","","","","","","","","","","","",""
"5174.200000017881","<img src=""portrait/WW1.jpg""style=""height:400px;""></img>","3","html-button-response","4","27559","0.0-3.0-1.0","37457","List2A","black","man","","true","1","","","","","","","","","",""
"4467.9000000059605","<img src=""portrait/WW1.jpg""style=""height:400px;""></img>","1","html-button-response","5","33037","0.0-3.0-3.0-0.0","37457","List2A","black","man","","false","1","","","","","","","","","",""
"null","CORRECT","","html-keyboard-response","6","34560","0.0-3.0-3.0-1.0-0.0","37457","List2A","black","man","","","","null","","","","","","","","",""
"7686.299999982119","<img src=""portrait/WM1.jpg""style=""height:400px;""></img>","6","html-button-response","7","42250","0.0-3.0-4.0","37457","List2A","black","man","","true","6","","","","","","","","","",""
"null","CORRECT","","html-keyboard-response","8","43778","0.0-3.0-5.0-0.0","37457","List2A","black","man","","","","null","","","","","","","","",""
"6363.4000000059605","<img src=""portrait/BW1.jpg""style=""height:400px;""></img>","0","html-button-response","9","50149","0.0-3.0-7.0","37457","List2A","black","man","","true","0","","","","","","","","","",""
"null","CORRECT","","html-keyboard-response","10","51680","0.0-3.0-8.0-0.0","37457","List2A","black","man","","","","null","","","","","","","","",""
"4597.4000000059605","<img src=""portrait/BM2.jpg""style=""height:400px;""></img>","5","html-button-response","11","56279","0.0-3.0-10.0","37457","List2A","black","man","","true","5","","","","","","","","","",""
"null","CORRECT","","html-keyboard-response","12","57792","0.0-3.0-11.0-0.0","37457","List2A","black","man","","","","null","","","","","","","","",""
"18330.5","<img src=""portrait/BW2.jpg""style=""height:400px;""></img>","0","html-button-response","13","76125","0.0-3.0-13.0","37457","List2A","black","man","","true","2","","","","","","","","","",""
"5012.699999988079","<img src=""portrait/BW2.jpg""style=""height:400px;""></img>","2","html-button-response","14","82141","0.0-3.0-15.0-0.0","37457","List2A","black","man","","false","2","","","","","","","","","",""
"null","CORRECT","","html-keyboard-response","15","83649","0.0-3.0-15.0-1.0-0.0","37457","List2A","black","man","","","","null","","","","","","","","",""
"4626.4000000059605","<img src=""portrait/WM2.jpg""style=""height:400px;""></img>","4","html-button-response","16","88277","0.0-3.0-16.0","37457","List2A","black","man","","true","7","","","","","","","","","",""
"2537.4000000059605","<img src=""portrait/WM2.jpg""style=""height:400px;""></img>","7","html-button-response","17","91822","0.0-3.0-18.0-0.0","37457","List2A","black","man","","false","7","","","","","","","","","",""
"null","CORRECT","","html-keyboard-response","18","93335","0.0-3.0-18.0-1.0-0.0","37457","List2A","black","man","","","","null","","","","","","","","",""
"6076.300000011921","<img src=""portrait/WW2.jpg""style=""height:400px;""></img>","3","html-button-response","19","99413","0.0-3.0-19.0","37457","List2A","black","man","","true","3","","","","","","","","","",""
"null","CORRECT","","html-keyboard-response","20","100939","0.0-3.0-20.0-0.0","37457","List2A","black","man","","","","null","","","","","","","","",""
"3697.0999999940395","<img src=""portrait/BM1.jpg""style=""height:400px;""></img>","4","html-button-response","21","104639","0.0-3.0-22.0","37457","List2A","black","man","","true","4","","","","","","","","","",""
"null","CORRECT","","html-keyboard-response","22","106158","0.0-3.0-23.0-0.0","37457","List2A","black","man","","","","null","","","","","","","","",""
"5398.300000011921","<p>You got 5 out of 8 right first time. Press Continue.</p>","0","html-button-response","23","111558","0.0-3.0-25.0","37457","List2A","black","man","","","","","","","","","","","","",""
"4537.199999988079","As you did not score 100%, the memory game will repeat. Press Continue.","0","html-button-response","24","117109","0.0-3.0-26.0-0.0","37457","List2A","black","man","","","","","","","","","","","","",""
"1933.2000000178814","<img src='img/portrait_matrix_list2.jpg' style='width:900px;height:500px;''></img><p>If you have memorised all the portraits and names and are ready to start, press Continue.</p><p><strong>Please note: Your memory of these faces will be tested 4 times during this experiment.</strong></p>","0","html-button-response","25","120063","0.0-3.1-0.1","37457","List2A","black","man","","","","","","","","","","","","",""
"3242","<img src=""portrait/WW1.jpg""style=""height:400px;""></img>","3","html-button-response","26","124318","0.0-3.1-1.1","37457","List2A","black","man","","true","1","","","","","","","","","",""
"20479","<img src=""portrait/WW1.jpg""style=""height:400px;""></img>","1","html-button-response","27","145808","0.0-3.1-3.1-0.1","37457","List2A","black","man","","false","1","","","","","","","","","",""
"null","CORRECT","","html-keyboard-response","28","147323","0.0-3.1-3.1-1.1-0.1","37457","List2A","black","man","","","","null","","","","","","","","",""
"5527.5","<img src=""portrait/WM1.jpg""style=""height:400px;""></img>","6","html-button-response","29","152853","0.0-3.1-4.1","37457","List2A","black","man","","true","6","","","","","","","","","",""
"null","CORRECT","","html-keyboard-response","30","154372","0.0-3.1-5.1-0.1","37457","List2A","black","man","","","","null","","","","","","","","",""
"13814.5","<img src=""portrait/BW1.jpg""style=""height:400px;""></img>","1","html-button-response","31","168189","0.0-3.1-7.1","37457","List2A","black","man","","true","0","","","","","","","","","",""
"8593.699999988079","<img src=""portrait/BW1.jpg""style=""height:400px;""></img>","0","html-button-response","32","177795","0.0-3.1-9.1-0.1","37457","List2A","black","man","","false","0","","","","","","","","","",""
"null","CORRECT","","html-keyboard-response","33","179302","0.0-3.1-9.1-1.1-0.1","37457","List2A","black","man","","","","null","","","","","","","","",""
"3524.5","<img src=""portrait/BM2.jpg""style=""height:400px;""></img>","7","html-button-response","34","182830","0.0-3.1-10.1","37457","List2A","black","man","","true","5","","","","","","","","","",""
"6637.799999982119","<img src=""portrait/BM2.jpg""style=""height:400px;""></img>","5","html-button-response","35","190478","0.0-3.1-12.1-0.1","37457","List2A","black","man","","false","5","","","","","","","","","",""
"null","CORRECT","","html-keyboard-response","36","192011","0.0-3.1-12.1-1.1-0.1","37457","List2A","black","man","","","","null","","","","","","","","",""
"17456.40000000596","<img src=""portrait/BW2.jpg""style=""height:400px;""></img>","0","html-button-response","37","209470","0.0-3.1-13.1","37457","List2A","black","man","","true","2","","","","","","","","","",""
"6710.4000000059605","<img src=""portrait/BW2.jpg""style=""height:400px;""></img>","2","html-button-response","38","217185","0.0-3.1-15.1-0.1","37457","List2A","black","man","","false","2","","","","","","","","","",""
"null","CORRECT","","html-keyboard-response","39","218704","0.0-3.1-15.1-1.1-0.1","37457","List2A","black","man","","","","null","","","","","","","","",""
"2859","<img src=""portrait/WM2.jpg""style=""height:400px;""></img>","4","html-button-response","40","221567","0.0-3.1-16.1","37457","List2A","black","man","","true","7","","","","","","","","","",""
"6382.299999982119","<img src=""portrait/WM2.jpg""style=""height:400px;""></img>","7","html-button-response","41","228974","0.0-3.1-18.1-0.1","37457","List2A","black","man","","false","7","","","","","","","","","",""
"null","CORRECT","","html-keyboard-response","42","230494","0.0-3.1-18.1-1.1-0.1","37457","List2A","black","man","","","","null","","","","","","","","",""
"6419.9000000059605","<img src=""portrait/WW2.jpg""style=""height:400px;""></img>","0","html-button-response","43","236917","0.0-3.1-19.1","37457","List2A","black","man","","true","3","","","","","","","","","",""
"5587.899999976158","<img src=""portrait/WW2.jpg""style=""height:400px;""></img>","3","html-button-response","44","243511","0.0-3.1-21.1-0.1","37457","List2A","black","man","","false","3","","","","","","","","","",""
"null","CORRECT","","html-keyboard-response","45","245022","0.0-3.1-21.1-1.1-0.1","37457","List2A","black","man","","","","null","","","","","","","","",""
"3964.300000011921","<img src=""portrait/BM1.jpg""style=""height:400px;""></img>","4","html-button-response","46","248989","0.0-3.1-22.1","37457","List2A","black","man","","true","4","","","","","","","","","",""
"null","CORRECT","","html-keyboard-response","47","250510","0.0-3.1-23.1-0.1","37457","List2A","black","man","","","","null","","","","","","","","",""
"6242.0999999940395","<p>You got 2 out of 8 right first time. Press Continue.</p>","0","html-button-response","48","256755","0.0-3.1-25.1","37457","List2A","black","man","","","","","","","","","","","","",""
"1302.5","As you did not score 100%, the memory game will repeat. Press Continue.","0","html-button-response","49","259077","0.0-3.1-26.1-0.1","37457","List2A","black","man","","","","","","","","","","","","",""
"1971.300000011921","<img src='img/portrait_matrix_list2.jpg' style='width:900px;height:500px;''></img><p>If you have memorised all the portraits and names and are ready to start, press Continue.</p><p><strong>Please note: Your memory of these faces will be tested 4 times during this experiment.</strong></p>","0","html-button-response","50","262052","0.0-3.2-0.2","37457","List2A","black","man","","","","","","","","","","","","",""
"17714.69999998808","<img src=""portrait/WW1.jpg""style=""height:400px;""></img>","1","html-button-response","51","280789","0.0-3.2-1.2","37457","List2A","black","man","","true","1","","","","","","","","","",""
"null","CORRECT","","html-keyboard-response","52","282305","0.0-3.2-2.2-0.2","37457","List2A","black","man","","","","null","","","","","","","","",""
"31722.19999998808","<img src=""portrait/WM1.jpg""style=""height:400px;""></img>","6","html-button-response","53","314030","0.0-3.2-4.2","37457","List2A","black","man","","true","6","","","","","","","","","",""
"null","CORRECT","","html-keyboard-response","54","315552","0.0-3.2-5.2-0.2","37457","List2A","black","man","","","","null","","","","","","","","",""
"29878.09999999404","<img src=""portrait/BW1.jpg""style=""height:400px;""></img>","0","html-button-response","55","345433","0.0-3.2-7.2","37457","List2A","black","man","","true","0","","","","","","","","","",""
"null","CORRECT","","html-keyboard-response","56","346953","0.0-3.2-8.2-0.2","37457","List2A","black","man","","","","null","","","","","","","","",""
"11186.5","<img src=""portrait/BM2.jpg""style=""height:400px;""></img>","5","html-button-response","57","358147","0.0-3.2-10.2","37457","List2A","black","man","","true","5","","","","","","","","","",""
"null","CORRECT","","html-keyboard-response","58","359661","0.0-3.2-11.2-0.2","37457","List2A","black","man","","","","null","","","","","","","","",""
"63685.90000000596","<img src=""portrait/BW2.jpg""style=""height:400px;""></img>","2","html-button-response","59","423350","0.0-3.2-13.2","37457","List2A","black","man","","true","2","","","","","","","","","",""
"null","CORRECT","","html-keyboard-response","60","424869","0.0-3.2-14.2-0.2","37457","List2A","black","man","","","","null","","","","","","","","",""
"9982.40000000596","<img src=""portrait/WM2.jpg""style=""height:400px;""></img>","7","html-button-response","61","434860","0.0-3.2-16.2","37457","List2A","black","man","","true","7","","","","","","","","","",""
"null","CORRECT","","html-keyboard-response","62","436381","0.0-3.2-17.2-0.2","37457","List2A","black","man","","","","null","","","","","","","","",""
"11313.800000011921","<img src=""portrait/WW2.jpg""style=""height:400px;""></img>","3","html-button-response","63","447699","0.0-3.2-19.2","37457","List2A","black","man","","true","3","","","","","","","","","",""
"null","CORRECT","","html-keyboard-response","64","449211","0.0-3.2-20.2-0.2","37457","List2A","black","man","","","","null","","","","","","","","",""
"36305.29999998212","<img src=""portrait/BM1.jpg""style=""height:400px;""></img>","4","html-button-response","65","485526","0.0-3.2-22.2","37457","List2A","black","man","","true","4","","","","","","","","","",""
"null","CORRECT","","html-keyboard-response","66","487045","0.0-3.2-23.2-0.2","37457","List2A","black","man","","","","null","","","","","","","","",""
"3786.5","<p>You got 8 out of 8 right first time. Press Continue.</p>","0","html-button-response","67","490834","0.0-3.2-25.2","37457","List2A","black","man","","","","","","","","","","","","",""
"74882.5","<p>In this experiment, you will view photographs of the people from the memory game interacting.</p><p>By using the <strong>exact</strong> phrase given <i>after</i> the photograph appears and recalling the correct names of the people in the photographs, form a sentence describing the interaction. You do not need to capitalise names.</p><p>Type your answer in the space provided. Please complete every sentence before moving onto the next trial.</p><p>You will only have a few seconds to memorise each given photograph and phrase before you can respond, so try your best to focus.</p><p>An example is given below. Press 'Continue' when you are ready.</p><img src='img/speaking_example.jpg' style='width:800px;height:460px;''></img>","0","html-button-response","68","566734","0.0-4.0","37457","List2A","black","man","","","","","","","","","","","","",""
"5863.4000000059605","<p>Before the experiment starts, you will watch two example trials. Press 'Continue'.</p>","0","html-button-response","69","573611","0.0-5.0","37457","List2A","black","man","","","","","","","","","","","","",""
"null","<img src='img/play_eg.gif' style='height:400px;''></img>","","html-keyboard-response","70","576639","0.0-6.0","37457","List2A","black","man","","","","null","","","","","","","","",""
"null","<p>is playing with</p>","","html-keyboard-response","71","578642","0.0-7.0","37457","List2A","black","man","","","","null","","","","","","","","",""
"17443.19999998808","<p><b>Answer:</b> jane is playing with ruth</p>","0","html-button-response","72","596087","0.0-8.0","37457","List2A","black","man","","","","","","","","","","","","",""
"null","<img src='img/dance_eg.gif' style='height:400px;''></img>","","html-keyboard-response","73","599112","0.0-9.0","37457","List2A","black","man","","","","null","","","","","","","","",""
"null","<p>is being entertained by</p>","","html-keyboard-response","74","601115","0.0-10.0","37457","List2A","black","man","","","","null","","","","","","","","",""
"23584.70000001788","<p><b>Answer:</b> fred is being entertained by mike</p>","0","html-button-response","75","624701","0.0-11.0","37457","List2A","black","man","","","","","","","","","","","","",""
"10664.799999982119","<p>Ready to start the experiment?</p><br><p><strong>Remember to describe the picture using a full sentence,</strong></p><p><strong>that combines the names of the people with the <i>exact</i> phrase given.</strong></p><p><strong>To receive full payment you must do this correctly.</strong></p><p><strong> You do not need to capitalise names or use punctuation.</strong></p><br><p>Press 'Continue' to begin.</p>","0","html-button-response","76","636373","0.0-12.0","37457","List2A","black","man","","","","","","","","","","","","",""
"null","<div style=""font-size:60px;"">+</div>","","html-keyboard-response","77","637883","0.0-13.0-0.0","37457","List2A","black","man","","","","null","","","","","","","","",""
"null","<img src=""stim_listA/look6.gif""style=""height:400px;""></stim_listA>","","html-keyboard-response","78","639892","0.0-13.0-1.0","37457","List2A","black","man","","","","null","","","","","","","","",""
"null","is being looked at by","","html-keyboard-response","79","641895","0.0-13.0-2.0","37457","List2A","black","man","","","","null","","","","","","","","",""
"56253.70000001788","","","survey-text","80","698155","0.0-13.0-3.0","37457","List2A","black","man","","","","","{""Q0"":""fred is playing with milk""}","<img src=""stim_listA/look6.gif""style=""height:400px;""></stim_listA>","is being looked at by","","","","","",""
"null","<div style=""font-size:60px;"">+</div>","","html-keyboard-response","81","698672","0.0-13.0-0.1","37457","List2A","black","man","","","","null","","","","","","","","",""
"null","<img src=""stim_listA/copy8.gif""style=""height:400px;""></stim_listA>","","html-keyboard-response","82","700674","0.0-13.0-1.1","37457","List2A","black","man","","","","null","","","","","","","","",""
"null","is being copied by","","html-keyboard-response","83","702687","0.0-13.0-2.1","37457","List2A","black","man","","","","null","","","","","","","","",""
"39845.80000001192","","","survey-text","84","742536","0.0-13.0-3.1","37457","List2A","black","man","","","","","{""Q0"":""jane is playing with ruth""}","<img src=""stim_listA/copy8.gif""style=""height:400px;""></stim_listA>","is being copied by","","","","","",""
"null","<div style=""font-size:60px;"">+</div>","","html-keyboard-response","85","743039","0.0-13.0-0.2","37457","List2A","black","man","","","","null","","","","","","","","",""
"null","<img src=""stim_listA/greet8.gif""style=""height:400px;""></stim_listA>","","html-keyboard-response","86","745049","0.0-13.0-1.2","37457","List2A","black","man","","","","null","","","","","","","","",""
"null","is being greeted by","","html-keyboard-response","87","747061","0.0-13.0-2.2","37457","List2A","black","man","","","","null","","","","","","","","",""
"44612.70000001788","","","survey-text","88","791677","0.0-13.0-3.2","37457","List2A","black","man","","","","","{""Q0"":""jane and ruth""}","<img src=""stim_listA/greet8.gif""style=""height:400px;""></stim_listA>","is being greeted by","","","","","",""
"null","<div style=""font-size:60px;"">+</div>","","html-keyboard-response","89","792183","0.0-13.0-0.3","37457","List2A","black","man","","","","null","","","","","","","","",""
"null","<img src=""stim_listA/touch3.gif""style=""height:400px;""></stim_listA>","","html-keyboard-response","90","794193","0.0-13.0-1.3","37457","List2A","black","man","","","","null","","","","","","","","",""
"null","is touching","","html-keyboard-response","91","796209","0.0-13.0-2.3","37457","List2A","black","man","","","","null","","","","","","","","",""
"49616.70000001788","","","survey-text","92","845836","0.0-13.0-3.3","37457","List2A","black","man","","","","","{""Q0"":""milk and jane""}","<img src=""stim_listA/touch3.gif""style=""height:400px;""></stim_listA>","is touching","","","","","",""
"null","<div style=""font-size:60px;"">+</div>","","html-keyboard-response","93","846339","0.0-13.0-0.4","37457","List2A","black","man","","","","null","","","","","","","","",""
"null","<img src=""stim_listA/look2.gif""style=""height:400px;""></stim_listA>","","html-keyboard-response","94","848356","0.0-13.0-1.4","37457","List2A","black","man","","","","null","","","","","","","","",""
"null","is being looked at by","","html-keyboard-response","95","850369","0.0-13.0-2.4","37457","List2A","black","man","","","","null","","","","","","","","",""
"19584.59999999404","","","survey-text","96","869958","0.0-13.0-3.4","37457","List2A","black","man","","","","","{""Q0"":""fed and ruth""}","<img src=""stim_listA/look2.gif""style=""height:400px;""></stim_listA>","is being looked at by","","","","","",""
"null","<div style=""font-size:60px;"">+</div>","","html-keyboard-response","97","870469","0.0-13.0-0.5","37457","List2A","black","man","","","","null","","","","","","","","",""
"null","<img src=""stim_listA/greet1.gif""style=""height:400px;""></stim_listA>","","html-keyboard-response","98","872477","0.0-13.0-1.5","37457","List2A","black","man","","","","null","","","","","","","","",""
"null","is greeting","","html-keyboard-response","99","874493","0.0-13.0-2.5","37457","List2A","black","man","","","","null","","","","","","","","",""
"28373.5","","","survey-text","100","902870","0.0-13.0-3.5","37457","List2A","black","man","","","","","{""Q0"":""fed and ruth""}","<img src=""stim_listA/greet1.gif""style=""height:400px;""></stim_listA>","is greeting","","","","","",""
"null","<div style=""font-size:60px;"">+</div>","","html-keyboard-response","101","903380","0.0-13.0-0.6","37457","List2A","black","man","","","","null","","","","","","","","",""
"null","<img src=""stim_listA/kiss3.gif""style=""height:400px;""></stim_listA>","","html-keyboard-response","102","905399","0.0-13.0-1.6","37457","List2A","black","man","","","","null","","","","","","","","",""
"null","is kissing","","html-keyboard-response","103","907401","0.0-13.0-2.6","37457","List2A","black","man","","","","null","","","","","","","","",""
"72220.09999999404","","","survey-text","104","979625","0.0-13.0-3.6","37457","List2A","black","man","","","","","{""Q0"":""beth and luke""}","<img src=""stim_listA/kiss3.gif""style=""height:400px;""></stim_listA>","is kissing","","","","","",""
"null","<div style=""font-size:60px;"">+</div>","","html-keyboard-response","105","980137","0.0-13.0-0.7","37457","List2A","black","man","","","","null","","","","","","","","",""
"null","<img src=""stim_listA/touch1.gif""style=""height:400px;""></stim_listA>","","html-keyboard-response","106","982153","0.0-13.0-1.7","37457","List2A","black","man","","","","null","","","","","","","","",""
"null","is touching","","html-keyboard-response","107","984178","0.0-13.0-2.7","37457","List2A","black","man","","","","null","","","","","","","","",""
"24098.30000001192","","","survey-text","108","1008286","0.0-13.0-3.7","37457","List2A","black","man","","","","","{""Q0"":""jane and dave""}","<img src=""stim_listA/touch1.gif""style=""height:400px;""></stim_listA>","is touching","","","","","",""
"null","<div style=""font-size:60px;"">+</div>","","html-keyboard-response","109","1008793","0.0-13.0-0.8","37457","List2A","black","man","","","","null","","","","","","","","",""
"null","<img src=""stim_listA/greet6.gif""style=""height:400px;""></stim_listA>","","html-keyboard-response","110","1010801","0.0-13.0-1.8","37457","List2A","black","man","","","","null","","","","","","","","",""
"null","is being greeted by","","html-keyboard-response","111","1012817","0.0-13.0-2.8","37457","List2A","black","man","","","","null","","","","","","","","",""
"50987.09999999404","","","survey-text","112","1063814","0.0-13.0-3.8","37457","List2A","black","man","","","","","{""Q0"":""mike and fred""}","<img src=""stim_listA/greet6.gif""style=""height:400px;""></stim_listA>","is being greeted by","","","","","",""
"null","<div style=""font-size:60px;"">+</div>","","html-keyboard-response","113","1064329","0.0-13.0-0.9","37457","List2A","black","man","","","","null","","","","","","","","",""
"null","<img src=""stim_listA/copy7.gif""style=""height:400px;""></stim_listA>","","html-keyboard-response","114","1066346","0.0-13.0-1.9","37457","List2A","black","man","","","","null","","","","","","","","",""
"null","is copying","","html-keyboard-response","115","1068366","0.0-13.0-2.9","37457","List2A","black","man","","","","null","","","","","","","","",""
"25972","","","survey-text","116","1094348","0.0-13.0-3.9","37457","List2A","black","man","","","","","{""Q0"":""beth and jane""}","<img src=""stim_listA/copy7.gif""style=""height:400px;""></stim_listA>","is copying","","","","","",""
"null","<div style=""font-size:60px;"">+</div>","","html-keyboard-response","117","1094850","0.0-13.0-0.10","37457","List2A","black","man","","","","null","","","","","","","","",""
"null","<img src=""stim_listA/kiss5.gif""style=""height:400px;""></stim_listA>","","html-keyboard-response","118","1096866","0.0-13.0-1.10","37457","List2A","black","man","","","","null","","","","","","","","",""
"null","is kissing","","html-keyboard-response","119","1098880","0.0-13.0-2.10","37457","List2A","black","man","","","","null","","","","","","","","",""
"41775.5","","","survey-text","120","1140660","0.0-13.0-3.10","37457","List2A","black","man","","","","","{""Q0"":""luke and fred""}","<img src=""stim_listA/kiss5.gif""style=""height:400px;""></stim_listA>","is kissing","","","","","",""
"null","<div style=""font-size:60px;"">+</div>","","html-keyboard-response","121","1141163","0.0-13.0-0.11","37457","List2A","black","man","","","","null","","","","","","","","",""
"null","<img src=""stim_listA/oppose8.gif""style=""height:400px;""></stim_listA>","","html-keyboard-response","122","1143178","0.0-13.0-1.11","37457","List2A","black","man","","","","null","","","","","","","","",""
"null","is being opposed by","","html-keyboard-response","123","1145194","0.0-13.0-2.11","37457","List2A","black","man","","","","null","","","","","","","","",""
"27885.5","","","survey-text","124","1173084","0.0-13.0-3.11","37457","List2A","black","man","","","","","{""Q0"":""beth and jane""}","<img src=""stim_listA/oppose8.gif""style=""height:400px;""></stim_listA>","is being opposed by","","","","","",""
"null","<div style=""font-size:60px;"">+</div>","","html-keyboard-response","125","1173588","0.0-13.0-0.12","37457","List2A","black","man","","","","null","","","","","","","","",""
"null","<img src=""stim_listA/touch2.gif""style=""height:400px;""></stim_listA>","","html-keyboard-response","126","1175602","0.0-13.0-1.12","37457","List2A","black","man","","","","null","","","","","","","","",""
"null","is being touched by","","html-keyboard-response","127","1177617","0.0-13.0-2.12","37457","List2A","black","man","","","","null","","","","","","","","",""
"30729.69999998808","","","survey-text","128","1208354","0.0-13.0-3.12","37457","List2A","black","man","","","","","{""Q0"":""ruth and dave""}","<img src=""stim_listA/touch2.gif""style=""height:400px;""></stim_listA>","is being touched by","","","","","",""
"null","<div style=""font-size:60px;"">+</div>","","html-keyboard-response","129","1208857","0.0-13.0-0.13","37457","List2A","black","man","","","","null","","","","","","","","",""
"null","<img src=""stim_listA/seduce6.gif""style=""height:400px;""></stim_listA>","","html-keyboard-response","130","1210867","0.0-13.0-1.13","37457","List2A","black","man","","","","null","","","","","","","","",""
"null","is being seduced by","","html-keyboard-response","131","1212870","0.0-13.0-2.13","37457","List2A","black","man","","","","null","","","","","","","","",""
"33507.59999999404","","","survey-text","132","1246382","0.0-13.0-3.13","37457","List2A","black","man","","","","","{""Q0"":""dave and luke""}","<img src=""stim_listA/seduce6.gif""style=""height:400px;""></stim_listA>","is being seduced by","","","","","",""
"null","<div style=""font-size:60px;"">+</div>","","html-keyboard-response","133","1246890","0.0-13.0-0.14","37457","List2A","black","man","","","","null","","","","","","","","",""
"null","<img src=""stim_listA/greet2.gif""style=""height:400px;""></stim_listA>","","html-keyboard-response","134","1248909","0.0-13.0-1.14","37457","List2A","black","man","","","","null","","","","","","","","",""
"null","is being greeted by","","html-keyboard-response","135","1250911","0.0-13.0-2.14","37457","List2A","black","man","","","","null","","","","","","","","",""
"31050.40000000596","","","survey-text","136","1281966","0.0-13.0-3.14","37457","List2A","black","man","","","","","{""Q0"":""jane and fred""}","<img src=""stim_listA/greet2.gif""style=""height:400px;""></stim_listA>","is being greeted by","","","","","",""
"null","<div style=""font-size:60px;"">+</div>","","html-keyboard-response","137","1282472","0.0-13.0-0.15","37457","List2A","black","man","","","","null","","","","","","","","",""
"null","<img src=""stim_listA/touch8.gif""style=""height:400px;""></stim_listA>","","html-keyboard-response","138","1284490","0.0-13.0-1.15","37457","List2A","black","man","","","","null","","","","","","","","",""
"null","is being touched by","","html-keyboard-response","139","1286507","0.0-13.0-2.15","37457","List2A","black","man","","","","null","","","","","","","","",""
"40150.39999997616","","","survey-text","140","1326662","0.0-13.0-3.15","37457","List2A","black","man","","","","","{""Q0"":""beth and kate""}","<img src=""stim_listA/touch8.gif""style=""height:400px;""></stim_listA>","is being touched by","","","","","",""
"null","<div style=""font-size:60px;"">+</div>","","html-keyboard-response","141","1327173","0.0-13.0-0.16","37457","List2A","black","man","","","","null","","","","","","","","",""
"null","<img src=""stim_listA/challenge6.gif""style=""height:400px;""></stim_listA>","","html-keyboard-response","142","1329188","0.0-13.0-1.16","37457","List2A","black","man","","","","null","","","","","","","","",""
"null","is being challenged by","","html-keyboard-response","143","1331198","0.0-13.0-2.16","37457","List2A","black","man","","","","null","","","","","","","","",""
"30542.29999998212","","","survey-text","144","1361750","0.0-13.0-3.16","37457","List2A","black","man","","","","","{""Q0"":""mike and fred""}","<img src=""stim_listA/challenge6.gif""style=""height:400px;""></stim_listA>","is being challenged by","","","","","",""
"null","<div style=""font-size:60px;"">+</div>","","html-keyboard-response","145","1362253","0.0-13.0-0.17","37457","List2A","black","man","","","","null","","","","","","","","",""
"null","<img src=""stim_listA/kiss8.gif""style=""height:400px;""></stim_listA>","","html-keyboard-response","146","1364259","0.0-13.0-1.17","37457","List2A","black","man","","","","null","","","","","","","","",""
"null","is being kissed by","","html-keyboard-response","147","1366274","0.0-13.0-2.17","37457","List2A","black","man","","","","null","","","","","","","","",""
"29847.5","","","survey-text","148","1396125","0.0-13.0-3.17","37457","List2A","black","man","","","","","{""Q0"":""ruth and kate""}","<img src=""stim_listA/kiss8.gif""style=""height:400px;""></stim_listA>","is being kissed by","","","","","",""
"null","<div style=""font-size:60px;"">+</div>","","html-keyboard-response","149","1396634","0.0-13.0-0.18","37457","List2A","black","man","","","","null","","","","","","","","",""
"null","<img src=""stim_listA/hug5.gif""style=""height:400px;""></stim_listA>","","html-keyboard-response","150","1398653","0.0-13.0-1.18","37457","List2A","black","man","","","","null","","","","","","","","",""
"null","is hugging","","html-keyboard-response","151","1400669","0.0-13.0-2.18","37457","List2A","black","man","","","","null","","","","","","","","",""
"46045","","","survey-text","152","1446718","0.0-13.0-3.18","37457","List2A","black","man","","","","","{""Q0"":""dave and luke""}","<img src=""stim_listA/hug5.gif""style=""height:400px;""></stim_listA>","is hugging","","","","","",""
"null","<div style=""font-size:60px;"">+</div>","","html-keyboard-response","153","1447220","0.0-13.0-0.19","37457","List2A","black","man","","","","null","","","","","","","","",""
"null","<img src=""stim_listA/greet7.gif""style=""height:400px;""></stim_listA>","","html-keyboard-response","154","1449236","0.0-13.0-1.19","37457","List2A","black","man","","","","null","","","","","","","","",""
"null","is greeting","","html-keyboard-response","155","1451247","0.0-13.0-2.19","37457","List2A","black","man","","","","null","","","","","","","","",""
"69529","","","survey-text","156","1520779","0.0-13.0-3.19","37457","List2A","black","man","","","","","{""Q0"":""beth and jane""}","<img src=""stim_listA/greet7.gif""style=""height:400px;""></stim_listA>","is greeting","","","","","",""
"11535.300000011921","<img src='img/portrait_matrix_list2.jpg' style='width:900px;height:500px;''></img><p>If you have memorised all the portraits and names and are ready to start, press Continue.</p><p><strong>Please note: Your memory of these faces will be tested 4 times during this experiment.</strong></p>","0","html-button-response","157","1532323","0.0-14.0-0.0","37457","List2A","black","man","","","","","","","","","","","","",""
"20089","<img src=""portrait/BW1.jpg""style=""height:400px;""></img>","0","html-button-response","158","1553423","0.0-14.0-1.0","37457","List2A","black","man","","true","0","","","","","","","","","",""
"null","CORRECT","","html-keyboard-response","159","1554942","0.0-14.0-2.0-0.0","37457","List2A","black","man","","","","null","","","","","","","","",""
"8453.5","<img src=""portrait/WW2.jpg""style=""height:400px;""></img>","3","html-button-response","160","1563398","0.0-14.0-4.0","37457","List2A","black","man","","true","3","","","","","","","","","",""
"null","CORRECT","","html-keyboard-response","161","1564919","0.0-14.0-5.0-0.0","37457","List2A","black","man","","","","null","","","","","","","","",""
"9964.5","<img src=""portrait/WW1.jpg""style=""height:400px;""></img>","1","html-button-response","162","1574886","0.0-14.0-7.0","37457","List2A","black","man","","true","1","","","","","","","","","",""
"null","CORRECT","","html-keyboard-response","163","1576410","0.0-14.0-8.0-0.0","37457","List2A","black","man","","","","null","","","","","","","","",""
"8867.700000017881","<img src=""portrait/BM2.jpg""style=""height:400px;""></img>","5","html-button-response","164","1585286","0.0-14.0-10.0","37457","List2A","black","man","","true","5","","","","","","","","","",""
"null","CORRECT","","html-keyboard-response","165","1586809","0.0-14.0-11.0-0.0","37457","List2A","black","man","","","","null","","","","","","","","",""
"7725.5","<img src=""portrait/WM2.jpg""style=""height:400px;""></img>","7","html-button-response","166","1594538","0.0-14.0-13.0","37457","List2A","black","man","","true","7","","","","","","","","","",""
"null","CORRECT","","html-keyboard-response","167","1596056","0.0-14.0-14.0-0.0","37457","List2A","black","man","","","","null","","","","","","","","",""
"26515.40000000596","<img src=""portrait/BM1.jpg""style=""height:400px;""></img>","4","html-button-response","168","1622574","0.0-14.0-16.0","37457","List2A","black","man","","true","4","","","","","","","","","",""
"null","CORRECT","","html-keyboard-response","169","1624095","0.0-14.0-17.0-0.0","37457","List2A","black","man","","","","null","","","","","","","","",""
"8676.90000000596","<img src=""portrait/WM1.jpg""style=""height:400px;""></img>","6","html-button-response","170","1632775","0.0-14.0-19.0","37457","List2A","black","man","","true","6","","","","","","","","","",""
"null","CORRECT","","html-keyboard-response","171","1634281","0.0-14.0-20.0-0.0","37457","List2A","black","man","","","","null","","","","","","","","",""
"21370","<img src=""portrait/BW2.jpg""style=""height:400px;""></img>","2","html-button-response","172","1655655","0.0-14.0-22.0","37457","List2A","black","man","","true","2","","","","","","","","","",""
"null","CORRECT","","html-keyboard-response","173","1657175","0.0-14.0-23.0-0.0","37457","List2A","black","man","","","","null","","","","","","","","",""
"4178.5999999940395","<p>You got 8 out of 8 right first time. Press Continue.</p>","0","html-button-response","174","1661356","0.0-14.0-25.0","37457","List2A","black","man","","","","","","","","","","","","",""
"null","<div style=""font-size:60px;"">+</div>","","html-keyboard-response","175","1662879","0.0-15.0-0.0","37457","List2A","black","man","","","","null","","","","","","","","",""
"null","<img src=""stim_listA/touch6.gif""style=""height:400px;""></stim_listA>","","html-keyboard-response","176","1664896","0.0-15.0-1.0","37457","List2A","black","man","","","","null","","","","","","","","",""
"null","is being touched by","","html-keyboard-response","177","1666921","0.0-15.0-2.0","37457","List2A","black","man","","","","null","","","","","","","","",""
"83885","","","survey-text","178","1750815","0.0-15.0-3.0","37457","List2A","black","man","","","","","{""Q0"":""fred and luke""}","<img src=""stim_listA/touch6.gif""style=""height:400px;""></stim_listA>","is being touched by","","","","","",""
"null","<div style=""font-size:60px;"">+</div>","","html-keyboard-response","179","1751330","0.0-15.0-0.1","37457","List2A","black","man","","","","null","","","","","","","","",""
"null","<img src=""stim_listA/challenge7.gif""style=""height:400px;""></stim_listA>","","html-keyboard-response","180","1753338","0.0-15.0-1.1","37457","List2A","black","man","","","","null","","","","","","","","",""
"null","is challenging","","html-keyboard-response","181","1755340","0.0-15.0-2.1","37457","List2A","black","man","","","","null","","","","","","","","",""
"32380.19999998808","","","survey-text","182","1787723","0.0-15.0-3.1","37457","List2A","black","man","","","","","{""Q0"":""jane and beth""}","<img src=""stim_listA/challenge7.gif""style=""height:400px;""></stim_listA>","is challenging","","","","","",""
"null","<div style=""font-size:60px;"">+</div>","","html-keyboard-response","183","1788225","0.0-15.0-0.2","37457","List2A","black","man","","","","null","","","","","","","","",""
"null","<img src=""stim_listA/copy2.gif""style=""height:400px;""></stim_listA>","","html-keyboard-response","184","1790239","0.0-15.0-1.2","37457","List2A","black","man","","","","null","","","","","","","","",""
"null","is being copied by","","html-keyboard-response","185","1792251","0.0-15.0-2.2","37457","List2A","black","man","","","","null","","","","","","","","",""
"28526.90000000596","","","survey-text","186","1820782","0.0-15.0-3.2","37457","List2A","black","man","","","","","{""Q0"":""jane and dave""}","<img src=""stim_listA/copy2.gif""style=""height:400px;""></stim_listA>","is being copied by","","","","","",""
"null","<div style=""font-size:60px;"">+</div>","","html-keyboard-response","187","1821283","0.0-15.0-0.3","37457","List2A","black","man","","","","null","","","","","","","","",""
"null","<img src=""stim_listA/touch4.gif""style=""height:400px;""></stim_listA>","","html-keyboard-response","188","1823292","0.0-15.0-1.3","37457","List2A","black","man","","","","null","","","","","","","","",""
"null","is being touched by","","html-keyboard-response","189","1825296","0.0-15.0-2.3","37457","List2A","black","man","","","","null","","","","","","","","",""
"21762.100000023842","","","survey-text","190","1847067","0.0-15.0-3.3","37457","List2A","black","man","","","","","{""Q0"":""beth and luke""}","<img src=""stim_listA/touch4.gif""style=""height:400px;""></stim_listA>","is being touched by","","","","","",""
"null","<div style=""font-size:60px;"">+</div>","","html-keyboard-response","191","1847580","0.0-15.0-0.4","37457","List2A","black","man","","","","null","","","","","","","","",""
"null","<img src=""stim_listA/seduce7.gif""style=""height:400px;""></stim_listA>","","html-keyboard-response","192","1849596","0.0-15.0-1.4","37457","List2A","black","man","","","","null","","","","","","","","",""
"null","is seducing","","html-keyboard-response","193","1851614","0.0-15.0-2.4","37457","List2A","black","man","","","","null","","","","","","","","",""
"27834.20000001788","","","survey-text","194","1879451","0.0-15.0-3.4","37457","List2A","black","man","","","","","{""Q0"":""ruth and kate""}","<img src=""stim_listA/seduce7.gif""style=""height:400px;""></stim_listA>","is seducing","","","","","",""
"null","<div style=""font-size:60px;"">+</div>","","html-keyboard-response","195","1879968","0.0-15.0-0.5","37457","List2A","black","man","","","","null","","","","","","","","",""
"null","<img src=""stim_listA/copy1.gif""style=""height:400px;""></stim_listA>","","html-keyboard-response","196","1881984","0.0-15.0-1.5","37457","List2A","black","man","","","","null","","","","","","","","",""
"null","is copying","","html-keyboard-response","197","1883998","0.0-15.0-2.5","37457","List2A","black","man","","","","null","","","","","","","","",""
"25135.69999998808","","","survey-text","198","1909137","0.0-15.0-3.5","37457","List2A","black","man","","","","","{""Q0"":""dave and jane""}","<img src=""stim_listA/copy1.gif""style=""height:400px;""></stim_listA>","is copying","","","","","",""
"null","<div style=""font-size:60px;"">+</div>","","html-keyboard-response","199","1909640","0.0-15.0-0.6","37457","List2A","black","man","","","","null","","","","","","","","",""
"null","<img src=""stim_listA/oppose3.gif""style=""height:400px;""></stim_listA>","","html-keyboard-response","200","1911654","0.0-15.0-1.6","37457","List2A","black","man","","","","null","","","","","","","","",""
"null","is opposing","","html-keyboard-response","201","1913656","0.0-15.0-2.6","37457","List2A","black","man","","","","null","","","","","","","","",""
"25628.90000000596","","","survey-text","202","1939294","0.0-15.0-3.6","37457","List2A","black","man","","","","","{""Q0"":""mike and kate""}","<img src=""stim_listA/oppose3.gif""style=""height:400px;""></stim_listA>","is opposing","","","","","",""
"null","<div style=""font-size:60px;"">+</div>","","html-keyboard-response","203","1939823","0.0-15.0-0.7","37457","List2A","black","man","","","","null","","","","","","","","",""
"null","<img src=""stim_listA/look5.gif""style=""height:400px;""></stim_listA>","","html-keyboard-response","204","1941837","0.0-15.0-1.7","37457","List2A","black","man","","","","null","","","","","","","","",""
"null","is looking at","","html-keyboard-response","205","1943853","0.0-15.0-2.7","37457","List2A","black","man","","","","null","","","","","","","","",""
"20431.5","","","survey-text","206","1964288","0.0-15.0-3.7","37457","List2A","black","man","","","","","{""Q0"":""fred and dave""}","<img src=""stim_listA/look5.gif""style=""height:400px;""></stim_listA>","is looking at","","","","","",""
"null","<div style=""font-size:60px;"">+</div>","","html-keyboard-response","207","1964800","0.0-15.0-0.8","37457","List2A","black","man","","","","null","","","","","","","","",""
"null","<img src=""stim_listA/shout8.gif""style=""height:400px;""></stim_listA>","","html-keyboard-response","208","1966817","0.0-15.0-1.8","37457","List2A","black","man","","","","null","","","","","","","","",""
"null","is being shouted at by","","html-keyboard-response","209","1968832","0.0-15.0-2.8","37457","List2A","black","man","","","","null","","","","","","","","",""
"20274.40000000596","","","survey-text","210","1989110","0.0-15.0-3.8","37457","List2A","black","man","","","","","{""Q0"":""jane and kate""}","<img src=""stim_listA/shout8.gif""style=""height:400px;""></stim_listA>","is being shouted at by","","","","","",""
"null","<div style=""font-size:60px;"">+</div>","","html-keyboard-response","211","1989616","0.0-15.0-0.9","37457","List2A","black","man","","","","null","","","","","","","","",""
"null","<img src=""stim_listA/shout6.gif""style=""height:400px;""></stim_listA>","","html-keyboard-response","212","1991632","0.0-15.0-1.9","37457","List2A","black","man","","","","null","","","","","","","","",""
"null","is being shouted at by","","html-keyboard-response","213","1993636","0.0-15.0-2.9","37457","List2A","black","man","","","","null","","","","","","","","",""
"17862.19999998808","","","survey-text","214","2011502","0.0-15.0-3.9","37457","List2A","black","man","","","","","{""Q0"":""mike and dave""}","<img src=""stim_listA/shout6.gif""style=""height:400px;""></stim_listA>","is being shouted at by","","","","","",""
"null","<div style=""font-size:60px;"">+</div>","","html-keyboard-response","215","2012012","0.0-15.0-0.10","37457","List2A","black","man","","","","null","","","","","","","","",""
"null","<img src=""stim_listA/touch5.gif""style=""height:400px;""></stim_listA>","","html-keyboard-response","216","2014029","0.0-15.0-1.10","37457","List2A","black","man","","","","null","","","","","","","","",""
"null","is touching","","html-keyboard-response","217","2016043","0.0-15.0-2.10","37457","List2A","black","man","","","","null","","","","","","","","",""
"17895.20000001788","","","survey-text","218","2033942","0.0-15.0-3.10","37457","List2A","black","man","","","","","{""Q0"":""dave and mike""}","<img src=""stim_listA/touch5.gif""style=""height:400px;""></stim_listA>","is touching","","","","","",""
"null","<div style=""font-size:60px;"">+</div>","","html-keyboard-response","219","2034447","0.0-15.0-0.11","37457","List2A","black","man","","","","null","","","","","","","","",""
"null","<img src=""stim_listA/greet4.gif""style=""height:400px;""></stim_listA>","","html-keyboard-response","220","2036454","0.0-15.0-1.11","37457","List2A","black","man","","","","null","","","","","","","","",""
"null","is being greeted by","","html-keyboard-response","221","2038463","0.0-15.0-2.11","37457","List2A","black","man","","","","null","","","","","","","","",""
"27055.19999998808","","","survey-text","222","2065522","0.0-15.0-3.11","37457","List2A","black","man","","","","","{""Q0"":""fred and beth""}","<img src=""stim_listA/greet4.gif""style=""height:400px;""></stim_listA>","is being greeted by","","","","","",""
"null","<div style=""font-size:60px;"">+</div>","","html-keyboard-response","223","2066039","0.0-15.0-0.12","37457","List2A","black","man","","","","null","","","","","","","","",""
"null","<img src=""stim_listA/look7.gif""style=""height:400px;""></stim_listA>","","html-keyboard-response","224","2068051","0.0-15.0-1.12","37457","List2A","black","man","","","","null","","","","","","","","",""
"null","is looking at","","html-keyboard-response","225","2070066","0.0-15.0-2.12","37457","List2A","black","man","","","","null","","","","","","","","",""
"31096.80000001192","","","survey-text","226","2101167","0.0-15.0-3.12","37457","List2A","black","man","","","","","{""Q0"":""beth and ruth""}","<img src=""stim_listA/look7.gif""style=""height:400px;""></stim_listA>","is looking at","","","","","",""
"null","<div style=""font-size:60px;"">+</div>","","html-keyboard-response","227","2101671","0.0-15.0-0.13","37457","List2A","black","man","","","","null","","","","","","","","",""
"null","<img src=""stim_listA/shout5.gif""style=""height:400px;""></stim_listA>","","html-keyboard-response","228","2103686","0.0-15.0-1.13","37457","List2A","black","man","","","","null","","","","","","","","",""
"null","is shouting at","","html-keyboard-response","229","2105697","0.0-15.0-2.13","37457","List2A","black","man","","","","null","","","","","","","","",""
"16649.19999998808","","","survey-text","230","2122350","0.0-15.0-3.13","37457","List2A","black","man","","","","","{""Q0"":""luke and dave""}","<img src=""stim_listA/shout5.gif""style=""height:400px;""></stim_listA>","is shouting at","","","","","",""
"null","<div style=""font-size:60px;"">+</div>","","html-keyboard-response","231","2122863","0.0-15.0-0.14","37457","List2A","black","man","","","","null","","","","","","","","",""
"null","<img src=""stim_listA/greet5.gif""style=""height:400px;""></stim_listA>","","html-keyboard-response","232","2124879","0.0-15.0-1.14","37457","List2A","black","man","","","","null","","","","","","","","",""
"null","is greeting","","html-keyboard-response","233","2126890","0.0-15.0-2.14","37457","List2A","black","man","","","","null","","","","","","","","",""
"16687.90000000596","","","survey-text","234","2143583","0.0-15.0-3.14","37457","List2A","black","man","","","","","{""Q0"":""luke and dave""}","<img src=""stim_listA/greet5.gif""style=""height:400px;""></stim_listA>","is greeting","","","","","",""
"null","<div style=""font-size:60px;"">+</div>","","html-keyboard-response","235","2144091","0.0-15.0-0.15","37457","List2A","black","man","","","","null","","","","","","","","",""
"null","<img src=""stim_listA/challenge2.gif""style=""height:400px;""></stim_listA>","","html-keyboard-response","236","2146107","0.0-15.0-1.15","37457","List2A","black","man","","","","null","","","","","","","","",""
"null","is being challenged by","","html-keyboard-response","237","2148123","0.0-15.0-2.15","37457","List2A","black","man","","","","null","","","","","","","","",""
"21876.90000000596","","","survey-text","238","2170004","0.0-15.0-3.15","37457","List2A","black","man","","","","","{""Q0"":""jane and dave""}","<img src=""stim_listA/challenge2.gif""style=""height:400px;""></stim_listA>","is being challenged by","","","","","",""
"null","<div style=""font-size:60px;"">+</div>","","html-keyboard-response","239","2170522","0.0-15.0-0.16","37457","List2A","black","man","","","","null","","","","","","","","",""
"null","<img src=""stim_listA/touch7.gif""style=""height:400px;""></stim_listA>","","html-keyboard-response","240","2172525","0.0-15.0-1.16","37457","List2A","black","man","","","","null","","","","","","","","",""
"null","is touching","","html-keyboard-response","241","2174538","0.0-15.0-2.16","37457","List2A","black","man","","","","null","","","","","","","","",""
"24781.09999999404","","","survey-text","242","2199323","0.0-15.0-3.16","37457","List2A","black","man","","","","","{""Q0"":""ruth and fred""}","<img src=""stim_listA/touch7.gif""style=""height:400px;""></stim_listA>","is touching","","","","","",""
"null","<div style=""font-size:60px;"">+</div>","","html-keyboard-response","243","2199842","0.0-15.0-0.17","37457","List2A","black","man","","","","null","","","","","","","","",""
"null","<img src=""stim_listA/hug7.gif""style=""height:400px;""></stim_listA>","","html-keyboard-response","244","2201855","0.0-15.0-1.17","37457","List2A","black","man","","","","null","","","","","","","","",""
"null","is hugging","","html-keyboard-response","245","2203869","0.0-15.0-2.17","37457","List2A","black","man","","","","null","","","","","","","","",""
"27230.90000000596","","","survey-text","246","2231104","0.0-15.0-3.17","37457","List2A","black","man","","","","","{""Q0"":""beth and luke""}","<img src=""stim_listA/hug7.gif""style=""height:400px;""></stim_listA>","is hugging","","","","","",""
"null","<div style=""font-size:60px;"">+</div>","","html-keyboard-response","247","2231615","0.0-15.0-0.18","37457","List2A","black","man","","","","null","","","","","","","","",""
"null","<img src=""stim_listA/seduce5.gif""style=""height:400px;""></stim_listA>","","html-keyboard-response","248","2233632","0.0-15.0-1.18","37457","List2A","black","man","","","","null","","","","","","","","",""
"null","is seducing","","html-keyboard-response","249","2235649","0.0-15.0-2.18","37457","List2A","black","man","","","","null","","","","","","","","",""
"14223.59999999404","","","survey-text","250","2249877","0.0-15.0-3.18","37457","List2A","black","man","","","","","{""Q0"":""mike and dave""}","<img src=""stim_listA/seduce5.gif""style=""height:400px;""></stim_listA>","is seducing","","","","","",""
"null","<div style=""font-size:60px;"">+</div>","","html-keyboard-response","251","2250379","0.0-15.0-0.19","37457","List2A","black","man","","","","null","","","","","","","","",""
"null","<img src=""stim_listA/shout3.gif""style=""height:400px;""></stim_listA>","","html-keyboard-response","252","2252393","0.0-15.0-1.19","37457","List2A","black","man","","","","null","","","","","","","","",""
"null","is shouting at","","html-keyboard-response","253","2254405","0.0-15.0-2.19","37457","List2A","black","man","","","","null","","","","","","","","",""
"25783.600000023842","","","survey-text","254","2280192","0.0-15.0-3.19","37457","List2A","black","man","","","","","{""Q0"":""beth and fred""}","<img src=""stim_listA/shout3.gif""style=""height:400px;""></stim_listA>","is shouting at","","","","","",""
"7910","<img src='img/portrait_matrix_list2.jpg' style='width:900px;height:500px;''></img><p>If you have memorised all the portraits and names and are ready to start, press Continue.</p><p><strong>Please note: Your memory of these faces will be tested 4 times during this experiment.</strong></p>","0","html-button-response","255","2288105","0.0-16.0-0.0","37457","List2A","black","man","","","","","","","","","","","","",""
"23636.19999998808","<img src=""portrait/BW1.jpg""style=""height:400px;""></img>","0","html-button-response","256","2312752","0.0-16.0-1.0","37457","List2A","black","man","","true","0","","","","","","","","","",""
"null","CORRECT","","html-keyboard-response","257","2314262","0.0-16.0-2.0-0.0","37457","List2A","black","man","","","","null","","","","","","","","",""
"21851.90000000596","<img src=""portrait/WW2.jpg""style=""height:400px;""></img>","3","html-button-response","258","2336124","0.0-16.0-4.0","37457","List2A","black","man","","true","3","","","","","","","","","",""
"null","CORRECT","","html-keyboard-response","259","2337652","0.0-16.0-5.0-0.0","37457","List2A","black","man","","","","null","","","","","","","","",""
"32664","<img src=""portrait/BM1.jpg""style=""height:400px;""></img>","4","html-button-response","260","2370325","0.0-16.0-7.0","37457","List2A","black","man","","true","4","","","","","","","","","",""
"null","CORRECT","","html-keyboard-response","261","2371842","0.0-16.0-8.0-0.0","37457","List2A","black","man","","","","null","","","","","","","","",""
"26826","<img src=""portrait/BW2.jpg""style=""height:400px;""></img>","2","html-button-response","262","2398671","0.0-16.0-10.0","37457","List2A","black","man","","true","2","","","","","","","","","",""
"null","CORRECT","","html-keyboard-response","263","2400193","0.0-16.0-11.0-0.0","37457","List2A","black","man","","","","null","","","","","","","","",""
"14490","<img src=""portrait/BM2.jpg""style=""height:400px;""></img>","5","html-button-response","264","2414687","0.0-16.0-13.0","37457","List2A","black","man","","true","5","","","","","","","","","",""
"null","CORRECT","","html-keyboard-response","265","2416205","0.0-16.0-14.0-0.0","37457","List2A","black","man","","","","null","","","","","","","","",""
"22710.79999998212","<img src=""portrait/WM1.jpg""style=""height:400px;""></img>","6","html-button-response","266","2438919","0.0-16.0-16.0","37457","List2A","black","man","","true","6","","","","","","","","","",""
"null","CORRECT","","html-keyboard-response","267","2440427","0.0-16.0-17.0-0.0","37457","List2A","black","man","","","","null","","","","","","","","",""
"10629.700000017881","<img src=""portrait/WM2.jpg""style=""height:400px;""></img>","7","html-button-response","268","2451060","0.0-16.0-19.0","37457","List2A","black","man","","true","7","","","","","","","","","",""
"null","CORRECT","","html-keyboard-response","269","2452586","0.0-16.0-20.0-0.0","37457","List2A","black","man","","","","null","","","","","","","","",""
"11061","<img src=""portrait/WW1.jpg""style=""height:400px;""></img>","1","html-button-response","270","2463655","0.0-16.0-22.0","37457","List2A","black","man","","true","1","","","","","","","","","",""
"null","CORRECT","","html-keyboard-response","271","2465194","0.0-16.0-23.0-0.0","37457","List2A","black","man","","","","null","","","","","","","","",""
"3867.600000023842","<p>You got 8 out of 8 right first time. Press Continue.</p>","0","html-button-response","272","2469070","0.0-16.0-25.0","37457","List2A","black","man","","","","","","","","","","","","",""
"null","<div style=""font-size:60px;"">+</div>","","html-keyboard-response","273","2470595","0.0-17.0-0.0","37457","List2A","black","man","","","","null","","","","","","","","",""
"null","<img src=""stim_listA/kiss4.gif""style=""height:400px;""></stim_listA>","","html-keyboard-response","274","2472618","0.0-17.0-1.0","37457","List2A","black","man","","","","null","","","","","","","","",""
"null","is being kissed by","","html-keyboard-response","275","2474633","0.0-17.0-2.0","37457","List2A","black","man","","","","null","","","","","","","","",""
"45425.19999998808","","","survey-text","276","2520068","0.0-17.0-3.0","37457","List2A","black","man","","","","","{""Q0"":""dave and kate""}","<img src=""stim_listA/kiss4.gif""style=""height:400px;""></stim_listA>","is being kissed by","","","","","",""
"null","<div style=""font-size:60px;"">+</div>","","html-keyboard-response","277","2520583","0.0-17.0-0.1","37457","List2A","black","man","","","","null","","","","","","","","",""
"null","<img src=""stim_listA/hug4.gif""style=""height:400px;""></stim_listA>","","html-keyboard-response","278","2522587","0.0-17.0-1.1","37457","List2A","black","man","","","","null","","","","","","","","",""
"null","is being hugged by","","html-keyboard-response","279","2524596","0.0-17.0-2.1","37457","List2A","black","man","","","","null","","","","","","","","",""
"12326.799999982119","","","survey-text","280","2536933","0.0-17.0-3.1","37457","List2A","black","man","","","","","{""Q0"":""dave and kate""}","<img src=""stim_listA/hug4.gif""style=""height:400px;""></stim_listA>","is being hugged by","","","","","",""
"null","<div style=""font-size:60px;"">+</div>","","html-keyboard-response","281","2537435","0.0-17.0-0.2","37457","List2A","black","man","","","","null","","","","","","","","",""
"null","<img src=""stim_listA/hug6.gif""style=""height:400px;""></stim_listA>","","html-keyboard-response","282","2539444","0.0-17.0-1.2","37457","List2A","black","man","","","","null","","","","","","","","",""
"null","is being hugged by","","html-keyboard-response","283","2541448","0.0-17.0-2.2","37457","List2A","black","man","","","","null","","","","","","","","",""
"30680","","","survey-text","284","2572131","0.0-17.0-3.2","37457","List2A","black","man","","","","","{""Q0"":""mike and luke""}","<img src=""stim_listA/hug6.gif""style=""height:400px;""></stim_listA>","is being hugged by","","","","","",""
"null","<div style=""font-size:60px;"">+</div>","","html-keyboard-response","285","2572642","0.0-17.0-0.3","37457","List2A","black","man","","","","null","","","","","","","","",""
"null","<img src=""stim_listA/shout1.gif""style=""height:400px;""></stim_listA>","","html-keyboard-response","286","2574657","0.0-17.0-1.3","37457","List2A","black","man","","","","null","","","","","","","","",""
"null","is shouting at","","html-keyboard-response","287","2576674","0.0-17.0-2.3","37457","List2A","black","man","","","","null","","","","","","","","",""
"21690.40000000596","","","survey-text","288","2598368","0.0-17.0-3.3","37457","List2A","black","man","","","","","{""Q0"":""luke and ruth""}","<img src=""stim_listA/shout1.gif""style=""height:400px;""></stim_listA>","is shouting at","","","","","",""
"null","<div style=""font-size:60px;"">+</div>","","html-keyboard-response","289","2598879","0.0-17.0-0.4","37457","List2A","black","man","","","","null","","","","","","","","",""
"null","<img src=""stim_listA/kiss2.gif""style=""height:400px;""></stim_listA>","","html-keyboard-response","290","2600884","0.0-17.0-1.4","37457","List2A","black","man","","","","null","","","","","","","","",""
"null","is being kissed by","","html-keyboard-response","291","2602895","0.0-17.0-2.4","37457","List2A","black","man","","","","null","","","","","","","","",""
"38747.40000000596","","","survey-text","292","2641646","0.0-17.0-3.4","37457","List2A","black","man","","","","","{""Q0"":""luke and ruth""}","<img src=""stim_listA/kiss2.gif""style=""height:400px;""></stim_listA>","is being kissed by","","","","","",""
"null","<div style=""font-size:60px;"">+</div>","","html-keyboard-response","293","2642159","0.0-17.0-0.5","37457","List2A","black","man","","","","null","","","","","","","","",""
"null","<img src=""stim_listA/copy3.gif""style=""height:400px;""></stim_listA>","","html-keyboard-response","294","2644184","0.0-17.0-1.5","37457","List2A","black","man","","","","null","","","","","","","","",""
"null","is copying","","html-keyboard-response","295","2646201","0.0-17.0-2.5","37457","List2A","black","man","","","","null","","","","","","","","",""
"21639.80000001192","","","survey-text","296","2667844","0.0-17.0-3.5","37457","List2A","black","man","","","","","{""Q0"":""mike and beth""}","<img src=""stim_listA/copy3.gif""style=""height:400px;""></stim_listA>","is copying","","","","","",""
"null","<div style=""font-size:60px;"">+</div>","","html-keyboard-response","297","2668354","0.0-17.0-0.6","37457","List2A","black","man","","","","null","","","","","","","","",""
"null","<img src=""stim_listA/seduce1.gif""style=""height:400px;""></stim_listA>","","html-keyboard-response","298","2670360","0.0-17.0-1.6","37457","List2A","black","man","","","","null","","","","","","","","",""
"null","is seducing","","html-keyboard-response","299","2672374","0.0-17.0-2.6","37457","List2A","black","man","","","","null","","","","","","","","",""
"20401.09999999404","","","survey-text","300","2692779","0.0-17.0-3.6","37457","List2A","black","man","","","","","{""Q0"":""luke and jane""}","<img src=""stim_listA/seduce1.gif""style=""height:400px;""></stim_listA>","is seducing","","","","","",""
"null","<div style=""font-size:60px;"">+</div>","","html-keyboard-response","301","2693290","0.0-17.0-0.7","37457","List2A","black","man","","","","null","","","","","","","","",""
"null","<img src=""stim_listA/oppose5.gif""style=""height:400px;""></stim_listA>","","html-keyboard-response","302","2695313","0.0-17.0-1.7","37457","List2A","black","man","","","","null","","","","","","","","",""
"null","is opposing","","html-keyboard-response","303","2697321","0.0-17.0-2.7","37457","List2A","black","man","","","","null","","","","","","","","",""
"16857","","","survey-text","304","2714182","0.0-17.0-3.7","37457","List2A","black","man","","","","","{""Q0"":""dave and milk""}","<img src=""stim_listA/oppose5.gif""style=""height:400px;""></stim_listA>","is opposing","","","","","",""
"null","<div style=""font-size:60px;"">+</div>","","html-keyboard-response","305","2714696","0.0-17.0-0.8","37457","List2A","black","man","","","","null","","","","","","","","",""
"null","<img src=""stim_listA/look8.gif""style=""height:400px;""></stim_listA>","","html-keyboard-response","306","2716711","0.0-17.0-1.8","37457","List2A","black","man","","","","null","","","","","","","","",""
"null","is being looked at by","","html-keyboard-response","307","2718723","0.0-17.0-2.8","37457","List2A","black","man","","","","null","","","","","","","","",""
"27903.30000001192","","","survey-text","308","2746630","0.0-17.0-3.8","37457","List2A","black","man","","","","","{""Q0"":""jane and kate""}","<img src=""stim_listA/look8.gif""style=""height:400px;""></stim_listA>","is being looked at by","","","","","",""
"null","<div style=""font-size:60px;"">+</div>","","html-keyboard-response","309","2747147","0.0-17.0-0.9","37457","List2A","black","man","","","","null","","","","","","","","",""
"null","<img src=""stim_listA/greet3.gif""style=""height:400px;""></stim_listA>","","html-keyboard-response","310","2749155","0.0-17.0-1.9","37457","List2A","black","man","","","","null","","","","","","","","",""
"null","is greeting","","html-keyboard-response","311","2751164","0.0-17.0-2.9","37457","List2A","black","man","","","","null","","","","","","","","",""
"15501.299999982119","","","survey-text","312","2766677","0.0-17.0-3.9","37457","List2A","black","man","","","","","{""Q0"":""mike and beth""}","<img src=""stim_listA/greet3.gif""style=""height:400px;""></stim_listA>","is greeting","","","","","",""
"null","<div style=""font-size:60px;"">+</div>","","html-keyboard-response","313","2767189","0.0-17.0-0.10","37457","List2A","black","man","","","","null","","","","","","","","",""
"null","<img src=""stim_listA/seduce4.gif""style=""height:400px;""></stim_listA>","","html-keyboard-response","314","2769204","0.0-17.0-1.10","37457","List2A","black","man","","","","null","","","","","","","","",""
"null","is being seduced by","","html-keyboard-response","315","2771207","0.0-17.0-2.10","37457","List2A","black","man","","","","null","","","","","","","","",""
"10403.100000023842","","","survey-text","316","2781620","0.0-17.0-3.10","37457","List2A","black","man","","","","","{""Q0"":""mike and beth""}","<img src=""stim_listA/seduce4.gif""style=""height:400px;""></stim_listA>","is being seduced by","","","","","",""
"null","<div style=""font-size:60px;"">+</div>","","html-keyboard-response","317","2782134","0.0-17.0-0.11","37457","List2A","black","man","","","","null","","","","","","","","",""
"null","<img src=""stim_listA/kiss1.gif""style=""height:400px;""></stim_listA>","","html-keyboard-response","318","2784149","0.0-17.0-1.11","37457","List2A","black","man","","","","null","","","","","","","","",""
"null","is kissing","","html-keyboard-response","319","2786168","0.0-17.0-2.11","37457","List2A","black","man","","","","null","","","","","","","","",""
"22643.79999998212","","","survey-text","320","2808815","0.0-17.0-3.11","37457","List2A","black","man","","","","","{""Q0"":""dave and jane""}","<img src=""stim_listA/kiss1.gif""style=""height:400px;""></stim_listA>","is kissing","","","","","",""
"null","<div style=""font-size:60px;"">+</div>","","html-keyboard-response","321","2809322","0.0-17.0-0.12","37457","List2A","black","man","","","","null","","","","","","","","",""
"null","<img src=""stim_listA/copy6.gif""style=""height:400px;""></stim_listA>","","html-keyboard-response","322","2811339","0.0-17.0-1.12","37457","List2A","black","man","","","","null","","","","","","","","",""
"null","is being copied by","","html-keyboard-response","323","2813342","0.0-17.0-2.12","37457","List2A","black","man","","","","null","","","","","","","","",""
"10606.100000023842","","","survey-text","324","2823952","0.0-17.0-3.12","37457","List2A","black","man","","","","","{""Q0"":""mike and dave""}","<img src=""stim_listA/copy6.gif""style=""height:400px;""></stim_listA>","is being copied by","","","","","",""
"null","<div style=""font-size:60px;"">+</div>","","html-keyboard-response","325","2824467","0.0-17.0-0.13","37457","List2A","black","man","","","","null","","","","","","","","",""
"null","<img src=""stim_listA/oppose2.gif""style=""height:400px;""></stim_listA>","","html-keyboard-response","326","2826473","0.0-17.0-1.13","37457","List2A","black","man","","","","null","","","","","","","","",""
"null","is being opposed by","","html-keyboard-response","327","2828494","0.0-17.0-2.13","37457","List2A","black","man","","","","null","","","","","","","","",""
"21444.90000000596","","","survey-text","328","2849943","0.0-17.0-3.13","37457","List2A","black","man","","","","","{""Q0"":""dave and jane""}","<img src=""stim_listA/oppose2.gif""style=""height:400px;""></stim_listA>","is being opposed by","","","","","",""
"null","<div style=""font-size:60px;"">+</div>","","html-keyboard-response","329","2850454","0.0-17.0-0.14","37457","List2A","black","man","","","","null","","","","","","","","",""
"null","<img src=""stim_listA/seduce3.gif""style=""height:400px;""></stim_listA>","","html-keyboard-response","330","2852467","0.0-17.0-1.14","37457","List2A","black","man","","","","null","","","","","","","","",""
"null","is seducing","","html-keyboard-response","331","2854482","0.0-17.0-2.14","37457","List2A","black","man","","","","null","","","","","","","","",""
"21625.40000000596","","","survey-text","332","2876111","0.0-17.0-3.14","37457","List2A","black","man","","","","","{""Q0"":""fred and beth""}","<img src=""stim_listA/seduce3.gif""style=""height:400px;""></stim_listA>","is seducing","","","","","",""
"null","<div style=""font-size:60px;"">+</div>","","html-keyboard-response","333","2876626","0.0-17.0-0.15","37457","List2A","black","man","","","","null","","","","","","","","",""
"null","<img src=""stim_listA/challenge8.gif""style=""height:400px;""></stim_listA>","","html-keyboard-response","334","2878642","0.0-17.0-1.15","37457","List2A","black","man","","","","null","","","","","","","","",""
"null","is being challenged by","","html-keyboard-response","335","2880644","0.0-17.0-2.15","37457","List2A","black","man","","","","null","","","","","","","","",""
"78209.59999999404","","","survey-text","336","2958868","0.0-17.0-3.15","37457","List2A","black","man","","","","","{""Q0"":""jane and fred""}","<img src=""stim_listA/challenge8.gif""style=""height:400px;""></stim_listA>","is being challenged by","","","","","",""
"null","<div style=""font-size:60px;"">+</div>","","html-keyboard-response","337","2959383","0.0-17.0-0.16","37457","List2A","black","man","","","","null","","","","","","","","",""
"null","<img src=""stim_listA/look4.gif""style=""height:400px;""></stim_listA>","","html-keyboard-response","338","2961389","0.0-17.0-1.16","37457","List2A","black","man","","","","null","","","","","","","","",""
"null","is being looked at by","","html-keyboard-response","339","2963402","0.0-17.0-2.16","37457","List2A","black","man","","","","null","","","","","","","","",""
"23312.5","","","survey-text","340","2986719","0.0-17.0-3.16","37457","List2A","black","man","","","","","{""Q0"":""mike and kate""}","<img src=""stim_listA/look4.gif""style=""height:400px;""></stim_listA>","is being looked at by","","","","","",""
"null","<div style=""font-size:60px;"">+</div>","","html-keyboard-response","341","2987229","0.0-17.0-0.17","37457","List2A","black","man","","","","null","","","","","","","","",""
"null","<img src=""stim_listA/seduce2.gif""style=""height:400px;""></stim_listA>","","html-keyboard-response","342","2989233","0.0-17.0-1.17","37457","List2A","black","man","","","","null","","","","","","","","",""
"null","is being seduced by","","html-keyboard-response","343","2991244","0.0-17.0-2.17","37457","List2A","black","man","","","","null","","","","","","","","",""
"17222.79999998212","","","survey-text","344","3008471","0.0-17.0-3.17","37457","List2A","black","man","","","","","{""Q0"":""dave and ruth""}","<img src=""stim_listA/seduce2.gif""style=""height:400px;""></stim_listA>","is being seduced by","","","","","",""
"null","<div style=""font-size:60px;"">+</div>","","html-keyboard-response","345","3008981","0.0-17.0-0.18","37457","List2A","black","man","","","","null","","","","","","","","",""
"null","<img src=""stim_listA/copy5.gif""style=""height:400px;""></stim_listA>","","html-keyboard-response","346","3010988","0.0-17.0-1.18","37457","List2A","black","man","","","","null","","","","","","","","",""
"null","is copying","","html-keyboard-response","347","3013000","0.0-17.0-2.18","37457","List2A","black","man","","","","null","","","","","","","","",""
"19369","","","survey-text","348","3032373","0.0-17.0-3.18","37457","List2A","black","man","","","","","{""Q0"":""fred and dave""}","<img src=""stim_listA/copy5.gif""style=""height:400px;""></stim_listA>","is copying","","","","","",""
"null","<div style=""font-size:60px;"">+</div>","","html-keyboard-response","349","3032875","0.0-17.0-0.19","37457","List2A","black","man","","","","null","","","","","","","","",""
"null","<img src=""stim_listA/challenge4.gif""style=""height:400px;""></stim_listA>","","html-keyboard-response","350","3034891","0.0-17.0-1.19","37457","List2A","black","man","","","","null","","","","","","","","",""
"null","is being challenged by","","html-keyboard-response","351","3036905","0.0-17.0-2.19","37457","List2A","black","man","","","","null","","","","","","","","",""
"24348.40000000596","","","survey-text","352","3061262","0.0-17.0-3.19","37457","List2A","black","man","","","","","{""Q0"":""fred and kate""}","<img src=""stim_listA/challenge4.gif""style=""height:400px;""></stim_listA>","is being challenged by","","","","","",""
"9122.299999982119","<img src='img/portrait_matrix_list2.jpg' style='width:900px;height:500px;''></img><p>If you have memorised all the portraits and names and are ready to start, press Continue.</p><p><strong>Please note: Your memory of these faces will be tested 4 times during this experiment.</strong></p>","0","html-button-response","353","3070388","0.0-18.0-0.0","37457","List2A","black","man","","","","","","","","","","","","",""
"9210.199999988079","<img src=""portrait/WW2.jpg""style=""height:400px;""></img>","3","html-button-response","354","3080607","0.0-18.0-1.0","37457","List2A","black","man","","true","3","","","","","","","","","",""
"null","CORRECT","","html-keyboard-response","355","3082138","0.0-18.0-2.0-0.0","37457","List2A","black","man","","","","null","","","","","","","","",""
"18628.79999998212","<img src=""portrait/BM2.jpg""style=""height:400px;""></img>","5","html-button-response","356","3100770","0.0-18.0-4.0","37457","List2A","black","man","","true","5","","","","","","","","","",""
"null","CORRECT","","html-keyboard-response","357","3102279","0.0-18.0-5.0-0.0","37457","List2A","black","man","","","","null","","","","","","","","",""
"17109.100000023842","<img src=""portrait/WW1.jpg""style=""height:400px;""></img>","1","html-button-response","358","3119397","0.0-18.0-7.0","37457","List2A","black","man","","true","1","","","","","","","","","",""
"null","CORRECT","","html-keyboard-response","359","3120918","0.0-18.0-8.0-0.0","37457","List2A","black","man","","","","null","","","","","","","","",""
"10798","<img src=""portrait/WM2.jpg""style=""height:400px;""></img>","7","html-button-response","360","3131719","0.0-18.0-10.0","37457","List2A","black","man","","true","7","","","","","","","","","",""
"null","CORRECT","","html-keyboard-response","361","3133249","0.0-18.0-11.0-0.0","37457","List2A","black","man","","","","null","","","","","","","","",""
"13962.5","<img src=""portrait/BM1.jpg""style=""height:400px;""></img>","4","html-button-response","362","3147216","0.0-18.0-13.0","37457","List2A","black","man","","true","4","","","","","","","","","",""
"null","CORRECT","","html-keyboard-response","363","3148729","0.0-18.0-14.0-0.0","37457","List2A","black","man","","","","null","","","","","","","","",""
"8314.899999976158","<img src=""portrait/BW1.jpg""style=""height:400px;""></img>","0","html-button-response","364","3157047","0.0-18.0-16.0","37457","List2A","black","man","","true","0","","","","","","","","","",""
"null","CORRECT","","html-keyboard-response","365","3158571","0.0-18.0-17.0-0.0","37457","List2A","black","man","","","","null","","","","","","","","",""
"25301.59999999404","<img src=""portrait/BW2.jpg""style=""height:400px;""></img>","2","html-button-response","366","3183875","0.0-18.0-19.0","37457","List2A","black","man","","true","2","","","","","","","","","",""
"null","CORRECT","","html-keyboard-response","367","3185395","0.0-18.0-20.0-0.0","37457","List2A","black","man","","","","null","","","","","","","","",""
"11609.199999988079","<img src=""portrait/WM1.jpg""style=""height:400px;""></img>","6","html-button-response","368","3197012","0.0-18.0-22.0","37457","List2A","black","man","","true","6","","","","","","","","","",""
"null","CORRECT","","html-keyboard-response","369","3198538","0.0-18.0-23.0-0.0","37457","List2A","black","man","","","","null","","","","","","","","",""
"4201.100000023842","<p>You got 8 out of 8 right first time. Press Continue.</p>","0","html-button-response","370","3202748","0.0-18.0-25.0","37457","List2A","black","man","","","","","","","","","","","","",""
"null","<div style=""font-size:60px;"">+</div>","","html-keyboard-response","371","3204273","0.0-19.0-0.0","37457","List2A","black","man","","","","null","","","","","","","","",""
"null","<img src=""stim_listA/hug3.gif""style=""height:400px;""></stim_listA>","","html-keyboard-response","372","3206277","0.0-19.0-1.0","37457","List2A","black","man","","","","null","","","","","","","","",""
"null","is hugging","","html-keyboard-response","373","3208287","0.0-19.0-2.0","37457","List2A","black","man","","","","null","","","","","","","","",""
"22283.69999998808","","","survey-text","374","3230574","0.0-19.0-3.0","37457","List2A","black","man","","","","","{""Q0"":""fred and beth""}","<img src=""stim_listA/hug3.gif""style=""height:400px;""></stim_listA>","is hugging","","","","","",""
"null","<div style=""font-size:60px;"">+</div>","","html-keyboard-response","375","3231093","0.0-19.0-0.1","37457","List2A","black","man","","","","null","","","","","","","","",""
"null","<img src=""stim_listA/shout7.gif""style=""height:400px;""></stim_listA>","","html-keyboard-response","376","3233108","0.0-19.0-1.1","37457","List2A","black","man","","","","null","","","","","","","","",""
"null","is shouting at","","html-keyboard-response","377","3235123","0.0-19.0-2.1","37457","List2A","black","man","","","","null","","","","","","","","",""
"19742.80000001192","","","survey-text","378","3254870","0.0-19.0-3.1","37457","List2A","black","man","","","","","{""Q0"":""jane and beth""}","<img src=""stim_listA/shout7.gif""style=""height:400px;""></stim_listA>","is shouting at","","","","","",""
"null","<div style=""font-size:60px;"">+</div>","","html-keyboard-response","379","3255371","0.0-19.0-0.2","37457","List2A","black","man","","","","null","","","","","","","","",""
"null","<img src=""stim_listA/oppose4.gif""style=""height:400px;""></stim_listA>","","html-keyboard-response","380","3257380","0.0-19.0-1.2","37457","List2A","black","man","","","","null","","","","","","","","",""
"null","is being opposed by","","html-keyboard-response","381","3259399","0.0-19.0-2.2","37457","List2A","black","man","","","","null","","","","","","","","",""
"21396.59999999404","","","survey-text","382","3280799","0.0-19.0-3.2","37457","List2A","black","man","","","","","{""Q0"":""fred and beth""}","<img src=""stim_listA/oppose4.gif""style=""height:400px;""></stim_listA>","is being opposed by","","","","","",""
"null","<div style=""font-size:60px;"">+</div>","","html-keyboard-response","383","3281320","0.0-19.0-0.3","37457","List2A","black","man","","","","null","","","","","","","","",""
"null","<img src=""stim_listA/copy4.gif""style=""height:400px;""></stim_listA>","","html-keyboard-response","384","3283334","0.0-19.0-1.3","37457","List2A","black","man","","","","null","","","","","","","","",""
"null","is being copied by","","html-keyboard-response","385","3285337","0.0-19.0-2.3","37457","List2A","black","man","","","","null","","","","","","","","",""
"11203.300000011921","","","survey-text","386","3296544","0.0-19.0-3.3","37457","List2A","black","man","","","","","{""Q0"":""fred kate""}","<img src=""stim_listA/copy4.gif""style=""height:400px;""></stim_listA>","is being copied by","","","","","",""
"null","<div style=""font-size:60px;"">+</div>","","html-keyboard-response","387","3297047","0.0-19.0-0.4","37457","List2A","black","man","","","","null","","","","","","","","",""
"null","<img src=""stim_listA/kiss6.gif""style=""height:400px;""></stim_listA>","","html-keyboard-response","388","3299062","0.0-19.0-1.4","37457","List2A","black","man","","","","null","","","","","","","","",""
"null","is being kissed by","","html-keyboard-response","389","3301075","0.0-19.0-2.4","37457","List2A","black","man","","","","null","","","","","","","","",""
"14111.899999976158","","","survey-text","390","3315191","0.0-19.0-3.4","37457","List2A","black","man","","","","","{""Q0"":""mike and luke""}","<img src=""stim_listA/kiss6.gif""style=""height:400px;""></stim_listA>","is being kissed by","","","","","",""
"null","<div style=""font-size:60px;"">+</div>","","html-keyboard-response","391","3315702","0.0-19.0-0.5","37457","List2A","black","man","","","","null","","","","","","","","",""
"null","<img src=""stim_listA/oppose1.gif""style=""height:400px;""></stim_listA>","","html-keyboard-response","392","3317718","0.0-19.0-1.5","37457","List2A","black","man","","","","null","","","","","","","","",""
"null","is opposing","","html-keyboard-response","393","3319730","0.0-19.0-2.5","37457","List2A","black","man","","","","null","","","","","","","","",""
"18873.399999976158","","","survey-text","394","3338607","0.0-19.0-3.5","37457","List2A","black","man","","","","","{""Q0"":""dave and jane""}","<img src=""stim_listA/oppose1.gif""style=""height:400px;""></stim_listA>","is opposing","","","","","",""
"null","<div style=""font-size:60px;"">+</div>","","html-keyboard-response","395","3339126","0.0-19.0-0.6","37457","List2A","black","man","","","","null","","","","","","","","",""
"null","<img src=""stim_listA/look1.gif""style=""height:400px;""></stim_listA>","","html-keyboard-response","396","3341140","0.0-19.0-1.6","37457","List2A","black","man","","","","null","","","","","","","","",""
"null","is looking at","","html-keyboard-response","397","3343156","0.0-19.0-2.6","37457","List2A","black","man","","","","null","","","","","","","","",""
"25830.899999976158","","","survey-text","398","3368991","0.0-19.0-3.6","37457","List2A","black","man","","","","","{""Q0"":""ruth and luke""}","<img src=""stim_listA/look1.gif""style=""height:400px;""></stim_listA>","is looking at","","","","","",""
"null","<div style=""font-size:60px;"">+</div>","","html-keyboard-response","399","3369501","0.0-19.0-0.7","37457","List2A","black","man","","","","null","","","","","","","","",""
"null","<img src=""stim_listA/hug8.gif""style=""height:400px;""></stim_listA>","","html-keyboard-response","400","3371516","0.0-19.0-1.7","37457","List2A","black","man","","","","null","","","","","","","","",""
"null","is being hugged by","","html-keyboard-response","401","3373533","0.0-19.0-2.7","37457","List2A","black","man","","","","null","","","","","","","","",""
"16509.399999976158","","","survey-text","402","3390047","0.0-19.0-3.7","37457","List2A","black","man","","","","","{""Q0"":""beth and ruth""}","<img src=""stim_listA/hug8.gif""style=""height:400px;""></stim_listA>","is being hugged by","","","","","",""
"null","<div style=""font-size:60px;"">+</div>","","html-keyboard-response","403","3390559","0.0-19.0-0.8","37457","List2A","black","man","","","","null","","","","","","","","",""
"null","<img src=""stim_listA/look3.gif""style=""height:400px;""></stim_listA>","","html-keyboard-response","404","3392573","0.0-19.0-1.8","37457","List2A","black","man","","","","null","","","","","","","","",""
"null","is looking at","","html-keyboard-response","405","3394583","0.0-19.0-2.8","37457","List2A","black","man","","","","null","","","","","","","","",""
"17324","","","survey-text","406","3411911","0.0-19.0-3.8","37457","List2A","black","man","","","","","{""Q0"":""fred and beth""}","<img src=""stim_listA/look3.gif""style=""height:400px;""></stim_listA>","is looking at","","","","","",""
"null","<div style=""font-size:60px;"">+</div>","","html-keyboard-response","407","3412415","0.0-19.0-0.9","37457","List2A","black","man","","","","null","","","","","","","","",""
"null","<img src=""stim_listA/shout4.gif""style=""height:400px;""></stim_listA>","","html-keyboard-response","408","3414441","0.0-19.0-1.9","37457","List2A","black","man","","","","null","","","","","","","","",""
"null","is being shouted at by","","html-keyboard-response","409","3416451","0.0-19.0-2.9","37457","List2A","black","man","","","","null","","","","","","","","",""
"24673.90000000596","","","survey-text","410","3441129","0.0-19.0-3.9","37457","List2A","black","man","","","","","{""Q0"":""mike and kate""}","<img src=""stim_listA/shout4.gif""style=""height:400px;""></stim_listA>","is being shouted at by","","","","","",""
"null","<div style=""font-size:60px;"">+</div>","","html-keyboard-response","411","3441650","0.0-19.0-0.10","37457","List2A","black","man","","","","null","","","","","","","","",""
"null","<img src=""stim_listA/oppose6.gif""style=""height:400px;""></stim_listA>","","html-keyboard-response","412","3443664","0.0-19.0-1.10","37457","List2A","black","man","","","","null","","","","","","","","",""
"null","is being opposed by","","html-keyboard-response","413","3445680","0.0-19.0-2.10","37457","List2A","black","man","","","","null","","","","","","","","",""
"12523.800000011921","","","survey-text","414","3458207","0.0-19.0-3.10","37457","List2A","black","man","","","","","{""Q0"":""fred and luke""}","<img src=""stim_listA/oppose6.gif""style=""height:400px;""></stim_listA>","is being opposed by","","","","","",""
"null","<div style=""font-size:60px;"">+</div>","","html-keyboard-response","415","3458714","0.0-19.0-0.11","37457","List2A","black","man","","","","null","","","","","","","","",""
"null","<img src=""stim_listA/challenge3.gif""style=""height:400px;""></stim_listA>","","html-keyboard-response","416","3460730","0.0-19.0-1.11","37457","List2A","black","man","","","","null","","","","","","","","",""
"null","is challenging","","html-keyboard-response","417","3462745","0.0-19.0-2.11","37457","List2A","black","man","","","","null","","","","","","","","",""
"11303","","","survey-text","418","3474052","0.0-19.0-3.11","37457","List2A","black","man","","","","","{""Q0"":""mike and beth""}","<img src=""stim_listA/challenge3.gif""style=""height:400px;""></stim_listA>","is challenging","","","","","",""
"null","<div style=""font-size:60px;"">+</div>","","html-keyboard-response","419","3474556","0.0-19.0-0.12","37457","List2A","black","man","","","","null","","","","","","","","",""
"null","<img src=""stim_listA/oppose7.gif""style=""height:400px;""></stim_listA>","","html-keyboard-response","420","3476570","0.0-19.0-1.12","37457","List2A","black","man","","","","null","","","","","","","","",""
"null","is opposing","","html-keyboard-response","421","3478583","0.0-19.0-2.12","37457","List2A","black","man","","","","null","","","","","","","","",""
"79367.59999999404","","","survey-text","422","3557955","0.0-19.0-3.12","37457","List2A","black","man","","","","","{""Q0"":""fred and beth""}","<img src=""stim_listA/oppose7.gif""style=""height:400px;""></stim_listA>","is opposing","","","","","",""
"null","<div style=""font-size:60px;"">+</div>","","html-keyboard-response","423","3558471","0.0-19.0-0.13","37457","List2A","black","man","","","","null","","","","","","","","",""
"null","<img src=""stim_listA/seduce8.gif""style=""height:400px;""></stim_listA>","","html-keyboard-response","424","3560488","0.0-19.0-1.13","37457","List2A","black","man","","","","null","","","","","","","","",""
"null","is being seduced by","","html-keyboard-response","425","3562500","0.0-19.0-2.13","37457","List2A","black","man","","","","null","","","","","","","","",""
"13892.40000000596","","","survey-text","426","3576397","0.0-19.0-3.13","37457","List2A","black","man","","","","","{""Q0"":""beth and jane""}","<img src=""stim_listA/seduce8.gif""style=""height:400px;""></stim_listA>","is being seduced by","","","","","",""
"null","<div style=""font-size:60px;"">+</div>","","html-keyboard-response","427","3576907","0.0-19.0-0.14","37457","List2A","black","man","","","","null","","","","","","","","",""
"null","<img src=""stim_listA/kiss7.gif""style=""height:400px;""></stim_listA>","","html-keyboard-response","428","3578924","0.0-19.0-1.14","37457","List2A","black","man","","","","null","","","","","","","","",""
"null","is kissing","","html-keyboard-response","429","3580926","0.0-19.0-2.14","37457","List2A","black","man","","","","null","","","","","","","","",""
"11885.59999999404","","","survey-text","430","3592816","0.0-19.0-3.14","37457","List2A","black","man","","","","","{""Q0"":""beth and jane""}","<img src=""stim_listA/kiss7.gif""style=""height:400px;""></stim_listA>","is kissing","","","","","",""
"null","<div style=""font-size:60px;"">+</div>","","html-keyboard-response","431","3593334","0.0-19.0-0.15","37457","List2A","black","man","","","","null","","","","","","","","",""
"null","<img src=""stim_listA/hug1.gif""style=""height:400px;""></stim_listA>","","html-keyboard-response","432","3595350","0.0-19.0-1.15","37457","List2A","black","man","","","","null","","","","","","","","",""
"null","is hugging","","html-keyboard-response","433","3597365","0.0-19.0-2.15","37457","List2A","black","man","","","","null","","","","","","","","",""
"13681.59999999404","","","survey-text","434","3611057","0.0-19.0-3.15","37457","List2A","black","man","","","","","{""Q0"":""mike and jane""}","<img src=""stim_listA/hug1.gif""style=""height:400px;""></stim_listA>","is hugging","","","","","",""
"null","<div style=""font-size:60px;"">+</div>","","html-keyboard-response","435","3611559","0.0-19.0-0.16","37457","List2A","black","man","","","","null","","","","","","","","",""
"null","<img src=""stim_listA/challenge1.gif""style=""height:400px;""></stim_listA>","","html-keyboard-response","436","3613574","0.0-19.0-1.16","37457","List2A","black","man","","","","null","","","","","","","","",""
"null","is challenging","","html-keyboard-response","437","3615590","0.0-19.0-2.16","37457","List2A","black","man","","","","null","","","","","","","","",""
"16584.5","","","survey-text","438","3632183","0.0-19.0-3.16","37457","List2A","black","man","","","","","{""Q0"":""fred and beth""}","<img src=""stim_listA/challenge1.gif""style=""height:400px;""></stim_listA>","is challenging","","","","","",""
"null","<div style=""font-size:60px;"">+</div>","","html-keyboard-response","439","3632687","0.0-19.0-0.17","37457","List2A","black","man","","","","null","","","","","","","","",""
"null","<img src=""stim_listA/hug2.gif""style=""height:400px;""></stim_listA>","","html-keyboard-response","440","3634703","0.0-19.0-1.17","37457","List2A","black","man","","","","null","","","","","","","","",""
"null","is being hugged by","","html-keyboard-response","441","3636714","0.0-19.0-2.17","37457","List2A","black","man","","","","null","","","","","","","","",""
"11168.799999982119","","","survey-text","442","3647887","0.0-19.0-3.17","37457","List2A","black","man","","","","","{""Q0"":""dave and jane""}","<img src=""stim_listA/hug2.gif""style=""height:400px;""></stim_listA>","is being hugged by","","","","","",""
"null","<div style=""font-size:60px;"">+</div>","","html-keyboard-response","443","3648398","0.0-19.0-0.18","37457","List2A","black","man","","","","null","","","","","","","","",""
"null","<img src=""stim_listA/challenge5.gif""style=""height:400px;""></stim_listA>","","html-keyboard-response","444","3650410","0.0-19.0-1.18","37457","List2A","black","man","","","","null","","","","","","","","",""
"null","is challenging","","html-keyboard-response","445","3652413","0.0-19.0-2.18","37457","List2A","black","man","","","","null","","","","","","","","",""
"10026.40000000596","","","survey-text","446","3662443","0.0-19.0-3.18","37457","List2A","black","man","","","","","{""Q0"":""dave and fred""}","<img src=""stim_listA/challenge5.gif""style=""height:400px;""></stim_listA>","is challenging","","","","","",""
"null","<div style=""font-size:60px;"">+</div>","","html-keyboard-response","447","3662958","0.0-19.0-0.19","37457","List2A","black","man","","","","null","","","","","","","","",""
"null","<img src=""stim_listA/shout2.gif""style=""height:400px;""></stim_listA>","","html-keyboard-response","448","3664970","0.0-19.0-1.19","37457","List2A","black","man","","","","null","","","","","","","","",""
"null","is being shouted at by","","html-keyboard-response","449","3666973","0.0-19.0-2.19","37457","List2A","black","man","","","","null","","","","","","","","",""
"10894.300000011921","","","survey-text","450","3677870","0.0-19.0-3.19","37457","List2A","black","man","","","","","{""Q0"":""dave and beth""}","<img src=""stim_listA/shout2.gif""style=""height:400px;""></stim_listA>","is being shouted at by","","","","","",""
"11824.5","<p>Thank you for completing that task.</p><p>The final part of this session is a questionnaire that will take about 4 minutes.</p><p>Press Continue.</p>","0","html-button-response","451","3689703","0.0-20.0","37457","List2A","black","man","","","","","","","","","","","","",""
"190537.09999999404","","","survey-text","452","3881264","0.0-21.0","37457","List2A","black","man","","","","","{""Q0"":""41"",""Q1"":""english"",""Q2"":""english"",""Q3"":""united state"",""Q4"":""united state"",""Q5"":""Black/African"",""Q6"":""male""}","","","demographics","","","","",""
"12085.5","<p>Have you lived in the USA for the last 5 years or more?</p>","0","html-button-response","453","3893359","0.0-22.0","37457","List2A","black","man","","","","","","","","fiveyears","","","","",""
"6487.5","<p>Move the slider to show the extent to which you agree with the following statements.</p>","0","html-button-response","454","3900855","0.0-23.0","37457","List2A","black","man","","","","","","","","","","","","",""
"73001.29999998212","","","html-slider-response","455","3974876","0.0-24.0-0.0-0.0","37457","List2A","black","man","","","","","","","","survey_race","54","","","I consider myself an introvert.","filler"
"30648","","","html-slider-response","456","4005528","0.0-24.0-0.0-0.1","37457","List2A","black","man","","","","","","","","survey_race","0","","","I consider myself an extrovert.","filler"
"10571.59999999404","","","html-slider-response","457","4016109","0.0-24.0-0.0-0.2","37457","List2A","black","man","","","","","","","","survey_race","2","","","I am glad to be my age.","filler"
"16190.59999999404","","","html-slider-response","458","4032303","0.0-24.0-0.0-0.3","37457","List2A","black","man","","","","","","","","survey_race","100","","","I am glad to be the age I am.","filler"
"12929.699999988079","","","html-slider-response","459","4045237","0.0-24.0-0.0-0.4","37457","List2A","black","man","","","","","","","","survey_race","100","","","I think that my race has a lot to be proud of.","proud"
"13735.09999999404","","","html-slider-response","460","4058981","0.0-24.0-0.0-0.5","37457","List2A","black","man","","","","","","","","survey_race","100","","","Being my race is an important part of how I see myself.","important"
"9286.699999988079","","","html-slider-response","461","4068272","0.0-24.0-0.0-0.6","37457","List2A","black","man","","","","","","","","survey_race","100","","","I am glad to be my race.","glad"
"49219.90000000596","","","html-slider-response","462","4117485","0.0-24.0-0.0-0.7","37457","List2A","black","man","","","","","","","","survey_race","91","","","I am similar to the average person of my race.","similar"
"11318.800000011921","","","html-slider-response","463","4128813","0.0-24.0-0.0-0.8","37457","List2A","black","man","","","","","","","","survey_race","87","","","I feel committed to my race.","committed"
"9868","","","html-slider-response","464","4138685","0.0-24.0-0.0-0.9","37457","List2A","black","man","","","","","","","","survey_race","100","","","I often think about the fact that I am my age.","filler"
"7828.0999999940395","","","html-slider-response","465","4146517","0.0-24.0-0.0-0.10","37457","List2A","black","man","","","","","","","","survey_race","100","","","It is pleasant to be my race.","pleasant"
"17359.80000001192","","","html-slider-response","466","4163896","0.0-24.0-0.0-0.11","37457","List2A","black","man","","","","","","","","survey_race","100","","","People my age have a lot in common with each other.","filler"
"10341.200000017881","","","html-slider-response","467","4174240","0.0-24.0-0.0-0.12","37457","List2A","black","man","","","","","","","","survey_race","100","","","I feel solidarity with my race.","solidarity"
"8835.699999988079","","","html-slider-response","468","4183079","0.0-24.0-0.0-0.13","37457","List2A","black","man","","","","","","","","survey_race","97","","","Getting older does not worry me.","filler"
"8170.9000000059605","","","html-slider-response","469","4191254","0.0-24.0-0.0-0.14","37457","List2A","black","man","","","","","","","","survey_race","100","","","Being my age gives me a good feeling.","filler"
"7149.0999999940395","","","html-slider-response","470","4198407","0.0-24.0-0.0-0.15","37457","List2A","black","man","","","","","","","","survey_race","100","","","I enjoy being in large groups.","filler"
"7724","","","html-slider-response","471","4206135","0.0-24.0-0.0-0.16","37457","List2A","black","man","","","","","","","","survey_race","95","","","I feel a bond with people the same age as me.","filler"
"9311.59999999404","","","html-slider-response","472","4215450","0.0-24.0-0.0-0.17","37457","List2A","black","man","","","","","","","","survey_race","100","","","The fact that I am my race is an important part of my identity.","identity"
"14720.899999976158","","","html-slider-response","473","4230175","0.0-24.0-0.0-0.18","37457","List2A","black","man","","","","","","","","survey_race","85","","","My age is not an important part of who I am.","filler"
"9612.90000000596","","","html-slider-response","474","4239791","0.0-24.0-0.0-0.19","37457","List2A","black","man","","","","","","","","survey_race","72","","","The older I get, the wiser I feel.","filler"
"8573.199999988079","","","html-slider-response","475","4248368","0.0-24.0-0.0-0.20","37457","List2A","black","man","","","","","","","","survey_race","83","","","I often think about the fact that I am my race.","often"
"8656.100000023842","","","html-slider-response","476","4257028","0.0-24.0-0.0-0.21","37457","List2A","black","man","","","","","","","","survey_race","38","","","People of my race have a lot in common with each other.","common"
"7704.0999999940395","","","html-slider-response","477","4264735","0.0-24.0-0.0-0.22","37457","List2A","black","man","","","","","","","","survey_race","31","","","I feel solidarity with people the same age as me.","filler"
"6418.9000000059605","","","html-slider-response","478","4271157","0.0-24.0-0.0-0.23","37457","List2A","black","man","","","","","","","","survey_race","33","","","Being my race gives me a good feeling.","feeling"
"6822.100000023842","","","html-slider-response","479","4277982","0.0-24.0-0.0-0.24","37457","List2A","black","man","","","","","","","","survey_race","81","","","People of my race are very similar to each other.","verysimilar"
"7652.4000000059605","","","html-slider-response","480","4285638","0.0-24.0-0.0-0.25","37457","List2A","black","man","","","","","","","","survey_race","76","","","I feel a bond with my race.","bond"
"12305.5","","","html-slider-response","481","4297955","0.0-24.0-0.0-0.26","37457","List2A","black","man","","","","","","","","survey_race","100","","","I have a lot in common with the average person of my race.","average"
"11047.300000011921","","","html-slider-response","482","4309006","0.0-24.0-0.0-0.27","37457","List2A","black","man","","","","","","","","survey_race","1","","","I have a lot in common with people of a similar age to me.","filler"
"7676.300000011921","","","html-slider-response","483","4316686","0.0-24.0-1.0-0.0","37457","List2A","black","man","","","","","","","","survey_gender","100","","","My friends have a lot in common with each other.","filler"
"18695.29999998212","","","html-slider-response","484","4335390","0.0-24.0-1.0-0.1","37457","List2A","black","man","","","","","","","","survey_gender","0","","","Being my gender gives me a good feeling.","feeling"
"12895.200000017881","","","html-slider-response","485","4348284","0.0-24.0-1.0-0.2","37457","List2A","black","man","","","","","","","","survey_gender","100","","","It is not always easy for people to know what I am thinking.","filler"
