"rt","stimulus","button_pressed","trial_type","trial_index","time_elapsed","internal_node_id","subject","list","ppt_race","ppt_gender","url","first_guess","correct","key_press","responses","image_type","phrase_type","test_part","response","stimulus1","stimulus2","question_type","survey_item"
"2516.0000000032596","Welcome to the experiment. Press Continue to begin.","0","html-button-response","0","2522","0.0-0.0","3750","List2A","black","man","","","","","","","","","","","","",""
"89978.10000000754","","","external-html","1","93556","0.0-1.0","3750","List2A","black","man","consent.html","","","","","","","","","","","",""
"1871.000000013737","<p>On the next page, you will see portraits of 8 people and their names.</p><p>Your first task is to take a few minutes to memorise the names of these people.</p><p>You will have to recall their names during the rest of the experiment, so it is</p><p>essential that you try to memorise these people and their names as best as you can.</p><br><p><strong>You will then be tested on your memory of these names and portraits.</strong></p><br><p>The experiment will start after you have completed this memory test.</p><br><p>Ready?</p>","0","html-button-response","2","95436","0.0-2.0","3750","List2A","black","man","","","","","","","","","","","","",""
"1872.1000000077765","<img src='img/portrait_matrix_list2.jpg' style='width:900px;height:500px;''></img><p>If you have memorised all the portraits and names and are ready to start, press Continue.</p><p><strong>Please note: Your memory of these faces will be tested 4 times during this experiment.</strong></p>","0","html-button-response","3","98314","0.0-3.0-0.0","3750","List2A","black","man","","","","","","","","","","","","",""
"9364.499999996042","<img src=""portrait/WW2.jpg""style=""height:400px;""></img>","3","html-button-response","4","108693","0.0-3.0-1.0","3750","List2A","black","man","","true","3","","","","","","","","","",""
"null","CORRECT","","html-keyboard-response","5","110222","0.0-3.0-2.0-0.0","3750","List2A","black","man","","","","null","","","","","","","","",""
"7404.500000004191","<img src=""portrait/WW1.jpg""style=""height:400px;""></img>","1","html-button-response","6","117656","0.0-3.0-4.0","3750","List2A","black","man","","true","1","","","","","","","","","",""
"null","CORRECT","","html-keyboard-response","7","119169","0.0-3.0-5.0-0.0","3750","List2A","black","man","","","","null","","","","","","","","",""
"9659.799999993993","<img src=""portrait/BW1.jpg""style=""height:400px;""></img>","0","html-button-response","8","128840","0.0-3.0-7.0","3750","List2A","black","man","","true","0","","","","","","","","","",""
"null","CORRECT","","html-keyboard-response","9","130350","0.0-3.0-8.0-0.0","3750","List2A","black","man","","","","null","","","","","","","","",""
"5932.299999985844","<img src=""portrait/WM2.jpg""style=""height:400px;""></img>","7","html-button-response","10","136291","0.0-3.0-10.0","3750","List2A","black","man","","true","7","","","","","","","","","",""
"null","CORRECT","","html-keyboard-response","11","137802","0.0-3.0-11.0-0.0","3750","List2A","black","man","","","","null","","","","","","","","",""
"6529.399999999441","<img src=""portrait/BW2.jpg""style=""height:400px;""></img>","2","html-button-response","12","144342","0.0-3.0-13.0","3750","List2A","black","man","","true","2","","","","","","","","","",""
"null","CORRECT","","html-keyboard-response","13","145856","0.0-3.0-14.0-0.0","3750","List2A","black","man","","","","null","","","","","","","","",""
"6573.399999993853","<img src=""portrait/BM1.jpg""style=""height:400px;""></img>","4","html-button-response","14","152439","0.0-3.0-16.0","3750","List2A","black","man","","true","4","","","","","","","","","",""
"null","CORRECT","","html-keyboard-response","15","153949","0.0-3.0-17.0-0.0","3750","List2A","black","man","","","","null","","","","","","","","",""
"5750.10000000475","<img src=""portrait/BM2.jpg""style=""height:400px;""></img>","5","html-button-response","16","159709","0.0-3.0-19.0","3750","List2A","black","man","","true","5","","","","","","","","","",""
"null","CORRECT","","html-keyboard-response","17","161223","0.0-3.0-20.0-0.0","3750","List2A","black","man","","","","null","","","","","","","","",""
"5522.100000001956","<img src=""portrait/WM1.jpg""style=""height:400px;""></img>","6","html-button-response","18","166750","0.0-3.0-22.0","3750","List2A","black","man","","true","6","","","","","","","","","",""
"null","CORRECT","","html-keyboard-response","19","168260","0.0-3.0-23.0-0.0","3750","List2A","black","man","","","","null","","","","","","","","",""
"2466.4000000047963","<p>You got 8 out of 8 right first time. Press Continue.</p>","0","html-button-response","20","170741","0.0-3.0-25.0","3750","List2A","black","man","","","","","","","","","","","","",""
"1534.8999999987427","<p>In this experiment, you will view photographs of the people from the memory game interacting.</p><p>By using the <strong>exact</strong> phrase given <i>after</i> the photograph appears and recalling the correct names of the people in the photographs, form a sentence describing the interaction. You do not need to capitalise names.</p><p>Type your answer in the space provided. Please complete every sentence before moving onto the next trial.</p><p>You will only have a few seconds to memorise each given photograph and phrase before you can respond, so try your best to focus.</p><p>An example is given below. Press 'Continue' when you are ready.</p><img src='img/speaking_example.jpg' style='width:800px;height:460px;''></img>","0","html-button-response","21","173290","0.0-4.0","3750","List2A","black","man","","","","","","","","","","","","",""
"5221.000000019558","<p>Before the experiment starts, you will watch two example trials. Press 'Continue'.</p>","0","html-button-response","22","179515","0.0-5.0","3750","List2A","black","man","","","","","","","","","","","","",""
"null","<img src='img/play_eg.gif' style='height:400px;''></img>","","html-keyboard-response","23","182529","0.0-6.0","3750","List2A","black","man","","","","null","","","","","","","","",""
"null","<p>is playing with</p>","","html-keyboard-response","24","184534","0.0-7.0","3750","List2A","black","man","","","","null","","","","","","","","",""
"3960.2000000013504","<p><b>Answer:</b> jane is playing with ruth</p>","0","html-button-response","25","188499","0.0-8.0","3750","List2A","black","man","","","","","","","","","","","","",""
"null","<img src='img/dance_eg.gif' style='height:400px;''></img>","","html-keyboard-response","26","191513","0.0-9.0","3750","List2A","black","man","","","","null","","","","","","","","",""
"null","<p>is being entertained by</p>","","html-keyboard-response","27","193522","0.0-10.0","3750","List2A","black","man","","","","null","","","","","","","","",""
"3245.500000019092","<p><b>Answer:</b> fred is being entertained by mike</p>","0","html-button-response","28","196775","0.0-11.0","3750","List2A","black","man","","","","","","","","","","","","",""
"3458.200000022771","<p>Ready to start the experiment?</p><br><p><strong>Remember to describe the picture using a full sentence,</strong></p><p><strong>that combines the names of the people with the <i>exact</i> phrase given.</strong></p><p><strong>To receive full payment you must do this correctly.</strong></p><p><strong> You do not need to capitalise names or use punctuation.</strong></p><br><p>Press 'Continue' to begin.</p>","0","html-button-response","29","201243","0.0-12.0","3750","List2A","black","man","","","","","","","","","","","","",""
"null","<div style=""font-size:60px;"">+</div>","","html-keyboard-response","30","202755","0.0-13.0-0.0","3750","List2A","black","man","","","","null","","","","","","","","",""
"null","<img src=""stim_listA/challenge6.gif""style=""height:400px;""></stim_listA>","","html-keyboard-response","31","204777","0.0-13.0-1.0","3750","List2A","black","man","","","","null","","","","","","","","",""
"null","is being challenged by","","html-keyboard-response","32","206788","0.0-13.0-2.0","3750","List2A","black","man","","","","null","","","","","","","","",""
"33267.0999999973","","","survey-text","33","240082","0.0-13.0-3.0","3750","List2A","black","man","","","","","{""Q0"":""Luke is being challenged by Mike ""}","<img src=""stim_listA/challenge6.gif""style=""height:400px;""></stim_listA>","is being challenged by","","","","","",""
"null","<div style=""font-size:60px;"">+</div>","","html-keyboard-response","34","240587","0.0-13.0-0.1","3750","List2A","black","man","","","","null","","","","","","","","",""
"null","<img src=""stim_listA/shout7.gif""style=""height:400px;""></stim_listA>","","html-keyboard-response","35","242597","0.0-13.0-1.1","3750","List2A","black","man","","","","null","","","","","","","","",""
"null","is shouting at","","html-keyboard-response","36","244606","0.0-13.0-2.1","3750","List2A","black","man","","","","null","","","","","","","","",""
"22925.799999997253","","","survey-text","37","267555","0.0-13.0-3.1","3750","List2A","black","man","","","","","{""Q0"":""Ruth is shouting at Beth ""}","<img src=""stim_listA/shout7.gif""style=""height:400px;""></stim_listA>","is shouting at","","","","","",""
"null","<div style=""font-size:60px;"">+</div>","","html-keyboard-response","38","268057","0.0-13.0-0.2","3750","List2A","black","man","","","","null","","","","","","","","",""
"null","<img src=""stim_listA/touch5.gif""style=""height:400px;""></stim_listA>","","html-keyboard-response","39","270060","0.0-13.0-1.2","3750","List2A","black","man","","","","null","","","","","","","","",""
"null","is touching","","html-keyboard-response","40","272062","0.0-13.0-2.2","3750","List2A","black","man","","","","null","","","","","","","","",""
"12721.799999999348","","","survey-text","41","284792","0.0-13.0-3.2","3750","List2A","black","man","","","","","{""Q0"":""Dave is touching Mike ""}","<img src=""stim_listA/touch5.gif""style=""height:400px;""></stim_listA>","is touching","","","","","",""
"null","<div style=""font-size:60px;"">+</div>","","html-keyboard-response","42","285300","0.0-13.0-0.3","3750","List2A","black","man","","","","null","","","","","","","","",""
"null","<img src=""stim_listA/copy5.gif""style=""height:400px;""></stim_listA>","","html-keyboard-response","43","287313","0.0-13.0-1.3","3750","List2A","black","man","","","","null","","","","","","","","",""
"null","is copying","","html-keyboard-response","44","289321","0.0-13.0-2.3","3750","List2A","black","man","","","","null","","","","","","","","",""
"39808.69999999413","","","survey-text","45","329138","0.0-13.0-3.3","3750","List2A","black","man","","","","","{""Q0"":""Dave is copying Fred ""}","<img src=""stim_listA/copy5.gif""style=""height:400px;""></stim_listA>","is copying","","","","","",""
"null","<div style=""font-size:60px;"">+</div>","","html-keyboard-response","46","329641","0.0-13.0-0.4","3750","List2A","black","man","","","","null","","","","","","","","",""
"null","<img src=""stim_listA/look7.gif""style=""height:400px;""></stim_listA>","","html-keyboard-response","47","331649","0.0-13.0-1.4","3750","List2A","black","man","","","","null","","","","","","","","",""
"null","is looking at","","html-keyboard-response","48","333659","0.0-13.0-2.4","3750","List2A","black","man","","","","null","","","","","","","","",""
"14659.699999989243","","","survey-text","49","348339","0.0-13.0-3.4","3750","List2A","black","man","","","","","{""Q0"":""Kate is looking at Beth ""}","<img src=""stim_listA/look7.gif""style=""height:400px;""></stim_listA>","is looking at","","","","","",""
"null","<div style=""font-size:60px;"">+</div>","","html-keyboard-response","50","348841","0.0-13.0-0.5","3750","List2A","black","man","","","","null","","","","","","","","",""
"null","<img src=""stim_listA/touch7.gif""style=""height:400px;""></stim_listA>","","html-keyboard-response","51","350849","0.0-13.0-1.5","3750","List2A","black","man","","","","null","","","","","","","","",""
"null","is touching","","html-keyboard-response","52","352855","0.0-13.0-2.5","3750","List2A","black","man","","","","null","","","","","","","","",""
"21612.200000003213","","","survey-text","53","374478","0.0-13.0-3.5","3750","List2A","black","man","","","","","{""Q0"":""Kate is touching Ruth ""}","<img src=""stim_listA/touch7.gif""style=""height:400px;""></stim_listA>","is touching","","","","","",""
"null","<div style=""font-size:60px;"">+</div>","","html-keyboard-response","54","374985","0.0-13.0-0.6","3750","List2A","black","man","","","","null","","","","","","","","",""
"null","<img src=""stim_listA/look2.gif""style=""height:400px;""></stim_listA>","","html-keyboard-response","55","376997","0.0-13.0-1.6","3750","List2A","black","man","","","","null","","","","","","","","",""
"null","is being looked at by","","html-keyboard-response","56","379001","0.0-13.0-2.6","3750","List2A","black","man","","","","null","","","","","","","","",""
"18165.20000001765","","","survey-text","57","397183","0.0-13.0-3.6","3750","List2A","black","man","","","","","{""Q0"":""Jane is looking at Dave ""}","<img src=""stim_listA/look2.gif""style=""height:400px;""></stim_listA>","is being looked at by","","","","","",""
"null","<div style=""font-size:60px;"">+</div>","","html-keyboard-response","58","397687","0.0-13.0-0.7","3750","List2A","black","man","","","","null","","","","","","","","",""
"null","<img src=""stim_listA/oppose2.gif""style=""height:400px;""></stim_listA>","","html-keyboard-response","59","399699","0.0-13.0-1.7","3750","List2A","black","man","","","","null","","","","","","","","",""
"null","is being opposed by","","html-keyboard-response","60","401712","0.0-13.0-2.7","3750","List2A","black","man","","","","null","","","","","","","","",""
"25494.900000019697","","","survey-text","61","427231","0.0-13.0-3.7","3750","List2A","black","man","","","","","{""Q0"":""Jane is opposed by Luke ""}","<img src=""stim_listA/oppose2.gif""style=""height:400px;""></stim_listA>","is being opposed by","","","","","",""
"null","<div style=""font-size:60px;"">+</div>","","html-keyboard-response","62","427734","0.0-13.0-0.8","3750","List2A","black","man","","","","null","","","","","","","","",""
"null","<img src=""stim_listA/oppose4.gif""style=""height:400px;""></stim_listA>","","html-keyboard-response","63","429740","0.0-13.0-1.8","3750","List2A","black","man","","","","null","","","","","","","","",""
"null","is being opposed by","","html-keyboard-response","64","431751","0.0-13.0-2.8","3750","List2A","black","man","","","","null","","","","","","","","",""
"19621.599999984028","","","survey-text","65","451395","0.0-13.0-3.8","3750","List2A","black","man","","","","","{""Q0"":""Kate is looking at Fred ""}","<img src=""stim_listA/oppose4.gif""style=""height:400px;""></stim_listA>","is being opposed by","","","","","",""
"null","<div style=""font-size:60px;"">+</div>","","html-keyboard-response","66","451898","0.0-13.0-0.9","3750","List2A","black","man","","","","null","","","","","","","","",""
"null","<img src=""stim_listA/copy8.gif""style=""height:400px;""></stim_listA>","","html-keyboard-response","67","453913","0.0-13.0-1.9","3750","List2A","black","man","","","","null","","","","","","","","",""
"null","is being copied by","","html-keyboard-response","68","455922","0.0-13.0-2.9","3750","List2A","black","man","","","","null","","","","","","","","",""
"14357.500000012806","","","survey-text","69","470298","0.0-13.0-3.9","3750","List2A","black","man","","","","","{""Q0"":""Kate is being copied by Beth ""}","<img src=""stim_listA/copy8.gif""style=""height:400px;""></stim_listA>","is being copied by","","","","","",""
"null","<div style=""font-size:60px;"">+</div>","","html-keyboard-response","70","470800","0.0-13.0-0.10","3750","List2A","black","man","","","","null","","","","","","","","",""
"null","<img src=""stim_listA/challenge1.gif""style=""height:400px;""></stim_listA>","","html-keyboard-response","71","472807","0.0-13.0-1.10","3750","List2A","black","man","","","","null","","","","","","","","",""
"null","is challenging","","html-keyboard-response","72","474816","0.0-13.0-2.10","3750","List2A","black","man","","","","null","","","","","","","","",""
"19992.60000002687","","","survey-text","73","494831","0.0-13.0-3.10","3750","List2A","black","man","","","","","{""Q0"":""Fred is being challenged by Beth ""}","<img src=""stim_listA/challenge1.gif""style=""height:400px;""></stim_listA>","is challenging","","","","","",""
"null","<div style=""font-size:60px;"">+</div>","","html-keyboard-response","74","495336","0.0-13.0-0.11","3750","List2A","black","man","","","","null","","","","","","","","",""
"null","<img src=""stim_listA/look6.gif""style=""height:400px;""></stim_listA>","","html-keyboard-response","75","497341","0.0-13.0-1.11","3750","List2A","black","man","","","","null","","","","","","","","",""
"null","is being looked at by","","html-keyboard-response","76","499346","0.0-13.0-2.11","3750","List2A","black","man","","","","null","","","","","","","","",""
"22451.299999986077","","","survey-text","77","521818","0.0-13.0-3.11","3750","List2A","black","man","","","","","{""Q0"":""Mike is being looked at by Dave ""}","<img src=""stim_listA/look6.gif""style=""height:400px;""></stim_listA>","is being looked at by","","","","","",""
"null","<div style=""font-size:60px;"">+</div>","","html-keyboard-response","78","522321","0.0-13.0-0.12","3750","List2A","black","man","","","","null","","","","","","","","",""
"null","<img src=""stim_listA/greet2.gif""style=""height:400px;""></stim_listA>","","html-keyboard-response","79","524327","0.0-13.0-1.12","3750","List2A","black","man","","","","null","","","","","","","","",""
"null","is being greeted by","","html-keyboard-response","80","526333","0.0-13.0-2.12","3750","List2A","black","man","","","","null","","","","","","","","",""
"19438.49999998929","","","survey-text","81","545794","0.0-13.0-3.12","3750","List2A","black","man","","","","","{""Q0"":""Jane is greeting Luke ""}","<img src=""stim_listA/greet2.gif""style=""height:400px;""></stim_listA>","is being greeted by","","","","","",""
"null","<div style=""font-size:60px;"">+</div>","","html-keyboard-response","82","546299","0.0-13.0-0.13","3750","List2A","black","man","","","","null","","","","","","","","",""
"null","<img src=""stim_listA/greet7.gif""style=""height:400px;""></stim_listA>","","html-keyboard-response","83","548307","0.0-13.0-1.13","3750","List2A","black","man","","","","null","","","","","","","","",""
"null","is greeting","","html-keyboard-response","84","550314","0.0-13.0-2.13","3750","List2A","black","man","","","","null","","","","","","","","",""
"24998.200000001816","","","survey-text","85","575335","0.0-13.0-3.13","3750","List2A","black","man","","","","","{""Q0"":""Kate is greeting Jane ""}","<img src=""stim_listA/greet7.gif""style=""height:400px;""></stim_listA>","is greeting","","","","","",""
"null","<div style=""font-size:60px;"">+</div>","","html-keyboard-response","86","575839","0.0-13.0-0.14","3750","List2A","black","man","","","","null","","","","","","","","",""
"null","<img src=""stim_listA/touch1.gif""style=""height:400px;""></stim_listA>","","html-keyboard-response","87","577848","0.0-13.0-1.14","3750","List2A","black","man","","","","null","","","","","","","","",""
"null","is touching","","html-keyboard-response","88","579859","0.0-13.0-2.14","3750","List2A","black","man","","","","null","","","","","","","","",""
"17238.600000011502","","","survey-text","89","597121","0.0-13.0-3.14","3750","List2A","black","man","","","","","{""Q0"":""Fred is touching Jane ""}","<img src=""stim_listA/touch1.gif""style=""height:400px;""></stim_listA>","is touching","","","","","",""
"null","<div style=""font-size:60px;"">+</div>","","html-keyboard-response","90","597624","0.0-13.0-0.15","3750","List2A","black","man","","","","null","","","","","","","","",""
"null","<img src=""stim_listA/kiss2.gif""style=""height:400px;""></stim_listA>","","html-keyboard-response","91","599633","0.0-13.0-1.15","3750","List2A","black","man","","","","null","","","","","","","","",""
"null","is being kissed by","","html-keyboard-response","92","601643","0.0-13.0-2.15","3750","List2A","black","man","","","","null","","","","","","","","",""
"17110.40000000503","","","survey-text","93","618779","0.0-13.0-3.15","3750","List2A","black","man","","","","","{""Q0"":""Fred is being kissed by Jane ""}","<img src=""stim_listA/kiss2.gif""style=""height:400px;""></stim_listA>","is being kissed by","","","","","",""
"null","<div style=""font-size:60px;"">+</div>","","html-keyboard-response","94","619281","0.0-13.0-0.16","3750","List2A","black","man","","","","null","","","","","","","","",""
"null","<img src=""stim_listA/kiss4.gif""style=""height:400px;""></stim_listA>","","html-keyboard-response","95","621290","0.0-13.0-1.16","3750","List2A","black","man","","","","null","","","","","","","","",""
"null","is being kissed by","","html-keyboard-response","96","623295","0.0-13.0-2.16","3750","List2A","black","man","","","","null","","","","","","","","",""
"13430.80000000191","","","survey-text","97","636742","0.0-13.0-3.16","3750","List2A","black","man","","","","","{""Q0"":""Kate is being kissed by Mike ""}","<img src=""stim_listA/kiss4.gif""style=""height:400px;""></stim_listA>","is being kissed by","","","","","",""
"null","<div style=""font-size:60px;"">+</div>","","html-keyboard-response","98","637248","0.0-13.0-0.17","3750","List2A","black","man","","","","null","","","","","","","","",""
"null","<img src=""stim_listA/seduce5.gif""style=""height:400px;""></stim_listA>","","html-keyboard-response","99","639254","0.0-13.0-1.17","3750","List2A","black","man","","","","null","","","","","","","","",""
"null","is seducing","","html-keyboard-response","100","641264","0.0-13.0-2.17","3750","List2A","black","man","","","","null","","","","","","","","",""
"19641.399999993155","","","survey-text","101","660925","0.0-13.0-3.17","3750","List2A","black","man","","","","","{""Q0"":""Luke is seducing Mike ""}","<img src=""stim_listA/seduce5.gif""style=""height:400px;""></stim_listA>","is seducing","","","","","",""
"null","<div style=""font-size:60px;"">+</div>","","html-keyboard-response","102","661430","0.0-13.0-0.18","3750","List2A","black","man","","","","null","","","","","","","","",""
"null","<img src=""stim_listA/shout4.gif""style=""height:400px;""></stim_listA>","","html-keyboard-response","103","663439","0.0-13.0-1.18","3750","List2A","black","man","","","","null","","","","","","","","",""
"null","is being shouted at by","","html-keyboard-response","104","665451","0.0-13.0-2.18","3750","List2A","black","man","","","","null","","","","","","","","",""
"21489.500000025146","","","survey-text","105","686965","0.0-13.0-3.18","3750","List2A","black","man","","","","","{""Q0"":""Kate is being shouted at by Mike ""}","<img src=""stim_listA/shout4.gif""style=""height:400px;""></stim_listA>","is being shouted at by","","","","","",""
"null","<div style=""font-size:60px;"">+</div>","","html-keyboard-response","106","687469","0.0-13.0-0.19","3750","List2A","black","man","","","","null","","","","","","","","",""
"null","<img src=""stim_listA/oppose1.gif""style=""height:400px;""></stim_listA>","","html-keyboard-response","107","689480","0.0-13.0-1.19","3750","List2A","black","man","","","","null","","","","","","","","",""
"null","is opposing","","html-keyboard-response","108","691492","0.0-13.0-2.19","3750","List2A","black","man","","","","null","","","","","","","","",""
"27104.59999999148","","","survey-text","109","718618","0.0-13.0-3.19","3750","List2A","black","man","","","","","{""Q0"":""Fred is opposing Beth ""}","<img src=""stim_listA/oppose1.gif""style=""height:400px;""></stim_listA>","is opposing","","","","","",""
"3235.6999999901745","<img src='img/portrait_matrix_list2.jpg' style='width:900px;height:500px;''></img><p>If you have memorised all the portraits and names and are ready to start, press Continue.</p><p><strong>Please note: Your memory of these faces will be tested 4 times during this experiment.</strong></p>","0","html-button-response","110","721858","0.0-14.0-0.0","3750","List2A","black","man","","","","","","","","","","","","",""
"3418.3999999950174","<img src=""portrait/WM2.jpg""style=""height:400px;""></img>","7","html-button-response","111","726291","0.0-14.0-1.0","3750","List2A","black","man","","true","7","","","","","","","","","",""
"null","CORRECT","","html-keyboard-response","112","727806","0.0-14.0-2.0-0.0","3750","List2A","black","man","","","","null","","","","","","","","",""
"4557.499999995343","<img src=""portrait/WM1.jpg""style=""height:400px;""></img>","6","html-button-response","113","732373","0.0-14.0-4.0","3750","List2A","black","man","","true","6","","","","","","","","","",""
"null","CORRECT","","html-keyboard-response","114","733883","0.0-14.0-5.0-0.0","3750","List2A","black","man","","","","null","","","","","","","","",""
"4548.999999999069","<img src=""portrait/BM2.jpg""style=""height:400px;""></img>","5","html-button-response","115","738440","0.0-14.0-7.0","3750","List2A","black","man","","true","5","","","","","","","","","",""
"null","CORRECT","","html-keyboard-response","116","739954","0.0-14.0-8.0-0.0","3750","List2A","black","man","","","","null","","","","","","","","",""
"8360.499999980675","<img src=""portrait/WW2.jpg""style=""height:400px;""></img>","3","html-button-response","117","748324","0.0-14.0-10.0","3750","List2A","black","man","","true","3","","","","","","","","","",""
"null","CORRECT","","html-keyboard-response","118","749836","0.0-14.0-11.0-0.0","3750","List2A","black","man","","","","null","","","","","","","","",""
"4537.799999990966","<img src=""portrait/BW2.jpg""style=""height:400px;""></img>","2","html-button-response","119","754385","0.0-14.0-13.0","3750","List2A","black","man","","true","2","","","","","","","","","",""
"null","CORRECT","","html-keyboard-response","120","755897","0.0-14.0-14.0-0.0","3750","List2A","black","man","","","","null","","","","","","","","",""
"3558.900000003632","<img src=""portrait/BM1.jpg""style=""height:400px;""></img>","4","html-button-response","121","759468","0.0-14.0-16.0","3750","List2A","black","man","","true","4","","","","","","","","","",""
"null","CORRECT","","html-keyboard-response","122","760981","0.0-14.0-17.0-0.0","3750","List2A","black","man","","","","null","","","","","","","","",""
"3707.0999999996275","<img src=""portrait/WW1.jpg""style=""height:400px;""></img>","0","html-button-response","123","764699","0.0-14.0-19.0","3750","List2A","black","man","","true","1","","","","","","","","","",""
"5866.500000003725","<img src=""portrait/WW1.jpg""style=""height:400px;""></img>","1","html-button-response","124","771584","0.0-14.0-21.0-0.0","3750","List2A","black","man","","false","1","","","","","","","","","",""
"null","CORRECT","","html-keyboard-response","125","773098","0.0-14.0-21.0-1.0-0.0","3750","List2A","black","man","","","","null","","","","","","","","",""
"4612.300000007963","<img src=""portrait/BW1.jpg""style=""height:400px;""></img>","0","html-button-response","126","777727","0.0-14.0-22.0","3750","List2A","black","man","","true","0","","","","","","","","","",""
"null","CORRECT","","html-keyboard-response","127","779240","0.0-14.0-23.0-0.0","3750","List2A","black","man","","","","null","","","","","","","","",""
"4385.599999979604","<p>You got 7 out of 8 right first time. Press Continue.</p>","0","html-button-response","128","783638","0.0-14.0-25.0","3750","List2A","black","man","","","","","","","","","","","","",""
"9393.100000015693","As you did not score 100%, the memory game will repeat. Press Continue.","0","html-button-response","129","794038","0.0-14.0-26.0-0.0","3750","List2A","black","man","","","","","","","","","","","","",""
"3202.6999999943655","<img src='img/portrait_matrix_list2.jpg' style='width:900px;height:500px;''></img><p>If you have memorised all the portraits and names and are ready to start, press Continue.</p><p><strong>Please note: Your memory of these faces will be tested 4 times during this experiment.</strong></p>","0","html-button-response","130","798258","0.0-14.1-0.1","3750","List2A","black","man","","","","","","","","","","","","",""
"4012.400000006892","<img src=""portrait/WM2.jpg""style=""height:400px;""></img>","7","html-button-response","131","803288","0.0-14.1-1.1","3750","List2A","black","man","","true","7","","","","","","","","","",""
"null","CORRECT","","html-keyboard-response","132","804795","0.0-14.1-2.1-0.1","3750","List2A","black","man","","","","null","","","","","","","","",""
"5590.4000000155065","<img src=""portrait/WM1.jpg""style=""height:400px;""></img>","6","html-button-response","133","810397","0.0-14.1-4.1","3750","List2A","black","man","","true","6","","","","","","","","","",""
"null","CORRECT","","html-keyboard-response","134","811910","0.0-14.1-5.1-0.1","3750","List2A","black","man","","","","null","","","","","","","","",""
"5885.899999993853","<img src=""portrait/BM2.jpg""style=""height:400px;""></img>","5","html-button-response","135","817807","0.0-14.1-7.1","3750","List2A","black","man","","true","5","","","","","","","","","",""
"null","CORRECT","","html-keyboard-response","136","819317","0.0-14.1-8.1-0.1","3750","List2A","black","man","","","","null","","","","","","","","",""
"18293.999999994412","<img src=""portrait/WW2.jpg""style=""height:400px;""></img>","3","html-button-response","137","837619","0.0-14.1-10.1","3750","List2A","black","man","","true","3","","","","","","","","","",""
"null","CORRECT","","html-keyboard-response","138","839130","0.0-14.1-11.1-0.1","3750","List2A","black","man","","","","null","","","","","","","","",""
"3285.500000027241","<img src=""portrait/BW2.jpg""style=""height:400px;""></img>","2","html-button-response","139","842425","0.0-14.1-13.1","3750","List2A","black","man","","true","2","","","","","","","","","",""
"null","CORRECT","","html-keyboard-response","140","843939","0.0-14.1-14.1-0.1","3750","List2A","black","man","","","","null","","","","","","","","",""
"6540.2999999932945","<img src=""portrait/BM1.jpg""style=""height:400px;""></img>","4","html-button-response","141","850496","0.0-14.1-16.1","3750","List2A","black","man","","true","4","","","","","","","","","",""
"null","CORRECT","","html-keyboard-response","142","852007","0.0-14.1-17.1-0.1","3750","List2A","black","man","","","","null","","","","","","","","",""
"3595.999999990454","<img src=""portrait/WW1.jpg""style=""height:400px;""></img>","1","html-button-response","143","855616","0.0-14.1-19.1","3750","List2A","black","man","","true","1","","","","","","","","","",""
"null","CORRECT","","html-keyboard-response","144","857130","0.0-14.1-20.1-0.1","3750","List2A","black","man","","","","null","","","","","","","","",""
"2395.9000000031665","<img src=""portrait/BW1.jpg""style=""height:400px;""></img>","0","html-button-response","145","859539","0.0-14.1-22.1","3750","List2A","black","man","","true","0","","","","","","","","","",""
"null","CORRECT","","html-keyboard-response","146","861052","0.0-14.1-23.1-0.1","3750","List2A","black","man","","","","null","","","","","","","","",""
"2425.4000000073574","<p>You got 8 out of 8 right first time. Press Continue.</p>","0","html-button-response","147","863487","0.0-14.1-25.1","3750","List2A","black","man","","","","","","","","","","","","",""
"null","<div style=""font-size:60px;"">+</div>","","html-keyboard-response","148","865001","0.0-15.0-0.0","3750","List2A","black","man","","","","null","","","","","","","","",""
"null","<img src=""stim_listA/oppose7.gif""style=""height:400px;""></stim_listA>","","html-keyboard-response","149","867010","0.0-15.0-1.0","3750","List2A","black","man","","","","null","","","","","","","","",""
"null","is opposing","","html-keyboard-response","150","869015","0.0-15.0-2.0","3750","List2A","black","man","","","","null","","","","","","","","",""
"17501.399999979185","","","survey-text","151","886538","0.0-15.0-3.0","3750","List2A","black","man","","","","","{""Q0"":""Beth is opposing Ruth ""}","<img src=""stim_listA/oppose7.gif""style=""height:400px;""></stim_listA>","is opposing","","","","","",""
"null","<div style=""font-size:60px;"">+</div>","","html-keyboard-response","152","887040","0.0-15.0-0.1","3750","List2A","black","man","","","","null","","","","","","","","",""
"null","<img src=""stim_listA/kiss1.gif""style=""height:400px;""></stim_listA>","","html-keyboard-response","153","889048","0.0-15.0-1.1","3750","List2A","black","man","","","","null","","","","","","","","",""
"null","is kissing","","html-keyboard-response","154","891056","0.0-15.0-2.1","3750","List2A","black","man","","","","null","","","","","","","","",""
"20407.099999982165","","","survey-text","155","911476","0.0-15.0-3.1","3750","List2A","black","man","","","","","{""Q0"":""Ruth is kissing Luke ""}","<img src=""stim_listA/kiss1.gif""style=""height:400px;""></stim_listA>","is kissing","","","","","",""
"null","<div style=""font-size:60px;"">+</div>","","html-keyboard-response","156","911982","0.0-15.0-0.2","3750","List2A","black","man","","","","null","","","","","","","","",""
"null","<img src=""stim_listA/hug3.gif""style=""height:400px;""></stim_listA>","","html-keyboard-response","157","913996","0.0-15.0-1.2","3750","List2A","black","man","","","","null","","","","","","","","",""
"null","is hugging","","html-keyboard-response","158","916001","0.0-15.0-2.2","3750","List2A","black","man","","","","null","","","","","","","","",""
"11746.299999998882","","","survey-text","159","927758","0.0-15.0-3.2","3750","List2A","black","man","","","","","{""Q0"":""Fred is hugging kate ""}","<img src=""stim_listA/hug3.gif""style=""height:400px;""></stim_listA>","is hugging","","","","","",""
"null","<div style=""font-size:60px;"">+</div>","","html-keyboard-response","160","928262","0.0-15.0-0.3","3750","List2A","black","man","","","","null","","","","","","","","",""
"null","<img src=""stim_listA/challenge8.gif""style=""height:400px;""></stim_listA>","","html-keyboard-response","161","930275","0.0-15.0-1.3","3750","List2A","black","man","","","","null","","","","","","","","",""
"null","is being challenged by","","html-keyboard-response","162","932280","0.0-15.0-2.3","3750","List2A","black","man","","","","null","","","","","","","","",""
"16186.900000000605","","","survey-text","163","948485","0.0-15.0-3.3","3750","List2A","black","man","","","","","{""Q0"":""Kate is being challenged by Ruth ""}","<img src=""stim_listA/challenge8.gif""style=""height:400px;""></stim_listA>","is being challenged by","","","","","",""
"null","<div style=""font-size:60px;"">+</div>","","html-keyboard-response","164","948988","0.0-15.0-0.4","3750","List2A","black","man","","","","null","","","","","","","","",""
"null","<img src=""stim_listA/seduce4.gif""style=""height:400px;""></stim_listA>","","html-keyboard-response","165","951000","0.0-15.0-1.4","3750","List2A","black","man","","","","null","","","","","","","","",""
"null","is being seduced by","","html-keyboard-response","166","953011","0.0-15.0-2.4","3750","List2A","black","man","","","","null","","","","","","","","",""
"15519.899999984773","","","survey-text","167","968554","0.0-15.0-3.4","3750","List2A","black","man","","","","","{""Q0"":""Mike is seducing Beth ""}","<img src=""stim_listA/seduce4.gif""style=""height:400px;""></stim_listA>","is being seduced by","","","","","",""
"null","<div style=""font-size:60px;"">+</div>","","html-keyboard-response","168","969061","0.0-15.0-0.5","3750","List2A","black","man","","","","null","","","","","","","","",""
"null","<img src=""stim_listA/shout5.gif""style=""height:400px;""></stim_listA>","","html-keyboard-response","169","971078","0.0-15.0-1.5","3750","List2A","black","man","","","","null","","","","","","","","",""
"null","is shouting at","","html-keyboard-response","170","973082","0.0-15.0-2.5","3750","List2A","black","man","","","","null","","","","","","","","",""
"14991.500000003725","","","survey-text","171","988079","0.0-15.0-3.5","3750","List2A","black","man","","","","","{""Q0"":""Luke is shouting at Fred ""}","<img src=""stim_listA/shout5.gif""style=""height:400px;""></stim_listA>","is shouting at","","","","","",""
"null","<div style=""font-size:60px;"">+</div>","","html-keyboard-response","172","988582","0.0-15.0-0.6","3750","List2A","black","man","","","","null","","","","","","","","",""
"null","<img src=""stim_listA/seduce6.gif""style=""height:400px;""></stim_listA>","","html-keyboard-response","173","990591","0.0-15.0-1.6","3750","List2A","black","man","","","","null","","","","","","","","",""
"null","is being seduced by","","html-keyboard-response","174","992599","0.0-15.0-2.6","3750","List2A","black","man","","","","null","","","","","","","","",""
"17870.500000019092","","","survey-text","175","1010493","0.0-15.0-3.6","3750","List2A","black","man","","","","","{""Q0"":""Fred is being seduced by Dave ""}","<img src=""stim_listA/seduce6.gif""style=""height:400px;""></stim_listA>","is being seduced by","","","","","",""
"null","<div style=""font-size:60px;"">+</div>","","html-keyboard-response","176","1010998","0.0-15.0-0.7","3750","List2A","black","man","","","","null","","","","","","","","",""
"null","<img src=""stim_listA/seduce1.gif""style=""height:400px;""></stim_listA>","","html-keyboard-response","177","1013008","0.0-15.0-1.7","3750","List2A","black","man","","","","null","","","","","","","","",""
"null","is seducing","","html-keyboard-response","178","1015013","0.0-15.0-2.7","3750","List2A","black","man","","","","null","","","","","","","","",""
"19080.500000010943","","","survey-text","179","1034108","0.0-15.0-3.7","3750","List2A","black","man","","","","","{""Q0"":""Jane is seducing Dave ""}","<img src=""stim_listA/seduce1.gif""style=""height:400px;""></stim_listA>","is seducing","","","","","",""
"null","<div style=""font-size:60px;"">+</div>","","html-keyboard-response","180","1034611","0.0-15.0-0.8","3750","List2A","black","man","","","","null","","","","","","","","",""
"null","<img src=""stim_listA/challenge7.gif""style=""height:400px;""></stim_listA>","","html-keyboard-response","181","1036620","0.0-15.0-1.8","3750","List2A","black","man","","","","null","","","","","","","","",""
"null","is challenging","","html-keyboard-response","182","1038624","0.0-15.0-2.8","3750","List2A","black","man","","","","null","","","","","","","","",""
"29104.29999997723","","","survey-text","183","1067738","0.0-15.0-3.8","3750","List2A","black","man","","","","","{""Q0"":""Jane is challenging Kate ""}","<img src=""stim_listA/challenge7.gif""style=""height:400px;""></stim_listA>","is challenging","","","","","",""
"null","<div style=""font-size:60px;"">+</div>","","html-keyboard-response","184","1068242","0.0-15.0-0.9","3750","List2A","black","man","","","","null","","","","","","","","",""
"null","<img src=""stim_listA/challenge4.gif""style=""height:400px;""></stim_listA>","","html-keyboard-response","185","1070253","0.0-15.0-1.9","3750","List2A","black","man","","","","null","","","","","","","","",""
"null","is being challenged by","","html-keyboard-response","186","1072258","0.0-15.0-2.9","3750","List2A","black","man","","","","null","","","","","","","","",""
"21371.599999984028","","","survey-text","187","1093646","0.0-15.0-3.9","3750","List2A","black","man","","","","","{""Q0"":""Fred is being challenged by Kate ""}","<img src=""stim_listA/challenge4.gif""style=""height:400px;""></stim_listA>","is being challenged by","","","","","",""
"null","<div style=""font-size:60px;"">+</div>","","html-keyboard-response","188","1094153","0.0-15.0-0.10","3750","List2A","black","man","","","","null","","","","","","","","",""
"null","<img src=""stim_listA/kiss7.gif""style=""height:400px;""></stim_listA>","","html-keyboard-response","189","1096168","0.0-15.0-1.10","3750","List2A","black","man","","","","null","","","","","","","","",""
"null","is kissing","","html-keyboard-response","190","1098181","0.0-15.0-2.10","3750","List2A","black","man","","","","null","","","","","","","","",""
"12715.900000010151","","","survey-text","191","1110917","0.0-15.0-3.10","3750","List2A","black","man","","","","","{""Q0"":""Beth is kissing Ruth ""}","<img src=""stim_listA/kiss7.gif""style=""height:400px;""></stim_listA>","is kissing","","","","","",""
"null","<div style=""font-size:60px;"">+</div>","","html-keyboard-response","192","1111421","0.0-15.0-0.11","3750","List2A","black","man","","","","null","","","","","","","","",""
"null","<img src=""stim_listA/greet6.gif""style=""height:400px;""></stim_listA>","","html-keyboard-response","193","1113427","0.0-15.0-1.11","3750","List2A","black","man","","","","null","","","","","","","","",""
"null","is being greeted by","","html-keyboard-response","194","1115436","0.0-15.0-2.11","3750","List2A","black","man","","","","null","","","","","","","","",""
"17657.79999998631","","","survey-text","195","1133125","0.0-15.0-3.11","3750","List2A","black","man","","","","","{""Q0"":""Luke is being greeted by Mike ""}","<img src=""stim_listA/greet6.gif""style=""height:400px;""></stim_listA>","is being greeted by","","","","","",""
"null","<div style=""font-size:60px;"">+</div>","","html-keyboard-response","196","1133631","0.0-15.0-0.12","3750","List2A","black","man","","","","null","","","","","","","","",""
"null","<img src=""stim_listA/look3.gif""style=""height:400px;""></stim_listA>","","html-keyboard-response","197","1135644","0.0-15.0-1.12","3750","List2A","black","man","","","","null","","","","","","","","",""
"null","is looking at","","html-keyboard-response","198","1137652","0.0-15.0-2.12","3750","List2A","black","man","","","","null","","","","","","","","",""
"16788.200000009965","","","survey-text","199","1154452","0.0-15.0-3.12","3750","List2A","black","man","","","","","{""Q0"":""Fred is looking at Beth ""}","<img src=""stim_listA/look3.gif""style=""height:400px;""></stim_listA>","is looking at","","","","","",""
"null","<div style=""font-size:60px;"">+</div>","","html-keyboard-response","200","1154955","0.0-15.0-0.13","3750","List2A","black","man","","","","null","","","","","","","","",""
"null","<img src=""stim_listA/seduce7.gif""style=""height:400px;""></stim_listA>","","html-keyboard-response","201","1156962","0.0-15.0-1.13","3750","List2A","black","man","","","","null","","","","","","","","",""
"null","is seducing","","html-keyboard-response","202","1158971","0.0-15.0-2.13","3750","List2A","black","man","","","","null","","","","","","","","",""
"13512.600000016391","","","survey-text","203","1172504","0.0-15.0-3.13","3750","List2A","black","man","","","","","{""Q0"":""Kate is seducing Ruth ""}","<img src=""stim_listA/seduce7.gif""style=""height:400px;""></stim_listA>","is seducing","","","","","",""
"null","<div style=""font-size:60px;"">+</div>","","html-keyboard-response","204","1173007","0.0-15.0-0.14","3750","List2A","black","man","","","","null","","","","","","","","",""
"null","<img src=""stim_listA/oppose3.gif""style=""height:400px;""></stim_listA>","","html-keyboard-response","205","1175019","0.0-15.0-1.14","3750","List2A","black","man","","","","null","","","","","","","","",""
"null","is opposing","","html-keyboard-response","206","1177028","0.0-15.0-2.14","3750","List2A","black","man","","","","null","","","","","","","","",""
"15908.599999995204","","","survey-text","207","1192959","0.0-15.0-3.14","3750","List2A","black","man","","","","","{""Q0"":""Mike is opposing Jane ""}","<img src=""stim_listA/oppose3.gif""style=""height:400px;""></stim_listA>","is opposing","","","","","",""
"null","<div style=""font-size:60px;"">+</div>","","html-keyboard-response","208","1193467","0.0-15.0-0.15","3750","List2A","black","man","","","","null","","","","","","","","",""
"null","<img src=""stim_listA/shout3.gif""style=""height:400px;""></stim_listA>","","html-keyboard-response","209","1195488","0.0-15.0-1.15","3750","List2A","black","man","","","","null","","","","","","","","",""
"null","is shouting at","","html-keyboard-response","210","1197499","0.0-15.0-2.15","3750","List2A","black","man","","","","null","","","","","","","","",""
"24714.199999987613","","","survey-text","211","1222230","0.0-15.0-3.15","3750","List2A","black","man","","","","","{""Q0"":""Fred is shouting at Ruth ""}","<img src=""stim_listA/shout3.gif""style=""height:400px;""></stim_listA>","is shouting at","","","","","",""
"null","<div style=""font-size:60px;"">+</div>","","html-keyboard-response","212","1222733","0.0-15.0-0.16","3750","List2A","black","man","","","","null","","","","","","","","",""
"null","<img src=""stim_listA/touch6.gif""style=""height:400px;""></stim_listA>","","html-keyboard-response","213","1224751","0.0-15.0-1.16","3750","List2A","black","man","","","","null","","","","","","","","",""
"null","is being touched by","","html-keyboard-response","214","1226759","0.0-15.0-2.16","3750","List2A","black","man","","","","null","","","","","","","","",""
"17881.099999998696","","","survey-text","215","1244664","0.0-15.0-3.16","3750","List2A","black","man","","","","","{""Q0"":""Mike is being touched by Luke ""}","<img src=""stim_listA/touch6.gif""style=""height:400px;""></stim_listA>","is being touched by","","","","","",""
"null","<div style=""font-size:60px;"">+</div>","","html-keyboard-response","216","1245169","0.0-15.0-0.17","3750","List2A","black","man","","","","null","","","","","","","","",""
"null","<img src=""stim_listA/kiss8.gif""style=""height:400px;""></stim_listA>","","html-keyboard-response","217","1247180","0.0-15.0-1.17","3750","List2A","black","man","","","","null","","","","","","","","",""
"null","is being kissed by","","html-keyboard-response","218","1249187","0.0-15.0-2.17","3750","List2A","black","man","","","","null","","","","","","","","",""
"22908.89999998035","","","survey-text","219","1272115","0.0-15.0-3.17","3750","List2A","black","man","","","","","{""Q0"":""Kate is being kissed by jane ""}","<img src=""stim_listA/kiss8.gif""style=""height:400px;""></stim_listA>","is being kissed by","","","","","",""
"null","<div style=""font-size:60px;"">+</div>","","html-keyboard-response","220","1272628","0.0-15.0-0.18","3750","List2A","black","man","","","","null","","","","","","","","",""
"null","<img src=""stim_listA/greet8.gif""style=""height:400px;""></stim_listA>","","html-keyboard-response","221","1274647","0.0-15.0-1.18","3750","List2A","black","man","","","","null","","","","","","","","",""
"null","is being greeted by","","html-keyboard-response","222","1276652","0.0-15.0-2.18","3750","List2A","black","man","","","","null","","","","","","","","",""
"16503.900000010617","","","survey-text","223","1293170","0.0-15.0-3.18","3750","List2A","black","man","","","","","{""Q0"":""Jane is being greeted by Ruth ""}","<img src=""stim_listA/greet8.gif""style=""height:400px;""></stim_listA>","is being greeted by","","","","","",""
"null","<div style=""font-size:60px;"">+</div>","","html-keyboard-response","224","1293673","0.0-15.0-0.19","3750","List2A","black","man","","","","null","","","","","","","","",""
"null","<img src=""stim_listA/seduce3.gif""style=""height:400px;""></stim_listA>","","html-keyboard-response","225","1295685","0.0-15.0-1.19","3750","List2A","black","man","","","","null","","","","","","","","",""
"null","is seducing","","html-keyboard-response","226","1297689","0.0-15.0-2.19","3750","List2A","black","man","","","","null","","","","","","","","",""
"16943.30000001355","","","survey-text","227","1314651","0.0-15.0-3.19","3750","List2A","black","man","","","","","{""Q0"":""Fred is seduced by kate""}","<img src=""stim_listA/seduce3.gif""style=""height:400px;""></stim_listA>","is seducing","","","","","",""
"7461.900000023888","<img src='img/portrait_matrix_list2.jpg' style='width:900px;height:500px;''></img><p>If you have memorised all the portraits and names and are ready to start, press Continue.</p><p><strong>Please note: Your memory of these faces will be tested 4 times during this experiment.</strong></p>","0","html-button-response","228","1322119","0.0-16.0-0.0","3750","List2A","black","man","","","","","","","","","","","","",""
"3758.1000000063796","<img src=""portrait/WM2.jpg""style=""height:400px;""></img>","7","html-button-response","229","1326887","0.0-16.0-1.0","3750","List2A","black","man","","true","7","","","","","","","","","",""
"null","CORRECT","","html-keyboard-response","230","1328397","0.0-16.0-2.0-0.0","3750","List2A","black","man","","","","null","","","","","","","","",""
"2896.100000012666","<img src=""portrait/BM1.jpg""style=""height:400px;""></img>","4","html-button-response","231","1331303","0.0-16.0-4.0","3750","List2A","black","man","","true","4","","","","","","","","","",""
"null","CORRECT","","html-keyboard-response","232","1332815","0.0-16.0-5.0-0.0","3750","List2A","black","man","","","","null","","","","","","","","",""
"3596.2999999755993","<img src=""portrait/WM1.jpg""style=""height:400px;""></img>","6","html-button-response","233","1336425","0.0-16.0-7.0","3750","List2A","black","man","","true","6","","","","","","","","","",""
"null","CORRECT","","html-keyboard-response","234","1337931","0.0-16.0-8.0-0.0","3750","List2A","black","man","","","","null","","","","","","","","",""
"3780.7000000029802","<img src=""portrait/BW2.jpg""style=""height:400px;""></img>","2","html-button-response","235","1341722","0.0-16.0-10.0","3750","List2A","black","man","","true","2","","","","","","","","","",""
"null","CORRECT","","html-keyboard-response","236","1343233","0.0-16.0-11.0-0.0","3750","List2A","black","man","","","","null","","","","","","","","",""
"4758.299999986775","<img src=""portrait/WW1.jpg""style=""height:400px;""></img>","3","html-button-response","237","1348003","0.0-16.0-13.0","3750","List2A","black","man","","true","1","","","","","","","","","",""
"7742.199999978766","<img src=""portrait/WW1.jpg""style=""height:400px;""></img>","1","html-button-response","238","1356761","0.0-16.0-15.0-0.0","3750","List2A","black","man","","false","1","","","","","","","","","",""
"null","CORRECT","","html-keyboard-response","239","1358274","0.0-16.0-15.0-1.0-0.0","3750","List2A","black","man","","","","null","","","","","","","","",""
"4846.099999995204","<img src=""portrait/BM2.jpg""style=""height:400px;""></img>","5","html-button-response","240","1363132","0.0-16.0-16.0","3750","List2A","black","man","","true","5","","","","","","","","","",""
"null","CORRECT","","html-keyboard-response","241","1364644","0.0-16.0-17.0-0.0","3750","List2A","black","man","","","","null","","","","","","","","",""
"3489.899999985937","<img src=""portrait/WW2.jpg""style=""height:400px;""></img>","3","html-button-response","242","1368140","0.0-16.0-19.0","3750","List2A","black","man","","true","3","","","","","","","","","",""
"null","CORRECT","","html-keyboard-response","243","1369649","0.0-16.0-20.0-0.0","3750","List2A","black","man","","","","null","","","","","","","","",""
"6311.199999996461","<img src=""portrait/BW1.jpg""style=""height:400px;""></img>","0","html-button-response","244","1375967","0.0-16.0-22.0","3750","List2A","black","man","","true","0","","","","","","","","","",""
"null","CORRECT","","html-keyboard-response","245","1377481","0.0-16.0-23.0-0.0","3750","List2A","black","man","","","","null","","","","","","","","",""
"1923.1999999901745","<p>You got 7 out of 8 right first time. Press Continue.</p>","0","html-button-response","246","1379416","0.0-16.0-25.0","3750","List2A","black","man","","","","","","","","","","","","",""
"2188.5000000183936","As you did not score 100%, the memory game will repeat. Press Continue.","0","html-button-response","247","1382615","0.0-16.0-26.0-0.0","3750","List2A","black","man","","","","","","","","","","","","",""
"1866.8000000179745","<img src='img/portrait_matrix_list2.jpg' style='width:900px;height:500px;''></img><p>If you have memorised all the portraits and names and are ready to start, press Continue.</p><p><strong>Please note: Your memory of these faces will be tested 4 times during this experiment.</strong></p>","0","html-button-response","248","1385503","0.0-16.1-0.1","3750","List2A","black","man","","","","","","","","","","","","",""
"1911.099999997532","<img src=""portrait/WM2.jpg""style=""height:400px;""></img>","7","html-button-response","249","1388431","0.0-16.1-1.1","3750","List2A","black","man","","true","7","","","","","","","","","",""
"null","CORRECT","","html-keyboard-response","250","1389942","0.0-16.1-2.1-0.1","3750","List2A","black","man","","","","null","","","","","","","","",""
"1810.6000000261702","<img src=""portrait/BM1.jpg""style=""height:400px;""></img>","4","html-button-response","251","1391766","0.0-16.1-4.1","3750","List2A","black","man","","true","4","","","","","","","","","",""
"null","CORRECT","","html-keyboard-response","252","1393278","0.0-16.1-5.1-0.1","3750","List2A","black","man","","","","null","","","","","","","","",""
"3038.4000000194646","<img src=""portrait/WM1.jpg""style=""height:400px;""></img>","6","html-button-response","253","1396332","0.0-16.1-7.1","3750","List2A","black","man","","true","6","","","","","","","","","",""
"null","CORRECT","","html-keyboard-response","254","1397844","0.0-16.1-8.1-0.1","3750","List2A","black","man","","","","null","","","","","","","","",""
"3462.7000000036787","<img src=""portrait/BW2.jpg""style=""height:400px;""></img>","2","html-button-response","255","1401317","0.0-16.1-10.1","3750","List2A","black","man","","true","2","","","","","","","","","",""
"null","CORRECT","","html-keyboard-response","256","1402829","0.0-16.1-11.1-0.1","3750","List2A","black","man","","","","null","","","","","","","","",""
"10588.39999997872","<img src=""portrait/WW1.jpg""style=""height:400px;""></img>","1","html-button-response","257","1413429","0.0-16.1-13.1","3750","List2A","black","man","","true","1","","","","","","","","","",""
"null","CORRECT","","html-keyboard-response","258","1414944","0.0-16.1-14.1-0.1","3750","List2A","black","man","","","","null","","","","","","","","",""
"2020.7999999984168","<img src=""portrait/BM2.jpg""style=""height:400px;""></img>","5","html-button-response","259","1416978","0.0-16.1-16.1","3750","List2A","black","man","","true","5","","","","","","","","","",""
"null","CORRECT","","html-keyboard-response","260","1418493","0.0-16.1-17.1-0.1","3750","List2A","black","man","","","","null","","","","","","","","",""
"3827.1999999997206","<img src=""portrait/WW2.jpg""style=""height:400px;""></img>","3","html-button-response","261","1422335","0.0-16.1-19.1","3750","List2A","black","man","","true","3","","","","","","","","","",""
"null","CORRECT","","html-keyboard-response","262","1423847","0.0-16.1-20.1-0.1","3750","List2A","black","man","","","","null","","","","","","","","",""
"1932.299999985844","<img src=""portrait/BW1.jpg""style=""height:400px;""></img>","0","html-button-response","263","1425792","0.0-16.1-22.1","3750","List2A","black","man","","true","0","","","","","","","","","",""
"null","CORRECT","","html-keyboard-response","264","1427308","0.0-16.1-23.1-0.1","3750","List2A","black","man","","","","null","","","","","","","","",""
"2158.400000014808","<p>You got 8 out of 8 right first time. Press Continue.</p>","0","html-button-response","265","1429477","0.0-16.1-25.1","3750","List2A","black","man","","","","","","","","","","","","",""
"null","<div style=""font-size:60px;"">+</div>","","html-keyboard-response","266","1430990","0.0-17.0-0.0","3750","List2A","black","man","","","","null","","","","","","","","",""
"null","<img src=""stim_listA/challenge5.gif""style=""height:400px;""></stim_listA>","","html-keyboard-response","267","1433004","0.0-17.0-1.0","3750","List2A","black","man","","","","null","","","","","","","","",""
"null","is challenging","","html-keyboard-response","268","1435010","0.0-17.0-2.0","3750","List2A","black","man","","","","null","","","","","","","","",""
"13929.70000000787","","","survey-text","269","1448955","0.0-17.0-3.0","3750","List2A","black","man","","","","","{""Q0"":""Fred is challenging Dave ""}","<img src=""stim_listA/challenge5.gif""style=""height:400px;""></stim_listA>","is challenging","","","","","",""
"null","<div style=""font-size:60px;"">+</div>","","html-keyboard-response","270","1449463","0.0-17.0-0.1","3750","List2A","black","man","","","","null","","","","","","","","",""
"null","<img src=""stim_listA/greet3.gif""style=""height:400px;""></stim_listA>","","html-keyboard-response","271","1451487","0.0-17.0-1.1","3750","List2A","black","man","","","","null","","","","","","","","",""
"null","is greeting","","html-keyboard-response","272","1453497","0.0-17.0-2.1","3750","List2A","black","man","","","","null","","","","","","","","",""
"29466.89999999944","","","survey-text","273","1482988","0.0-17.0-3.1","3750","List2A","black","man","","","","","{""Q0"":""Fred is greeting Jane ""}","<img src=""stim_listA/greet3.gif""style=""height:400px;""></stim_listA>","is greeting","","","","","",""
"null","<div style=""font-size:60px;"">+</div>","","html-keyboard-response","274","1483497","0.0-17.0-0.2","3750","List2A","black","man","","","","null","","","","","","","","",""
"null","<img src=""stim_listA/copy3.gif""style=""height:400px;""></stim_listA>","","html-keyboard-response","275","1485524","0.0-17.0-1.2","3750","List2A","black","man","","","","null","","","","","","","","",""
"null","is copying","","html-keyboard-response","276","1487537","0.0-17.0-2.2","3750","List2A","black","man","","","","null","","","","","","","","",""
"11729.200000001583","","","survey-text","277","1499288","0.0-17.0-3.2","3750","List2A","black","man","","","","","{""Q0"":""Mike is Beth ""}","<img src=""stim_listA/copy3.gif""style=""height:400px;""></stim_listA>","is copying","","","","","",""
"null","<div style=""font-size:60px;"">+</div>","","html-keyboard-response","278","1499791","0.0-17.0-0.3","3750","List2A","black","man","","","","null","","","","","","","","",""
"null","<img src=""stim_listA/copy4.gif""style=""height:400px;""></stim_listA>","","html-keyboard-response","279","1501802","0.0-17.0-1.3","3750","List2A","black","man","","","","null","","","","","","","","",""
"null","is being copied by","","html-keyboard-response","280","1503811","0.0-17.0-2.3","3750","List2A","black","man","","","","null","","","","","","","","",""
"11849.199999996927","","","survey-text","281","1515672","0.0-17.0-3.3","3750","List2A","black","man","","","","","{""Q0"":""Kate is being copied by Fred ""}","<img src=""stim_listA/copy4.gif""style=""height:400px;""></stim_listA>","is being copied by","","","","","",""
"null","<div style=""font-size:60px;"">+</div>","","html-keyboard-response","282","1516175","0.0-17.0-0.4","3750","List2A","black","man","","","","null","","","","","","","","",""
"null","<img src=""stim_listA/touch8.gif""style=""height:400px;""></stim_listA>","","html-keyboard-response","283","1518183","0.0-17.0-1.4","3750","List2A","black","man","","","","null","","","","","","","","",""
"null","is being touched by","","html-keyboard-response","284","1520186","0.0-17.0-2.4","3750","List2A","black","man","","","","null","","","","","","","","",""
"24624.400000000605","","","survey-text","285","1544822","0.0-17.0-3.4","3750","List2A","black","man","","","","","{""Q0"":""Beth is being touched by Ruth ""}","<img src=""stim_listA/touch8.gif""style=""height:400px;""></stim_listA>","is being touched by","","","","","",""
"null","<div style=""font-size:60px;"">+</div>","","html-keyboard-response","286","1545326","0.0-17.0-0.5","3750","List2A","black","man","","","","null","","","","","","","","",""
"null","<img src=""stim_listA/look1.gif""style=""height:400px;""></stim_listA>","","html-keyboard-response","287","1547333","0.0-17.0-1.5","3750","List2A","black","man","","","","null","","","","","","","","",""
"null","is looking at","","html-keyboard-response","288","1549339","0.0-17.0-2.5","3750","List2A","black","man","","","","null","","","","","","","","",""
"12283.699999999953","","","survey-text","289","1561641","0.0-17.0-3.5","3750","List2A","black","man","","","","","{""Q0"":""Ruth is looking Mike ""}","<img src=""stim_listA/look1.gif""style=""height:400px;""></stim_listA>","is looking at","","","","","",""
"null","<div style=""font-size:60px;"">+</div>","","html-keyboard-response","290","1562146","0.0-17.0-0.6","3750","List2A","black","man","","","","null","","","","","","","","",""
"null","<img src=""stim_listA/copy2.gif""style=""height:400px;""></stim_listA>","","html-keyboard-response","291","1564161","0.0-17.0-1.6","3750","List2A","black","man","","","","null","","","","","","","","",""
"null","is being copied by","","html-keyboard-response","292","1566183","0.0-17.0-2.6","3750","List2A","black","man","","","","null","","","","","","","","",""
"16956.000000005588","","","survey-text","293","1583162","0.0-17.0-3.6","3750","List2A","black","man","","","","","{""Q0"":""Mike is being copied by Jane ""}","<img src=""stim_listA/copy2.gif""style=""height:400px;""></stim_listA>","is being copied by","","","","","",""
"null","<div style=""font-size:60px;"">+</div>","","html-keyboard-response","294","1583671","0.0-17.0-0.7","3750","List2A","black","man","","","","null","","","","","","","","",""
"null","<img src=""stim_listA/shout8.gif""style=""height:400px;""></stim_listA>","","html-keyboard-response","295","1585688","0.0-17.0-1.7","3750","List2A","black","man","","","","null","","","","","","","","",""
"null","is being shouted at by","","html-keyboard-response","296","1587693","0.0-17.0-2.7","3750","List2A","black","man","","","","null","","","","","","","","",""
"24714.199999987613","","","survey-text","297","1612415","0.0-17.0-3.7","3750","List2A","black","man","","","","","{""Q0"":""Jane is being shouted at by Kate ""}","<img src=""stim_listA/shout8.gif""style=""height:400px;""></stim_listA>","is being shouted at by","","","","","",""
"null","<div style=""font-size:60px;"">+</div>","","html-keyboard-response","298","1612919","0.0-17.0-0.8","3750","List2A","black","man","","","","null","","","","","","","","",""
"null","<img src=""stim_listA/greet4.gif""style=""height:400px;""></stim_listA>","","html-keyboard-response","299","1614927","0.0-17.0-1.8","3750","List2A","black","man","","","","null","","","","","","","","",""
"null","is being greeted by","","html-keyboard-response","300","1616934","0.0-17.0-2.8","3750","List2A","black","man","","","","null","","","","","","","","",""
"16944.399999978486","","","survey-text","301","1633903","0.0-17.0-3.8","3750","List2A","black","man","","","","","{""Q0"":""Kate is being greeted by Fred ""}","<img src=""stim_listA/greet4.gif""style=""height:400px;""></stim_listA>","is being greeted by","","","","","",""
"null","<div style=""font-size:60px;"">+</div>","","html-keyboard-response","302","1634408","0.0-17.0-0.9","3750","List2A","black","man","","","","null","","","","","","","","",""
"null","<img src=""stim_listA/touch2.gif""style=""height:400px;""></stim_listA>","","html-keyboard-response","303","1636418","0.0-17.0-1.9","3750","List2A","black","man","","","","null","","","","","","","","",""
"null","is being touched by","","html-keyboard-response","304","1638427","0.0-17.0-2.9","3750","List2A","black","man","","","","null","","","","","","","","",""
"16955.200000025798","","","survey-text","305","1655394","0.0-17.0-3.9","3750","List2A","black","man","","","","","{""Q0"":""Ruth is touching Mike ""}","<img src=""stim_listA/touch2.gif""style=""height:400px;""></stim_listA>","is being touched by","","","","","",""
"null","<div style=""font-size:60px;"">+</div>","","html-keyboard-response","306","1655898","0.0-17.0-0.10","3750","List2A","black","man","","","","null","","","","","","","","",""
"null","<img src=""stim_listA/hug4.gif""style=""height:400px;""></stim_listA>","","html-keyboard-response","307","1657907","0.0-17.0-1.10","3750","List2A","black","man","","","","null","","","","","","","","",""
"null","is being hugged by","","html-keyboard-response","308","1659921","0.0-17.0-2.10","3750","List2A","black","man","","","","null","","","","","","","","",""
"21638.400000025285","","","survey-text","309","1681572","0.0-17.0-3.10","3750","List2A","black","man","","","","","{""Q0"":""Mike is being hugged by Kate ""}","<img src=""stim_listA/hug4.gif""style=""height:400px;""></stim_listA>","is being hugged by","","","","","",""
"null","<div style=""font-size:60px;"">+</div>","","html-keyboard-response","310","1682077","0.0-17.0-0.11","3750","List2A","black","man","","","","null","","","","","","","","",""
"null","<img src=""stim_listA/challenge3.gif""style=""height:400px;""></stim_listA>","","html-keyboard-response","311","1684088","0.0-17.0-1.11","3750","List2A","black","man","","","","null","","","","","","","","",""
"null","is challenging","","html-keyboard-response","312","1686097","0.0-17.0-2.11","3750","List2A","black","man","","","","null","","","","","","","","",""
"17800.799999997253","","","survey-text","313","1703922","0.0-17.0-3.11","3750","List2A","black","man","","","","","{""Q0"":""Mike is being challenged by Beth ""}","<img src=""stim_listA/challenge3.gif""style=""height:400px;""></stim_listA>","is challenging","","","","","",""
"null","<div style=""font-size:60px;"">+</div>","","html-keyboard-response","314","1704425","0.0-17.0-0.12","3750","List2A","black","man","","","","null","","","","","","","","",""
"null","<img src=""stim_listA/hug1.gif""style=""height:400px;""></stim_listA>","","html-keyboard-response","315","1706433","0.0-17.0-1.12","3750","List2A","black","man","","","","null","","","","","","","","",""
"null","is hugging","","html-keyboard-response","316","1708441","0.0-17.0-2.12","3750","List2A","black","man","","","","null","","","","","","","","",""
"25168.899999989662","","","survey-text","317","1733618","0.0-17.0-3.12","3750","List2A","black","man","","","","","{""Q0"":""Luke is hugging Ruth ""}","<img src=""stim_listA/hug1.gif""style=""height:400px;""></stim_listA>","is hugging","","","","","",""
"null","<div style=""font-size:60px;"">+</div>","","html-keyboard-response","318","1734124","0.0-17.0-0.13","3750","List2A","black","man","","","","null","","","","","","","","",""
"null","<img src=""stim_listA/oppose6.gif""style=""height:400px;""></stim_listA>","","html-keyboard-response","319","1736149","0.0-17.0-1.13","3750","List2A","black","man","","","","null","","","","","","","","",""
"null","is being opposed by","","html-keyboard-response","320","1738163","0.0-17.0-2.13","3750","List2A","black","man","","","","null","","","","","","","","",""
"26398.199999995995","","","survey-text","321","1764581","0.0-17.0-3.13","3750","List2A","black","man","","","","","{""Q0"":""Fred is being challenged by Luke ""}","<img src=""stim_listA/oppose6.gif""style=""height:400px;""></stim_listA>","is being opposed by","","","","","",""
"null","<div style=""font-size:60px;"">+</div>","","html-keyboard-response","322","1765084","0.0-17.0-0.14","3750","List2A","black","man","","","","null","","","","","","","","",""
"null","<img src=""stim_listA/hug7.gif""style=""height:400px;""></stim_listA>","","html-keyboard-response","323","1767093","0.0-17.0-1.14","3750","List2A","black","man","","","","null","","","","","","","","",""
"null","is hugging","","html-keyboard-response","324","1769097","0.0-17.0-2.14","3750","List2A","black","man","","","","null","","","","","","","","",""
"16571.200000005774","","","survey-text","325","1785681","0.0-17.0-3.14","3750","List2A","black","man","","","","","{""Q0"":""Ruth is hugging Beth ""}","<img src=""stim_listA/hug7.gif""style=""height:400px;""></stim_listA>","is hugging","","","","","",""
"null","<div style=""font-size:60px;"">+</div>","","html-keyboard-response","326","1786190","0.0-17.0-0.15","3750","List2A","black","man","","","","null","","","","","","","","",""
"null","<img src=""stim_listA/look8.gif""style=""height:400px;""></stim_listA>","","html-keyboard-response","327","1788205","0.0-17.0-1.15","3750","List2A","black","man","","","","null","","","","","","","","",""
"null","is being looked at by","","html-keyboard-response","328","1790212","0.0-17.0-2.15","3750","List2A","black","man","","","","null","","","","","","","","",""
"23104.300000006333","","","survey-text","329","1813330","0.0-17.0-3.15","3750","List2A","black","man","","","","","{""Q0"":""Kate is being looked at by Jane ""}","<img src=""stim_listA/look8.gif""style=""height:400px;""></stim_listA>","is being looked at by","","","","","",""
"null","<div style=""font-size:60px;"">+</div>","","html-keyboard-response","330","1813836","0.0-17.0-0.16","3750","List2A","black","man","","","","null","","","","","","","","",""
"null","<img src=""stim_listA/challenge2.gif""style=""height:400px;""></stim_listA>","","html-keyboard-response","331","1815861","0.0-17.0-1.16","3750","List2A","black","man","","","","null","","","","","","","","",""
"null","is being challenged by","","html-keyboard-response","332","1817868","0.0-17.0-2.16","3750","List2A","black","man","","","","null","","","","","","","","",""
"29017.0999999973","","","survey-text","333","1846895","0.0-17.0-3.16","3750","List2A","black","man","","","","","{""Q0"":""Luke is being challenged at by  Jane ""}","<img src=""stim_listA/challenge2.gif""style=""height:400px;""></stim_listA>","is being challenged by","","","","","",""
"null","<div style=""font-size:60px;"">+</div>","","html-keyboard-response","334","1847399","0.0-17.0-0.17","3750","List2A","black","man","","","","null","","","","","","","","",""
"null","<img src=""stim_listA/kiss3.gif""style=""height:400px;""></stim_listA>","","html-keyboard-response","335","1849413","0.0-17.0-1.17","3750","List2A","black","man","","","","null","","","","","","","","",""
"null","is kissing","","html-keyboard-response","336","1851422","0.0-17.0-2.17","3750","List2A","black","man","","","","null","","","","","","","","",""
"12527.400000020862","","","survey-text","337","1863968","0.0-17.0-3.17","3750","List2A","black","man","","","","","{""Q0"":""Beth is kissing Fred ""}","<img src=""stim_listA/kiss3.gif""style=""height:400px;""></stim_listA>","is kissing","","","","","",""
"null","<div style=""font-size:60px;"">+</div>","","html-keyboard-response","338","1864473","0.0-17.0-0.18","3750","List2A","black","man","","","","null","","","","","","","","",""
"null","<img src=""stim_listA/oppose8.gif""style=""height:400px;""></stim_listA>","","html-keyboard-response","339","1866482","0.0-17.0-1.18","3750","List2A","black","man","","","","null","","","","","","","","",""
"null","is being opposed by","","html-keyboard-response","340","1868491","0.0-17.0-2.18","3750","List2A","black","man","","","","null","","","","","","","","",""
"24292.09999999148","","","survey-text","341","1892804","0.0-17.0-3.18","3750","List2A","black","man","","","","","{""Q0"":""Beth is being opposed by Ruth ""}","<img src=""stim_listA/oppose8.gif""style=""height:400px;""></stim_listA>","is being opposed by","","","","","",""
"null","<div style=""font-size:60px;"">+</div>","","html-keyboard-response","342","1893312","0.0-17.0-0.19","3750","List2A","black","man","","","","null","","","","","","","","",""
"null","<img src=""stim_listA/kiss6.gif""style=""height:400px;""></stim_listA>","","html-keyboard-response","343","1895334","0.0-17.0-1.19","3750","List2A","black","man","","","","null","","","","","","","","",""
"null","is being kissed by","","html-keyboard-response","344","1897344","0.0-17.0-2.19","3750","List2A","black","man","","","","null","","","","","","","","",""
"15670.699999987846","","","survey-text","345","1913036","0.0-17.0-3.19","3750","List2A","black","man","","","","","{""Q0"":""Mike is being kissed by Dave ""}","<img src=""stim_listA/kiss6.gif""style=""height:400px;""></stim_listA>","is being kissed by","","","","","",""
"43599.39999997732","<img src='img/portrait_matrix_list2.jpg' style='width:900px;height:500px;''></img><p>If you have memorised all the portraits and names and are ready to start, press Continue.</p><p><strong>Please note: Your memory of these faces will be tested 4 times during this experiment.</strong></p>","0","html-button-response","346","1956640","0.0-18.0-0.0","3750","List2A","black","man","","","","","","","","","","","","",""
"3647.899999981746","<img src=""portrait/WM1.jpg""style=""height:400px;""></img>","6","html-button-response","347","1961303","0.0-18.0-1.0","3750","List2A","black","man","","true","6","","","","","","","","","",""
"null","CORRECT","","html-keyboard-response","348","1962815","0.0-18.0-2.0-0.0","3750","List2A","black","man","","","","null","","","","","","","","",""
"3888.9000000199303","<img src=""portrait/WW1.jpg""style=""height:400px;""></img>","1","html-button-response","349","1966719","0.0-18.0-4.0","3750","List2A","black","man","","true","1","","","","","","","","","",""
"null","CORRECT","","html-keyboard-response","350","1968238","0.0-18.0-5.0-0.0","3750","List2A","black","man","","","","null","","","","","","","","",""
"3564.299999998184","<img src=""portrait/BW2.jpg""style=""height:400px;""></img>","2","html-button-response","351","1971817","0.0-18.0-7.0","3750","List2A","black","man","","true","2","","","","","","","","","",""
"null","CORRECT","","html-keyboard-response","352","1973326","0.0-18.0-8.0-0.0","3750","List2A","black","man","","","","null","","","","","","","","",""
"3896.999999997206","<img src=""portrait/WW2.jpg""style=""height:400px;""></img>","3","html-button-response","353","1977230","0.0-18.0-10.0","3750","List2A","black","man","","true","3","","","","","","","","","",""
"null","CORRECT","","html-keyboard-response","354","1978747","0.0-18.0-11.0-0.0","3750","List2A","black","man","","","","null","","","","","","","","",""
"1998.5999999917112","<img src=""portrait/BM2.jpg""style=""height:400px;""></img>","5","html-button-response","355","1980758","0.0-18.0-13.0","3750","List2A","black","man","","true","5","","","","","","","","","",""
"null","CORRECT","","html-keyboard-response","356","1982267","0.0-18.0-14.0-0.0","3750","List2A","black","man","","","","null","","","","","","","","",""
"1978.0999999784399","<img src=""portrait/WM2.jpg""style=""height:400px;""></img>","7","html-button-response","357","1984256","0.0-18.0-16.0","3750","List2A","black","man","","true","7","","","","","","","","","",""
"null","CORRECT","","html-keyboard-response","358","1985769","0.0-18.0-17.0-0.0","3750","List2A","black","man","","","","null","","","","","","","","",""
"2802.1000000007916","<img src=""portrait/BM1.jpg""style=""height:400px;""></img>","4","html-button-response","359","1988586","0.0-18.0-19.0","3750","List2A","black","man","","true","4","","","","","","","","","",""
"null","CORRECT","","html-keyboard-response","360","1990095","0.0-18.0-20.0-0.0","3750","List2A","black","man","","","","null","","","","","","","","",""
"2944.7000000218395","<img src=""portrait/BW1.jpg""style=""height:400px;""></img>","0","html-button-response","361","1993044","0.0-18.0-22.0","3750","List2A","black","man","","true","0","","","","","","","","","",""
"null","CORRECT","","html-keyboard-response","362","1994554","0.0-18.0-23.0-0.0","3750","List2A","black","man","","","","null","","","","","","","","",""
"1762.300000002142","<p>You got 8 out of 8 right first time. Press Continue.</p>","0","html-button-response","363","1996331","0.0-18.0-25.0","3750","List2A","black","man","","","","","","","","","","","","",""
"null","<div style=""font-size:60px;"">+</div>","","html-keyboard-response","364","1997848","0.0-19.0-0.0","3750","List2A","black","man","","","","null","","","","","","","","",""
"null","<img src=""stim_listA/hug2.gif""style=""height:400px;""></stim_listA>","","html-keyboard-response","365","1999870","0.0-19.0-1.0","3750","List2A","black","man","","","","null","","","","","","","","",""
"null","is being hugged by","","html-keyboard-response","366","2001879","0.0-19.0-2.0","3750","List2A","black","man","","","","null","","","","","","","","",""
"20467.499999998836","","","survey-text","367","2022362","0.0-19.0-3.0","3750","List2A","black","man","","","","","{""Q0"":""Dave is being hugged by Jane ""}","<img src=""stim_listA/hug2.gif""style=""height:400px;""></stim_listA>","is being hugged by","","","","","",""
"null","<div style=""font-size:60px;"">+</div>","","html-keyboard-response","368","2022872","0.0-19.0-0.1","3750","List2A","black","man","","","","null","","","","","","","","",""
"null","<img src=""stim_listA/hug5.gif""style=""height:400px;""></stim_listA>","","html-keyboard-response","369","2024889","0.0-19.0-1.1","3750","List2A","black","man","","","","null","","","","","","","","",""
"null","is hugging","","html-keyboard-response","370","2026897","0.0-19.0-2.1","3750","List2A","black","man","","","","null","","","","","","","","",""
"12804.100000008475","","","survey-text","371","2039729","0.0-19.0-3.1","3750","List2A","black","man","","","","","{""Q0"":""Fred is hugging Luke ""}","<img src=""stim_listA/hug5.gif""style=""height:400px;""></stim_listA>","is hugging","","","","","",""
"null","<div style=""font-size:60px;"">+</div>","","html-keyboard-response","372","2040233","0.0-19.0-0.2","3750","List2A","black","man","","","","null","","","","","","","","",""
"null","<img src=""stim_listA/copy1.gif""style=""height:400px;""></stim_listA>","","html-keyboard-response","373","2042244","0.0-19.0-1.2","3750","List2A","black","man","","","","null","","","","","","","","",""
"null","is copying","","html-keyboard-response","374","2044251","0.0-19.0-2.2","3750","List2A","black","man","","","","null","","","","","","","","",""
"19019.100000004983","","","survey-text","375","2063294","0.0-19.0-3.2","3750","List2A","black","man","","","","","{""Q0"":""Ruth is copying Dave ""}","<img src=""stim_listA/copy1.gif""style=""height:400px;""></stim_listA>","is copying","","","","","",""
"null","<div style=""font-size:60px;"">+</div>","","html-keyboard-response","376","2063797","0.0-19.0-0.3","3750","List2A","black","man","","","","null","","","","","","","","",""
"null","<img src=""stim_listA/hug6.gif""style=""height:400px;""></stim_listA>","","html-keyboard-response","377","2065809","0.0-19.0-1.3","3750","List2A","black","man","","","","null","","","","","","","","",""
"null","is being hugged by","","html-keyboard-response","378","2067821","0.0-19.0-2.3","3750","List2A","black","man","","","","null","","","","","","","","",""
"13190.600000001723","","","survey-text","379","2081032","0.0-19.0-3.3","3750","List2A","black","man","","","","","{""Q0"":""Dave is being hugged by Mike ""}","<img src=""stim_listA/hug6.gif""style=""height:400px;""></stim_listA>","is being hugged by","","","","","",""
"null","<div style=""font-size:60px;"">+</div>","","html-keyboard-response","380","2081541","0.0-19.0-0.4","3750","List2A","black","man","","","","null","","","","","","","","",""
"null","<img src=""stim_listA/copy6.gif""style=""height:400px;""></stim_listA>","","html-keyboard-response","381","2083560","0.0-19.0-1.4","3750","List2A","black","man","","","","null","","","","","","","","",""
"null","is being copied by","","html-keyboard-response","382","2085564","0.0-19.0-2.4","3750","List2A","black","man","","","","null","","","","","","","","",""
"15822.899999998976","","","survey-text","383","2101397","0.0-19.0-3.4","3750","List2A","black","man","","","","","{""Q0"":""Mike is being copied by Luke ""}","<img src=""stim_listA/copy6.gif""style=""height:400px;""></stim_listA>","is being copied by","","","","","",""
"null","<div style=""font-size:60px;"">+</div>","","html-keyboard-response","384","2101902","0.0-19.0-0.5","3750","List2A","black","man","","","","null","","","","","","","","",""
"null","<img src=""stim_listA/touch4.gif""style=""height:400px;""></stim_listA>","","html-keyboard-response","385","2103914","0.0-19.0-1.5","3750","List2A","black","man","","","","null","","","","","","","","",""
"null","is being touched by","","html-keyboard-response","386","2105926","0.0-19.0-2.5","3750","List2A","black","man","","","","null","","","","","","","","",""
"19370.80000000447","","","survey-text","387","2125321","0.0-19.0-3.5","3750","List2A","black","man","","","","","{""Q0"":""Beth is being touched by Fred ""}","<img src=""stim_listA/touch4.gif""style=""height:400px;""></stim_listA>","is being touched by","","","","","",""
"null","<div style=""font-size:60px;"">+</div>","","html-keyboard-response","388","2125824","0.0-19.0-0.6","3750","List2A","black","man","","","","null","","","","","","","","",""
"null","<img src=""stim_listA/greet5.gif""style=""height:400px;""></stim_listA>","","html-keyboard-response","389","2127831","0.0-19.0-1.6","3750","List2A","black","man","","","","null","","","","","","","","",""
"null","is greeting","","html-keyboard-response","390","2129844","0.0-19.0-2.6","3750","List2A","black","man","","","","null","","","","","","","","",""
"11000","","","survey-text","391","2140864","0.0-19.0-3.6","3750","List2A","black","man","","","","","{""Q0"":""Dave is greeting Fred ""}","<img src=""stim_listA/greet5.gif""style=""height:400px;""></stim_listA>","is greeting","","","","","",""
"null","<div style=""font-size:60px;"">+</div>","","html-keyboard-response","392","2141367","0.0-19.0-0.7","3750","List2A","black","man","","","","null","","","","","","","","",""
"null","<img src=""stim_listA/touch3.gif""style=""height:400px;""></stim_listA>","","html-keyboard-response","393","2143373","0.0-19.0-1.7","3750","List2A","black","man","","","","null","","","","","","","","",""
"null","is touching","","html-keyboard-response","394","2145379","0.0-19.0-2.7","3750","List2A","black","man","","","","null","","","","","","","","",""
"9062.60000000475","","","survey-text","395","2154461","0.0-19.0-3.7","3750","List2A","black","man","","","","","{""Q0"":""Mike is touching Kate ""}","<img src=""stim_listA/touch3.gif""style=""height:400px;""></stim_listA>","is touching","","","","","",""
"null","<div style=""font-size:60px;"">+</div>","","html-keyboard-response","396","2154970","0.0-19.0-0.8","3750","List2A","black","man","","","","null","","","","","","","","",""
"null","<img src=""stim_listA/look5.gif""style=""height:400px;""></stim_listA>","","html-keyboard-response","397","2156991","0.0-19.0-1.8","3750","List2A","black","man","","","","null","","","","","","","","",""
"null","is looking at","","html-keyboard-response","398","2158997","0.0-19.0-2.8","3750","List2A","black","man","","","","null","","","","","","","","",""
"15385.299999994226","","","survey-text","399","2174403","0.0-19.0-3.8","3750","List2A","black","man","","","","","{""Q0"":""Luke is looking Fred ""}","<img src=""stim_listA/look5.gif""style=""height:400px;""></stim_listA>","is looking at","","","","","",""
"null","<div style=""font-size:60px;"">+</div>","","html-keyboard-response","400","2174911","0.0-19.0-0.9","3750","List2A","black","man","","","","null","","","","","","","","",""
"null","<img src=""stim_listA/greet1.gif""style=""height:400px;""></stim_listA>","","html-keyboard-response","401","2176936","0.0-19.0-1.9","3750","List2A","black","man","","","","null","","","","","","","","",""
"null","is greeting","","html-keyboard-response","402","2178944","0.0-19.0-2.9","3750","List2A","black","man","","","","null","","","","","","","","",""
"13925.69999999227","","","survey-text","403","2192887","0.0-19.0-3.9","3750","List2A","black","man","","","","","{""Q0"":""Dave is greeting Ruth ""}","<img src=""stim_listA/greet1.gif""style=""height:400px;""></stim_listA>","is greeting","","","","","",""
"null","<div style=""font-size:60px;"">+</div>","","html-keyboard-response","404","2193391","0.0-19.0-0.10","3750","List2A","black","man","","","","null","","","","","","","","",""
"null","<img src=""stim_listA/shout6.gif""style=""height:400px;""></stim_listA>","","html-keyboard-response","405","2195401","0.0-19.0-1.10","3750","List2A","black","man","","","","null","","","","","","","","",""
"null","is being shouted at by","","html-keyboard-response","406","2197410","0.0-19.0-2.10","3750","List2A","black","man","","","","null","","","","","","","","",""
"18904.69999998482","","","survey-text","407","2216338","0.0-19.0-3.10","3750","List2A","black","man","","","","","{""Q0"":""Mike is being shouted at by Dave ""}","<img src=""stim_listA/shout6.gif""style=""height:400px;""></stim_listA>","is being shouted at by","","","","","",""
"null","<div style=""font-size:60px;"">+</div>","","html-keyboard-response","408","2216842","0.0-19.0-0.11","3750","List2A","black","man","","","","null","","","","","","","","",""
"null","<img src=""stim_listA/shout1.gif""style=""height:400px;""></stim_listA>","","html-keyboard-response","409","2218852","0.0-19.0-1.11","3750","List2A","black","man","","","","null","","","","","","","","",""
"null","is shouting at","","html-keyboard-response","410","2220863","0.0-19.0-2.11","3750","List2A","black","man","","","","null","","","","","","","","",""
"19040.600000007544","","","survey-text","411","2239919","0.0-19.0-3.11","3750","List2A","black","man","","","","","{""Q0"":""Luke is shouting at Ruth ""}","<img src=""stim_listA/shout1.gif""style=""height:400px;""></stim_listA>","is shouting at","","","","","",""
"null","<div style=""font-size:60px;"">+</div>","","html-keyboard-response","412","2240425","0.0-19.0-0.12","3750","List2A","black","man","","","","null","","","","","","","","",""
"null","<img src=""stim_listA/kiss5.gif""style=""height:400px;""></stim_listA>","","html-keyboard-response","413","2242431","0.0-19.0-1.12","3750","List2A","black","man","","","","null","","","","","","","","",""
"null","is kissing","","html-keyboard-response","414","2244439","0.0-19.0-2.12","3750","List2A","black","man","","","","null","","","","","","","","",""
"14624.500000005122","","","survey-text","415","2259085","0.0-19.0-3.12","3750","List2A","black","man","","","","","{""Q0"":""Fred is kissing Luke ""}","<img src=""stim_listA/kiss5.gif""style=""height:400px;""></stim_listA>","is kissing","","","","","",""
"null","<div style=""font-size:60px;"">+</div>","","html-keyboard-response","416","2259587","0.0-19.0-0.13","3750","List2A","black","man","","","","null","","","","","","","","",""
"null","<img src=""stim_listA/hug8.gif""style=""height:400px;""></stim_listA>","","html-keyboard-response","417","2261597","0.0-19.0-1.13","3750","List2A","black","man","","","","null","","","","","","","","",""
"null","is being hugged by","","html-keyboard-response","418","2263609","0.0-19.0-2.13","3750","List2A","black","man","","","","null","","","","","","","","",""
"15158.200000005774","","","survey-text","419","2278790","0.0-19.0-3.13","3750","List2A","black","man","","","","","{""Q0"":""Kate is being hugged by Jane ""}","<img src=""stim_listA/hug8.gif""style=""height:400px;""></stim_listA>","is being hugged by","","","","","",""
"null","<div style=""font-size:60px;"">+</div>","","html-keyboard-response","420","2279297","0.0-19.0-0.14","3750","List2A","black","man","","","","null","","","","","","","","",""
"null","<img src=""stim_listA/seduce2.gif""style=""height:400px;""></stim_listA>","","html-keyboard-response","421","2281312","0.0-19.0-1.14","3750","List2A","black","man","","","","null","","","","","","","","",""
"null","is being seduced by","","html-keyboard-response","422","2283318","0.0-19.0-2.14","3750","List2A","black","man","","","","null","","","","","","","","",""
"21398.300000000745","","","survey-text","423","2304742","0.0-19.0-3.14","3750","List2A","black","man","","","","","{""Q0"":""Ruth is being seduced by Dave ""}","<img src=""stim_listA/seduce2.gif""style=""height:400px;""></stim_listA>","is being seduced by","","","","","",""
"null","<div style=""font-size:60px;"">+</div>","","html-keyboard-response","424","2305244","0.0-19.0-0.15","3750","List2A","black","man","","","","null","","","","","","","","",""
"null","<img src=""stim_listA/oppose5.gif""style=""height:400px;""></stim_listA>","","html-keyboard-response","425","2307254","0.0-19.0-1.15","3750","List2A","black","man","","","","null","","","","","","","","",""
"null","is opposing","","html-keyboard-response","426","2309264","0.0-19.0-2.15","3750","List2A","black","man","","","","null","","","","","","","","",""
"8928.599999984726","","","survey-text","427","2318219","0.0-19.0-3.15","3750","List2A","black","man","","","","","{""Q0"":""Dave is opposing Mike ""}","<img src=""stim_listA/oppose5.gif""style=""height:400px;""></stim_listA>","is opposing","","","","","",""
"null","<div style=""font-size:60px;"">+</div>","","html-keyboard-response","428","2318723","0.0-19.0-0.16","3750","List2A","black","man","","","","null","","","","","","","","",""
"null","<img src=""stim_listA/copy7.gif""style=""height:400px;""></stim_listA>","","html-keyboard-response","429","2320736","0.0-19.0-1.16","3750","List2A","black","man","","","","null","","","","","","","","",""
"null","is copying","","html-keyboard-response","430","2322743","0.0-19.0-2.16","3750","List2A","black","man","","","","null","","","","","","","","",""
"12335.599999991246","","","survey-text","431","2335100","0.0-19.0-3.16","3750","List2A","black","man","","","","","{""Q0"":""Beth is copying Jane ""}","<img src=""stim_listA/copy7.gif""style=""height:400px;""></stim_listA>","is copying","","","","","",""
"null","<div style=""font-size:60px;"">+</div>","","html-keyboard-response","432","2335604","0.0-19.0-0.17","3750","List2A","black","man","","","","null","","","","","","","","",""
"null","<img src=""stim_listA/shout2.gif""style=""height:400px;""></stim_listA>","","html-keyboard-response","433","2337618","0.0-19.0-1.17","3750","List2A","black","man","","","","null","","","","","","","","",""
"null","is being shouted at by","","html-keyboard-response","434","2339628","0.0-19.0-2.17","3750","List2A","black","man","","","","null","","","","","","","","",""
"16328.799999988638","","","survey-text","435","2355978","0.0-19.0-3.17","3750","List2A","black","man","","","","","{""Q0"":""Jane is being shouted at by Dave ""}","<img src=""stim_listA/shout2.gif""style=""height:400px;""></stim_listA>","is being shouted at by","","","","","",""
"null","<div style=""font-size:60px;"">+</div>","","html-keyboard-response","436","2356482","0.0-19.0-0.18","3750","List2A","black","man","","","","null","","","","","","","","",""
"null","<img src=""stim_listA/seduce8.gif""style=""height:400px;""></stim_listA>","","html-keyboard-response","437","2358493","0.0-19.0-1.18","3750","List2A","black","man","","","","null","","","","","","","","",""
"null","is being seduced by","","html-keyboard-response","438","2360501","0.0-19.0-2.18","3750","List2A","black","man","","","","null","","","","","","","","",""
"25742.999999987427","","","survey-text","439","2386266","0.0-19.0-3.18","3750","List2A","black","man","","","","","{""Q0"":""Beth is being seduced at by Jane ""}","<img src=""stim_listA/seduce8.gif""style=""height:400px;""></stim_listA>","is being seduced by","","","","","",""
"null","<div style=""font-size:60px;"">+</div>","","html-keyboard-response","440","2386772","0.0-19.0-0.19","3750","List2A","black","man","","","","null","","","","","","","","",""
"null","<img src=""stim_listA/look4.gif""style=""height:400px;""></stim_listA>","","html-keyboard-response","441","2388789","0.0-19.0-1.19","3750","List2A","black","man","","","","null","","","","","","","","",""
"null","is being looked at by","","html-keyboard-response","442","2390795","0.0-19.0-2.19","3750","List2A","black","man","","","","null","","","","","","","","",""
"14175.90000000177","","","survey-text","443","2404998","0.0-19.0-3.19","3750","List2A","black","man","","","","","{""Q0"":""Kate is being looked at by Mike ""}","<img src=""stim_listA/look4.gif""style=""height:400px;""></stim_listA>","is being looked at by","","","","","",""
"19107.199999998324","<p>Thank you for completing that task.</p><p>The final part of this session is a questionnaire that will take about 4 minutes.</p><p>Press Continue.</p>","0","html-button-response","444","2424110","0.0-20.0","3750","List2A","black","man","","","","","","","","","","","","",""
"41912.40000000084","","","survey-text","445","2467055","0.0-21.0","3750","List2A","black","man","","","","","{""Q0"":""28"",""Q1"":""English "",""Q2"":""English "",""Q3"":""United States "",""Q4"":""American "",""Q5"":""Black "",""Q6"":""Male""}","","","demographics","","","","",""
"3741.600000008475","<p>Have you lived in the USA for the last 5 years or more?</p>","0","html-button-response","446","2470802","0.0-22.0","3750","List2A","black","man","","","","","","","","fiveyears","","","","",""
"4330.099999991711","<p>Move the slider to show the extent to which you agree with the following statements.</p>","0","html-button-response","447","2476137","0.0-23.0","3750","List2A","black","man","","","","","","","","","","","","",""
"5157.799999985844","","","html-slider-response","448","2482323","0.0-24.0-0.0-0.0","3750","List2A","black","man","","","","","","","","survey_race","79","","","I enjoy being in large groups.","filler"
"6389.399999985471","","","html-slider-response","449","2488719","0.0-24.0-0.0-0.1","3750","List2A","black","man","","","","","","","","survey_race","80","","","People my age have a lot in common with each other.","filler"
"4745.0999999996275","","","html-slider-response","450","2493473","0.0-24.0-0.0-0.2","3750","List2A","black","man","","","","","","","","survey_race","35","","","My age is not an important part of who I am.","filler"
"4752.99999999674","","","html-slider-response","451","2498233","0.0-24.0-0.0-0.3","3750","List2A","black","man","","","","","","","","survey_race","92","","","I feel a bond with people the same age as me.","filler"
"4178.299999999348","","","html-slider-response","452","2502419","0.0-24.0-0.0-0.4","3750","List2A","black","man","","","","","","","","survey_race","91","","","I feel solidarity with my race.","solidarity"
"3603.1000000075437","","","html-slider-response","453","2506030","0.0-24.0-0.0-0.5","3750","List2A","black","man","","","","","","","","survey_race","75","","","I feel committed to my race.","committed"
"3655.300000013318","","","html-slider-response","454","2509694","0.0-24.0-0.0-0.6","3750","List2A","black","man","","","","","","","","survey_race","97","","","I feel solidarity with people the same age as me.","filler"
"5304.500000027008","","","html-slider-response","455","2515005","0.0-24.0-0.0-0.7","3750","List2A","black","man","","","","","","","","survey_race","52","","","Being my race is an important part of how I see myself.","important"
"3142.200000002049","","","html-slider-response","456","2518155","0.0-24.0-0.0-0.8","3750","List2A","black","man","","","","","","","","survey_race","62","","","I feel a bond with my race.","bond"
"4213.799999997485","","","html-slider-response","457","2522377","0.0-24.0-0.0-0.9","3750","List2A","black","man","","","","","","","","survey_race","64","","","People of my race are very similar to each other.","verysimilar"
"5635.899999993853","","","html-slider-response","458","2528021","0.0-24.0-0.0-0.10","3750","List2A","black","man","","","","","","","","survey_race","97","","","Getting older does not worry me.","filler"
"1666.5999999968335","","","html-slider-response","459","2529695","0.0-24.0-0.0-0.11","3750","List2A","black","man","","","","","","","","survey_race","73","","","Being my age gives me a good feeling.","filler"
"1755.2999999900348","","","html-slider-response","460","2531457","0.0-24.0-0.0-0.12","3750","List2A","black","man","","","","","","","","survey_race","81","","","I have a lot in common with people of a similar age to me.","filler"
"3513.9999999953434","","","html-slider-response","461","2534976","0.0-24.0-0.0-0.13","3750","List2A","black","man","","","","","","","","survey_race","90","","","Being my race gives me a good feeling.","feeling"
"5497.999999992549","","","html-slider-response","462","2540478","0.0-24.0-0.0-0.14","3750","List2A","black","man","","","","","","","","survey_race","86","","","I consider myself an extrovert.","filler"
"3230.600000009872","","","html-slider-response","463","2543716","0.0-24.0-0.0-0.15","3750","List2A","black","man","","","","","","","","survey_race","30","","","I have a lot in common with the average person of my race.","average"
"3249.00000001071","","","html-slider-response","464","2546973","0.0-24.0-0.0-0.16","3750","List2A","black","man","","","","","","","","survey_race","80","","","I am glad to be the age I am.","filler"
"2340.499999990687","","","html-slider-response","465","2549319","0.0-24.0-0.0-0.17","3750","List2A","black","man","","","","","","","","survey_race","85","","","It is pleasant to be my race.","pleasant"
"1500.5999999996275","","","html-slider-response","466","2550826","0.0-24.0-0.0-0.18","3750","List2A","black","man","","","","","","","","survey_race","30","","","I often think about the fact that I am my age.","filler"
"1676.2999999918975","","","html-slider-response","467","2552508","0.0-24.0-0.0-0.19","3750","List2A","black","man","","","","","","","","survey_race","81","","","People of my race have a lot in common with each other.","common"
"2311.0000000158325","","","html-slider-response","468","2554825","0.0-24.0-0.0-0.20","3750","List2A","black","man","","","","","","","","survey_race","86","","","I am glad to be my race.","glad"
"4371.500000008382","","","html-slider-response","469","2559202","0.0-24.0-0.0-0.21","3750","List2A","black","man","","","","","","","","survey_race","94","","","The older I get, the wiser I feel.","filler"
"3158.499999990221","","","html-slider-response","470","2562367","0.0-24.0-0.0-0.22","3750","List2A","black","man","","","","","","","","survey_race","59","","","I am glad to be my age.","filler"
"3495.100000000559","","","html-slider-response","471","2565868","0.0-24.0-0.0-0.23","3750","List2A","black","man","","","","","","","","survey_race","85","","","I am similar to the average person of my race.","similar"
"3159.8999999989755","","","html-slider-response","472","2569036","0.0-24.0-0.0-0.24","3750","List2A","black","man","","","","","","","","survey_race","85","","","I think that my race has a lot to be proud of.","proud"
"1446.7000000001863","","","html-slider-response","473","2570488","0.0-24.0-0.0-0.25","3750","List2A","black","man","","","","","","","","survey_race","82","","","I often think about the fact that I am my race.","often"
"4413.600000000093","","","html-slider-response","474","2574907","0.0-24.0-0.0-0.26","3750","List2A","black","man","","","","","","","","survey_race","95","","","The fact that I am my race is an important part of my identity.","identity"
"7795.799999992829","","","html-slider-response","475","2582711","0.0-24.0-0.0-0.27","3750","List2A","black","man","","","","","","","","survey_race","11","","","I consider myself an introvert.","filler"
"8297.399999980815","","","html-slider-response","476","2591013","0.0-24.0-1.0-0.0","3750","List2A","black","man","","","","","","","","survey_gender","78","","","It is not always easy for people to know what I am thinking.","filler"
"3682.200000009965","","","html-slider-response","477","2594702","0.0-24.0-1.0-0.1","3750","List2A","black","man","","","","","","","","survey_gender","97","","","I often think about my actions.","filler"
"9480.299999995623","","","html-slider-response","478","2604187","0.0-24.0-1.0-0.2","3750","List2A","black","man","","","","","","","","survey_gender","67","","","Most of the friends in my life are very similar to me.","filler"
"7746.899999998044","","","html-slider-response","479","2611942","0.0-24.0-1.0-0.3","3750","List2A","black","man","","","","","","","","survey_gender","82","","","My friends understand me.","filler"
"15134.000000019558","","","html-slider-response","480","2627084","0.0-24.0-1.0-0.4","3750","List2A","black","man","","","","","","","","survey_gender","72","","","I have a lot in common with the average person of my gender.","average"
