"rt","stimulus","button_pressed","trial_type","trial_index","time_elapsed","internal_node_id","subject","list","ppt_race","ppt_gender","url","first_guess","correct","key_press","responses","image_type","phrase_type","test_part","response","stimulus1","stimulus2","question_type","survey_item"
"276028.10000000056","Welcome to the experiment. Press Continue to begin.","0","html-button-response","0","276040","0.0-0.0","37810","List1A","white","man","","","","","","","","","","","","",""
"16528.900000000373","","","external-html","1","294921","0.0-1.0","37810","List1A","white","man","consent.html","","","","","","","","","","","",""
"138110.39999999944","<p>On the next page, you will see portraits of 8 people and their names.</p><p>Your first task is to take a few minutes to memorise the names of these people.</p><p>You will have to recall their names during the rest of the experiment, so it is</p><p>essential that you try to memorise these people and their names as best as you can.</p><br><p><strong>You will then be tested on your memory of these names and portraits.</strong></p><br><p>The experiment will start after you have completed this memory test.</p><br><p>Ready?</p>","0","html-button-response","2","433037","0.0-2.0","37810","List1A","white","man","","","","","","","","","","","","",""
"68991.69999999925","<img src='img/portrait_matrix_list1.jpg' style='width:900px;height:500px;''></img><p>If you have memorised all the portraits and names and are ready to start, press Continue.</p><p><strong>Please note: Your memory of these faces will be tested 4 times during this experiment.</strong></p>","0","html-button-response","3","503032","0.0-3.0-0.0","37810","List1A","white","man","","","","","","","","","","","","",""
"21332.099999999627","<img src=""portrait/WM2.jpg""style=""height:400px;""></img>","7","html-button-response","4","525369","0.0-3.0-1.0","37810","List1A","white","man","","true","7","","","","","","","","","",""
"null","CORRECT","","html-keyboard-response","5","526877","0.0-3.0-2.0-0.0","37810","List1A","white","man","","","","null","","","","","","","","",""
"6566.5999999996275","<img src=""portrait/WM1.jpg""style=""height:400px;""></img>","6","html-button-response","6","533448","0.0-3.0-4.0","37810","List1A","white","man","","true","6","","","","","","","","","",""
"null","CORRECT","","html-keyboard-response","7","534951","0.0-3.0-5.0-0.0","37810","List1A","white","man","","","","null","","","","","","","","",""
"6438.299999999814","<img src=""portrait/WW1.jpg""style=""height:400px;""></img>","1","html-button-response","8","541392","0.0-3.0-7.0","37810","List1A","white","man","","true","1","","","","","","","","","",""
"null","CORRECT","","html-keyboard-response","9","542897","0.0-3.0-8.0-0.0","37810","List1A","white","man","","","","null","","","","","","","","",""
"5236.399999999441","<img src=""portrait/BW2.jpg""style=""height:400px;""></img>","2","html-button-response","10","548136","0.0-3.0-10.0","37810","List1A","white","man","","true","2","","","","","","","","","",""
"null","CORRECT","","html-keyboard-response","11","549639","0.0-3.0-11.0-0.0","37810","List1A","white","man","","","","null","","","","","","","","",""
"7135.700000000186","<img src=""portrait/BW1.jpg""style=""height:400px;""></img>","0","html-button-response","12","556776","0.0-3.0-13.0","37810","List1A","white","man","","true","0","","","","","","","","","",""
"null","CORRECT","","html-keyboard-response","13","558278","0.0-3.0-14.0-0.0","37810","List1A","white","man","","","","null","","","","","","","","",""
"5120.399999999441","<img src=""portrait/BM1.jpg""style=""height:400px;""></img>","4","html-button-response","14","563400","0.0-3.0-16.0","37810","List1A","white","man","","true","4","","","","","","","","","",""
"null","CORRECT","","html-keyboard-response","15","564903","0.0-3.0-17.0-0.0","37810","List1A","white","man","","","","null","","","","","","","","",""
"5351.299999999814","<img src=""portrait/WW2.jpg""style=""height:400px;""></img>","3","html-button-response","16","570256","0.0-3.0-19.0","37810","List1A","white","man","","true","3","","","","","","","","","",""
"null","CORRECT","","html-keyboard-response","17","571760","0.0-3.0-20.0-0.0","37810","List1A","white","man","","","","null","","","","","","","","",""
"5262.799999999814","<img src=""portrait/BM2.jpg""style=""height:400px;""></img>","5","html-button-response","18","577026","0.0-3.0-22.0","37810","List1A","white","man","","true","5","","","","","","","","","",""
"null","CORRECT","","html-keyboard-response","19","578528","0.0-3.0-23.0-0.0","37810","List1A","white","man","","","","null","","","","","","","","",""
"37561.10000000056","<p>You got 8 out of 8 right first time. Press Continue.</p>","0","html-button-response","20","616093","0.0-3.0-25.0","37810","List1A","white","man","","","","","","","","","","","","",""
"30363.400000000373","<p>In this experiment, you will view photographs of the people from the memory game interacting.</p><p>By using the <strong>exact</strong> phrase given <i>after</i> the photograph appears and recalling the correct names of the people in the photographs, form a sentence describing the interaction. You do not need to capitalise names.</p><p>Type your answer in the space provided. Please complete every sentence before moving onto the next trial.</p><p>You will only have a few seconds to memorise each given photograph and phrase before you can respond, so try your best to focus.</p><p>An example is given below. Press 'Continue' when you are ready.</p><img src='img/speaking_example.jpg' style='width:800px;height:460px;''></img>","0","html-button-response","21","647461","0.0-4.0","37810","List1A","white","man","","","","","","","","","","","","",""
"7876.299999999814","<p>Before the experiment starts, you will watch two example trials. Press 'Continue'.</p>","0","html-button-response","22","656340","0.0-5.0","37810","List1A","white","man","","","","","","","","","","","","",""
"null","<img src='img/play_eg.gif' style='height:400px;''></img>","","html-keyboard-response","23","659343","0.0-6.0","37810","List1A","white","man","","","","null","","","","","","","","",""
"null","<p>is playing with</p>","","html-keyboard-response","24","661345","0.0-7.0","37810","List1A","white","man","","","","null","","","","","","","","",""
"13201.100000000559","<p><b>Answer:</b> kate is playing with beth</p>","0","html-button-response","25","674548","0.0-8.0","37810","List1A","white","man","","","","","","","","","","","","",""
"null","<img src='img/dance_eg.gif' style='height:400px;''></img>","","html-keyboard-response","26","677551","0.0-9.0","37810","List1A","white","man","","","","null","","","","","","","","",""
"null","<p>is being entertained by</p>","","html-keyboard-response","27","679553","0.0-10.0","37810","List1A","white","man","","","","null","","","","","","","","",""
"3049.2000000001863","<p><b>Answer:</b> luke is being entertained by dave</p>","0","html-button-response","28","682605","0.0-11.0","37810","List1A","white","man","","","","","","","","","","","","",""
"122607.5","<p>Ready to start the experiment?</p><br><p><strong>Remember to describe the picture using a full sentence,</strong></p><p><strong>that combines the names of the people with the <i>exact</i> phrase given.</strong></p><p><strong>To receive full payment you must do this correctly.</strong></p><p><strong> You do not need to capitalise names or use punctuation.</strong></p><br><p>Press 'Continue' to begin.</p>","0","html-button-response","29","806217","0.0-12.0","37810","List1A","white","man","","","","","","","","","","","","",""
"null","<div style=""font-size:60px;"">+</div>","","html-keyboard-response","30","807737","0.0-13.0-0.0","37810","List1A","white","man","","","","null","","","","","","","","",""
"null","<img src=""stim_listA/challenge4.gif""style=""height:400px;""></stim_listA>","","html-keyboard-response","31","809755","0.0-13.0-1.0","37810","List1A","white","man","","","","null","","","","","","","","",""
"null","is being challenged by","","html-keyboard-response","32","811772","0.0-13.0-2.0","37810","List1A","white","man","","","","null","","","","","","","","",""
"34003.199999999255","","","survey-text","33","845780","0.0-13.0-3.0","37810","List1A","white","man","","","","","{""Q0"":""luke""}","<img src=""stim_listA/challenge4.gif""style=""height:400px;""></stim_listA>","is being challenged by","","","","","",""
"null","<div style=""font-size:60px;"">+</div>","","html-keyboard-response","34","846283","0.0-13.0-0.1","37810","List1A","white","man","","","","null","","","","","","","","",""
"null","<img src=""stim_listA/look2.gif""style=""height:400px;""></stim_listA>","","html-keyboard-response","35","848285","0.0-13.0-1.1","37810","List1A","white","man","","","","null","","","","","","","","",""
"null","is being looked at by","","html-keyboard-response","36","850286","0.0-13.0-2.1","37810","List1A","white","man","","","","null","","","","","","","","",""
"18721.799999999814","","","survey-text","37","869012","0.0-13.0-3.1","37810","List1A","white","man","","","","","{""Q0"":""mike and kate""}","<img src=""stim_listA/look2.gif""style=""height:400px;""></stim_listA>","is being looked at by","","","","","",""
"null","<div style=""font-size:60px;"">+</div>","","html-keyboard-response","38","869514","0.0-13.0-0.2","37810","List1A","white","man","","","","null","","","","","","","","",""
"null","<img src=""stim_listA/touch8.gif""style=""height:400px;""></stim_listA>","","html-keyboard-response","39","871517","0.0-13.0-1.2","37810","List1A","white","man","","","","null","","","","","","","","",""
"null","is being touched by","","html-keyboard-response","40","873518","0.0-13.0-2.2","37810","List1A","white","man","","","","null","","","","","","","","",""
"41538.300000000745","","","survey-text","41","915054","0.0-13.0-3.2","37810","List1A","white","man","","","","","{""Q0"":""ruth and beth""}","<img src=""stim_listA/touch8.gif""style=""height:400px;""></stim_listA>","is being touched by","","","","","",""
"null","<div style=""font-size:60px;"">+</div>","","html-keyboard-response","42","915558","0.0-13.0-0.3","37810","List1A","white","man","","","","null","","","","","","","","",""
"null","<img src=""stim_listA/seduce1.gif""style=""height:400px;""></stim_listA>","","html-keyboard-response","43","917561","0.0-13.0-1.3","37810","List1A","white","man","","","","null","","","","","","","","",""
"null","is seducing","","html-keyboard-response","44","919563","0.0-13.0-2.3","37810","List1A","white","man","","","","null","","","","","","","","",""
"32467.599999999627","","","survey-text","45","952034","0.0-13.0-3.3","37810","List1A","white","man","","","","","{""Q0"":""fred and kate""}","<img src=""stim_listA/seduce1.gif""style=""height:400px;""></stim_listA>","is seducing","","","","","",""
"null","<div style=""font-size:60px;"">+</div>","","html-keyboard-response","46","952536","0.0-13.0-0.4","37810","List1A","white","man","","","","null","","","","","","","","",""
"null","<img src=""stim_listA/shout3.gif""style=""height:400px;""></stim_listA>","","html-keyboard-response","47","954539","0.0-13.0-1.4","37810","List1A","white","man","","","","null","","","","","","","","",""
"null","is shouting at","","html-keyboard-response","48","956541","0.0-13.0-2.4","37810","List1A","white","man","","","","null","","","","","","","","",""
"11825.5","","","survey-text","49","968370","0.0-13.0-3.4","37810","List1A","white","man","","","","","{""Q0"":""ruth and luke""}","<img src=""stim_listA/shout3.gif""style=""height:400px;""></stim_listA>","is shouting at","","","","","",""
"null","<div style=""font-size:60px;"">+</div>","","html-keyboard-response","50","968872","0.0-13.0-0.5","37810","List1A","white","man","","","","null","","","","","","","","",""
"null","<img src=""stim_listA/copy3.gif""style=""height:400px;""></stim_listA>","","html-keyboard-response","51","970875","0.0-13.0-1.5","37810","List1A","white","man","","","","null","","","","","","","","",""
"null","is copying","","html-keyboard-response","52","972877","0.0-13.0-2.5","37810","List1A","white","man","","","","null","","","","","","","","",""
"15481","","","survey-text","53","988369","0.0-13.0-3.5","37810","List1A","white","man","","","","","{""Q0"":""ruth and dave""}","<img src=""stim_listA/copy3.gif""style=""height:400px;""></stim_listA>","is copying","","","","","",""
"null","<div style=""font-size:60px;"">+</div>","","html-keyboard-response","54","988871","0.0-13.0-0.6","37810","List1A","white","man","","","","null","","","","","","","","",""
"null","<img src=""stim_listA/greet7.gif""style=""height:400px;""></stim_listA>","","html-keyboard-response","55","990874","0.0-13.0-1.6","37810","List1A","white","man","","","","null","","","","","","","","",""
"null","is greeting","","html-keyboard-response","56","992876","0.0-13.0-2.6","37810","List1A","white","man","","","","null","","","","","","","","",""
"17376.800000000745","","","survey-text","57","1010257","0.0-13.0-3.6","37810","List1A","white","man","","","","","{""Q0"":""ruth and beth""}","<img src=""stim_listA/greet7.gif""style=""height:400px;""></stim_listA>","is greeting","","","","","",""
"null","<div style=""font-size:60px;"">+</div>","","html-keyboard-response","58","1010765","0.0-13.0-0.7","37810","List1A","white","man","","","","null","","","","","","","","",""
"null","<img src=""stim_listA/seduce3.gif""style=""height:400px;""></stim_listA>","","html-keyboard-response","59","1012772","0.0-13.0-1.7","37810","List1A","white","man","","","","null","","","","","","","","",""
"null","is seducing","","html-keyboard-response","60","1014774","0.0-13.0-2.7","37810","List1A","white","man","","","","null","","","","","","","","",""
"14070.900000000373","","","survey-text","61","1028849","0.0-13.0-3.7","37810","List1A","white","man","","","","","{""Q0"":""jane and luke""}","<img src=""stim_listA/seduce3.gif""style=""height:400px;""></stim_listA>","is seducing","","","","","",""
"null","<div style=""font-size:60px;"">+</div>","","html-keyboard-response","62","1029351","0.0-13.0-0.8","37810","List1A","white","man","","","","null","","","","","","","","",""
"null","<img src=""stim_listA/kiss7.gif""style=""height:400px;""></stim_listA>","","html-keyboard-response","63","1031354","0.0-13.0-1.8","37810","List1A","white","man","","","","null","","","","","","","","",""
"null","is kissing","","html-keyboard-response","64","1033356","0.0-13.0-2.8","37810","List1A","white","man","","","","null","","","","","","","","",""
"25420.299999999814","","","survey-text","65","1058780","0.0-13.0-3.8","37810","List1A","white","man","","","","","{""Q0"":""ruth and beth""}","<img src=""stim_listA/kiss7.gif""style=""height:400px;""></stim_listA>","is kissing","","","","","",""
"null","<div style=""font-size:60px;"">+</div>","","html-keyboard-response","66","1059283","0.0-13.0-0.9","37810","List1A","white","man","","","","null","","","","","","","","",""
"null","<img src=""stim_listA/copy6.gif""style=""height:400px;""></stim_listA>","","html-keyboard-response","67","1061286","0.0-13.0-1.9","37810","List1A","white","man","","","","null","","","","","","","","",""
"null","is being copied by","","html-keyboard-response","68","1063291","0.0-13.0-2.9","37810","List1A","white","man","","","","null","","","","","","","","",""
"11810.100000000559","","","survey-text","69","1075104","0.0-13.0-3.9","37810","List1A","white","man","","","","","{""Q0"":""dave and fred""}","<img src=""stim_listA/copy6.gif""style=""height:400px;""></stim_listA>","is being copied by","","","","","",""
"null","<div style=""font-size:60px;"">+</div>","","html-keyboard-response","70","1075606","0.0-13.0-0.10","37810","List1A","white","man","","","","null","","","","","","","","",""
"null","<img src=""stim_listA/seduce7.gif""style=""height:400px;""></stim_listA>","","html-keyboard-response","71","1077609","0.0-13.0-1.10","37810","List1A","white","man","","","","null","","","","","","","","",""
"null","is seducing","","html-keyboard-response","72","1079610","0.0-13.0-2.10","37810","List1A","white","man","","","","null","","","","","","","","",""
"28670.200000000186","","","survey-text","73","1108284","0.0-13.0-3.10","37810","List1A","white","man","","","","","{""Q0"":""Jane and Beth""}","<img src=""stim_listA/seduce7.gif""style=""height:400px;""></stim_listA>","is seducing","","","","","",""
"null","<div style=""font-size:60px;"">+</div>","","html-keyboard-response","74","1108786","0.0-13.0-0.11","37810","List1A","white","man","","","","null","","","","","","","","",""
"null","<img src=""stim_listA/hug5.gif""style=""height:400px;""></stim_listA>","","html-keyboard-response","75","1110789","0.0-13.0-1.11","37810","List1A","white","man","","","","null","","","","","","","","",""
"null","is hugging","","html-keyboard-response","76","1112791","0.0-13.0-2.11","37810","List1A","white","man","","","","null","","","","","","","","",""
"29182.200000000186","","","survey-text","77","1141976","0.0-13.0-3.11","37810","List1A","white","man","","","","","{""Q0"":""luke and fred""}","<img src=""stim_listA/hug5.gif""style=""height:400px;""></stim_listA>","is hugging","","","","","",""
"null","<div style=""font-size:60px;"">+</div>","","html-keyboard-response","78","1142478","0.0-13.0-0.12","37810","List1A","white","man","","","","null","","","","","","","","",""
"null","<img src=""stim_listA/seduce6.gif""style=""height:400px;""></stim_listA>","","html-keyboard-response","79","1144481","0.0-13.0-1.12","37810","List1A","white","man","","","","null","","","","","","","","",""
"null","is being seduced by","","html-keyboard-response","80","1146482","0.0-13.0-2.12","37810","List1A","white","man","","","","null","","","","","","","","",""
"66577.29999999981","","","survey-text","81","1213064","0.0-13.0-3.12","37810","List1A","white","man","","","","","{""Q0"":""mike and luke""}","<img src=""stim_listA/seduce6.gif""style=""height:400px;""></stim_listA>","is being seduced by","","","","","",""
"null","<div style=""font-size:60px;"">+</div>","","html-keyboard-response","82","1213567","0.0-13.0-0.13","37810","List1A","white","man","","","","null","","","","","","","","",""
"null","<img src=""stim_listA/kiss2.gif""style=""height:400px;""></stim_listA>","","html-keyboard-response","83","1215570","0.0-13.0-1.13","37810","List1A","white","man","","","","null","","","","","","","","",""
"null","is being kissed by","","html-keyboard-response","84","1217573","0.0-13.0-2.13","37810","List1A","white","man","","","","null","","","","","","","","",""
"17695.800000000745","","","survey-text","85","1235273","0.0-13.0-3.13","37810","List1A","white","man","","","","","{""Q0"":""kate and mike""}","<img src=""stim_listA/kiss2.gif""style=""height:400px;""></stim_listA>","is being kissed by","","","","","",""
"null","<div style=""font-size:60px;"">+</div>","","html-keyboard-response","86","1235775","0.0-13.0-0.14","37810","List1A","white","man","","","","null","","","","","","","","",""
"null","<img src=""stim_listA/hug2.gif""style=""height:400px;""></stim_listA>","","html-keyboard-response","87","1237778","0.0-13.0-1.14","37810","List1A","white","man","","","","null","","","","","","","","",""
"null","is being hugged by","","html-keyboard-response","88","1239780","0.0-13.0-2.14","37810","List1A","white","man","","","","null","","","","","","","","",""
"53811.90000000037","","","survey-text","89","1293596","0.0-13.0-3.14","37810","List1A","white","man","","","","","{""Q0"":""kate and mike""}","<img src=""stim_listA/hug2.gif""style=""height:400px;""></stim_listA>","is being hugged by","","","","","",""
"null","<div style=""font-size:60px;"">+</div>","","html-keyboard-response","90","1294099","0.0-13.0-0.15","37810","List1A","white","man","","","","null","","","","","","","","",""
"null","<img src=""stim_listA/touch3.gif""style=""height:400px;""></stim_listA>","","html-keyboard-response","91","1296102","0.0-13.0-1.15","37810","List1A","white","man","","","","null","","","","","","","","",""
"null","is touching","","html-keyboard-response","92","1298104","0.0-13.0-2.15","37810","List1A","white","man","","","","null","","","","","","","","",""
"68759.70000000019","","","survey-text","93","1366869","0.0-13.0-3.15","37810","List1A","white","man","","","","","{""Q0"":""kate and mike""}","<img src=""stim_listA/touch3.gif""style=""height:400px;""></stim_listA>","is touching","","","","","",""
"null","<div style=""font-size:60px;"">+</div>","","html-keyboard-response","94","1367371","0.0-13.0-0.16","37810","List1A","white","man","","","","null","","","","","","","","",""
"null","<img src=""stim_listA/greet1.gif""style=""height:400px;""></stim_listA>","","html-keyboard-response","95","1369374","0.0-13.0-1.16","37810","List1A","white","man","","","","null","","","","","","","","",""
"null","is greeting","","html-keyboard-response","96","1371376","0.0-13.0-2.16","37810","List1A","white","man","","","","null","","","","","","","","",""
"88411.10000000056","","","survey-text","97","1459792","0.0-13.0-3.16","37810","List1A","white","man","","","","","{""Q0"":""beth and mike""}","<img src=""stim_listA/greet1.gif""style=""height:400px;""></stim_listA>","is greeting","","","","","",""
"null","<div style=""font-size:60px;"">+</div>","","html-keyboard-response","98","1460294","0.0-13.0-0.17","37810","List1A","white","man","","","","null","","","","","","","","",""
"null","<img src=""stim_listA/hug8.gif""style=""height:400px;""></stim_listA>","","html-keyboard-response","99","1462297","0.0-13.0-1.17","37810","List1A","white","man","","","","null","","","","","","","","",""
"null","is being hugged by","","html-keyboard-response","100","1464298","0.0-13.0-2.17","37810","List1A","white","man","","","","null","","","","","","","","",""
"19706.700000000186","","","survey-text","101","1484008","0.0-13.0-3.17","37810","List1A","white","man","","","","","{""Q0"":""jane and kate""}","<img src=""stim_listA/hug8.gif""style=""height:400px;""></stim_listA>","is being hugged by","","","","","",""
"null","<div style=""font-size:60px;"">+</div>","","html-keyboard-response","102","1484510","0.0-13.0-0.18","37810","List1A","white","man","","","","null","","","","","","","","",""
"null","<img src=""stim_listA/shout1.gif""style=""height:400px;""></stim_listA>","","html-keyboard-response","103","1486513","0.0-13.0-1.18","37810","List1A","white","man","","","","null","","","","","","","","",""
"null","is shouting at","","html-keyboard-response","104","1488514","0.0-13.0-2.18","37810","List1A","white","man","","","","null","","","","","","","","",""
"15238.299999999814","","","survey-text","105","1503756","0.0-13.0-3.18","37810","List1A","white","man","","","","","{""Q0"":""beth and fred""}","<img src=""stim_listA/shout1.gif""style=""height:400px;""></stim_listA>","is shouting at","","","","","",""
"null","<div style=""font-size:60px;"">+</div>","","html-keyboard-response","106","1504257","0.0-13.0-0.19","37810","List1A","white","man","","","","null","","","","","","","","",""
"null","<img src=""stim_listA/kiss4.gif""style=""height:400px;""></stim_listA>","","html-keyboard-response","107","1506260","0.0-13.0-1.19","37810","List1A","white","man","","","","null","","","","","","","","",""
"null","is being kissed by","","html-keyboard-response","108","1508262","0.0-13.0-2.19","37810","List1A","white","man","","","","null","","","","","","","","",""
"15825.900000000373","","","survey-text","109","1524093","0.0-13.0-3.19","37810","List1A","white","man","","","","","{""Q0"":""dave and jane""}","<img src=""stim_listA/kiss4.gif""style=""height:400px;""></stim_listA>","is being kissed by","","","","","",""
"12237.5","<img src='img/portrait_matrix_list1.jpg' style='width:900px;height:500px;''></img><p>If you have memorised all the portraits and names and are ready to start, press Continue.</p><p><strong>Please note: Your memory of these faces will be tested 4 times during this experiment.</strong></p>","0","html-button-response","110","1536333","0.0-14.0-0.0","37810","List1A","white","man","","","","","","","","","","","","",""
"3428.5","<img src=""portrait/WM1.jpg""style=""height:400px;""></img>","6","html-button-response","111","1540764","0.0-14.0-1.0","37810","List1A","white","man","","true","6","","","","","","","","","",""
"null","CORRECT","","html-keyboard-response","112","1542270","0.0-14.0-2.0-0.0","37810","List1A","white","man","","","","null","","","","","","","","",""
"3003.899999999441","<img src=""portrait/WM2.jpg""style=""height:400px;""></img>","7","html-button-response","113","1545276","0.0-14.0-4.0","37810","List1A","white","man","","true","7","","","","","","","","","",""
"null","CORRECT","","html-keyboard-response","114","1546778","0.0-14.0-5.0-0.0","37810","List1A","white","man","","","","null","","","","","","","","",""
"3071.100000000559","<img src=""portrait/BM2.jpg""style=""height:400px;""></img>","5","html-button-response","115","1549852","0.0-14.0-7.0","37810","List1A","white","man","","true","5","","","","","","","","","",""
"null","CORRECT","","html-keyboard-response","116","1551355","0.0-14.0-8.0-0.0","37810","List1A","white","man","","","","null","","","","","","","","",""
"3222.5999999996275","<img src=""portrait/BW2.jpg""style=""height:400px;""></img>","2","html-button-response","117","1554580","0.0-14.0-10.0","37810","List1A","white","man","","true","2","","","","","","","","","",""
"null","CORRECT","","html-keyboard-response","118","1556084","0.0-14.0-11.0-0.0","37810","List1A","white","man","","","","null","","","","","","","","",""
"3178.2999999998137","<img src=""portrait/BM1.jpg""style=""height:400px;""></img>","4","html-button-response","119","1559264","0.0-14.0-13.0","37810","List1A","white","man","","true","4","","","","","","","","","",""
"null","CORRECT","","html-keyboard-response","120","1560767","0.0-14.0-14.0-0.0","37810","List1A","white","man","","","","null","","","","","","","","",""
"4434.799999999814","<img src=""portrait/BW1.jpg""style=""height:400px;""></img>","0","html-button-response","121","1565204","0.0-14.0-16.0","37810","List1A","white","man","","true","0","","","","","","","","","",""
"null","CORRECT","","html-keyboard-response","122","1566706","0.0-14.0-17.0-0.0","37810","List1A","white","man","","","","null","","","","","","","","",""
"2911.7000000001863","<img src=""portrait/WW2.jpg""style=""height:400px;""></img>","3","html-button-response","123","1569620","0.0-14.0-19.0","37810","List1A","white","man","","true","3","","","","","","","","","",""
"null","CORRECT","","html-keyboard-response","124","1571122","0.0-14.0-20.0-0.0","37810","List1A","white","man","","","","null","","","","","","","","",""
"2135.2999999998137","<img src=""portrait/WW1.jpg""style=""height:400px;""></img>","1","html-button-response","125","1573260","0.0-14.0-22.0","37810","List1A","white","man","","true","1","","","","","","","","","",""
"null","CORRECT","","html-keyboard-response","126","1574762","0.0-14.0-23.0-0.0","37810","List1A","white","man","","","","null","","","","","","","","",""
"4030.2999999998137","<p>You got 8 out of 8 right first time. Press Continue.</p>","0","html-button-response","127","1578797","0.0-14.0-25.0","37810","List1A","white","man","","","","","","","","","","","","",""
"null","<div style=""font-size:60px;"">+</div>","","html-keyboard-response","128","1580302","0.0-15.0-0.0","37810","List1A","white","man","","","","null","","","","","","","","",""
"null","<img src=""stim_listA/kiss5.gif""style=""height:400px;""></stim_listA>","","html-keyboard-response","129","1582304","0.0-15.0-1.0","37810","List1A","white","man","","","","null","","","","","","","","",""
"null","is kissing","","html-keyboard-response","130","1584306","0.0-15.0-2.0","37810","List1A","white","man","","","","null","","","","","","","","",""
"78490.39999999944","","","survey-text","131","1662801","0.0-15.0-3.0","37810","List1A","white","man","","","","","{""Q0"":""luke and fred""}","<img src=""stim_listA/kiss5.gif""style=""height:400px;""></stim_listA>","is kissing","","","","","",""
"null","<div style=""font-size:60px;"">+</div>","","html-keyboard-response","132","1663304","0.0-15.0-0.1","37810","List1A","white","man","","","","null","","","","","","","","",""
"null","<img src=""stim_listA/challenge8.gif""style=""height:400px;""></stim_listA>","","html-keyboard-response","133","1665320","0.0-15.0-1.1","37810","List1A","white","man","","","","null","","","","","","","","",""
"null","is being challenged by","","html-keyboard-response","134","1667321","0.0-15.0-2.1","37810","List1A","white","man","","","","null","","","","","","","","",""
"13202.5","","","survey-text","135","1680528","0.0-15.0-3.1","37810","List1A","white","man","","","","","{""Q0"":""jane and beth""}","<img src=""stim_listA/challenge8.gif""style=""height:400px;""></stim_listA>","is being challenged by","","","","","",""
"null","<div style=""font-size:60px;"">+</div>","","html-keyboard-response","136","1681029","0.0-15.0-0.2","37810","List1A","white","man","","","","null","","","","","","","","",""
"null","<img src=""stim_listA/shout2.gif""style=""height:400px;""></stim_listA>","","html-keyboard-response","137","1683033","0.0-15.0-1.2","37810","List1A","white","man","","","","null","","","","","","","","",""
"null","is being shouted at by","","html-keyboard-response","138","1685034","0.0-15.0-2.2","37810","List1A","white","man","","","","null","","","","","","","","",""
"100769.70000000019","","","survey-text","139","1785809","0.0-15.0-3.2","37810","List1A","white","man","","","","","{""Q0"":""kate and ruth""}","<img src=""stim_listA/shout2.gif""style=""height:400px;""></stim_listA>","is being shouted at by","","","","","",""
"null","<div style=""font-size:60px;"">+</div>","","html-keyboard-response","140","1786311","0.0-15.0-0.3","37810","List1A","white","man","","","","null","","","","","","","","",""
"null","<img src=""stim_listA/oppose2.gif""style=""height:400px;""></stim_listA>","","html-keyboard-response","141","1788314","0.0-15.0-1.3","37810","List1A","white","man","","","","null","","","","","","","","",""
"null","is being opposed by","","html-keyboard-response","142","1790315","0.0-15.0-2.3","37810","List1A","white","man","","","","null","","","","","","","","",""
"13107.599999999627","","","survey-text","143","1803428","0.0-15.0-3.3","37810","List1A","white","man","","","","","{""Q0"":""beth and fred""}","<img src=""stim_listA/oppose2.gif""style=""height:400px;""></stim_listA>","is being opposed by","","","","","",""
"null","<div style=""font-size:60px;"">+</div>","","html-keyboard-response","144","1803930","0.0-15.0-0.4","37810","List1A","white","man","","","","null","","","","","","","","",""
"null","<img src=""stim_listA/challenge5.gif""style=""height:400px;""></stim_listA>","","html-keyboard-response","145","1805934","0.0-15.0-1.4","37810","List1A","white","man","","","","null","","","","","","","","",""
"null","is challenging","","html-keyboard-response","146","1807936","0.0-15.0-2.4","37810","List1A","white","man","","","","null","","","","","","","","",""
"9392.899999999441","","","survey-text","147","1817332","0.0-15.0-3.4","37810","List1A","white","man","","","","","{""Q0"":""luke and mike""}","<img src=""stim_listA/challenge5.gif""style=""height:400px;""></stim_listA>","is challenging","","","","","",""
"null","<div style=""font-size:60px;"">+</div>","","html-keyboard-response","148","1817834","0.0-15.0-0.5","37810","List1A","white","man","","","","null","","","","","","","","",""
"null","<img src=""stim_listA/oppose6.gif""style=""height:400px;""></stim_listA>","","html-keyboard-response","149","1819837","0.0-15.0-1.5","37810","List1A","white","man","","","","null","","","","","","","","",""
"null","is being opposed by","","html-keyboard-response","150","1821840","0.0-15.0-2.5","37810","List1A","white","man","","","","null","","","","","","","","",""
"12562.400000000373","","","survey-text","151","1834408","0.0-15.0-3.5","37810","List1A","white","man","","","","","{""Q0"":""luke and fred""}","<img src=""stim_listA/oppose6.gif""style=""height:400px;""></stim_listA>","is being opposed by","","","","","",""
"null","<div style=""font-size:60px;"">+</div>","","html-keyboard-response","152","1834912","0.0-15.0-0.6","37810","List1A","white","man","","","","null","","","","","","","","",""
"null","<img src=""stim_listA/seduce8.gif""style=""height:400px;""></stim_listA>","","html-keyboard-response","153","1836915","0.0-15.0-1.6","37810","List1A","white","man","","","","null","","","","","","","","",""
"null","is being seduced by","","html-keyboard-response","154","1838917","0.0-15.0-2.6","37810","List1A","white","man","","","","null","","","","","","","","",""
"9900.299999999814","","","survey-text","155","1848821","0.0-15.0-3.6","37810","List1A","white","man","","","","","{""Q0"":""ruth and kate""}","<img src=""stim_listA/seduce8.gif""style=""height:400px;""></stim_listA>","is being seduced by","","","","","",""
"null","<div style=""font-size:60px;"">+</div>","","html-keyboard-response","156","1849323","0.0-15.0-0.7","37810","List1A","white","man","","","","null","","","","","","","","",""
"null","<img src=""stim_listA/touch2.gif""style=""height:400px;""></stim_listA>","","html-keyboard-response","157","1851326","0.0-15.0-1.7","37810","List1A","white","man","","","","null","","","","","","","","",""
"null","is being touched by","","html-keyboard-response","158","1853328","0.0-15.0-2.7","37810","List1A","white","man","","","","null","","","","","","","","",""
"10052.5","","","survey-text","159","1863385","0.0-15.0-3.7","37810","List1A","white","man","","","","","{""Q0"":""beth and fred""}","<img src=""stim_listA/touch2.gif""style=""height:400px;""></stim_listA>","is being touched by","","","","","",""
"null","<div style=""font-size:60px;"">+</div>","","html-keyboard-response","160","1863887","0.0-15.0-0.8","37810","List1A","white","man","","","","null","","","","","","","","",""
"null","<img src=""stim_listA/kiss6.gif""style=""height:400px;""></stim_listA>","","html-keyboard-response","161","1865890","0.0-15.0-1.8","37810","List1A","white","man","","","","null","","","","","","","","",""
"null","is being kissed by","","html-keyboard-response","162","1867892","0.0-15.0-2.8","37810","List1A","white","man","","","","null","","","","","","","","",""
"13624.299999999814","","","survey-text","163","1881520","0.0-15.0-3.8","37810","List1A","white","man","","","","","{""Q0"":""dave and mike""}","<img src=""stim_listA/kiss6.gif""style=""height:400px;""></stim_listA>","is being kissed by","","","","","",""
"null","<div style=""font-size:60px;"">+</div>","","html-keyboard-response","164","1882022","0.0-15.0-0.9","37810","List1A","white","man","","","","null","","","","","","","","",""
"null","<img src=""stim_listA/shout7.gif""style=""height:400px;""></stim_listA>","","html-keyboard-response","165","1884032","0.0-15.0-1.9","37810","List1A","white","man","","","","null","","","","","","","","",""
"null","is shouting at","","html-keyboard-response","166","1886049","0.0-15.0-2.9","37810","List1A","white","man","","","","null","","","","","","","","",""
"20607.299999999814","","","survey-text","167","1906660","0.0-15.0-3.9","37810","List1A","white","man","","","","","{""Q0"":""ruth and beth""}","<img src=""stim_listA/shout7.gif""style=""height:400px;""></stim_listA>","is shouting at","","","","","",""
"null","<div style=""font-size:60px;"">+</div>","","html-keyboard-response","168","1907163","0.0-15.0-0.10","37810","List1A","white","man","","","","null","","","","","","","","",""
"null","<img src=""stim_listA/seduce4.gif""style=""height:400px;""></stim_listA>","","html-keyboard-response","169","1909167","0.0-15.0-1.10","37810","List1A","white","man","","","","null","","","","","","","","",""
"null","is being seduced by","","html-keyboard-response","170","1911169","0.0-15.0-2.10","37810","List1A","white","man","","","","null","","","","","","","","",""
"14614.300000000745","","","survey-text","171","1925787","0.0-15.0-3.10","37810","List1A","white","man","","","","","{""Q0"":""dave and ruth""}","<img src=""stim_listA/seduce4.gif""style=""height:400px;""></stim_listA>","is being seduced by","","","","","",""
"null","<div style=""font-size:60px;"">+</div>","","html-keyboard-response","172","1926290","0.0-15.0-0.11","37810","List1A","white","man","","","","null","","","","","","","","",""
"null","<img src=""stim_listA/touch6.gif""style=""height:400px;""></stim_listA>","","html-keyboard-response","173","1928293","0.0-15.0-1.11","37810","List1A","white","man","","","","null","","","","","","","","",""
"null","is being touched by","","html-keyboard-response","174","1930295","0.0-15.0-2.11","37810","List1A","white","man","","","","null","","","","","","","","",""
"12763.700000000186","","","survey-text","175","1943063","0.0-15.0-3.11","37810","List1A","white","man","","","","","{""Q0"":""luke and fred""}","<img src=""stim_listA/touch6.gif""style=""height:400px;""></stim_listA>","is being touched by","","","","","",""
"null","<div style=""font-size:60px;"">+</div>","","html-keyboard-response","176","1943566","0.0-15.0-0.12","37810","List1A","white","man","","","","null","","","","","","","","",""
"null","<img src=""stim_listA/challenge7.gif""style=""height:400px;""></stim_listA>","","html-keyboard-response","177","1945570","0.0-15.0-1.12","37810","List1A","white","man","","","","null","","","","","","","","",""
"null","is challenging","","html-keyboard-response","178","1947572","0.0-15.0-2.12","37810","List1A","white","man","","","","null","","","","","","","","",""
"11042.599999999627","","","survey-text","179","1958621","0.0-15.0-3.12","37810","List1A","white","man","","","","","{""Q0"":""kate and ruth""}","<img src=""stim_listA/challenge7.gif""style=""height:400px;""></stim_listA>","is challenging","","","","","",""
"null","<div style=""font-size:60px;"">+</div>","","html-keyboard-response","180","1959122","0.0-15.0-0.13","37810","List1A","white","man","","","","null","","","","","","","","",""
"null","<img src=""stim_listA/touch5.gif""style=""height:400px;""></stim_listA>","","html-keyboard-response","181","1961126","0.0-15.0-1.13","37810","List1A","white","man","","","","null","","","","","","","","",""
"null","is touching","","html-keyboard-response","182","1963127","0.0-15.0-2.13","37810","List1A","white","man","","","","null","","","","","","","","",""
"9667.299999999814","","","survey-text","183","1972797","0.0-15.0-3.13","37810","List1A","white","man","","","","","{""Q0"":""luke and dave""}","<img src=""stim_listA/touch5.gif""style=""height:400px;""></stim_listA>","is touching","","","","","",""
"null","<div style=""font-size:60px;"">+</div>","","html-keyboard-response","184","1973299","0.0-15.0-0.14","37810","List1A","white","man","","","","null","","","","","","","","",""
"null","<img src=""stim_listA/oppose4.gif""style=""height:400px;""></stim_listA>","","html-keyboard-response","185","1975302","0.0-15.0-1.14","37810","List1A","white","man","","","","null","","","","","","","","",""
"null","is being opposed by","","html-keyboard-response","186","1977303","0.0-15.0-2.14","37810","List1A","white","man","","","","null","","","","","","","","",""
"10361.799999999814","","","survey-text","187","1987668","0.0-15.0-3.14","37810","List1A","white","man","","","","","{""Q0"":""ruth and luke""}","<img src=""stim_listA/oppose4.gif""style=""height:400px;""></stim_listA>","is being opposed by","","","","","",""
"null","<div style=""font-size:60px;"">+</div>","","html-keyboard-response","188","1988170","0.0-15.0-0.15","37810","List1A","white","man","","","","null","","","","","","","","",""
"null","<img src=""stim_listA/touch1.gif""style=""height:400px;""></stim_listA>","","html-keyboard-response","189","1990173","0.0-15.0-1.15","37810","List1A","white","man","","","","null","","","","","","","","",""
"null","is touching","","html-keyboard-response","190","1992175","0.0-15.0-2.15","37810","List1A","white","man","","","","null","","","","","","","","",""
"8857","","","survey-text","191","2001036","0.0-15.0-3.15","37810","List1A","white","man","","","","","{""Q0"":""kate and mike""}","<img src=""stim_listA/touch1.gif""style=""height:400px;""></stim_listA>","is touching","","","","","",""
"null","<div style=""font-size:60px;"">+</div>","","html-keyboard-response","192","2001537","0.0-15.0-0.16","37810","List1A","white","man","","","","null","","","","","","","","",""
"null","<img src=""stim_listA/hug1.gif""style=""height:400px;""></stim_listA>","","html-keyboard-response","193","2003540","0.0-15.0-1.16","37810","List1A","white","man","","","","null","","","","","","","","",""
"null","is hugging","","html-keyboard-response","194","2005541","0.0-15.0-2.16","37810","List1A","white","man","","","","null","","","","","","","","",""
"10290.800000000745","","","survey-text","195","2015837","0.0-15.0-3.16","37810","List1A","white","man","","","","","{""Q0"":""fred and beth""}","<img src=""stim_listA/hug1.gif""style=""height:400px;""></stim_listA>","is hugging","","","","","",""
"null","<div style=""font-size:60px;"">+</div>","","html-keyboard-response","196","2016338","0.0-15.0-0.17","37810","List1A","white","man","","","","null","","","","","","","","",""
"null","<img src=""stim_listA/copy1.gif""style=""height:400px;""></stim_listA>","","html-keyboard-response","197","2018341","0.0-15.0-1.17","37810","List1A","white","man","","","","null","","","","","","","","",""
"null","is copying","","html-keyboard-response","198","2020343","0.0-15.0-2.17","37810","List1A","white","man","","","","null","","","","","","","","",""
"6569.399999999441","","","survey-text","199","2026916","0.0-15.0-3.17","37810","List1A","white","man","","","","","{""Q0"":""mike and beth""}","<img src=""stim_listA/copy1.gif""style=""height:400px;""></stim_listA>","is copying","","","","","",""
"null","<div style=""font-size:60px;"">+</div>","","html-keyboard-response","200","2027419","0.0-15.0-0.18","37810","List1A","white","man","","","","null","","","","","","","","",""
"null","<img src=""stim_listA/greet2.gif""style=""height:400px;""></stim_listA>","","html-keyboard-response","201","2029423","0.0-15.0-1.18","37810","List1A","white","man","","","","null","","","","","","","","",""
"null","is being greeted by","","html-keyboard-response","202","2031425","0.0-15.0-2.18","37810","List1A","white","man","","","","null","","","","","","","","",""
"5487.0999999996275","","","survey-text","203","2036917","0.0-15.0-3.18","37810","List1A","white","man","","","","","{""Q0"":""kate and fred""}","<img src=""stim_listA/greet2.gif""style=""height:400px;""></stim_listA>","is being greeted by","","","","","",""
"null","<div style=""font-size:60px;"">+</div>","","html-keyboard-response","204","2037419","0.0-15.0-0.19","37810","List1A","white","man","","","","null","","","","","","","","",""
"null","<img src=""stim_listA/oppose8.gif""style=""height:400px;""></stim_listA>","","html-keyboard-response","205","2039422","0.0-15.0-1.19","37810","List1A","white","man","","","","null","","","","","","","","",""
"null","is being opposed by","","html-keyboard-response","206","2041424","0.0-15.0-2.19","37810","List1A","white","man","","","","null","","","","","","","","",""
"7744.600000000559","","","survey-text","207","2049172","0.0-15.0-3.19","37810","List1A","white","man","","","","","{""Q0"":""ruth and beth""}","<img src=""stim_listA/oppose8.gif""style=""height:400px;""></stim_listA>","is being opposed by","","","","","",""
"8989.5","<img src='img/portrait_matrix_list1.jpg' style='width:900px;height:500px;''></img><p>If you have memorised all the portraits and names and are ready to start, press Continue.</p><p><strong>Please note: Your memory of these faces will be tested 4 times during this experiment.</strong></p>","0","html-button-response","208","2058164","0.0-16.0-0.0","37810","List1A","white","man","","","","","","","","","","","","",""
"8073.299999999814","<img src=""portrait/WM2.jpg""style=""height:400px;""></img>","7","html-button-response","209","2067240","0.0-16.0-1.0","37810","List1A","white","man","","true","7","","","","","","","","","",""
"null","CORRECT","","html-keyboard-response","210","2068743","0.0-16.0-2.0-0.0","37810","List1A","white","man","","","","null","","","","","","","","",""
"3283","<img src=""portrait/BW1.jpg""style=""height:400px;""></img>","0","html-button-response","211","2072028","0.0-16.0-4.0","37810","List1A","white","man","","true","0","","","","","","","","","",""
"null","CORRECT","","html-keyboard-response","212","2073531","0.0-16.0-5.0-0.0","37810","List1A","white","man","","","","null","","","","","","","","",""
"3663.100000000559","<img src=""portrait/WW2.jpg""style=""height:400px;""></img>","3","html-button-response","213","2077199","0.0-16.0-7.0","37810","List1A","white","man","","true","3","","","","","","","","","",""
"null","CORRECT","","html-keyboard-response","214","2078702","0.0-16.0-8.0-0.0","37810","List1A","white","man","","","","null","","","","","","","","",""
"1948.800000000745","<img src=""portrait/BM1.jpg""style=""height:400px;""></img>","4","html-button-response","215","2080653","0.0-16.0-10.0","37810","List1A","white","man","","true","4","","","","","","","","","",""
"null","CORRECT","","html-keyboard-response","216","2082156","0.0-16.0-11.0-0.0","37810","List1A","white","man","","","","null","","","","","","","","",""
"4386.700000001118","<img src=""portrait/BM2.jpg""style=""height:400px;""></img>","5","html-button-response","217","2086545","0.0-16.0-13.0","37810","List1A","white","man","","true","5","","","","","","","","","",""
"null","CORRECT","","html-keyboard-response","218","2088048","0.0-16.0-14.0-0.0","37810","List1A","white","man","","","","null","","","","","","","","",""
"5862.0999999996275","<img src=""portrait/BW2.jpg""style=""height:400px;""></img>","2","html-button-response","219","2093912","0.0-16.0-16.0","37810","List1A","white","man","","true","2","","","","","","","","","",""
"null","CORRECT","","html-keyboard-response","220","2095414","0.0-16.0-17.0-0.0","37810","List1A","white","man","","","","null","","","","","","","","",""
"3951.9000000003725","<img src=""portrait/WW1.jpg""style=""height:400px;""></img>","1","html-button-response","221","2099368","0.0-16.0-19.0","37810","List1A","white","man","","true","1","","","","","","","","","",""
"null","CORRECT","","html-keyboard-response","222","2100871","0.0-16.0-20.0-0.0","37810","List1A","white","man","","","","null","","","","","","","","",""
"6143.700000001118","<img src=""portrait/WM1.jpg""style=""height:400px;""></img>","6","html-button-response","223","2107016","0.0-16.0-22.0","37810","List1A","white","man","","true","6","","","","","","","","","",""
"null","CORRECT","","html-keyboard-response","224","2108518","0.0-16.0-23.0-0.0","37810","List1A","white","man","","","","null","","","","","","","","",""
"5352.10000000149","<p>You got 8 out of 8 right first time. Press Continue.</p>","0","html-button-response","225","2113872","0.0-16.0-25.0","37810","List1A","white","man","","","","","","","","","","","","",""
"null","<div style=""font-size:60px;"">+</div>","","html-keyboard-response","226","2115375","0.0-17.0-0.0","37810","List1A","white","man","","","","null","","","","","","","","",""
"null","<img src=""stim_listA/hug7.gif""style=""height:400px;""></stim_listA>","","html-keyboard-response","227","2117378","0.0-17.0-1.0","37810","List1A","white","man","","","","null","","","","","","","","",""
"null","is hugging","","html-keyboard-response","228","2119379","0.0-17.0-2.0","37810","List1A","white","man","","","","null","","","","","","","","",""
"9504.60000000149","","","survey-text","229","2128888","0.0-17.0-3.0","37810","List1A","white","man","","","","","{""Q0"":""ruth and beth""}","<img src=""stim_listA/hug7.gif""style=""height:400px;""></stim_listA>","is hugging","","","","","",""
"null","<div style=""font-size:60px;"">+</div>","","html-keyboard-response","230","2129390","0.0-17.0-0.1","37810","List1A","white","man","","","","null","","","","","","","","",""
"null","<img src=""stim_listA/challenge3.gif""style=""height:400px;""></stim_listA>","","html-keyboard-response","231","2131394","0.0-17.0-1.1","37810","List1A","white","man","","","","null","","","","","","","","",""
"null","is challenging","","html-keyboard-response","232","2133396","0.0-17.0-2.1","37810","List1A","white","man","","","","null","","","","","","","","",""
"30663.599999999627","","","survey-text","233","2164064","0.0-17.0-3.1","37810","List1A","white","man","","","","","{""Q0"":""ruth and dave""}","<img src=""stim_listA/challenge3.gif""style=""height:400px;""></stim_listA>","is challenging","","","","","",""
"null","<div style=""font-size:60px;"">+</div>","","html-keyboard-response","234","2164566","0.0-17.0-0.2","37810","List1A","white","man","","","","null","","","","","","","","",""
"null","<img src=""stim_listA/greet8.gif""style=""height:400px;""></stim_listA>","","html-keyboard-response","235","2166569","0.0-17.0-1.2","37810","List1A","white","man","","","","null","","","","","","","","",""
"null","is being greeted by","","html-keyboard-response","236","2168571","0.0-17.0-2.2","37810","List1A","white","man","","","","null","","","","","","","","",""
"11899.5","","","survey-text","237","2180475","0.0-17.0-3.2","37810","List1A","white","man","","","","","{""Q0"":""jane and beth""}","<img src=""stim_listA/greet8.gif""style=""height:400px;""></stim_listA>","is being greeted by","","","","","",""
"null","<div style=""font-size:60px;"">+</div>","","html-keyboard-response","238","2180978","0.0-17.0-0.3","37810","List1A","white","man","","","","null","","","","","","","","",""
"null","<img src=""stim_listA/kiss8.gif""style=""height:400px;""></stim_listA>","","html-keyboard-response","239","2182982","0.0-17.0-1.3","37810","List1A","white","man","","","","null","","","","","","","","",""
"null","is being kissed by","","html-keyboard-response","240","2184984","0.0-17.0-2.3","37810","List1A","white","man","","","","null","","","","","","","","",""
"8683.200000001118","","","survey-text","241","2193672","0.0-17.0-3.3","37810","List1A","white","man","","","","","{""Q0"":""jane and kate""}","<img src=""stim_listA/kiss8.gif""style=""height:400px;""></stim_listA>","is being kissed by","","","","","",""
"null","<div style=""font-size:60px;"">+</div>","","html-keyboard-response","242","2194173","0.0-17.0-0.4","37810","List1A","white","man","","","","null","","","","","","","","",""
"null","<img src=""stim_listA/look7.gif""style=""height:400px;""></stim_listA>","","html-keyboard-response","243","2196178","0.0-17.0-1.4","37810","List1A","white","man","","","","null","","","","","","","","",""
"null","is looking at","","html-keyboard-response","244","2198180","0.0-17.0-2.4","37810","List1A","white","man","","","","null","","","","","","","","",""
"9437.799999998882","","","survey-text","245","2207621","0.0-17.0-3.4","37810","List1A","white","man","","","","","{""Q0"":""ruth and beth""}","<img src=""stim_listA/look7.gif""style=""height:400px;""></stim_listA>","is looking at","","","","","",""
"null","<div style=""font-size:60px;"">+</div>","","html-keyboard-response","246","2208124","0.0-17.0-0.5","37810","List1A","white","man","","","","null","","","","","","","","",""
"null","<img src=""stim_listA/oppose7.gif""style=""height:400px;""></stim_listA>","","html-keyboard-response","247","2210128","0.0-17.0-1.5","37810","List1A","white","man","","","","null","","","","","","","","",""
"null","is opposing","","html-keyboard-response","248","2212130","0.0-17.0-2.5","37810","List1A","white","man","","","","null","","","","","","","","",""
"18126.5","","","survey-text","249","2230260","0.0-17.0-3.5","37810","List1A","white","man","","","","","{""Q0"":""jane and kate""}","<img src=""stim_listA/oppose7.gif""style=""height:400px;""></stim_listA>","is opposing","","","","","",""
"null","<div style=""font-size:60px;"">+</div>","","html-keyboard-response","250","2230763","0.0-17.0-0.6","37810","List1A","white","man","","","","null","","","","","","","","",""
"null","<img src=""stim_listA/copy2.gif""style=""height:400px;""></stim_listA>","","html-keyboard-response","251","2232766","0.0-17.0-1.6","37810","List1A","white","man","","","","null","","","","","","","","",""
"null","is being copied by","","html-keyboard-response","252","2234768","0.0-17.0-2.6","37810","List1A","white","man","","","","null","","","","","","","","",""
"14473.700000001118","","","survey-text","253","2249245","0.0-17.0-3.6","37810","List1A","white","man","","","","","{""Q0"":""kate and fred""}","<img src=""stim_listA/copy2.gif""style=""height:400px;""></stim_listA>","is being copied by","","","","","",""
"null","<div style=""font-size:60px;"">+</div>","","html-keyboard-response","254","2249747","0.0-17.0-0.7","37810","List1A","white","man","","","","null","","","","","","","","",""
"null","<img src=""stim_listA/hug4.gif""style=""height:400px;""></stim_listA>","","html-keyboard-response","255","2251750","0.0-17.0-1.7","37810","List1A","white","man","","","","null","","","","","","","","",""
"null","is being hugged by","","html-keyboard-response","256","2253752","0.0-17.0-2.7","37810","List1A","white","man","","","","null","","","","","","","","",""
"24877.699999999255","","","survey-text","257","2278635","0.0-17.0-3.7","37810","List1A","white","man","","","","","{""Q0"":""jane and fred""}","<img src=""stim_listA/hug4.gif""style=""height:400px;""></stim_listA>","is being hugged by","","","","","",""
"null","<div style=""font-size:60px;"">+</div>","","html-keyboard-response","258","2279137","0.0-17.0-0.8","37810","List1A","white","man","","","","null","","","","","","","","",""
"null","<img src=""stim_listA/shout4.gif""style=""height:400px;""></stim_listA>","","html-keyboard-response","259","2281140","0.0-17.0-1.8","37810","List1A","white","man","","","","null","","","","","","","","",""
"null","is being shouted at by","","html-keyboard-response","260","2283142","0.0-17.0-2.8","37810","List1A","white","man","","","","null","","","","","","","","",""
"10758.199999999255","","","survey-text","261","2293903","0.0-17.0-3.8","37810","List1A","white","man","","","","","{""Q0"":""jane and fred""}","<img src=""stim_listA/shout4.gif""style=""height:400px;""></stim_listA>","is being shouted at by","","","","","",""
"null","<div style=""font-size:60px;"">+</div>","","html-keyboard-response","262","2294404","0.0-17.0-0.9","37810","List1A","white","man","","","","null","","","","","","","","",""
"null","<img src=""stim_listA/oppose1.gif""style=""height:400px;""></stim_listA>","","html-keyboard-response","263","2296408","0.0-17.0-1.9","37810","List1A","white","man","","","","null","","","","","","","","",""
"null","is opposing","","html-keyboard-response","264","2298410","0.0-17.0-2.9","37810","List1A","white","man","","","","null","","","","","","","","",""
"15799.800000000745","","","survey-text","265","2314213","0.0-17.0-3.9","37810","List1A","white","man","","","","","{""Q0"":""kate and mike""}","<img src=""stim_listA/oppose1.gif""style=""height:400px;""></stim_listA>","is opposing","","","","","",""
"null","<div style=""font-size:60px;"">+</div>","","html-keyboard-response","266","2314715","0.0-17.0-0.10","37810","List1A","white","man","","","","null","","","","","","","","",""
"null","<img src=""stim_listA/greet3.gif""style=""height:400px;""></stim_listA>","","html-keyboard-response","267","2316719","0.0-17.0-1.10","37810","List1A","white","man","","","","null","","","","","","","","",""
"null","is greeting","","html-keyboard-response","268","2318720","0.0-17.0-2.10","37810","List1A","white","man","","","","null","","","","","","","","",""
"13215.900000000373","","","survey-text","269","2331939","0.0-17.0-3.10","37810","List1A","white","man","","","","","{""Q0"":""fred and ruth""}","<img src=""stim_listA/greet3.gif""style=""height:400px;""></stim_listA>","is greeting","","","","","",""
"null","<div style=""font-size:60px;"">+</div>","","html-keyboard-response","270","2332441","0.0-17.0-0.11","37810","List1A","white","man","","","","null","","","","","","","","",""
"null","<img src=""stim_listA/look6.gif""style=""height:400px;""></stim_listA>","","html-keyboard-response","271","2334444","0.0-17.0-1.11","37810","List1A","white","man","","","","null","","","","","","","","",""
"null","is being looked at by","","html-keyboard-response","272","2336446","0.0-17.0-2.11","37810","List1A","white","man","","","","null","","","","","","","","",""
"13274.400000000373","","","survey-text","273","2349724","0.0-17.0-3.11","37810","List1A","white","man","","","","","{""Q0"":""fred and mike""}","<img src=""stim_listA/look6.gif""style=""height:400px;""></stim_listA>","is being looked at by","","","","","",""
"null","<div style=""font-size:60px;"">+</div>","","html-keyboard-response","274","2350226","0.0-17.0-0.12","37810","List1A","white","man","","","","null","","","","","","","","",""
"null","<img src=""stim_listA/hug6.gif""style=""height:400px;""></stim_listA>","","html-keyboard-response","275","2352229","0.0-17.0-1.12","37810","List1A","white","man","","","","null","","","","","","","","",""
"null","is being hugged by","","html-keyboard-response","276","2354231","0.0-17.0-2.12","37810","List1A","white","man","","","","null","","","","","","","","",""
"8424","","","survey-text","277","2362658","0.0-17.0-3.12","37810","List1A","white","man","","","","","{""Q0"":""mike and fred""}","<img src=""stim_listA/hug6.gif""style=""height:400px;""></stim_listA>","is being hugged by","","","","","",""
"null","<div style=""font-size:60px;"">+</div>","","html-keyboard-response","278","2363160","0.0-17.0-0.13","37810","List1A","white","man","","","","null","","","","","","","","",""
"null","<img src=""stim_listA/challenge1.gif""style=""height:400px;""></stim_listA>","","html-keyboard-response","279","2365163","0.0-17.0-1.13","37810","List1A","white","man","","","","null","","","","","","","","",""
"null","is challenging","","html-keyboard-response","280","2367164","0.0-17.0-2.13","37810","List1A","white","man","","","","null","","","","","","","","",""
"20807.60000000149","","","survey-text","281","2387976","0.0-17.0-3.13","37810","List1A","white","man","","","","","{""Q0"":""mike and beth""}","<img src=""stim_listA/challenge1.gif""style=""height:400px;""></stim_listA>","is challenging","","","","","",""
"null","<div style=""font-size:60px;"">+</div>","","html-keyboard-response","282","2388479","0.0-17.0-0.14","37810","List1A","white","man","","","","null","","","","","","","","",""
"null","<img src=""stim_listA/shout6.gif""style=""height:400px;""></stim_listA>","","html-keyboard-response","283","2390482","0.0-17.0-1.14","37810","List1A","white","man","","","","null","","","","","","","","",""
"null","is being shouted at by","","html-keyboard-response","284","2392484","0.0-17.0-2.14","37810","List1A","white","man","","","","null","","","","","","","","",""
"10835.900000000373","","","survey-text","285","2403324","0.0-17.0-3.14","37810","List1A","white","man","","","","","{""Q0"":""mike and fred""}","<img src=""stim_listA/shout6.gif""style=""height:400px;""></stim_listA>","is being shouted at by","","","","","",""
"null","<div style=""font-size:60px;"">+</div>","","html-keyboard-response","286","2403826","0.0-17.0-0.15","37810","List1A","white","man","","","","null","","","","","","","","",""
"null","<img src=""stim_listA/hug3.gif""style=""height:400px;""></stim_listA>","","html-keyboard-response","287","2405829","0.0-17.0-1.15","37810","List1A","white","man","","","","null","","","","","","","","",""
"null","is hugging","","html-keyboard-response","288","2407831","0.0-17.0-2.15","37810","List1A","white","man","","","","null","","","","","","","","",""
"8742.10000000149","","","survey-text","289","2416576","0.0-17.0-3.15","37810","List1A","white","man","","","","","{""Q0"":""ruth and luke""}","<img src=""stim_listA/hug3.gif""style=""height:400px;""></stim_listA>","is hugging","","","","","",""
"null","<div style=""font-size:60px;"">+</div>","","html-keyboard-response","290","2417079","0.0-17.0-0.16","37810","List1A","white","man","","","","null","","","","","","","","",""
"null","<img src=""stim_listA/greet5.gif""style=""height:400px;""></stim_listA>","","html-keyboard-response","291","2419082","0.0-17.0-1.16","37810","List1A","white","man","","","","null","","","","","","","","",""
"null","is greeting","","html-keyboard-response","292","2421084","0.0-17.0-2.16","37810","List1A","white","man","","","","null","","","","","","","","",""
"19992.699999999255","","","survey-text","293","2441082","0.0-17.0-3.16","37810","List1A","white","man","","","","","{""Q0"":""mike and luke""}","<img src=""stim_listA/greet5.gif""style=""height:400px;""></stim_listA>","is greeting","","","","","",""
"null","<div style=""font-size:60px;"">+</div>","","html-keyboard-response","294","2441585","0.0-17.0-0.17","37810","List1A","white","man","","","","null","","","","","","","","",""
"null","<img src=""stim_listA/touch4.gif""style=""height:400px;""></stim_listA>","","html-keyboard-response","295","2443589","0.0-17.0-1.17","37810","List1A","white","man","","","","null","","","","","","","","",""
"null","is being touched by","","html-keyboard-response","296","2445591","0.0-17.0-2.17","37810","List1A","white","man","","","","null","","","","","","","","",""
"13563.89999999851","","","survey-text","297","2459158","0.0-17.0-3.17","37810","List1A","white","man","","","","","{""Q0"":""ruth and luke""}","<img src=""stim_listA/touch4.gif""style=""height:400px;""></stim_listA>","is being touched by","","","","","",""
"null","<div style=""font-size:60px;"">+</div>","","html-keyboard-response","298","2459660","0.0-17.0-0.18","37810","List1A","white","man","","","","null","","","","","","","","",""
"null","<img src=""stim_listA/kiss1.gif""style=""height:400px;""></stim_listA>","","html-keyboard-response","299","2461663","0.0-17.0-1.18","37810","List1A","white","man","","","","null","","","","","","","","",""
"null","is kissing","","html-keyboard-response","300","2463665","0.0-17.0-2.18","37810","List1A","white","man","","","","null","","","","","","","","",""
"12240.5","","","survey-text","301","2475911","0.0-17.0-3.18","37810","List1A","white","man","","","","","{""Q0"":""fred and beth""}","<img src=""stim_listA/kiss1.gif""style=""height:400px;""></stim_listA>","is kissing","","","","","",""
"null","<div style=""font-size:60px;"">+</div>","","html-keyboard-response","302","2476413","0.0-17.0-0.19","37810","List1A","white","man","","","","null","","","","","","","","",""
"null","<img src=""stim_listA/seduce5.gif""style=""height:400px;""></stim_listA>","","html-keyboard-response","303","2478416","0.0-17.0-1.19","37810","List1A","white","man","","","","null","","","","","","","","",""
"null","is seducing","","html-keyboard-response","304","2480418","0.0-17.0-2.19","37810","List1A","white","man","","","","null","","","","","","","","",""
"31595.10000000149","","","survey-text","305","2512017","0.0-17.0-3.19","37810","List1A","white","man","","","","","{""Q0"":""fred and dave""}","<img src=""stim_listA/seduce5.gif""style=""height:400px;""></stim_listA>","is seducing","","","","","",""
"25705.199999999255","<img src='img/portrait_matrix_list1.jpg' style='width:900px;height:500px;''></img><p>If you have memorised all the portraits and names and are ready to start, press Continue.</p><p><strong>Please note: Your memory of these faces will be tested 4 times during this experiment.</strong></p>","0","html-button-response","306","2537724","0.0-18.0-0.0","37810","List1A","white","man","","","","","","","","","","","","",""
"4217.5999999996275","<img src=""portrait/BM1.jpg""style=""height:400px;""></img>","4","html-button-response","307","2542945","0.0-18.0-1.0","37810","List1A","white","man","","true","4","","","","","","","","","",""
"null","CORRECT","","html-keyboard-response","308","2544447","0.0-18.0-2.0-0.0","37810","List1A","white","man","","","","null","","","","","","","","",""
"3798.7000000011176","<img src=""portrait/BW2.jpg""style=""height:400px;""></img>","2","html-button-response","309","2548248","0.0-18.0-4.0","37810","List1A","white","man","","true","2","","","","","","","","","",""
"null","CORRECT","","html-keyboard-response","310","2549750","0.0-18.0-5.0-0.0","37810","List1A","white","man","","","","null","","","","","","","","",""
"3241.2999999988824","<img src=""portrait/WM2.jpg""style=""height:400px;""></img>","7","html-button-response","311","2552994","0.0-18.0-7.0","37810","List1A","white","man","","true","7","","","","","","","","","",""
"null","CORRECT","","html-keyboard-response","312","2554497","0.0-18.0-8.0-0.0","37810","List1A","white","man","","","","null","","","","","","","","",""
"5343.199999999255","<img src=""portrait/WW2.jpg""style=""height:400px;""></img>","3","html-button-response","313","2559843","0.0-18.0-10.0","37810","List1A","white","man","","true","3","","","","","","","","","",""
"null","CORRECT","","html-keyboard-response","314","2561345","0.0-18.0-11.0-0.0","37810","List1A","white","man","","","","null","","","","","","","","",""
"3167.9000000003725","<img src=""portrait/BW1.jpg""style=""height:400px;""></img>","0","html-button-response","315","2564515","0.0-18.0-13.0","37810","List1A","white","man","","true","0","","","","","","","","","",""
"null","CORRECT","","html-keyboard-response","316","2566018","0.0-18.0-14.0-0.0","37810","List1A","white","man","","","","null","","","","","","","","",""
"4142.4000000003725","<img src=""portrait/WW1.jpg""style=""height:400px;""></img>","1","html-button-response","317","2570163","0.0-18.0-16.0","37810","List1A","white","man","","true","1","","","","","","","","","",""
"null","CORRECT","","html-keyboard-response","318","2571666","0.0-18.0-17.0-0.0","37810","List1A","white","man","","","","null","","","","","","","","",""
"3450.0999999996275","<img src=""portrait/BM2.jpg""style=""height:400px;""></img>","5","html-button-response","319","2575119","0.0-18.0-19.0","37810","List1A","white","man","","true","5","","","","","","","","","",""
"null","CORRECT","","html-keyboard-response","320","2576622","0.0-18.0-20.0-0.0","37810","List1A","white","man","","","","null","","","","","","","","",""
"3808.4000000003725","<img src=""portrait/WM1.jpg""style=""height:400px;""></img>","6","html-button-response","321","2580433","0.0-18.0-22.0","37810","List1A","white","man","","true","6","","","","","","","","","",""
"null","CORRECT","","html-keyboard-response","322","2581936","0.0-18.0-23.0-0.0","37810","List1A","white","man","","","","null","","","","","","","","",""
"6129.299999998882","<p>You got 8 out of 8 right first time. Press Continue.</p>","0","html-button-response","323","2588068","0.0-18.0-25.0","37810","List1A","white","man","","","","","","","","","","","","",""
"null","<div style=""font-size:60px;"">+</div>","","html-keyboard-response","324","2589571","0.0-19.0-0.0","37810","List1A","white","man","","","","null","","","","","","","","",""
"null","<img src=""stim_listA/look4.gif""style=""height:400px;""></stim_listA>","","html-keyboard-response","325","2591574","0.0-19.0-1.0","37810","List1A","white","man","","","","null","","","","","","","","",""
"null","is being looked at by","","html-keyboard-response","326","2593576","0.0-19.0-2.0","37810","List1A","white","man","","","","null","","","","","","","","",""
"16422.900000000373","","","survey-text","327","2610003","0.0-19.0-3.0","37810","List1A","white","man","","","","","{""Q0"":""dave and jane""}","<img src=""stim_listA/look4.gif""style=""height:400px;""></stim_listA>","is being looked at by","","","","","",""
"null","<div style=""font-size:60px;"">+</div>","","html-keyboard-response","328","2610506","0.0-19.0-0.1","37810","List1A","white","man","","","","null","","","","","","","","",""
"null","<img src=""stim_listA/oppose3.gif""style=""height:400px;""></stim_listA>","","html-keyboard-response","329","2612509","0.0-19.0-1.1","37810","List1A","white","man","","","","null","","","","","","","","",""
"null","is opposing","","html-keyboard-response","330","2614511","0.0-19.0-2.1","37810","List1A","white","man","","","","null","","","","","","","","",""
"10041","","","survey-text","331","2624558","0.0-19.0-3.1","37810","List1A","white","man","","","","","{""Q0"":""dave and jane""}","<img src=""stim_listA/oppose3.gif""style=""height:400px;""></stim_listA>","is opposing","","","","","",""
"null","<div style=""font-size:60px;"">+</div>","","html-keyboard-response","332","2625060","0.0-19.0-0.2","37810","List1A","white","man","","","","null","","","","","","","","",""
"null","<img src=""stim_listA/shout8.gif""style=""height:400px;""></stim_listA>","","html-keyboard-response","333","2627064","0.0-19.0-1.2","37810","List1A","white","man","","","","null","","","","","","","","",""
"null","is being shouted at by","","html-keyboard-response","334","2629066","0.0-19.0-2.2","37810","List1A","white","man","","","","null","","","","","","","","",""
"17688","","","survey-text","335","2646758","0.0-19.0-3.2","37810","List1A","white","man","","","","","{""Q0"":""kate and jane""}","<img src=""stim_listA/shout8.gif""style=""height:400px;""></stim_listA>","is being shouted at by","","","","","",""
"null","<div style=""font-size:60px;"">+</div>","","html-keyboard-response","336","2647260","0.0-19.0-0.3","37810","List1A","white","man","","","","null","","","","","","","","",""
"null","<img src=""stim_listA/seduce2.gif""style=""height:400px;""></stim_listA>","","html-keyboard-response","337","2649264","0.0-19.0-1.3","37810","List1A","white","man","","","","null","","","","","","","","",""
"null","is being seduced by","","html-keyboard-response","338","2651267","0.0-19.0-2.3","37810","List1A","white","man","","","","null","","","","","","","","",""
"10842.699999999255","","","survey-text","339","2662114","0.0-19.0-3.3","37810","List1A","white","man","","","","","{""Q0"":""beth and mike""}","<img src=""stim_listA/seduce2.gif""style=""height:400px;""></stim_listA>","is being seduced by","","","","","",""
"null","<div style=""font-size:60px;"">+</div>","","html-keyboard-response","340","2662617","0.0-19.0-0.4","37810","List1A","white","man","","","","null","","","","","","","","",""
"null","<img src=""stim_listA/look3.gif""style=""height:400px;""></stim_listA>","","html-keyboard-response","341","2664622","0.0-19.0-1.4","37810","List1A","white","man","","","","null","","","","","","","","",""
"null","is looking at","","html-keyboard-response","342","2666624","0.0-19.0-2.4","37810","List1A","white","man","","","","null","","","","","","","","",""
"9533.5","","","survey-text","343","2676162","0.0-19.0-3.4","37810","List1A","white","man","","","","","{""Q0"":""luke and ruth""}","<img src=""stim_listA/look3.gif""style=""height:400px;""></stim_listA>","is looking at","","","","","",""
"null","<div style=""font-size:60px;"">+</div>","","html-keyboard-response","344","2676664","0.0-19.0-0.5","37810","List1A","white","man","","","","null","","","","","","","","",""
"null","<img src=""stim_listA/greet4.gif""style=""height:400px;""></stim_listA>","","html-keyboard-response","345","2678669","0.0-19.0-1.5","37810","List1A","white","man","","","","null","","","","","","","","",""
"null","is being greeted by","","html-keyboard-response","346","2680671","0.0-19.0-2.5","37810","List1A","white","man","","","","null","","","","","","","","",""
"13710.299999998882","","","survey-text","347","2694385","0.0-19.0-3.5","37810","List1A","white","man","","","","","{""Q0"":""jane and luke""}","<img src=""stim_listA/greet4.gif""style=""height:400px;""></stim_listA>","is being greeted by","","","","","",""
"null","<div style=""font-size:60px;"">+</div>","","html-keyboard-response","348","2694887","0.0-19.0-0.6","37810","List1A","white","man","","","","null","","","","","","","","",""
"null","<img src=""stim_listA/touch7.gif""style=""height:400px;""></stim_listA>","","html-keyboard-response","349","2696890","0.0-19.0-1.6","37810","List1A","white","man","","","","null","","","","","","","","",""
"null","is touching","","html-keyboard-response","350","2698891","0.0-19.0-2.6","37810","List1A","white","man","","","","null","","","","","","","","",""
"17590.099999999627","","","survey-text","351","2716485","0.0-19.0-3.6","37810","List1A","white","man","","","","","{""Q0"":""kate and jane""}","<img src=""stim_listA/touch7.gif""style=""height:400px;""></stim_listA>","is touching","","","","","",""
"null","<div style=""font-size:60px;"">+</div>","","html-keyboard-response","352","2716987","0.0-19.0-0.7","37810","List1A","white","man","","","","null","","","","","","","","",""
"null","<img src=""stim_listA/shout5.gif""style=""height:400px;""></stim_listA>","","html-keyboard-response","353","2718990","0.0-19.0-1.7","37810","List1A","white","man","","","","null","","","","","","","","",""
"null","is shouting at","","html-keyboard-response","354","2720991","0.0-19.0-2.7","37810","List1A","white","man","","","","null","","","","","","","","",""
"9957.299999998882","","","survey-text","355","2730952","0.0-19.0-3.7","37810","List1A","white","man","","","","","{""Q0"":""fred and luke""}","<img src=""stim_listA/shout5.gif""style=""height:400px;""></stim_listA>","is shouting at","","","","","",""
"null","<div style=""font-size:60px;"">+</div>","","html-keyboard-response","356","2731454","0.0-19.0-0.8","37810","List1A","white","man","","","","null","","","","","","","","",""
"null","<img src=""stim_listA/challenge6.gif""style=""height:400px;""></stim_listA>","","html-keyboard-response","357","2733457","0.0-19.0-1.8","37810","List1A","white","man","","","","null","","","","","","","","",""
"null","is being challenged by","","html-keyboard-response","358","2735458","0.0-19.0-2.8","37810","List1A","white","man","","","","null","","","","","","","","",""
"14188.400000000373","","","survey-text","359","2749651","0.0-19.0-3.8","37810","List1A","white","man","","","","","{""Q0"":""dave and fred""}","<img src=""stim_listA/challenge6.gif""style=""height:400px;""></stim_listA>","is being challenged by","","","","","",""
"null","<div style=""font-size:60px;"">+</div>","","html-keyboard-response","360","2750153","0.0-19.0-0.9","37810","List1A","white","man","","","","null","","","","","","","","",""
"null","<img src=""stim_listA/oppose5.gif""style=""height:400px;""></stim_listA>","","html-keyboard-response","361","2752156","0.0-19.0-1.9","37810","List1A","white","man","","","","null","","","","","","","","",""
"null","is opposing","","html-keyboard-response","362","2754158","0.0-19.0-2.9","37810","List1A","white","man","","","","null","","","","","","","","",""
"14316.900000000373","","","survey-text","363","2768478","0.0-19.0-3.9","37810","List1A","white","man","","","","","{""Q0"":""mike and dave""}","<img src=""stim_listA/oppose5.gif""style=""height:400px;""></stim_listA>","is opposing","","","","","",""
"null","<div style=""font-size:60px;"">+</div>","","html-keyboard-response","364","2768980","0.0-19.0-0.10","37810","List1A","white","man","","","","null","","","","","","","","",""
"null","<img src=""stim_listA/copy7.gif""style=""height:400px;""></stim_listA>","","html-keyboard-response","365","2770983","0.0-19.0-1.10","37810","List1A","white","man","","","","null","","","","","","","","",""
"null","is copying","","html-keyboard-response","366","2772985","0.0-19.0-2.10","37810","List1A","white","man","","","","null","","","","","","","","",""
"15262.5","","","survey-text","367","2788251","0.0-19.0-3.10","37810","List1A","white","man","","","","","{""Q0"":""ruth and kate""}","<img src=""stim_listA/copy7.gif""style=""height:400px;""></stim_listA>","is copying","","","","","",""
"null","<div style=""font-size:60px;"">+</div>","","html-keyboard-response","368","2788754","0.0-19.0-0.11","37810","List1A","white","man","","","","null","","","","","","","","",""
"null","<img src=""stim_listA/copy4.gif""style=""height:400px;""></stim_listA>","","html-keyboard-response","369","2790758","0.0-19.0-1.11","37810","List1A","white","man","","","","null","","","","","","","","",""
"null","is being copied by","","html-keyboard-response","370","2792760","0.0-19.0-2.11","37810","List1A","white","man","","","","null","","","","","","","","",""
"11666.900000000373","","","survey-text","371","2804431","0.0-19.0-3.11","37810","List1A","white","man","","","","","{""Q0"":""jane and luke""}","<img src=""stim_listA/copy4.gif""style=""height:400px;""></stim_listA>","is being copied by","","","","","",""
"null","<div style=""font-size:60px;"">+</div>","","html-keyboard-response","372","2804933","0.0-19.0-0.12","37810","List1A","white","man","","","","null","","","","","","","","",""
"null","<img src=""stim_listA/kiss3.gif""style=""height:400px;""></stim_listA>","","html-keyboard-response","373","2806936","0.0-19.0-1.12","37810","List1A","white","man","","","","null","","","","","","","","",""
"null","is kissing","","html-keyboard-response","374","2808938","0.0-19.0-2.12","37810","List1A","white","man","","","","null","","","","","","","","",""
"11763.199999999255","","","survey-text","375","2820705","0.0-19.0-3.12","37810","List1A","white","man","","","","","{""Q0"":""luke and ruth""}","<img src=""stim_listA/kiss3.gif""style=""height:400px;""></stim_listA>","is kissing","","","","","",""
"null","<div style=""font-size:60px;"">+</div>","","html-keyboard-response","376","2821207","0.0-19.0-0.13","37810","List1A","white","man","","","","null","","","","","","","","",""
"null","<img src=""stim_listA/look5.gif""style=""height:400px;""></stim_listA>","","html-keyboard-response","377","2823210","0.0-19.0-1.13","37810","List1A","white","man","","","","null","","","","","","","","",""
"null","is looking at","","html-keyboard-response","378","2825212","0.0-19.0-2.13","37810","List1A","white","man","","","","null","","","","","","","","",""
"9684.400000000373","","","survey-text","379","2834900","0.0-19.0-3.13","37810","List1A","white","man","","","","","{""Q0"":""fred and luke""}","<img src=""stim_listA/look5.gif""style=""height:400px;""></stim_listA>","is looking at","","","","","",""
"null","<div style=""font-size:60px;"">+</div>","","html-keyboard-response","380","2835402","0.0-19.0-0.14","37810","List1A","white","man","","","","null","","","","","","","","",""
"null","<img src=""stim_listA/copy8.gif""style=""height:400px;""></stim_listA>","","html-keyboard-response","381","2837406","0.0-19.0-1.14","37810","List1A","white","man","","","","null","","","","","","","","",""
"null","is being copied by","","html-keyboard-response","382","2839407","0.0-19.0-2.14","37810","List1A","white","man","","","","null","","","","","","","","",""
"15273.400000000373","","","survey-text","383","2854684","0.0-19.0-3.14","37810","List1A","white","man","","","","","{""Q0"":""jane and beth""}","<img src=""stim_listA/copy8.gif""style=""height:400px;""></stim_listA>","is being copied by","","","","","",""
"null","<div style=""font-size:60px;"">+</div>","","html-keyboard-response","384","2855186","0.0-19.0-0.15","37810","List1A","white","man","","","","null","","","","","","","","",""
"null","<img src=""stim_listA/look1.gif""style=""height:400px;""></stim_listA>","","html-keyboard-response","385","2857189","0.0-19.0-1.15","37810","List1A","white","man","","","","null","","","","","","","","",""
"null","is looking at","","html-keyboard-response","386","2859192","0.0-19.0-2.15","37810","List1A","white","man","","","","null","","","","","","","","",""
"41837.800000000745","","","survey-text","387","2901033","0.0-19.0-3.15","37810","List1A","white","man","","","","","{""Q0"":""beth and fred""}","<img src=""stim_listA/look1.gif""style=""height:400px;""></stim_listA>","is looking at","","","","","",""
"null","<div style=""font-size:60px;"">+</div>","","html-keyboard-response","388","2901536","0.0-19.0-0.16","37810","List1A","white","man","","","","null","","","","","","","","",""
"null","<img src=""stim_listA/look8.gif""style=""height:400px;""></stim_listA>","","html-keyboard-response","389","2903539","0.0-19.0-1.16","37810","List1A","white","man","","","","null","","","","","","","","",""
"null","is being looked at by","","html-keyboard-response","390","2905541","0.0-19.0-2.16","37810","List1A","white","man","","","","null","","","","","","","","",""
"19448","","","survey-text","391","2924999","0.0-19.0-3.16","37810","List1A","white","man","","","","","{""Q0"":""kate and jane""}","<img src=""stim_listA/look8.gif""style=""height:400px;""></stim_listA>","is being looked at by","","","","","",""
"null","<div style=""font-size:60px;"">+</div>","","html-keyboard-response","392","2925501","0.0-19.0-0.17","37810","List1A","white","man","","","","null","","","","","","","","",""
"null","<img src=""stim_listA/greet6.gif""style=""height:400px;""></stim_listA>","","html-keyboard-response","393","2927505","0.0-19.0-1.17","37810","List1A","white","man","","","","null","","","","","","","","",""
"null","is being greeted by","","html-keyboard-response","394","2929507","0.0-19.0-2.17","37810","List1A","white","man","","","","null","","","","","","","","",""
"12262.199999999255","","","survey-text","395","2941774","0.0-19.0-3.17","37810","List1A","white","man","","","","","{""Q0"":""fred and dave""}","<img src=""stim_listA/greet6.gif""style=""height:400px;""></stim_listA>","is being greeted by","","","","","",""
"null","<div style=""font-size:60px;"">+</div>","","html-keyboard-response","396","2942277","0.0-19.0-0.18","37810","List1A","white","man","","","","null","","","","","","","","",""
"null","<img src=""stim_listA/copy5.gif""style=""height:400px;""></stim_listA>","","html-keyboard-response","397","2944281","0.0-19.0-1.18","37810","List1A","white","man","","","","null","","","","","","","","",""
"null","is copying","","html-keyboard-response","398","2946283","0.0-19.0-2.18","37810","List1A","white","man","","","","null","","","","","","","","",""
"13850.200000001118","","","survey-text","399","2960138","0.0-19.0-3.18","37810","List1A","white","man","","","","","{""Q0"":""mike and look""}","<img src=""stim_listA/copy5.gif""style=""height:400px;""></stim_listA>","is copying","","","","","",""
"null","<div style=""font-size:60px;"">+</div>","","html-keyboard-response","400","2960641","0.0-19.0-0.19","37810","List1A","white","man","","","","null","","","","","","","","",""
"null","<img src=""stim_listA/challenge2.gif""style=""height:400px;""></stim_listA>","","html-keyboard-response","401","2962646","0.0-19.0-1.19","37810","List1A","white","man","","","","null","","","","","","","","",""
"null","is being challenged by","","html-keyboard-response","402","2964649","0.0-19.0-2.19","37810","List1A","white","man","","","","null","","","","","","","","",""
"46364.90000000037","","","survey-text","403","3011019","0.0-19.0-3.19","37810","List1A","white","man","","","","","{""Q0"":""kate and fred""}","<img src=""stim_listA/challenge2.gif""style=""height:400px;""></stim_listA>","is being challenged by","","","","","",""
"15845","<p>Thank you for completing that task.</p><p>The final part of this session is a questionnaire that will take about 4 minutes.</p><p>Press Continue.</p>","0","html-button-response","404","3026867","0.0-20.0","37810","List1A","white","man","","","","","","","","","","","","",""
"101642.5","","","survey-text","405","3129520","0.0-21.0","37810","List1A","white","man","","","","","{""Q0"":""41"",""Q1"":""English"",""Q2"":""English"",""Q3"":""USA"",""Q4"":""USA"",""Q5"":""White "",""Q6"":""Male""}","","","demographics","","","","",""
"2892.10000000149","<p>Have you lived in the USA for the last 5 years or more?</p>","0","html-button-response","406","3132417","0.0-22.0","37810","List1A","white","man","","","","","","","","fiveyears","","","","",""
"2788.9000000003725","<p>Move the slider to show the extent to which you agree with the following statements.</p>","0","html-button-response","407","3136209","0.0-23.0","37810","List1A","white","man","","","","","","","","","","","","",""
"8869.5","","","html-slider-response","408","3146084","0.0-24.0-0.0-0.0","37810","List1A","white","man","","","","","","","","survey_race","100","","","People of my race have a lot in common with each other.","common"
"4193.4000000003725","","","html-slider-response","409","3150283","0.0-24.0-0.0-0.1","37810","List1A","white","man","","","","","","","","survey_race","100","","","I am glad to be my age.","filler"
"6355.9000000003725","","","html-slider-response","410","3156643","0.0-24.0-0.0-0.2","37810","List1A","white","man","","","","","","","","survey_race","100","","","I am glad to be the age I am.","filler"
"4403","","","html-slider-response","411","3161053","0.0-24.0-0.0-0.3","37810","List1A","white","man","","","","","","","","survey_race","100","","","Being my age gives me a good feeling.","filler"
"3875.4000000003725","","","html-slider-response","412","3164932","0.0-24.0-0.0-0.4","37810","List1A","white","man","","","","","","","","survey_race","100","","","I feel solidarity with people the same age as me.","filler"
"3084.2000000011176","","","html-slider-response","413","3168020","0.0-24.0-0.0-0.5","37810","List1A","white","man","","","","","","","","survey_race","100","","","I feel solidarity with my race.","solidarity"
"5069.9000000003725","","","html-slider-response","414","3173093","0.0-24.0-0.0-0.6","37810","List1A","white","man","","","","","","","","survey_race","100","","","I have a lot in common with the average person of my race.","average"
"8047.299999998882","","","html-slider-response","415","3181145","0.0-24.0-0.0-0.7","37810","List1A","white","man","","","","","","","","survey_race","100","","","I have a lot in common with people of a similar age to me.","filler"
"4066.0999999996275","","","html-slider-response","416","3185216","0.0-24.0-0.0-0.8","37810","List1A","white","man","","","","","","","","survey_race","100","","","The fact that I am my race is an important part of my identity.","identity"
"14291.900000000373","","","html-slider-response","417","3199512","0.0-24.0-0.0-0.9","37810","List1A","white","man","","","","","","","","survey_race","100","","","My age is not an important part of who I am.","filler"
"6915.299999998882","","","html-slider-response","418","3206432","0.0-24.0-0.0-0.10","37810","List1A","white","man","","","","","","","","survey_race","100","","","I feel committed to my race.","committed"
"3198.5999999996275","","","html-slider-response","419","3209636","0.0-24.0-0.0-0.11","37810","List1A","white","man","","","","","","","","survey_race","100","","","I am glad to be my race.","glad"
"3512.0999999996275","","","html-slider-response","420","3213152","0.0-24.0-0.0-0.12","37810","List1A","white","man","","","","","","","","survey_race","100","","","People my age have a lot in common with each other.","filler"
"3725.699999999255","","","html-slider-response","421","3216880","0.0-24.0-0.0-0.13","37810","List1A","white","man","","","","","","","","survey_race","0","","","I consider myself an extrovert.","filler"
"7635.9000000003725","","","html-slider-response","422","3224520","0.0-24.0-0.0-0.14","37810","List1A","white","man","","","","","","","","survey_race","100","","","Being my race is an important part of how I see myself.","important"
"3715.800000000745","","","html-slider-response","423","3228240","0.0-24.0-0.0-0.15","37810","List1A","white","man","","","","","","","","survey_race","100","","","I feel a bond with my race.","bond"
"13413.5","","","html-slider-response","424","3241656","0.0-24.0-0.0-0.16","37810","List1A","white","man","","","","","","","","survey_race","100","","","I feel a bond with people the same age as me.","filler"
"8402.599999999627","","","html-slider-response","425","3250064","0.0-24.0-0.0-0.17","37810","List1A","white","man","","","","","","","","survey_race","100","","","I often think about the fact that I am my age.","filler"
"7283.4000000003725","","","html-slider-response","426","3257351","0.0-24.0-0.0-0.18","37810","List1A","white","man","","","","","","","","survey_race","100","","","I often think about the fact that I am my race.","often"
"3332","","","html-slider-response","427","3260688","0.0-24.0-0.0-0.19","37810","List1A","white","man","","","","","","","","survey_race","100","","","It is pleasant to be my race.","pleasant"
"5515.39999999851","","","html-slider-response","428","3266207","0.0-24.0-0.0-0.20","37810","List1A","white","man","","","","","","","","survey_race","100","","","People of my race are very similar to each other.","verysimilar"
"11523.900000000373","","","html-slider-response","429","3277735","0.0-24.0-0.0-0.21","37810","List1A","white","man","","","","","","","","survey_race","100","","","The older I get, the wiser I feel.","filler"
"4547.200000001118","","","html-slider-response","430","3282288","0.0-24.0-0.0-0.22","37810","List1A","white","man","","","","","","","","survey_race","100","","","Getting older does not worry me.","filler"
"4988.0999999996275","","","html-slider-response","431","3287280","0.0-24.0-0.0-0.23","37810","List1A","white","man","","","","","","","","survey_race","100","","","I consider myself an introvert.","filler"
"8243.60000000149","","","html-slider-response","432","3295528","0.0-24.0-0.0-0.24","37810","List1A","white","man","","","","","","","","survey_race","100","","","I am similar to the average person of my race.","similar"
"4295.799999998882","","","html-slider-response","433","3299828","0.0-24.0-0.0-0.25","37810","List1A","white","man","","","","","","","","survey_race","100","","","Being my race gives me a good feeling.","feeling"
"3456.2999999988824","","","html-slider-response","434","3303288","0.0-24.0-0.0-0.26","37810","List1A","white","man","","","","","","","","survey_race","100","","","I enjoy being in large groups.","filler"
"5885.9000000003725","","","html-slider-response","435","3309176","0.0-24.0-0.0-0.27","37810","List1A","white","man","","","","","","","","survey_race","100","","","I think that my race has a lot to be proud of.","proud"
"5335.9000000003725","","","html-slider-response","436","3314516","0.0-24.0-1.0-0.0","37810","List1A","white","man","","","","","","","","survey_gender","100","","","People of my gender are very similar to each other.","verysimilar"
"3052.5","","","html-slider-response","437","3317574","0.0-24.0-1.0-0.1","37810","List1A","white","man","","","","","","","","survey_gender","100","","","I have a lot in common with the average person of my gender.","average"
"5309.300000000745","","","html-slider-response","438","3322889","0.0-24.0-1.0-0.2","37810","List1A","white","man","","","","","","","","survey_gender","100","","","I feel a bond with my friends.","filler"
"6430","","","html-slider-response","439","3329323","0.0-24.0-1.0-0.3","37810","List1A","white","man","","","","","","","","survey_gender","100","","","I am glad to be my gender.","glad"
"3539.7000000011176","","","html-slider-response","440","3332867","0.0-24.0-1.0-0.4","37810","List1A","white","man","","","","","","","","survey_gender","100","","","I would say I am an animal person.","filler"
"6547.5","","","html-slider-response","441","3339421","0.0-24.0-1.0-0.5","37810","List1A","white","man","","","","","","","","survey_gender","100","","","I often think about the fact that I am my gender.","often"
"6835.299999998882","","","html-slider-response","442","3346260","0.0-24.0-1.0-0.6","37810","List1A","white","man","","","","","","","","survey_gender","51","","","I often think about my actions.","filler"
"6212.200000001118","","","html-slider-response","443","3352476","0.0-24.0-1.0-0.7","37810","List1A","white","man","","","","","","","","survey_gender","100","","","Routine is not important to me.","filler"
"8011.9000000003725","","","html-slider-response","444","3360492","0.0-24.0-1.0-0.8","37810","List1A","white","man","","","","","","","","survey_gender","100","","","It is not always easy for people to know what I am thinking.","filler"
"5402.700000001118","","","html-slider-response","445","3365900","0.0-24.0-1.0-0.9","37810","List1A","white","man","","","","","","","","survey_gender","100","","","I feel committed to my gender.","committed"
"11659.099999999627","","","html-slider-response","446","3377564","0.0-24.0-1.0-0.10","37810","List1A","white","man","","","","","","","","survey_gender","100","","","Being around my friends gives me a good feeling.","filler"
"2819.199999999255","","","html-slider-response","447","3380388","0.0-24.0-1.0-0.11","37810","List1A","white","man","","","","","","","","survey_gender","100","","","Being my gender gives me a good feeling.","feeling"
"2837.7000000011176","","","html-slider-response","448","3383228","0.0-24.0-1.0-0.12","37810","List1A","white","man","","","","","","","","survey_gender","100","","","I have a lot in common with my friends.","filler"
"2405.800000000745","","","html-slider-response","449","3385636","0.0-24.0-1.0-0.13","37810","List1A","white","man","","","","","","","","survey_gender","100","","","The fact that I am my gender is an important part of my identity.","identity"
"2876.199999999255","","","html-slider-response","450","3388516","0.0-24.0-1.0-0.14","37810","List1A","white","man","","","","","","","","survey_gender","100","","","I feel a bond with my gender.","bond"
"29009.5","","","html-slider-response","451","3417528","0.0-24.0-1.0-0.15","37810","List1A","white","man","","","","","","","","survey_gender","100","","","I feel solidarity with my gender.","solidarity"
"3887.5","","","html-slider-response","452","3421420","0.0-24.0-1.0-0.16","37810","List1A","white","man","","","","","","","","survey_gender","100","","","I consider myself a highly empathetic person.","filler"
"3361.39999999851","","","html-slider-response","453","3424784","0.0-24.0-1.0-0.17","37810","List1A","white","man","","","","","","","","survey_gender","100","","","I think that my gender has a lot to be proud of.","proud"
"2612.199999999255","","","html-slider-response","454","3427400","0.0-24.0-1.0-0.18","37810","List1A","white","man","","","","","","","","survey_gender","100","","","I feel solidarity with my friends.","filler"
"3204.9000000003725","","","html-slider-response","455","3430608","0.0-24.0-1.0-0.19","37810","List1A","white","man","","","","","","","","survey_gender","100","","","My friends have a lot in common with each other.","filler"
"4155.800000000745","","","html-slider-response","456","3434768","0.0-24.0-1.0-0.20","37810","List1A","white","man","","","","","","","","survey_gender","100","","","Being my gender is an important part of how I see myself.","important"
"3059.699999999255","","","html-slider-response","457","3437831","0.0-24.0-1.0-0.21","37810","List1A","white","man","","","","","","","","survey_gender","100","","","Family is not more important to me than friendship.","filler"
"2943.5999999996275","","","html-slider-response","458","3440779","0.0-24.0-1.0-0.22","37810","List1A","white","man","","","","","","","","survey_gender","100","","","My friends understand me.","filler"
"3345.5","","","html-slider-response","459","3444127","0.0-24.0-1.0-0.23","37810","List1A","white","man","","","","","","","","survey_gender","100","","","I am similar to the average person of my gender.","similar"
"2836","","","html-slider-response","460","3446967","0.0-24.0-1.0-0.24","37810","List1A","white","man","","","","","","","","survey_gender","100","","","Most of the friends in my life are very similar to me.","filler"
"4126.0999999996275","","","html-slider-response","461","3451096","0.0-24.0-1.0-0.25","37810","List1A","white","man","","","","","","","","survey_gender","100","","","People of my gender have a lot in common with each other.","common"
"4448.10000000149","","","html-slider-response","462","3455551","0.0-24.0-1.0-0.26","37810","List1A","white","man","","","","","","","","survey_gender","100","","","It is pleasant to be my gender.","pleasant"
"3932","","","html-slider-response","463","3459487","0.0-24.0-1.0-0.27","37810","List1A","white","man","","","","","","","","survey_gender","100","","","I am glad to have the friends that I have.","filler"
"11107","","","survey-text","464","3470601","0.0-25.0","37810","List1A","white","man","","","","","{""Q0"":""613727fe6112503bffc070c5""}","","","worker_id","","","","",""
"4823","","","external-html","465","3477009","0.0-26.0","37810","List1A","white","man","debrief.html","","","","","","","","","","","",""
