"rt","stimulus","button_pressed","trial_type","trial_index","time_elapsed","internal_node_id","subject","list","ppt_race","ppt_gender","url","first_guess","correct","key_press","responses","image_type","phrase_type","test_part","response","stimulus1","stimulus2","question_type","survey_item"
"4499.699999809265","Welcome to the experiment. Press Continue to begin.","0","html-button-response","0","4502","0.0-0.0","38835","List2B","white","man","","","","","","","","","","","","",""
"25281.599999904633","","","external-html","1","31156","0.0-1.0","38835","List2B","white","man","consent.html","","","","","","","","","","","",""
"11095.799999952316","<p>On the next page, you will see portraits of 8 people and their names.</p><p>Your first task is to take a few minutes to memorise the names of these people.</p><p>You will have to recall their names during the rest of the experiment, so it is</p><p>essential that you try to memorise these people and their names as best as you can.</p><br><p><strong>You will then be tested on your memory of these names and portraits.</strong></p><br><p>The experiment will start after you have completed this memory test.</p><br><p>Ready?</p>","0","html-button-response","2","42252","0.0-2.0","38835","List2B","white","man","","","","","","","","","","","","",""
"150877","<img src='img/portrait_matrix_list2.jpg' style='width:900px;height:500px;''></img><p>If you have memorised all the portraits and names and are ready to start, press Continue.</p><p><strong>Please note: Your memory of these faces will be tested 4 times during this experiment.</strong></p>","0","html-button-response","3","194134","0.0-3.0-0.0","38835","List2B","white","man","","","","","","","","","","","","",""
"4458.900000095367","<img src=""portrait/BW2.jpg""style=""height:400px;""></img>","2","html-button-response","4","199607","0.0-3.0-1.0","38835","List2B","white","man","","true","2","","","","","","","","","",""
"null","CORRECT","","html-keyboard-response","5","201109","0.0-3.0-2.0-0.0","38835","List2B","white","man","","","","null","","","","","","","","",""
"4875.299999952316","<img src=""portrait/WW1.jpg""style=""height:400px;""></img>","1","html-button-response","6","205986","0.0-3.0-4.0","38835","List2B","white","man","","true","1","","","","","","","","","",""
"null","CORRECT","","html-keyboard-response","7","207502","0.0-3.0-5.0-0.0","38835","List2B","white","man","","","","null","","","","","","","","",""
"2610.7000000476837","<img src=""portrait/WM2.jpg""style=""height:400px;""></img>","7","html-button-response","8","210114","0.0-3.0-7.0","38835","List2B","white","man","","true","7","","","","","","","","","",""
"null","CORRECT","","html-keyboard-response","9","211636","0.0-3.0-8.0-0.0","38835","List2B","white","man","","","","null","","","","","","","","",""
"1942.5","<img src=""portrait/WW2.jpg""style=""height:400px;""></img>","3","html-button-response","10","213579","0.0-3.0-10.0","38835","List2B","white","man","","true","3","","","","","","","","","",""
"null","CORRECT","","html-keyboard-response","11","215106","0.0-3.0-11.0-0.0","38835","List2B","white","man","","","","null","","","","","","","","",""
"1939.7000000476837","<img src=""portrait/WM1.jpg""style=""height:400px;""></img>","6","html-button-response","12","217047","0.0-3.0-13.0","38835","List2B","white","man","","true","6","","","","","","","","","",""
"null","CORRECT","","html-keyboard-response","13","218561","0.0-3.0-14.0-0.0","38835","List2B","white","man","","","","null","","","","","","","","",""
"2435.0999999046326","<img src=""portrait/BW1.jpg""style=""height:400px;""></img>","0","html-button-response","14","220998","0.0-3.0-16.0","38835","List2B","white","man","","true","0","","","","","","","","","",""
"null","CORRECT","","html-keyboard-response","15","222510","0.0-3.0-17.0-0.0","38835","List2B","white","man","","","","null","","","","","","","","",""
"1930","<img src=""portrait/BM1.jpg""style=""height:400px;""></img>","4","html-button-response","16","224441","0.0-3.0-19.0","38835","List2B","white","man","","true","4","","","","","","","","","",""
"null","CORRECT","","html-keyboard-response","17","225943","0.0-3.0-20.0-0.0","38835","List2B","white","man","","","","null","","","","","","","","",""
"1248.5","<img src=""portrait/BM2.jpg""style=""height:400px;""></img>","5","html-button-response","18","227192","0.0-3.0-22.0","38835","List2B","white","man","","true","5","","","","","","","","","",""
"null","CORRECT","","html-keyboard-response","19","228701","0.0-3.0-23.0-0.0","38835","List2B","white","man","","","","null","","","","","","","","",""
"2772.7000000476837","<p>You got 8 out of 8 right first time. Press Continue.</p>","0","html-button-response","20","231474","0.0-3.0-25.0","38835","List2B","white","man","","","","","","","","","","","","",""
"27749.299999952316","<p>In this experiment, you will view photographs of the people from the memory game interacting.</p><p>By using the <strong>exact</strong> phrase given <i>after</i> the photograph appears and recalling the correct names of the people in the photographs, form a sentence describing the interaction. You do not need to capitalise names.</p><p>Type your answer in the space provided. Please complete every sentence before moving onto the next trial.</p><p>You will only have a few seconds to memorise each given photograph and phrase before you can respond, so try your best to focus.</p><p>An example is given below. Press 'Continue' when you are ready.</p><img src='img/speaking_example.jpg' style='width:800px;height:460px;''></img>","0","html-button-response","21","260240","0.0-4.0","38835","List2B","white","man","","","","","","","","","","","","",""
"2104.2000000476837","<p>Before the experiment starts, you will watch two example trials. Press 'Continue'.</p>","0","html-button-response","22","263346","0.0-5.0","38835","List2B","white","man","","","","","","","","","","","","",""
"null","<img src='img/play_eg.gif' style='height:400px;''></img>","","html-keyboard-response","23","266357","0.0-6.0","38835","List2B","white","man","","","","null","","","","","","","","",""
"null","<p>is playing with</p>","","html-keyboard-response","24","268363","0.0-7.0","38835","List2B","white","man","","","","null","","","","","","","","",""
"1365.7000000476837","<p><b>Answer:</b> jane is playing with ruth</p>","0","html-button-response","25","269729","0.0-8.0","38835","List2B","white","man","","","","","","","","","","","","",""
"null","<img src='img/dance_eg.gif' style='height:400px;''></img>","","html-keyboard-response","26","272735","0.0-9.0","38835","List2B","white","man","","","","null","","","","","","","","",""
"null","<p>is being entertained by</p>","","html-keyboard-response","27","274745","0.0-10.0","38835","List2B","white","man","","","","null","","","","","","","","",""
"2820.2999999523163","<p><b>Answer:</b> fred is being entertained by mike</p>","0","html-button-response","28","277566","0.0-11.0","38835","List2B","white","man","","","","","","","","","","","","",""
"6135.5","<p>Ready to start the experiment?</p><br><p><strong>Remember to describe the picture using a full sentence,</strong></p><p><strong>that combines the names of the people with the <i>exact</i> phrase given.</strong></p><p><strong>To receive full payment you must do this correctly.</strong></p><p><strong> You do not need to capitalise names or use punctuation.</strong></p><br><p>Press 'Continue' to begin.</p>","0","html-button-response","29","284707","0.0-12.0","38835","List2B","white","man","","","","","","","","","","","","",""
"null","<div style=""font-size:60px;"">+</div>","","html-keyboard-response","30","286235","0.0-13.0-0.0","38835","List2B","white","man","","","","null","","","","","","","","",""
"null","<img src=""stim_listB/seduce8.gif""style=""height:400px;""></stim_listB>","","html-keyboard-response","31","288243","0.0-13.0-1.0","38835","List2B","white","man","","","","null","","","","","","","","",""
"null","is being seduced by","","html-keyboard-response","32","290246","0.0-13.0-2.0","38835","List2B","white","man","","","","null","","","","","","","","",""
"20822.5","","","survey-text","33","311072","0.0-13.0-3.0","38835","List2B","white","man","","","","","{""Q0"":""jane is being seduced by kate""}","<img src=""stim_listB/seduce8.gif""style=""height:400px;""></stim_listB>","is being seduced by","","","","","",""
"null","<div style=""font-size:60px;"">+</div>","","html-keyboard-response","34","311577","0.0-13.0-0.1","38835","List2B","white","man","","","","null","","","","","","","","",""
"null","<img src=""stim_listB/kiss1.gif""style=""height:400px;""></stim_listB>","","html-keyboard-response","35","313582","0.0-13.0-1.1","38835","List2B","white","man","","","","null","","","","","","","","",""
"null","is kissing","","html-keyboard-response","36","315587","0.0-13.0-2.1","38835","List2B","white","man","","","","null","","","","","","","","",""
"5410.099999904633","","","survey-text","37","320999","0.0-13.0-3.1","38835","List2B","white","man","","","","","{""Q0"":""luke is kissing ruth""}","<img src=""stim_listB/kiss1.gif""style=""height:400px;""></stim_listB>","is kissing","","","","","",""
"null","<div style=""font-size:60px;"">+</div>","","html-keyboard-response","38","321507","0.0-13.0-0.2","38835","List2B","white","man","","","","null","","","","","","","","",""
"null","<img src=""stim_listB/kiss7.gif""style=""height:400px;""></stim_listB>","","html-keyboard-response","39","323511","0.0-13.0-1.2","38835","List2B","white","man","","","","null","","","","","","","","",""
"null","is kissing","","html-keyboard-response","40","325514","0.0-13.0-2.2","38835","List2B","white","man","","","","null","","","","","","","","",""
"6195.599999904633","","","survey-text","41","331711","0.0-13.0-3.2","38835","List2B","white","man","","","","","{""Q0"":""beth is kissing ruth""}","<img src=""stim_listB/kiss7.gif""style=""height:400px;""></stim_listB>","is kissing","","","","","",""
"null","<div style=""font-size:60px;"">+</div>","","html-keyboard-response","42","332216","0.0-13.0-0.3","38835","List2B","white","man","","","","null","","","","","","","","",""
"null","<img src=""stim_listB/touch5.gif""style=""height:400px;""></stim_listB>","","html-keyboard-response","43","334223","0.0-13.0-1.3","38835","List2B","white","man","","","","null","","","","","","","","",""
"null","is touching","","html-keyboard-response","44","336226","0.0-13.0-2.3","38835","List2B","white","man","","","","null","","","","","","","","",""
"6155.400000095367","","","survey-text","45","342383","0.0-13.0-3.3","38835","List2B","white","man","","","","","{""Q0"":""dave is touching mike""}","<img src=""stim_listB/touch5.gif""style=""height:400px;""></stim_listB>","is touching","","","","","",""
"null","<div style=""font-size:60px;"">+</div>","","html-keyboard-response","46","342885","0.0-13.0-0.4","38835","List2B","white","man","","","","null","","","","","","","","",""
"null","<img src=""stim_listB/look7.gif""style=""height:400px;""></stim_listB>","","html-keyboard-response","47","344886","0.0-13.0-1.4","38835","List2B","white","man","","","","null","","","","","","","","",""
"null","is looking at","","html-keyboard-response","48","346889","0.0-13.0-2.4","38835","List2B","white","man","","","","null","","","","","","","","",""
"5380.799999952316","","","survey-text","49","352271","0.0-13.0-3.4","38835","List2B","white","man","","","","","{""Q0"":""beth is looking at ruth""}","<img src=""stim_listB/look7.gif""style=""height:400px;""></stim_listB>","is looking at","","","","","",""
"null","<div style=""font-size:60px;"">+</div>","","html-keyboard-response","50","352787","0.0-13.0-0.5","38835","List2B","white","man","","","","null","","","","","","","","",""
"null","<img src=""stim_listB/look5.gif""style=""height:400px;""></stim_listB>","","html-keyboard-response","51","354789","0.0-13.0-1.5","38835","List2B","white","man","","","","null","","","","","","","","",""
"null","is looking at","","html-keyboard-response","52","356800","0.0-13.0-2.5","38835","List2B","white","man","","","","null","","","","","","","","",""
"4157.100000143051","","","survey-text","53","360959","0.0-13.0-3.5","38835","List2B","white","man","","","","","{""Q0"":""fred is looking at luke""}","<img src=""stim_listB/look5.gif""style=""height:400px;""></stim_listB>","is looking at","","","","","",""
"null","<div style=""font-size:60px;"">+</div>","","html-keyboard-response","54","361466","0.0-13.0-0.6","38835","List2B","white","man","","","","null","","","","","","","","",""
"null","<img src=""stim_listB/oppose3.gif""style=""height:400px;""></stim_listB>","","html-keyboard-response","55","363477","0.0-13.0-1.6","38835","List2B","white","man","","","","null","","","","","","","","",""
"null","is opposing","","html-keyboard-response","56","365484","0.0-13.0-2.6","38835","List2B","white","man","","","","null","","","","","","","","",""
"4481.200000047684","","","survey-text","57","369967","0.0-13.0-3.6","38835","List2B","white","man","","","","","{""Q0"":""mike is opposing kate""}","<img src=""stim_listB/oppose3.gif""style=""height:400px;""></stim_listB>","is opposing","","","","","",""
"null","<div style=""font-size:60px;"">+</div>","","html-keyboard-response","58","370481","0.0-13.0-0.7","38835","List2B","white","man","","","","null","","","","","","","","",""
"null","<img src=""stim_listB/hug2.gif""style=""height:400px;""></stim_listB>","","html-keyboard-response","59","372484","0.0-13.0-1.7","38835","List2B","white","man","","","","null","","","","","","","","",""
"null","is being hugged by","","html-keyboard-response","60","374486","0.0-13.0-2.7","38835","List2B","white","man","","","","null","","","","","","","","",""
"4279.099999904633","","","survey-text","61","378767","0.0-13.0-3.7","38835","List2B","white","man","","","","","{""Q0"":""jane is being hugged by dave""}","<img src=""stim_listB/hug2.gif""style=""height:400px;""></stim_listB>","is being hugged by","","","","","",""
"null","<div style=""font-size:60px;"">+</div>","","html-keyboard-response","62","379278","0.0-13.0-0.8","38835","List2B","white","man","","","","null","","","","","","","","",""
"null","<img src=""stim_listB/greet4.gif""style=""height:400px;""></stim_listB>","","html-keyboard-response","63","381281","0.0-13.0-1.8","38835","List2B","white","man","","","","null","","","","","","","","",""
"null","is being greeted by","","html-keyboard-response","64","383288","0.0-13.0-2.8","38835","List2B","white","man","","","","null","","","","","","","","",""
"7670.400000095367","","","survey-text","65","390959","0.0-13.0-3.8","38835","List2B","white","man","","","","","{""Q0"":""fred is being greeted by kate""}","<img src=""stim_listB/greet4.gif""style=""height:400px;""></stim_listB>","is being greeted by","","","","","",""
"null","<div style=""font-size:60px;"">+</div>","","html-keyboard-response","66","391462","0.0-13.0-0.9","38835","List2B","white","man","","","","null","","","","","","","","",""
"null","<img src=""stim_listB/greet7.gif""style=""height:400px;""></stim_listB>","","html-keyboard-response","67","393478","0.0-13.0-1.9","38835","List2B","white","man","","","","null","","","","","","","","",""
"null","is greeting","","html-keyboard-response","68","395482","0.0-13.0-2.9","38835","List2B","white","man","","","","null","","","","","","","","",""
"3779.7000000476837","","","survey-text","69","399263","0.0-13.0-3.9","38835","List2B","white","man","","","","","{""Q0"":""beth is greeting jane""}","<img src=""stim_listB/greet7.gif""style=""height:400px;""></stim_listB>","is greeting","","","","","",""
"null","<div style=""font-size:60px;"">+</div>","","html-keyboard-response","70","399769","0.0-13.0-0.10","38835","List2B","white","man","","","","null","","","","","","","","",""
"null","<img src=""stim_listB/oppose7.gif""style=""height:400px;""></stim_listB>","","html-keyboard-response","71","401781","0.0-13.0-1.10","38835","List2B","white","man","","","","null","","","","","","","","",""
"null","is opposing","","html-keyboard-response","72","403785","0.0-13.0-2.10","38835","List2B","white","man","","","","null","","","","","","","","",""
"3292.9000000953674","","","survey-text","73","407079","0.0-13.0-3.10","38835","List2B","white","man","","","","","{""Q0"":""jane is opposing kate""}","<img src=""stim_listB/oppose7.gif""style=""height:400px;""></stim_listB>","is opposing","","","","","",""
"null","<div style=""font-size:60px;"">+</div>","","html-keyboard-response","74","407593","0.0-13.0-0.11","38835","List2B","white","man","","","","null","","","","","","","","",""
"null","<img src=""stim_listB/touch7.gif""style=""height:400px;""></stim_listB>","","html-keyboard-response","75","409597","0.0-13.0-1.11","38835","List2B","white","man","","","","null","","","","","","","","",""
"null","is touching","","html-keyboard-response","76","411602","0.0-13.0-2.11","38835","List2B","white","man","","","","null","","","","","","","","",""
"2740.2999999523163","","","survey-text","77","414343","0.0-13.0-3.11","38835","List2B","white","man","","","","","{""Q0"":""kate is touching jane""}","<img src=""stim_listB/touch7.gif""style=""height:400px;""></stim_listB>","is touching","","","","","",""
"null","<div style=""font-size:60px;"">+</div>","","html-keyboard-response","78","414845","0.0-13.0-0.12","38835","List2B","white","man","","","","null","","","","","","","","",""
"null","<img src=""stim_listB/copy2.gif""style=""height:400px;""></stim_listB>","","html-keyboard-response","79","416860","0.0-13.0-1.12","38835","List2B","white","man","","","","null","","","","","","","","",""
"null","is being copied by","","html-keyboard-response","80","418863","0.0-13.0-2.12","38835","List2B","white","man","","","","null","","","","","","","","",""
"7502.600000143051","","","survey-text","81","426367","0.0-13.0-3.12","38835","List2B","white","man","","","","","{""Q0"":""luke is being copied by jane""}","<img src=""stim_listB/copy2.gif""style=""height:400px;""></stim_listB>","is being copied by","","","","","",""
"null","<div style=""font-size:60px;"">+</div>","","html-keyboard-response","82","426872","0.0-13.0-0.13","38835","List2B","white","man","","","","null","","","","","","","","",""
"null","<img src=""stim_listB/hug8.gif""style=""height:400px;""></stim_listB>","","html-keyboard-response","83","428875","0.0-13.0-1.13","38835","List2B","white","man","","","","null","","","","","","","","",""
"null","is being hugged by","","html-keyboard-response","84","430885","0.0-13.0-2.13","38835","List2B","white","man","","","","null","","","","","","","","",""
"4352.400000095367","","","survey-text","85","435239","0.0-13.0-3.13","38835","List2B","white","man","","","","","{""Q0"":""kate is being hugged by jane""}","<img src=""stim_listB/hug8.gif""style=""height:400px;""></stim_listB>","is being hugged by","","","","","",""
"null","<div style=""font-size:60px;"">+</div>","","html-keyboard-response","86","435747","0.0-13.0-0.14","38835","List2B","white","man","","","","null","","","","","","","","",""
"null","<img src=""stim_listB/seduce7.gif""style=""height:400px;""></stim_listB>","","html-keyboard-response","87","437750","0.0-13.0-1.14","38835","List2B","white","man","","","","null","","","","","","","","",""
"null","is seducing","","html-keyboard-response","88","439762","0.0-13.0-2.14","38835","List2B","white","man","","","","null","","","","","","","","",""
"3378.7000000476837","","","survey-text","89","443143","0.0-13.0-3.14","38835","List2B","white","man","","","","","{""Q0"":""jane is seducing ruth""}","<img src=""stim_listB/seduce7.gif""style=""height:400px;""></stim_listB>","is seducing","","","","","",""
"null","<div style=""font-size:60px;"">+</div>","","html-keyboard-response","90","443649","0.0-13.0-0.15","38835","List2B","white","man","","","","null","","","","","","","","",""
"null","<img src=""stim_listB/look2.gif""style=""height:400px;""></stim_listB>","","html-keyboard-response","91","445656","0.0-13.0-1.15","38835","List2B","white","man","","","","null","","","","","","","","",""
"null","is being looked at by","","html-keyboard-response","92","447672","0.0-13.0-2.15","38835","List2B","white","man","","","","null","","","","","","","","",""
"6749.100000143051","","","survey-text","93","454423","0.0-13.0-3.15","38835","List2B","white","man","","","","","{""Q0"":""dave is being looked at by jane""}","<img src=""stim_listB/look2.gif""style=""height:400px;""></stim_listB>","is being looked at by","","","","","",""
"null","<div style=""font-size:60px;"">+</div>","","html-keyboard-response","94","454932","0.0-13.0-0.16","38835","List2B","white","man","","","","null","","","","","","","","",""
"null","<img src=""stim_listB/touch1.gif""style=""height:400px;""></stim_listB>","","html-keyboard-response","95","456949","0.0-13.0-1.16","38835","List2B","white","man","","","","null","","","","","","","","",""
"null","is touching","","html-keyboard-response","96","458957","0.0-13.0-2.16","38835","List2B","white","man","","","","null","","","","","","","","",""
"2785.4000000953674","","","survey-text","97","461743","0.0-13.0-3.16","38835","List2B","white","man","","","","","{""Q0"":""jane is touching dave""}","<img src=""stim_listB/touch1.gif""style=""height:400px;""></stim_listB>","is touching","","","","","",""
"null","<div style=""font-size:60px;"">+</div>","","html-keyboard-response","98","462248","0.0-13.0-0.17","38835","List2B","white","man","","","","null","","","","","","","","",""
"null","<img src=""stim_listB/challenge2.gif""style=""height:400px;""></stim_listB>","","html-keyboard-response","99","464265","0.0-13.0-1.17","38835","List2B","white","man","","","","null","","","","","","","","",""
"null","is being challenged by","","html-keyboard-response","100","466271","0.0-13.0-2.17","38835","List2B","white","man","","","","null","","","","","","","","",""
"5526.100000143051","","","survey-text","101","471799","0.0-13.0-3.17","38835","List2B","white","man","","","","","{""Q0"":""jane is being challenged by luke""}","<img src=""stim_listB/challenge2.gif""style=""height:400px;""></stim_listB>","is being challenged by","","","","","",""
"null","<div style=""font-size:60px;"">+</div>","","html-keyboard-response","102","472312","0.0-13.0-0.18","38835","List2B","white","man","","","","null","","","","","","","","",""
"null","<img src=""stim_listB/seduce4.gif""style=""height:400px;""></stim_listB>","","html-keyboard-response","103","474314","0.0-13.0-1.18","38835","List2B","white","man","","","","null","","","","","","","","",""
"null","is being seduced by","","html-keyboard-response","104","476321","0.0-13.0-2.18","38835","List2B","white","man","","","","null","","","","","","","","",""
"5932.099999904633","","","survey-text","105","482254","0.0-13.0-3.18","38835","List2B","white","man","","","","","{""Q0"":""beth is being seduced by mike""}","<img src=""stim_listB/seduce4.gif""style=""height:400px;""></stim_listB>","is being seduced by","","","","","",""
"null","<div style=""font-size:60px;"">+</div>","","html-keyboard-response","106","482767","0.0-13.0-0.19","38835","List2B","white","man","","","","null","","","","","","","","",""
"null","<img src=""stim_listB/greet5.gif""style=""height:400px;""></stim_listB>","","html-keyboard-response","107","484784","0.0-13.0-1.19","38835","List2B","white","man","","","","null","","","","","","","","",""
"null","is greeting","","html-keyboard-response","108","486787","0.0-13.0-2.19","38835","List2B","white","man","","","","null","","","","","","","","",""
"3441","","","survey-text","109","490231","0.0-13.0-3.19","38835","List2B","white","man","","","","","{""Q0"":""dave is greeting fred""}","<img src=""stim_listB/greet5.gif""style=""height:400px;""></stim_listB>","is greeting","","","","","",""
"3502.5","<img src='img/portrait_matrix_list2.jpg' style='width:900px;height:500px;''></img><p>If you have memorised all the portraits and names and are ready to start, press Continue.</p><p><strong>Please note: Your memory of these faces will be tested 4 times during this experiment.</strong></p>","0","html-button-response","110","493734","0.0-14.0-0.0","38835","List2B","white","man","","","","","","","","","","","","",""
"1789.5999999046326","<img src=""portrait/BM1.jpg""style=""height:400px;""></img>","4","html-button-response","111","496527","0.0-14.0-1.0","38835","List2B","white","man","","true","4","","","","","","","","","",""
"null","CORRECT","","html-keyboard-response","112","498054","0.0-14.0-2.0-0.0","38835","List2B","white","man","","","","null","","","","","","","","",""
"2487.7000000476837","<img src=""portrait/WW1.jpg""style=""height:400px;""></img>","1","html-button-response","113","500543","0.0-14.0-4.0","38835","List2B","white","man","","true","1","","","","","","","","","",""
"null","CORRECT","","html-keyboard-response","114","502060","0.0-14.0-5.0-0.0","38835","List2B","white","man","","","","null","","","","","","","","",""
"1451","<img src=""portrait/BM2.jpg""style=""height:400px;""></img>","5","html-button-response","115","503512","0.0-14.0-7.0","38835","List2B","white","man","","true","5","","","","","","","","","",""
"null","CORRECT","","html-keyboard-response","116","505027","0.0-14.0-8.0-0.0","38835","List2B","white","man","","","","null","","","","","","","","",""
"1392.5999999046326","<img src=""portrait/WM2.jpg""style=""height:400px;""></img>","7","html-button-response","117","506420","0.0-14.0-10.0","38835","List2B","white","man","","true","7","","","","","","","","","",""
"null","CORRECT","","html-keyboard-response","118","507947","0.0-14.0-11.0-0.0","38835","List2B","white","man","","","","null","","","","","","","","",""
"2824.9000000953674","<img src=""portrait/BW2.jpg""style=""height:400px;""></img>","2","html-button-response","119","510773","0.0-14.0-13.0","38835","List2B","white","man","","true","2","","","","","","","","","",""
"null","CORRECT","","html-keyboard-response","120","512278","0.0-14.0-14.0-0.0","38835","List2B","white","man","","","","null","","","","","","","","",""
"1851.2999999523163","<img src=""portrait/WM1.jpg""style=""height:400px;""></img>","6","html-button-response","121","514130","0.0-14.0-16.0","38835","List2B","white","man","","true","6","","","","","","","","","",""
"null","CORRECT","","html-keyboard-response","122","515633","0.0-14.0-17.0-0.0","38835","List2B","white","man","","","","null","","","","","","","","",""
"1731.0999999046326","<img src=""portrait/WW2.jpg""style=""height:400px;""></img>","3","html-button-response","123","517365","0.0-14.0-19.0","38835","List2B","white","man","","true","3","","","","","","","","","",""
"null","CORRECT","","html-keyboard-response","124","518879","0.0-14.0-20.0-0.0","38835","List2B","white","man","","","","null","","","","","","","","",""
"1745.8999998569489","<img src=""portrait/BW1.jpg""style=""height:400px;""></img>","0","html-button-response","125","520626","0.0-14.0-22.0","38835","List2B","white","man","","true","0","","","","","","","","","",""
"null","CORRECT","","html-keyboard-response","126","522138","0.0-14.0-23.0-0.0","38835","List2B","white","man","","","","null","","","","","","","","",""
"1498.4000000953674","<p>You got 8 out of 8 right first time. Press Continue.</p>","0","html-button-response","127","523637","0.0-14.0-25.0","38835","List2B","white","man","","","","","","","","","","","","",""
"null","<div style=""font-size:60px;"">+</div>","","html-keyboard-response","128","525150","0.0-15.0-0.0","38835","List2B","white","man","","","","null","","","","","","","","",""
"null","<img src=""stim_listB/shout6.gif""style=""height:400px;""></stim_listB>","","html-keyboard-response","129","527168","0.0-15.0-1.0","38835","List2B","white","man","","","","null","","","","","","","","",""
"null","is being shouted at by","","html-keyboard-response","130","529174","0.0-15.0-2.0","38835","List2B","white","man","","","","null","","","","","","","","",""
"5471.299999952316","","","survey-text","131","534647","0.0-15.0-3.0","38835","List2B","white","man","","","","","{""Q0"":""dave is being shouted at by mike""}","<img src=""stim_listB/shout6.gif""style=""height:400px;""></stim_listB>","is being shouted at by","","","","","",""
"null","<div style=""font-size:60px;"">+</div>","","html-keyboard-response","132","535155","0.0-15.0-0.1","38835","List2B","white","man","","","","null","","","","","","","","",""
"null","<img src=""stim_listB/greet8.gif""style=""height:400px;""></stim_listB>","","html-keyboard-response","133","537157","0.0-15.0-1.1","38835","List2B","white","man","","","","null","","","","","","","","",""
"null","is being greeted by","","html-keyboard-response","134","539158","0.0-15.0-2.1","38835","List2B","white","man","","","","null","","","","","","","","",""
"6032","","","survey-text","135","545191","0.0-15.0-3.1","38835","List2B","white","man","","","","","{""Q0"":""kate is being greeted by ruth""}","<img src=""stim_listB/greet8.gif""style=""height:400px;""></stim_listB>","is being greeted by","","","","","",""
"null","<div style=""font-size:60px;"">+</div>","","html-keyboard-response","136","545696","0.0-15.0-0.2","38835","List2B","white","man","","","","null","","","","","","","","",""
"null","<img src=""stim_listB/challenge6.gif""style=""height:400px;""></stim_listB>","","html-keyboard-response","137","547704","0.0-15.0-1.2","38835","List2B","white","man","","","","null","","","","","","","","",""
"null","is being challenged by","","html-keyboard-response","138","549716","0.0-15.0-2.2","38835","List2B","white","man","","","","null","","","","","","","","",""
"5057.900000095367","","","survey-text","139","554775","0.0-15.0-3.2","38835","List2B","white","man","","","","","{""Q0"":""luke is being challenged by mike""}","<img src=""stim_listB/challenge6.gif""style=""height:400px;""></stim_listB>","is being challenged by","","","","","",""
"null","<div style=""font-size:60px;"">+</div>","","html-keyboard-response","140","555279","0.0-15.0-0.3","38835","List2B","white","man","","","","null","","","","","","","","",""
"null","<img src=""stim_listB/hug7.gif""style=""height:400px;""></stim_listB>","","html-keyboard-response","141","557281","0.0-15.0-1.3","38835","List2B","white","man","","","","null","","","","","","","","",""
"null","is hugging","","html-keyboard-response","142","559288","0.0-15.0-2.3","38835","List2B","white","man","","","","null","","","","","","","","",""
"3381.4000000953674","","","survey-text","143","562671","0.0-15.0-3.3","38835","List2B","white","man","","","","","{""Q0"":""beth is hugging ruth""}","<img src=""stim_listB/hug7.gif""style=""height:400px;""></stim_listB>","is hugging","","","","","",""
"null","<div style=""font-size:60px;"">+</div>","","html-keyboard-response","144","563185","0.0-15.0-0.4","38835","List2B","white","man","","","","null","","","","","","","","",""
"null","<img src=""stim_listB/seduce5.gif""style=""height:400px;""></stim_listB>","","html-keyboard-response","145","565188","0.0-15.0-1.4","38835","List2B","white","man","","","","null","","","","","","","","",""
"null","is seducing","","html-keyboard-response","146","567196","0.0-15.0-2.4","38835","List2B","white","man","","","","null","","","","","","","","",""
"4033.7999999523163","","","survey-text","147","571231","0.0-15.0-3.4","38835","List2B","white","man","","","","","{""Q0"":""mike is seducing luke""}","<img src=""stim_listB/seduce5.gif""style=""height:400px;""></stim_listB>","is seducing","","","","","",""
"null","<div style=""font-size:60px;"">+</div>","","html-keyboard-response","148","571743","0.0-15.0-0.5","38835","List2B","white","man","","","","null","","","","","","","","",""
"null","<img src=""stim_listB/hug5.gif""style=""height:400px;""></stim_listB>","","html-keyboard-response","149","573745","0.0-15.0-1.5","38835","List2B","white","man","","","","null","","","","","","","","",""
"null","is hugging","","html-keyboard-response","150","575751","0.0-15.0-2.5","38835","List2B","white","man","","","","null","","","","","","","","",""
"3406","","","survey-text","151","579159","0.0-15.0-3.5","38835","List2B","white","man","","","","","{""Q0"":""luke is hugging fred""}","<img src=""stim_listB/hug5.gif""style=""height:400px;""></stim_listB>","is hugging","","","","","",""
"null","<div style=""font-size:60px;"">+</div>","","html-keyboard-response","152","579672","0.0-15.0-0.6","38835","List2B","white","man","","","","null","","","","","","","","",""
"null","<img src=""stim_listB/challenge5.gif""style=""height:400px;""></stim_listB>","","html-keyboard-response","153","581674","0.0-15.0-1.6","38835","List2B","white","man","","","","null","","","","","","","","",""
"null","is challenging","","html-keyboard-response","154","583680","0.0-15.0-2.6","38835","List2B","white","man","","","","null","","","","","","","","",""
"3933.4000000953674","","","survey-text","155","587615","0.0-15.0-3.6","38835","List2B","white","man","","","","","{""Q0"":""dave is challenging fred""}","<img src=""stim_listB/challenge5.gif""style=""height:400px;""></stim_listB>","is challenging","","","","","",""
"null","<div style=""font-size:60px;"">+</div>","","html-keyboard-response","156","588118","0.0-15.0-0.7","38835","List2B","white","man","","","","null","","","","","","","","",""
"null","<img src=""stim_listB/oppose2.gif""style=""height:400px;""></stim_listB>","","html-keyboard-response","157","590122","0.0-15.0-1.7","38835","List2B","white","man","","","","null","","","","","","","","",""
"null","is being opposed by","","html-keyboard-response","158","592127","0.0-15.0-2.7","38835","List2B","white","man","","","","null","","","","","","","","",""
"5046","","","survey-text","159","597175","0.0-15.0-3.7","38835","List2B","white","man","","","","","{""Q0"":""luke is being opposed by ruth""}","<img src=""stim_listB/oppose2.gif""style=""height:400px;""></stim_listB>","is being opposed by","","","","","",""
"null","<div style=""font-size:60px;"">+</div>","","html-keyboard-response","160","597681","0.0-15.0-0.8","38835","List2B","white","man","","","","null","","","","","","","","",""
"null","<img src=""stim_listB/challenge8.gif""style=""height:400px;""></stim_listB>","","html-keyboard-response","161","599683","0.0-15.0-1.8","38835","List2B","white","man","","","","null","","","","","","","","",""
"null","is being challenged by","","html-keyboard-response","162","601695","0.0-15.0-2.8","38835","List2B","white","man","","","","null","","","","","","","","",""
"7175","","","survey-text","163","608871","0.0-15.0-3.8","38835","List2B","white","man","","","","","{""Q0"":""kate is being challenged by ruth""}","<img src=""stim_listB/challenge8.gif""style=""height:400px;""></stim_listB>","is being challenged by","","","","","",""
"null","<div style=""font-size:60px;"">+</div>","","html-keyboard-response","164","609384","0.0-15.0-0.9","38835","List2B","white","man","","","","null","","","","","","","","",""
"null","<img src=""stim_listB/oppose8.gif""style=""height:400px;""></stim_listB>","","html-keyboard-response","165","611389","0.0-15.0-1.9","38835","List2B","white","man","","","","null","","","","","","","","",""
"null","is being opposed by","","html-keyboard-response","166","613394","0.0-15.0-2.9","38835","List2B","white","man","","","","null","","","","","","","","",""
"5298.700000047684","","","survey-text","167","618695","0.0-15.0-3.9","38835","List2B","white","man","","","","","{""Q0"":""beth is being opposed by ruth""}","<img src=""stim_listB/oppose8.gif""style=""height:400px;""></stim_listB>","is being opposed by","","","","","",""
"null","<div style=""font-size:60px;"">+</div>","","html-keyboard-response","168","619211","0.0-15.0-0.10","38835","List2B","white","man","","","","null","","","","","","","","",""
"null","<img src=""stim_listB/touch6.gif""style=""height:400px;""></stim_listB>","","html-keyboard-response","169","621213","0.0-15.0-1.10","38835","List2B","white","man","","","","null","","","","","","","","",""
"null","is being touched by","","html-keyboard-response","170","623221","0.0-15.0-2.10","38835","List2B","white","man","","","","null","","","","","","","","",""
"6320.600000143051","","","survey-text","171","629543","0.0-15.0-3.10","38835","List2B","white","man","","","","","{""Q0"":""fred is being touched by luke""}","<img src=""stim_listB/touch6.gif""style=""height:400px;""></stim_listB>","is being touched by","","","","","",""
"null","<div style=""font-size:60px;"">+</div>","","html-keyboard-response","172","630049","0.0-15.0-0.11","38835","List2B","white","man","","","","null","","","","","","","","",""
"null","<img src=""stim_listB/touch4.gif""style=""height:400px;""></stim_listB>","","html-keyboard-response","173","632050","0.0-15.0-1.11","38835","List2B","white","man","","","","null","","","","","","","","",""
"null","is being touched by","","html-keyboard-response","174","634060","0.0-15.0-2.11","38835","List2B","white","man","","","","null","","","","","","","","",""
"4465.799999952316","","","survey-text","175","638528","0.0-15.0-3.11","38835","List2B","white","man","","","","","{""Q0"":""fred is being touched by beth""}","<img src=""stim_listB/touch4.gif""style=""height:400px;""></stim_listB>","is being touched by","","","","","",""
"null","<div style=""font-size:60px;"">+</div>","","html-keyboard-response","176","639035","0.0-15.0-0.12","38835","List2B","white","man","","","","null","","","","","","","","",""
"null","<img src=""stim_listB/look4.gif""style=""height:400px;""></stim_listB>","","html-keyboard-response","177","641037","0.0-15.0-1.12","38835","List2B","white","man","","","","null","","","","","","","","",""
"null","is being looked at by","","html-keyboard-response","178","643045","0.0-15.0-2.12","38835","List2B","white","man","","","","null","","","","","","","","",""
"5609.099999904633","","","survey-text","179","648655","0.0-15.0-3.12","38835","List2B","white","man","","","","","{""Q0"":""kate is being looked at by mike""}","<img src=""stim_listB/look4.gif""style=""height:400px;""></stim_listB>","is being looked at by","","","","","",""
"null","<div style=""font-size:60px;"">+</div>","","html-keyboard-response","180","649170","0.0-15.0-0.13","38835","List2B","white","man","","","","null","","","","","","","","",""
"null","<img src=""stim_listB/shout7.gif""style=""height:400px;""></stim_listB>","","html-keyboard-response","181","651181","0.0-15.0-1.13","38835","List2B","white","man","","","","null","","","","","","","","",""
"null","is shouting at","","html-keyboard-response","182","653187","0.0-15.0-2.13","38835","List2B","white","man","","","","null","","","","","","","","",""
"5434.5","","","survey-text","183","658624","0.0-15.0-3.13","38835","List2B","white","man","","","","","{""Q0"":""beth is shouting at ruth""}","<img src=""stim_listB/shout7.gif""style=""height:400px;""></stim_listB>","is shouting at","","","","","",""
"null","<div style=""font-size:60px;"">+</div>","","html-keyboard-response","184","659133","0.0-15.0-0.14","38835","List2B","white","man","","","","null","","","","","","","","",""
"null","<img src=""stim_listB/look6.gif""style=""height:400px;""></stim_listB>","","html-keyboard-response","185","661136","0.0-15.0-1.14","38835","List2B","white","man","","","","null","","","","","","","","",""
"null","is being looked at by","","html-keyboard-response","186","663145","0.0-15.0-2.14","38835","List2B","white","man","","","","null","","","","","","","","",""
"4924.800000190735","","","survey-text","187","668071","0.0-15.0-3.14","38835","List2B","white","man","","","","","{""Q0"":""mike is being looked at by dave""}","<img src=""stim_listB/look6.gif""style=""height:400px;""></stim_listB>","is being looked at by","","","","","",""
"null","<div style=""font-size:60px;"">+</div>","","html-keyboard-response","188","668580","0.0-15.0-0.15","38835","List2B","white","man","","","","null","","","","","","","","",""
"null","<img src=""stim_listB/oppose5.gif""style=""height:400px;""></stim_listB>","","html-keyboard-response","189","670584","0.0-15.0-1.15","38835","List2B","white","man","","","","null","","","","","","","","",""
"null","is opposing","","html-keyboard-response","190","672592","0.0-15.0-2.15","38835","List2B","white","man","","","","null","","","","","","","","",""
"3286","","","survey-text","191","675880","0.0-15.0-3.15","38835","List2B","white","man","","","","","{""Q0"":""dave is opposing mike""}","<img src=""stim_listB/oppose5.gif""style=""height:400px;""></stim_listB>","is opposing","","","","","",""
"null","<div style=""font-size:60px;"">+</div>","","html-keyboard-response","192","676383","0.0-15.0-0.16","38835","List2B","white","man","","","","null","","","","","","","","",""
"null","<img src=""stim_listB/hug1.gif""style=""height:400px;""></stim_listB>","","html-keyboard-response","193","678384","0.0-15.0-1.16","38835","List2B","white","man","","","","null","","","","","","","","",""
"null","is hugging","","html-keyboard-response","194","680396","0.0-15.0-2.16","38835","List2B","white","man","","","","null","","","","","","","","",""
"3777.5","","","survey-text","195","684175","0.0-15.0-3.16","38835","List2B","white","man","","","","","{""Q0"":""luke is hugging ruth""}","<img src=""stim_listB/hug1.gif""style=""height:400px;""></stim_listB>","is hugging","","","","","",""
"null","<div style=""font-size:60px;"">+</div>","","html-keyboard-response","196","684679","0.0-15.0-0.17","38835","List2B","white","man","","","","null","","","","","","","","",""
"null","<img src=""stim_listB/shout5.gif""style=""height:400px;""></stim_listB>","","html-keyboard-response","197","686686","0.0-15.0-1.17","38835","List2B","white","man","","","","null","","","","","","","","",""
"null","is shouting at","","html-keyboard-response","198","688691","0.0-15.0-2.17","38835","List2B","white","man","","","","null","","","","","","","","",""
"3682.5","","","survey-text","199","692376","0.0-15.0-3.17","38835","List2B","white","man","","","","","{""Q0"":""luke is shouting at fred""}","<img src=""stim_listB/shout5.gif""style=""height:400px;""></stim_listB>","is shouting at","","","","","",""
"null","<div style=""font-size:60px;"">+</div>","","html-keyboard-response","200","692891","0.0-15.0-0.18","38835","List2B","white","man","","","","null","","","","","","","","",""
"null","<img src=""stim_listB/seduce3.gif""style=""height:400px;""></stim_listB>","","html-keyboard-response","201","694898","0.0-15.0-1.18","38835","List2B","white","man","","","","null","","","","","","","","",""
"null","is seducing","","html-keyboard-response","202","696900","0.0-15.0-2.18","38835","List2B","white","man","","","","null","","","","","","","","",""
"3834","","","survey-text","203","700736","0.0-15.0-3.18","38835","List2B","white","man","","","","","{""Q0"":""fred is seducing kate""}","<img src=""stim_listB/seduce3.gif""style=""height:400px;""></stim_listB>","is seducing","","","","","",""
"null","<div style=""font-size:60px;"">+</div>","","html-keyboard-response","204","701241","0.0-15.0-0.19","38835","List2B","white","man","","","","null","","","","","","","","",""
"null","<img src=""stim_listB/kiss4.gif""style=""height:400px;""></stim_listB>","","html-keyboard-response","205","703249","0.0-15.0-1.19","38835","List2B","white","man","","","","null","","","","","","","","",""
"null","is being kissed by","","html-keyboard-response","206","705255","0.0-15.0-2.19","38835","List2B","white","man","","","","null","","","","","","","","",""
"4830.5","","","survey-text","207","710088","0.0-15.0-3.19","38835","List2B","white","man","","","","","{""Q0"":""kate is being kissed by mike""}","<img src=""stim_listB/kiss4.gif""style=""height:400px;""></stim_listB>","is being kissed by","","","","","",""
"2653.0999999046326","<img src='img/portrait_matrix_list2.jpg' style='width:900px;height:500px;''></img><p>If you have memorised all the portraits and names and are ready to start, press Continue.</p><p><strong>Please note: Your memory of these faces will be tested 4 times during this experiment.</strong></p>","0","html-button-response","208","712741","0.0-16.0-0.0","38835","List2B","white","man","","","","","","","","","","","","",""
"1552","<img src=""portrait/WM2.jpg""style=""height:400px;""></img>","7","html-button-response","209","715302","0.0-16.0-1.0","38835","List2B","white","man","","true","7","","","","","","","","","",""
"null","CORRECT","","html-keyboard-response","210","716819","0.0-16.0-2.0-0.0","38835","List2B","white","man","","","","null","","","","","","","","",""
"1997.9000000953674","<img src=""portrait/WW1.jpg""style=""height:400px;""></img>","1","html-button-response","211","718818","0.0-16.0-4.0","38835","List2B","white","man","","true","1","","","","","","","","","",""
"null","CORRECT","","html-keyboard-response","212","720334","0.0-16.0-5.0-0.0","38835","List2B","white","man","","","","null","","","","","","","","",""
"1320.8000001907349","<img src=""portrait/BW1.jpg""style=""height:400px;""></img>","0","html-button-response","213","721656","0.0-16.0-7.0","38835","List2B","white","man","","true","0","","","","","","","","","",""
"null","CORRECT","","html-keyboard-response","214","723186","0.0-16.0-8.0-0.0","38835","List2B","white","man","","","","null","","","","","","","","",""
"1131.8000001907349","<img src=""portrait/WM1.jpg""style=""height:400px;""></img>","6","html-button-response","215","724318","0.0-16.0-10.0","38835","List2B","white","man","","true","6","","","","","","","","","",""
"null","CORRECT","","html-keyboard-response","216","725843","0.0-16.0-11.0-0.0","38835","List2B","white","man","","","","null","","","","","","","","",""
"1254.5","<img src=""portrait/BM2.jpg""style=""height:400px;""></img>","5","html-button-response","217","727098","0.0-16.0-13.0","38835","List2B","white","man","","true","5","","","","","","","","","",""
"null","CORRECT","","html-keyboard-response","218","728605","0.0-16.0-14.0-0.0","38835","List2B","white","man","","","","null","","","","","","","","",""
"1408.7000000476837","<img src=""portrait/WW2.jpg""style=""height:400px;""></img>","3","html-button-response","219","730014","0.0-16.0-16.0","38835","List2B","white","man","","true","3","","","","","","","","","",""
"null","CORRECT","","html-keyboard-response","220","731529","0.0-16.0-17.0-0.0","38835","List2B","white","man","","","","null","","","","","","","","",""
"1799.0999999046326","<img src=""portrait/BM1.jpg""style=""height:400px;""></img>","4","html-button-response","221","733330","0.0-16.0-19.0","38835","List2B","white","man","","true","4","","","","","","","","","",""
"null","CORRECT","","html-keyboard-response","222","734851","0.0-16.0-20.0-0.0","38835","List2B","white","man","","","","null","","","","","","","","",""
"1425.6000001430511","<img src=""portrait/BW2.jpg""style=""height:400px;""></img>","2","html-button-response","223","736277","0.0-16.0-22.0","38835","List2B","white","man","","true","2","","","","","","","","","",""
"null","CORRECT","","html-keyboard-response","224","737800","0.0-16.0-23.0-0.0","38835","List2B","white","man","","","","null","","","","","","","","",""
"57559.299999952316","<p>You got 8 out of 8 right first time. Press Continue.</p>","0","html-button-response","225","795361","0.0-16.0-25.0","38835","List2B","white","man","","","","","","","","","","","","",""
"null","<div style=""font-size:60px;"">+</div>","","html-keyboard-response","226","796875","0.0-17.0-0.0","38835","List2B","white","man","","","","null","","","","","","","","",""
"null","<img src=""stim_listB/kiss8.gif""style=""height:400px;""></stim_listB>","","html-keyboard-response","227","798882","0.0-17.0-1.0","38835","List2B","white","man","","","","null","","","","","","","","",""
"null","is being kissed by","","html-keyboard-response","228","800888","0.0-17.0-2.0","38835","List2B","white","man","","","","null","","","","","","","","",""
"4182.299999952316","","","survey-text","229","805072","0.0-17.0-3.0","38835","List2B","white","man","","","","","{""Q0"":""kate is being kissed by jane""}","<img src=""stim_listB/kiss8.gif""style=""height:400px;""></stim_listB>","is being kissed by","","","","","",""
"null","<div style=""font-size:60px;"">+</div>","","html-keyboard-response","230","805583","0.0-17.0-0.1","38835","List2B","white","man","","","","null","","","","","","","","",""
"null","<img src=""stim_listB/copy7.gif""style=""height:400px;""></stim_listB>","","html-keyboard-response","231","807588","0.0-17.0-1.1","38835","List2B","white","man","","","","null","","","","","","","","",""
"null","is copying","","html-keyboard-response","232","809590","0.0-17.0-2.1","38835","List2B","white","man","","","","null","","","","","","","","",""
"6552.100000143051","","","survey-text","233","816143","0.0-17.0-3.1","38835","List2B","white","man","","","","","{""Q0"":""jane is copying beth""}","<img src=""stim_listB/copy7.gif""style=""height:400px;""></stim_listB>","is copying","","","","","",""
"null","<div style=""font-size:60px;"">+</div>","","html-keyboard-response","234","816644","0.0-17.0-0.2","38835","List2B","white","man","","","","null","","","","","","","","",""
"null","<img src=""stim_listB/kiss2.gif""style=""height:400px;""></stim_listB>","","html-keyboard-response","235","818648","0.0-17.0-1.2","38835","List2B","white","man","","","","null","","","","","","","","",""
"null","is being kissed by","","html-keyboard-response","236","820650","0.0-17.0-2.2","38835","List2B","white","man","","","","null","","","","","","","","",""
"4852.400000095367","","","survey-text","237","825503","0.0-17.0-3.2","38835","List2B","white","man","","","","","{""Q0"":""dave is being kissed by jane""}","<img src=""stim_listB/kiss2.gif""style=""height:400px;""></stim_listB>","is being kissed by","","","","","",""
"null","<div style=""font-size:60px;"">+</div>","","html-keyboard-response","238","826010","0.0-17.0-0.3","38835","List2B","white","man","","","","null","","","","","","","","",""
"null","<img src=""stim_listB/kiss6.gif""style=""height:400px;""></stim_listB>","","html-keyboard-response","239","828021","0.0-17.0-1.3","38835","List2B","white","man","","","","null","","","","","","","","",""
"null","is being kissed by","","html-keyboard-response","240","830036","0.0-17.0-2.3","38835","List2B","white","man","","","","null","","","","","","","","",""
"4641.900000095367","","","survey-text","241","834679","0.0-17.0-3.3","38835","List2B","white","man","","","","","{""Q0"":""dave is being kissed by mike""}","<img src=""stim_listB/kiss6.gif""style=""height:400px;""></stim_listB>","is being kissed by","","","","","",""
"null","<div style=""font-size:60px;"">+</div>","","html-keyboard-response","242","835185","0.0-17.0-0.4","38835","List2B","white","man","","","","null","","","","","","","","",""
"null","<img src=""stim_listB/copy4.gif""style=""height:400px;""></stim_listB>","","html-keyboard-response","243","837191","0.0-17.0-1.4","38835","List2B","white","man","","","","null","","","","","","","","",""
"null","is being copied by","","html-keyboard-response","244","839198","0.0-17.0-2.4","38835","List2B","white","man","","","","null","","","","","","","","",""
"4215.5","","","survey-text","245","843415","0.0-17.0-3.4","38835","List2B","white","man","","","","","{""Q0"":""fred is being copied by kate""}","<img src=""stim_listB/copy4.gif""style=""height:400px;""></stim_listB>","is being copied by","","","","","",""
"null","<div style=""font-size:60px;"">+</div>","","html-keyboard-response","246","843918","0.0-17.0-0.5","38835","List2B","white","man","","","","null","","","","","","","","",""
"null","<img src=""stim_listB/copy3.gif""style=""height:400px;""></stim_listB>","","html-keyboard-response","247","845920","0.0-17.0-1.5","38835","List2B","white","man","","","","null","","","","","","","","",""
"null","is copying","","html-keyboard-response","248","847926","0.0-17.0-2.5","38835","List2B","white","man","","","","null","","","","","","","","",""
"22919.799999952316","","","survey-text","249","870848","0.0-17.0-3.5","38835","List2B","white","man","","","","","{""Q0"":""mike is copying beth""}","<img src=""stim_listB/copy3.gif""style=""height:400px;""></stim_listB>","is copying","","","","","",""
"null","<div style=""font-size:60px;"">+</div>","","html-keyboard-response","250","871356","0.0-17.0-0.6","38835","List2B","white","man","","","","null","","","","","","","","",""
"null","<img src=""stim_listB/look1.gif""style=""height:400px;""></stim_listB>","","html-keyboard-response","251","873366","0.0-17.0-1.6","38835","List2B","white","man","","","","null","","","","","","","","",""
"null","is looking at","","html-keyboard-response","252","875371","0.0-17.0-2.6","38835","List2B","white","man","","","","null","","","","","","","","",""
"3347.5","","","survey-text","253","878720","0.0-17.0-3.6","38835","List2B","white","man","","","","","{""Q0"":""ruth is looking at luke""}","<img src=""stim_listB/look1.gif""style=""height:400px;""></stim_listB>","is looking at","","","","","",""
"null","<div style=""font-size:60px;"">+</div>","","html-keyboard-response","254","879234","0.0-17.0-0.7","38835","List2B","white","man","","","","null","","","","","","","","",""
"null","<img src=""stim_listB/seduce6.gif""style=""height:400px;""></stim_listB>","","html-keyboard-response","255","881235","0.0-17.0-1.7","38835","List2B","white","man","","","","null","","","","","","","","",""
"null","is being seduced by","","html-keyboard-response","256","883249","0.0-17.0-2.7","38835","List2B","white","man","","","","null","","","","","","","","",""
"6765.799999952316","","","survey-text","257","890016","0.0-17.0-3.7","38835","List2B","white","man","","","","","{""Q0"":""luke is being seduced by ruth""}","<img src=""stim_listB/seduce6.gif""style=""height:400px;""></stim_listB>","is being seduced by","","","","","",""
"null","<div style=""font-size:60px;"">+</div>","","html-keyboard-response","258","890523","0.0-17.0-0.8","38835","List2B","white","man","","","","null","","","","","","","","",""
"null","<img src=""stim_listB/copy1.gif""style=""height:400px;""></stim_listB>","","html-keyboard-response","259","892532","0.0-17.0-1.8","38835","List2B","white","man","","","","null","","","","","","","","",""
"null","is copying","","html-keyboard-response","260","894536","0.0-17.0-2.8","38835","List2B","white","man","","","","null","","","","","","","","",""
"2869.600000143051","","","survey-text","261","897408","0.0-17.0-3.8","38835","List2B","white","man","","","","","{""Q0"":""ruth is copying dave""}","<img src=""stim_listB/copy1.gif""style=""height:400px;""></stim_listB>","is copying","","","","","",""
"null","<div style=""font-size:60px;"">+</div>","","html-keyboard-response","262","897921","0.0-17.0-0.9","38835","List2B","white","man","","","","null","","","","","","","","",""
"null","<img src=""stim_listB/greet6.gif""style=""height:400px;""></stim_listB>","","html-keyboard-response","263","899923","0.0-17.0-1.9","38835","List2B","white","man","","","","null","","","","","","","","",""
"null","is being greeted by","","html-keyboard-response","264","901924","0.0-17.0-2.9","38835","List2B","white","man","","","","null","","","","","","","","",""
"4313.899999856949","","","survey-text","265","906240","0.0-17.0-3.9","38835","List2B","white","man","","","","","{""Q0"":""mike is being greeted by luke""}","<img src=""stim_listB/greet6.gif""style=""height:400px;""></stim_listB>","is being greeted by","","","","","",""
"null","<div style=""font-size:60px;"">+</div>","","html-keyboard-response","266","906755","0.0-17.0-0.10","38835","List2B","white","man","","","","null","","","","","","","","",""
"null","<img src=""stim_listB/copy6.gif""style=""height:400px;""></stim_listB>","","html-keyboard-response","267","908756","0.0-17.0-1.10","38835","List2B","white","man","","","","null","","","","","","","","",""
"null","is being copied by","","html-keyboard-response","268","910762","0.0-17.0-2.10","38835","List2B","white","man","","","","null","","","","","","","","",""
"4076.4000000953674","","","survey-text","269","914840","0.0-17.0-3.10","38835","List2B","white","man","","","","","{""Q0"":""mike is being copied by luke""}","<img src=""stim_listB/copy6.gif""style=""height:400px;""></stim_listB>","is being copied by","","","","","",""
"null","<div style=""font-size:60px;"">+</div>","","html-keyboard-response","270","915341","0.0-17.0-0.11","38835","List2B","white","man","","","","null","","","","","","","","",""
"null","<img src=""stim_listB/greet2.gif""style=""height:400px;""></stim_listB>","","html-keyboard-response","271","917342","0.0-17.0-1.11","38835","List2B","white","man","","","","null","","","","","","","","",""
"null","is being greeted by","","html-keyboard-response","272","919346","0.0-17.0-2.11","38835","List2B","white","man","","","","null","","","","","","","","",""
"6691.899999856949","","","survey-text","273","926039","0.0-17.0-3.11","38835","List2B","white","man","","","","","{""Q0"":""jane is being greeted by luke""}","<img src=""stim_listB/greet2.gif""style=""height:400px;""></stim_listB>","is being greeted by","","","","","",""
"null","<div style=""font-size:60px;"">+</div>","","html-keyboard-response","274","926551","0.0-17.0-0.12","38835","List2B","white","man","","","","null","","","","","","","","",""
"null","<img src=""stim_listB/hug4.gif""style=""height:400px;""></stim_listB>","","html-keyboard-response","275","928555","0.0-17.0-1.12","38835","List2B","white","man","","","","null","","","","","","","","",""
"null","is being hugged by","","html-keyboard-response","276","930558","0.0-17.0-2.12","38835","List2B","white","man","","","","null","","","","","","","","",""
"4223.200000047684","","","survey-text","277","934783","0.0-17.0-3.12","38835","List2B","white","man","","","","","{""Q0"":""kate is being hugged by mike""}","<img src=""stim_listB/hug4.gif""style=""height:400px;""></stim_listB>","is being hugged by","","","","","",""
"null","<div style=""font-size:60px;"">+</div>","","html-keyboard-response","278","935294","0.0-17.0-0.13","38835","List2B","white","man","","","","null","","","","","","","","",""
"null","<img src=""stim_listB/shout1.gif""style=""height:400px;""></stim_listB>","","html-keyboard-response","279","937307","0.0-17.0-1.13","38835","List2B","white","man","","","","null","","","","","","","","",""
"null","is shouting at","","html-keyboard-response","280","939311","0.0-17.0-2.13","38835","List2B","white","man","","","","null","","","","","","","","",""
"3934.2999999523163","","","survey-text","281","943247","0.0-17.0-3.13","38835","List2B","white","man","","","","","{""Q0"":""luke is shouting at ruth""}","<img src=""stim_listB/shout1.gif""style=""height:400px;""></stim_listB>","is shouting at","","","","","",""
"null","<div style=""font-size:60px;"">+</div>","","html-keyboard-response","282","943756","0.0-17.0-0.14","38835","List2B","white","man","","","","null","","","","","","","","",""
"null","<img src=""stim_listB/copy5.gif""style=""height:400px;""></stim_listB>","","html-keyboard-response","283","945772","0.0-17.0-1.14","38835","List2B","white","man","","","","null","","","","","","","","",""
"null","is copying","","html-keyboard-response","284","947778","0.0-17.0-2.14","38835","List2B","white","man","","","","null","","","","","","","","",""
"2939.2000000476837","","","survey-text","285","950719","0.0-17.0-3.14","38835","List2B","white","man","","","","","{""Q0"":""fred is copying dave""}","<img src=""stim_listB/copy5.gif""style=""height:400px;""></stim_listB>","is copying","","","","","",""
"null","<div style=""font-size:60px;"">+</div>","","html-keyboard-response","286","951229","0.0-17.0-0.15","38835","List2B","white","man","","","","null","","","","","","","","",""
"null","<img src=""stim_listB/challenge1.gif""style=""height:400px;""></stim_listB>","","html-keyboard-response","287","953231","0.0-17.0-1.15","38835","List2B","white","man","","","","null","","","","","","","","",""
"null","is challenging","","html-keyboard-response","288","955233","0.0-17.0-2.15","38835","List2B","white","man","","","","null","","","","","","","","",""
"3380.5","","","survey-text","289","958615","0.0-17.0-3.15","38835","List2B","white","man","","","","","{""Q0"":""dave is challenging ruth""}","<img src=""stim_listB/challenge1.gif""style=""height:400px;""></stim_listB>","is challenging","","","","","",""
"null","<div style=""font-size:60px;"">+</div>","","html-keyboard-response","290","959128","0.0-17.0-0.16","38835","List2B","white","man","","","","null","","","","","","","","",""
"null","<img src=""stim_listB/kiss5.gif""style=""height:400px;""></stim_listB>","","html-keyboard-response","291","961130","0.0-17.0-1.16","38835","List2B","white","man","","","","null","","","","","","","","",""
"null","is kissing","","html-keyboard-response","292","963136","0.0-17.0-2.16","38835","List2B","white","man","","","","null","","","","","","","","",""
"4238","","","survey-text","293","967375","0.0-17.0-3.16","38835","List2B","white","man","","","","","{""Q0"":""luke is kissing fred""}","<img src=""stim_listB/kiss5.gif""style=""height:400px;""></stim_listB>","is kissing","","","","","",""
"null","<div style=""font-size:60px;"">+</div>","","html-keyboard-response","294","967890","0.0-17.0-0.17","38835","List2B","white","man","","","","null","","","","","","","","",""
"null","<img src=""stim_listB/shout3.gif""style=""height:400px;""></stim_listB>","","html-keyboard-response","295","969906","0.0-17.0-1.17","38835","List2B","white","man","","","","null","","","","","","","","",""
"null","is shouting at","","html-keyboard-response","296","971923","0.0-17.0-2.17","38835","List2B","white","man","","","","null","","","","","","","","",""
"3714.7999999523163","","","survey-text","297","975640","0.0-17.0-3.17","38835","List2B","white","man","","","","","{""Q0"":""fred is shouting at beth""}","<img src=""stim_listB/shout3.gif""style=""height:400px;""></stim_listB>","is shouting at","","","","","",""
"null","<div style=""font-size:60px;"">+</div>","","html-keyboard-response","298","976154","0.0-17.0-0.18","38835","List2B","white","man","","","","null","","","","","","","","",""
"null","<img src=""stim_listB/touch2.gif""style=""height:400px;""></stim_listB>","","html-keyboard-response","299","978165","0.0-17.0-1.18","38835","List2B","white","man","","","","null","","","","","","","","",""
"null","is being touched by","","html-keyboard-response","300","980169","0.0-17.0-2.18","38835","List2B","white","man","","","","null","","","","","","","","",""
"6845.900000095367","","","survey-text","301","987016","0.0-17.0-3.18","38835","List2B","white","man","","","","","{""Q0"":""luke is being touched by ruth""}","<img src=""stim_listB/touch2.gif""style=""height:400px;""></stim_listB>","is being touched by","","","","","",""
"null","<div style=""font-size:60px;"">+</div>","","html-keyboard-response","302","987519","0.0-17.0-0.19","38835","List2B","white","man","","","","null","","","","","","","","",""
"null","<img src=""stim_listB/shout4.gif""style=""height:400px;""></stim_listB>","","html-keyboard-response","303","989527","0.0-17.0-1.19","38835","List2B","white","man","","","","null","","","","","","","","",""
"null","is being shouted at by","","html-keyboard-response","304","991530","0.0-17.0-2.19","38835","List2B","white","man","","","","null","","","","","","","","",""
"4756.600000143051","","","survey-text","305","996288","0.0-17.0-3.19","38835","List2B","white","man","","","","","{""Q0"":""kate is being shouted at by mike""}","<img src=""stim_listB/shout4.gif""style=""height:400px;""></stim_listB>","is being shouted at by","","","","","",""
"3710.399999856949","<img src='img/portrait_matrix_list2.jpg' style='width:900px;height:500px;''></img><p>If you have memorised all the portraits and names and are ready to start, press Continue.</p><p><strong>Please note: Your memory of these faces will be tested 4 times during this experiment.</strong></p>","0","html-button-response","306","1000000","0.0-18.0-0.0","38835","List2B","white","man","","","","","","","","","","","","",""
"1890.4000000953674","<img src=""portrait/BM2.jpg""style=""height:400px;""></img>","5","html-button-response","307","1002891","0.0-18.0-1.0","38835","List2B","white","man","","true","5","","","","","","","","","",""
"null","CORRECT","","html-keyboard-response","308","1004408","0.0-18.0-2.0-0.0","38835","List2B","white","man","","","","null","","","","","","","","",""
"1509","<img src=""portrait/BW1.jpg""style=""height:400px;""></img>","0","html-button-response","309","1005917","0.0-18.0-4.0","38835","List2B","white","man","","true","0","","","","","","","","","",""
"null","CORRECT","","html-keyboard-response","310","1007431","0.0-18.0-5.0-0.0","38835","List2B","white","man","","","","null","","","","","","","","",""
"1288","<img src=""portrait/WW1.jpg""style=""height:400px;""></img>","1","html-button-response","311","1008720","0.0-18.0-7.0","38835","List2B","white","man","","true","1","","","","","","","","","",""
"null","CORRECT","","html-keyboard-response","312","1010224","0.0-18.0-8.0-0.0","38835","List2B","white","man","","","","null","","","","","","","","",""
"1425.2999999523163","<img src=""portrait/WM1.jpg""style=""height:400px;""></img>","6","html-button-response","313","1011650","0.0-18.0-10.0","38835","List2B","white","man","","true","6","","","","","","","","","",""
"null","CORRECT","","html-keyboard-response","314","1013167","0.0-18.0-11.0-0.0","38835","List2B","white","man","","","","null","","","","","","","","",""
"1212.3000001907349","<img src=""portrait/WM2.jpg""style=""height:400px;""></img>","7","html-button-response","315","1014380","0.0-18.0-13.0","38835","List2B","white","man","","true","7","","","","","","","","","",""
"null","CORRECT","","html-keyboard-response","316","1015902","0.0-18.0-14.0-0.0","38835","List2B","white","man","","","","null","","","","","","","","",""
"1930.7999999523163","<img src=""portrait/BM1.jpg""style=""height:400px;""></img>","4","html-button-response","317","1017833","0.0-18.0-16.0","38835","List2B","white","man","","true","4","","","","","","","","","",""
"null","CORRECT","","html-keyboard-response","318","1019359","0.0-18.0-17.0-0.0","38835","List2B","white","man","","","","null","","","","","","","","",""
"1447.3000001907349","<img src=""portrait/BW2.jpg""style=""height:400px;""></img>","2","html-button-response","319","1020807","0.0-18.0-19.0","38835","List2B","white","man","","true","2","","","","","","","","","",""
"null","CORRECT","","html-keyboard-response","320","1022314","0.0-18.0-20.0-0.0","38835","List2B","white","man","","","","null","","","","","","","","",""
"675.0999999046326","<img src=""portrait/WW2.jpg""style=""height:400px;""></img>","3","html-button-response","321","1022990","0.0-18.0-22.0","38835","List2B","white","man","","true","3","","","","","","","","","",""
"null","CORRECT","","html-keyboard-response","322","1024499","0.0-18.0-23.0-0.0","38835","List2B","white","man","","","","null","","","","","","","","",""
"947.7000000476837","<p>You got 8 out of 8 right first time. Press Continue.</p>","0","html-button-response","323","1025448","0.0-18.0-25.0","38835","List2B","white","man","","","","","","","","","","","","",""
"null","<div style=""font-size:60px;"">+</div>","","html-keyboard-response","324","1026967","0.0-19.0-0.0","38835","List2B","white","man","","","","null","","","","","","","","",""
"null","<img src=""stim_listB/oppose4.gif""style=""height:400px;""></stim_listB>","","html-keyboard-response","325","1028972","0.0-19.0-1.0","38835","List2B","white","man","","","","null","","","","","","","","",""
"null","is being opposed by","","html-keyboard-response","326","1030986","0.0-19.0-2.0","38835","List2B","white","man","","","","null","","","","","","","","",""
"5723.299999952316","","","survey-text","327","1036711","0.0-19.0-3.0","38835","List2B","white","man","","","","","{""Q0"":""fred is being opposed by beth""}","<img src=""stim_listB/oppose4.gif""style=""height:400px;""></stim_listB>","is being opposed by","","","","","",""
"null","<div style=""font-size:60px;"">+</div>","","html-keyboard-response","328","1037215","0.0-19.0-0.1","38835","List2B","white","man","","","","null","","","","","","","","",""
"null","<img src=""stim_listB/kiss3.gif""style=""height:400px;""></stim_listB>","","html-keyboard-response","329","1039225","0.0-19.0-1.1","38835","List2B","white","man","","","","null","","","","","","","","",""
"null","is kissing","","html-keyboard-response","330","1041230","0.0-19.0-2.1","38835","List2B","white","man","","","","null","","","","","","","","",""
"3224.800000190735","","","survey-text","331","1044456","0.0-19.0-3.1","38835","List2B","white","man","","","","","{""Q0"":""fred is kissing beth""}","<img src=""stim_listB/kiss3.gif""style=""height:400px;""></stim_listB>","is kissing","","","","","",""
"null","<div style=""font-size:60px;"">+</div>","","html-keyboard-response","332","1044967","0.0-19.0-0.2","38835","List2B","white","man","","","","null","","","","","","","","",""
"null","<img src=""stim_listB/greet1.gif""style=""height:400px;""></stim_listB>","","html-keyboard-response","333","1046971","0.0-19.0-1.2","38835","List2B","white","man","","","","null","","","","","","","","",""
"null","is greeting","","html-keyboard-response","334","1048976","0.0-19.0-2.2","38835","List2B","white","man","","","","null","","","","","","","","",""
"3782.2000000476837","","","survey-text","335","1052760","0.0-19.0-3.2","38835","List2B","white","man","","","","","{""Q0"":""ruth is greeting dave""}","<img src=""stim_listB/greet1.gif""style=""height:400px;""></stim_listB>","is greeting","","","","","",""
"null","<div style=""font-size:60px;"">+</div>","","html-keyboard-response","336","1053268","0.0-19.0-0.3","38835","List2B","white","man","","","","null","","","","","","","","",""
"null","<img src=""stim_listB/seduce1.gif""style=""height:400px;""></stim_listB>","","html-keyboard-response","337","1055273","0.0-19.0-1.3","38835","List2B","white","man","","","","null","","","","","","","","",""
"null","is seducing","","html-keyboard-response","338","1057276","0.0-19.0-2.3","38835","List2B","white","man","","","","null","","","","","","","","",""
"5098","","","survey-text","339","1062376","0.0-19.0-3.3","38835","List2B","white","man","","","","","{""Q0"":""jane is seducing luke""}","<img src=""stim_listB/seduce1.gif""style=""height:400px;""></stim_listB>","is seducing","","","","","",""
"null","<div style=""font-size:60px;"">+</div>","","html-keyboard-response","340","1062880","0.0-19.0-0.4","38835","List2B","white","man","","","","null","","","","","","","","",""
"null","<img src=""stim_listB/copy8.gif""style=""height:400px;""></stim_listB>","","html-keyboard-response","341","1064883","0.0-19.0-1.4","38835","List2B","white","man","","","","null","","","","","","","","",""
"null","is being copied by","","html-keyboard-response","342","1066890","0.0-19.0-2.4","38835","List2B","white","man","","","","null","","","","","","","","",""
"4531.600000143051","","","survey-text","343","1071424","0.0-19.0-3.4","38835","List2B","white","man","","","","","{""Q0"":""ruth is being copied by kate""}","<img src=""stim_listB/copy8.gif""style=""height:400px;""></stim_listB>","is being copied by","","","","","",""
"null","<div style=""font-size:60px;"">+</div>","","html-keyboard-response","344","1071929","0.0-19.0-0.5","38835","List2B","white","man","","","","null","","","","","","","","",""
"null","<img src=""stim_listB/challenge7.gif""style=""height:400px;""></stim_listB>","","html-keyboard-response","345","1073935","0.0-19.0-1.5","38835","List2B","white","man","","","","null","","","","","","","","",""
"null","is challenging","","html-keyboard-response","346","1075936","0.0-19.0-2.5","38835","List2B","white","man","","","","null","","","","","","","","",""
"5125.900000095367","","","survey-text","347","1081064","0.0-19.0-3.5","38835","List2B","white","man","","","","","{""Q0"":""beth is challenging jane""}","<img src=""stim_listB/challenge7.gif""style=""height:400px;""></stim_listB>","is challenging","","","","","",""
"null","<div style=""font-size:60px;"">+</div>","","html-keyboard-response","348","1081577","0.0-19.0-0.6","38835","List2B","white","man","","","","null","","","","","","","","",""
"null","<img src=""stim_listB/shout8.gif""style=""height:400px;""></stim_listB>","","html-keyboard-response","349","1083590","0.0-19.0-1.6","38835","List2B","white","man","","","","null","","","","","","","","",""
"null","is being shouted at by","","html-keyboard-response","350","1085595","0.0-19.0-2.6","38835","List2B","white","man","","","","null","","","","","","","","",""
"4571.200000047684","","","survey-text","351","1090168","0.0-19.0-3.6","38835","List2B","white","man","","","","","{""Q0"":""jane is being shouted at by kate""}","<img src=""stim_listB/shout8.gif""style=""height:400px;""></stim_listB>","is being shouted at by","","","","","",""
"null","<div style=""font-size:60px;"">+</div>","","html-keyboard-response","352","1090677","0.0-19.0-0.7","38835","List2B","white","man","","","","null","","","","","","","","",""
"null","<img src=""stim_listB/hug3.gif""style=""height:400px;""></stim_listB>","","html-keyboard-response","353","1092680","0.0-19.0-1.7","38835","List2B","white","man","","","","null","","","","","","","","",""
"null","is hugging","","html-keyboard-response","354","1094687","0.0-19.0-2.7","38835","List2B","white","man","","","","null","","","","","","","","",""
"3469.9000000953674","","","survey-text","355","1098159","0.0-19.0-3.7","38835","List2B","white","man","","","","","{""Q0"":""beth is hugging fred""}","<img src=""stim_listB/hug3.gif""style=""height:400px;""></stim_listB>","is hugging","","","","","",""
"null","<div style=""font-size:60px;"">+</div>","","html-keyboard-response","356","1098664","0.0-19.0-0.8","38835","List2B","white","man","","","","null","","","","","","","","",""
"null","<img src=""stim_listB/seduce2.gif""style=""height:400px;""></stim_listB>","","html-keyboard-response","357","1100666","0.0-19.0-1.8","38835","List2B","white","man","","","","null","","","","","","","","",""
"null","is being seduced by","","html-keyboard-response","358","1102670","0.0-19.0-2.8","38835","List2B","white","man","","","","null","","","","","","","","",""
"4255.400000095367","","","survey-text","359","1106927","0.0-19.0-3.8","38835","List2B","white","man","","","","","{""Q0"":""dave is being seduced by ruth""}","<img src=""stim_listB/seduce2.gif""style=""height:400px;""></stim_listB>","is being seduced by","","","","","",""
"null","<div style=""font-size:60px;"">+</div>","","html-keyboard-response","360","1107431","0.0-19.0-0.9","38835","List2B","white","man","","","","null","","","","","","","","",""
"null","<img src=""stim_listB/challenge3.gif""style=""height:400px;""></stim_listB>","","html-keyboard-response","361","1109443","0.0-19.0-1.9","38835","List2B","white","man","","","","null","","","","","","","","",""
"null","is challenging","","html-keyboard-response","362","1111459","0.0-19.0-2.9","38835","List2B","white","man","","","","null","","","","","","","","",""
"3626.9000000953674","","","survey-text","363","1115087","0.0-19.0-3.9","38835","List2B","white","man","","","","","{""Q0"":""beth is challenging mike""}","<img src=""stim_listB/challenge3.gif""style=""height:400px;""></stim_listB>","is challenging","","","","","",""
"null","<div style=""font-size:60px;"">+</div>","","html-keyboard-response","364","1115602","0.0-19.0-0.10","38835","List2B","white","man","","","","null","","","","","","","","",""
"null","<img src=""stim_listB/look8.gif""style=""height:400px;""></stim_listB>","","html-keyboard-response","365","1117604","0.0-19.0-1.10","38835","List2B","white","man","","","","null","","","","","","","","",""
"null","is being looked at by","","html-keyboard-response","366","1119609","0.0-19.0-2.10","38835","List2B","white","man","","","","null","","","","","","","","",""
"4828.899999856949","","","survey-text","367","1124439","0.0-19.0-3.10","38835","List2B","white","man","","","","","{""Q0"":""jane is being looked at by kate""}","<img src=""stim_listB/look8.gif""style=""height:400px;""></stim_listB>","is being looked at by","","","","","",""
"null","<div style=""font-size:60px;"">+</div>","","html-keyboard-response","368","1124941","0.0-19.0-0.11","38835","List2B","white","man","","","","null","","","","","","","","",""
"null","<img src=""stim_listB/touch8.gif""style=""height:400px;""></stim_listB>","","html-keyboard-response","369","1126957","0.0-19.0-1.11","38835","List2B","white","man","","","","null","","","","","","","","",""
"null","is being touched by","","html-keyboard-response","370","1128959","0.0-19.0-2.11","38835","List2B","white","man","","","","null","","","","","","","","",""
"4326.399999856949","","","survey-text","371","1133288","0.0-19.0-3.11","38835","List2B","white","man","","","","","{""Q0"":""ruth is being touched by beth""}","<img src=""stim_listB/touch8.gif""style=""height:400px;""></stim_listB>","is being touched by","","","","","",""
"null","<div style=""font-size:60px;"">+</div>","","html-keyboard-response","372","1133795","0.0-19.0-0.12","38835","List2B","white","man","","","","null","","","","","","","","",""
"null","<img src=""stim_listB/oppose6.gif""style=""height:400px;""></stim_listB>","","html-keyboard-response","373","1135798","0.0-19.0-1.12","38835","List2B","white","man","","","","null","","","","","","","","",""
"null","is being opposed by","","html-keyboard-response","374","1137800","0.0-19.0-2.12","38835","List2B","white","man","","","","null","","","","","","","","",""
"4484.899999856949","","","survey-text","375","1142287","0.0-19.0-3.12","38835","List2B","white","man","","","","","{""Q0"":""luke is being opposed by fred""}","<img src=""stim_listB/oppose6.gif""style=""height:400px;""></stim_listB>","is being opposed by","","","","","",""
"null","<div style=""font-size:60px;"">+</div>","","html-keyboard-response","376","1142803","0.0-19.0-0.13","38835","List2B","white","man","","","","null","","","","","","","","",""
"null","<img src=""stim_listB/hug6.gif""style=""height:400px;""></stim_listB>","","html-keyboard-response","377","1144805","0.0-19.0-1.13","38835","List2B","white","man","","","","null","","","","","","","","",""
"null","is being hugged by","","html-keyboard-response","378","1146808","0.0-19.0-2.13","38835","List2B","white","man","","","","null","","","","","","","","",""
"4493.100000143051","","","survey-text","379","1151303","0.0-19.0-3.13","38835","List2B","white","man","","","","","{""Q0"":""dave is being hugged by mike""}","<img src=""stim_listB/hug6.gif""style=""height:400px;""></stim_listB>","is being hugged by","","","","","",""
"null","<div style=""font-size:60px;"">+</div>","","html-keyboard-response","380","1151816","0.0-19.0-0.14","38835","List2B","white","man","","","","null","","","","","","","","",""
"null","<img src=""stim_listB/touch3.gif""style=""height:400px;""></stim_listB>","","html-keyboard-response","381","1153819","0.0-19.0-1.14","38835","List2B","white","man","","","","null","","","","","","","","",""
"null","is touching","","html-keyboard-response","382","1155822","0.0-19.0-2.14","38835","List2B","white","man","","","","null","","","","","","","","",""
"2776.300000190735","","","survey-text","383","1158599","0.0-19.0-3.14","38835","List2B","white","man","","","","","{""Q0"":""kate is touching mike""}","<img src=""stim_listB/touch3.gif""style=""height:400px;""></stim_listB>","is touching","","","","","",""
"null","<div style=""font-size:60px;"">+</div>","","html-keyboard-response","384","1159113","0.0-19.0-0.15","38835","List2B","white","man","","","","null","","","","","","","","",""
"null","<img src=""stim_listB/oppose1.gif""style=""height:400px;""></stim_listB>","","html-keyboard-response","385","1161118","0.0-19.0-1.15","38835","List2B","white","man","","","","null","","","","","","","","",""
"null","is opposing","","html-keyboard-response","386","1163122","0.0-19.0-2.15","38835","List2B","white","man","","","","null","","","","","","","","",""
"5074.900000095367","","","survey-text","387","1168199","0.0-19.0-3.15","38835","List2B","white","man","","","","","{""Q0"":""jane is opposing dave""}","<img src=""stim_listB/oppose1.gif""style=""height:400px;""></stim_listB>","is opposing","","","","","",""
"null","<div style=""font-size:60px;"">+</div>","","html-keyboard-response","388","1168712","0.0-19.0-0.16","38835","List2B","white","man","","","","null","","","","","","","","",""
"null","<img src=""stim_listB/shout2.gif""style=""height:400px;""></stim_listB>","","html-keyboard-response","389","1170715","0.0-19.0-1.16","38835","List2B","white","man","","","","null","","","","","","","","",""
"null","is being shouted at by","","html-keyboard-response","390","1172716","0.0-19.0-2.16","38835","List2B","white","man","","","","null","","","","","","","","",""
"4319.399999856949","","","survey-text","391","1177039","0.0-19.0-3.16","38835","List2B","white","man","","","","","{""Q0"":""dave is being shouted at by jane""}","<img src=""stim_listB/shout2.gif""style=""height:400px;""></stim_listB>","is being shouted at by","","","","","",""
"null","<div style=""font-size:60px;"">+</div>","","html-keyboard-response","392","1177542","0.0-19.0-0.17","38835","List2B","white","man","","","","null","","","","","","","","",""
"null","<img src=""stim_listB/look3.gif""style=""height:400px;""></stim_listB>","","html-keyboard-response","393","1179544","0.0-19.0-1.17","38835","List2B","white","man","","","","null","","","","","","","","",""
"null","is looking at","","html-keyboard-response","394","1181556","0.0-19.0-2.17","38835","List2B","white","man","","","","null","","","","","","","","",""
"4313.5","","","survey-text","395","1185871","0.0-19.0-3.17","38835","List2B","white","man","","","","","{""Q0"":""beth is looking at fred""}","<img src=""stim_listB/look3.gif""style=""height:400px;""></stim_listB>","is looking at","","","","","",""
"null","<div style=""font-size:60px;"">+</div>","","html-keyboard-response","396","1186380","0.0-19.0-0.18","38835","List2B","white","man","","","","null","","","","","","","","",""
"null","<img src=""stim_listB/challenge4.gif""style=""height:400px;""></stim_listB>","","html-keyboard-response","397","1188382","0.0-19.0-1.18","38835","List2B","white","man","","","","null","","","","","","","","",""
"null","is being challenged by","","html-keyboard-response","398","1190391","0.0-19.0-2.18","38835","List2B","white","man","","","","null","","","","","","","","",""
"4526.5","","","survey-text","399","1194919","0.0-19.0-3.18","38835","List2B","white","man","","","","","{""Q0"":""fred is being challenged by kate""}","<img src=""stim_listB/challenge4.gif""style=""height:400px;""></stim_listB>","is being challenged by","","","","","",""
"null","<div style=""font-size:60px;"">+</div>","","html-keyboard-response","400","1195429","0.0-19.0-0.19","38835","List2B","white","man","","","","null","","","","","","","","",""
"null","<img src=""stim_listB/greet3.gif""style=""height:400px;""></stim_listB>","","html-keyboard-response","401","1197431","0.0-19.0-1.19","38835","List2B","white","man","","","","null","","","","","","","","",""
"null","is greeting","","html-keyboard-response","402","1199435","0.0-19.0-2.19","38835","List2B","white","man","","","","null","","","","","","","","",""
"3475.100000143051","","","survey-text","403","1202911","0.0-19.0-3.19","38835","List2B","white","man","","","","","{""Q0"":""beth is greeting mike""}","<img src=""stim_listB/greet3.gif""style=""height:400px;""></stim_listB>","is greeting","","","","","",""
"4012","<p>Thank you for completing that task.</p><p>The final part of this session is a questionnaire that will take about 4 minutes.</p><p>Press Continue.</p>","0","html-button-response","404","1206924","0.0-20.0","38835","List2B","white","man","","","","","","","","","","","","",""
"15689.200000047684","","","survey-text","405","1223628","0.0-21.0","38835","List2B","white","man","","","","","{""Q0"":""26"",""Q1"":""english"",""Q2"":""english"",""Q3"":""USA"",""Q4"":""American"",""Q5"":""white"",""Q6"":""male""}","","","demographics","","","","",""
"1300.3999998569489","<p>Have you lived in the USA for the last 5 years or more?</p>","0","html-button-response","406","1224930","0.0-22.0","38835","List2B","white","man","","","","","","","","fiveyears","","","","",""
"1671.5","<p>Move the slider to show the extent to which you agree with the following statements.</p>","0","html-button-response","407","1227603","0.0-23.0","38835","List2B","white","man","","","","","","","","","","","","",""
"3369","","","html-slider-response","408","1231988","0.0-24.0-0.0-0.0","38835","List2B","white","man","","","","","","","","survey_gender","70","","","Being around my friends gives me a good feeling.","filler"
"2277.7000000476837","","","html-slider-response","409","1234267","0.0-24.0-0.0-0.1","38835","List2B","white","man","","","","","","","","survey_gender","64","","","I have a lot in common with my friends.","filler"
"1860.1000001430511","","","html-slider-response","410","1236128","0.0-24.0-0.0-0.2","38835","List2B","white","man","","","","","","","","survey_gender","68","","","I feel solidarity with my friends.","filler"
"2696.5","","","html-slider-response","411","1238825","0.0-24.0-0.0-0.3","38835","List2B","white","man","","","","","","","","survey_gender","57","","","I feel a bond with my gender.","bond"
"3262","","","html-slider-response","412","1242087","0.0-24.0-0.0-0.4","38835","List2B","white","man","","","","","","","","survey_gender","21","","","The fact that I am my gender is an important part of my identity.","identity"
"2588.4000000953674","","","html-slider-response","413","1244677","0.0-24.0-0.0-0.5","38835","List2B","white","man","","","","","","","","survey_gender","55","","","I am glad to be my gender.","glad"
"3497.2999999523163","","","html-slider-response","414","1248175","0.0-24.0-0.0-0.6","38835","List2B","white","man","","","","","","","","survey_gender","94","","","I feel committed to my gender.","committed"
"2840.9000000953674","","","html-slider-response","415","1251017","0.0-24.0-0.0-0.7","38835","List2B","white","man","","","","","","","","survey_gender","100","","","I would say I am an animal person.","filler"
"2083.2000000476837","","","html-slider-response","416","1253101","0.0-24.0-0.0-0.8","38835","List2B","white","man","","","","","","","","survey_gender","31","","","I consider myself a highly empathetic person.","filler"
"3773.300000190735","","","html-slider-response","417","1256875","0.0-24.0-0.0-0.9","38835","List2B","white","man","","","","","","","","survey_gender","66","","","It is not always easy for people to know what I am thinking.","filler"
"3180.899999856949","","","html-slider-response","418","1260057","0.0-24.0-0.0-0.10","38835","List2B","white","man","","","","","","","","survey_gender","59","","","People of my gender are very similar to each other.","verysimilar"
"1880","","","html-slider-response","419","1261938","0.0-24.0-0.0-0.11","38835","List2B","white","man","","","","","","","","survey_gender","64","","","I am glad to have the friends that I have.","filler"
"1677.7999999523163","","","html-slider-response","420","1263616","0.0-24.0-0.0-0.12","38835","List2B","white","man","","","","","","","","survey_gender","66","","","It is pleasant to be my gender.","pleasant"
"2223.199999809265","","","html-slider-response","421","1265840","0.0-24.0-0.0-0.13","38835","List2B","white","man","","","","","","","","survey_gender","29","","","I often think about the fact that I am my gender.","often"
"3118","","","html-slider-response","422","1268959","0.0-24.0-0.0-0.14","38835","List2B","white","man","","","","","","","","survey_gender","37","","","I have a lot in common with the average person of my gender.","average"
"2030.2000000476837","","","html-slider-response","423","1270990","0.0-24.0-0.0-0.15","38835","List2B","white","man","","","","","","","","survey_gender","63","","","Most of the friends in my life are very similar to me.","filler"
"2006.2000000476837","","","html-slider-response","424","1272997","0.0-24.0-0.0-0.16","38835","List2B","white","man","","","","","","","","survey_gender","59","","","I am similar to the average person of my gender.","similar"
"3016","","","html-slider-response","425","1276014","0.0-24.0-0.0-0.17","38835","List2B","white","man","","","","","","","","survey_gender","44","","","Family is not more important to me than friendship.","filler"
"2116.399999856949","","","html-slider-response","426","1278131","0.0-24.0-0.0-0.18","38835","List2B","white","man","","","","","","","","survey_gender","55","","","I feel a bond with my friends.","filler"
"2484.199999809265","","","html-slider-response","427","1280616","0.0-24.0-0.0-0.19","38835","List2B","white","man","","","","","","","","survey_gender","19","","","Being my gender is an important part of how I see myself.","important"
"2014.2000000476837","","","html-slider-response","428","1282631","0.0-24.0-0.0-0.20","38835","List2B","white","man","","","","","","","","survey_gender","30","","","My friends understand me.","filler"
"2048.5","","","html-slider-response","429","1284680","0.0-24.0-0.0-0.21","38835","List2B","white","man","","","","","","","","survey_gender","0","","","I often think about my actions.","filler"
"2058.2000000476837","","","html-slider-response","430","1286739","0.0-24.0-0.0-0.22","38835","List2B","white","man","","","","","","","","survey_gender","60","","","My friends have a lot in common with each other.","filler"
"1830.2000000476837","","","html-slider-response","431","1288570","0.0-24.0-0.0-0.23","38835","List2B","white","man","","","","","","","","survey_gender","61","","","People of my gender have a lot in common with each other.","common"
"1822.2999999523163","","","html-slider-response","432","1290393","0.0-24.0-0.0-0.24","38835","List2B","white","man","","","","","","","","survey_gender","64","","","I feel solidarity with my gender.","solidarity"
"1643.0999999046326","","","html-slider-response","433","1292036","0.0-24.0-0.0-0.25","38835","List2B","white","man","","","","","","","","survey_gender","58","","","I think that my gender has a lot to be proud of.","proud"
"2066.2999999523163","","","html-slider-response","434","1294103","0.0-24.0-0.0-0.26","38835","List2B","white","man","","","","","","","","survey_gender","34","","","Routine is not important to me.","filler"
"2795.5","","","html-slider-response","435","1296900","0.0-24.0-0.0-0.27","38835","List2B","white","man","","","","","","","","survey_gender","55","","","Being my gender gives me a good feeling.","feeling"
"2030.4000000953674","","","html-slider-response","436","1298931","0.0-24.0-1.0-0.0","38835","List2B","white","man","","","","","","","","survey_race","56","","","I have a lot in common with the average person of my race.","average"
"1583.2000000476837","","","html-slider-response","437","1300515","0.0-24.0-1.0-0.1","38835","List2B","white","man","","","","","","","","survey_race","62","","","I feel solidarity with my race.","solidarity"
"1834.1000001430511","","","html-slider-response","438","1302349","0.0-24.0-1.0-0.2","38835","List2B","white","man","","","","","","","","survey_race","58","","","I consider myself an introvert.","filler"
"1705.8999998569489","","","html-slider-response","439","1304056","0.0-24.0-1.0-0.3","38835","List2B","white","man","","","","","","","","survey_race","67","","","I am glad to be my age.","filler"
"2594.899999856949","","","html-slider-response","440","1306651","0.0-24.0-1.0-0.4","38835","List2B","white","man","","","","","","","","survey_race","36","","","I often think about the fact that I am my race.","often"
"2221.5999999046326","","","html-slider-response","441","1308874","0.0-24.0-1.0-0.5","38835","List2B","white","man","","","","","","","","survey_race","33","","","I feel a bond with my race.","bond"
"2112","","","html-slider-response","442","1310986","0.0-24.0-1.0-0.6","38835","List2B","white","man","","","","","","","","survey_race","20","","","Being my race gives me a good feeling.","feeling"
"2135.5","","","html-slider-response","443","1313122","0.0-24.0-1.0-0.7","38835","List2B","white","man","","","","","","","","survey_race","69","","","People of my race are very similar to each other.","verysimilar"
"1830.5","","","html-slider-response","444","1314954","0.0-24.0-1.0-0.8","38835","List2B","white","man","","","","","","","","survey_race","61","","","I am glad to be my race.","glad"
"2470.2000000476837","","","html-slider-response","445","1317425","0.0-24.0-1.0-0.9","38835","List2B","white","man","","","","","","","","survey_race","66","","","My age is not an important part of who I am.","filler"
"1775.3000001907349","","","html-slider-response","446","1319201","0.0-24.0-1.0-0.10","38835","List2B","white","man","","","","","","","","survey_race","55","","","It is pleasant to be my race.","pleasant"
"2135.4000000953674","","","html-slider-response","447","1321337","0.0-24.0-1.0-0.11","38835","List2B","white","man","","","","","","","","survey_race","7","","","Being my race is an important part of how I see myself.","important"
"2259.2999999523163","","","html-slider-response","448","1323597","0.0-24.0-1.0-0.12","38835","List2B","white","man","","","","","","","","survey_race","66","","","Being my age gives me a good feeling.","filler"
"2282.2999999523163","","","html-slider-response","449","1325880","0.0-24.0-1.0-0.13","38835","List2B","white","man","","","","","","","","survey_race","38","","","I think that my race has a lot to be proud of.","proud"
"2042.9000000953674","","","html-slider-response","450","1327923","0.0-24.0-1.0-0.14","38835","List2B","white","man","","","","","","","","survey_race","17","","","I often think about the fact that I am my age.","filler"
"1935.8999998569489","","","html-slider-response","451","1329860","0.0-24.0-1.0-0.15","38835","List2B","white","man","","","","","","","","survey_race","22","","","I enjoy being in large groups.","filler"
"2148.7999999523163","","","html-slider-response","452","1332009","0.0-24.0-1.0-0.16","38835","List2B","white","man","","","","","","","","survey_race","29","","","I feel a bond with people the same age as me.","filler"
"3088.7000000476837","","","html-slider-response","453","1335099","0.0-24.0-1.0-0.17","38835","List2B","white","man","","","","","","","","survey_race","34","","","I feel solidarity with people the same age as me.","filler"
"1994.2999999523163","","","html-slider-response","454","1337094","0.0-24.0-1.0-0.18","38835","List2B","white","man","","","","","","","","survey_race","41","","","I have a lot in common with people of a similar age to me.","filler"
"2374","","","html-slider-response","455","1339469","0.0-24.0-1.0-0.19","38835","List2B","white","man","","","","","","","","survey_race","54","","","People of my race have a lot in common with each other.","common"
"2077.5","","","html-slider-response","456","1341547","0.0-24.0-1.0-0.20","38835","List2B","white","man","","","","","","","","survey_race","67","","","People my age have a lot in common with each other.","filler"
"2692.100000143051","","","html-slider-response","457","1344240","0.0-24.0-1.0-0.21","38835","List2B","white","man","","","","","","","","survey_race","9","","","Getting older does not worry me.","filler"
"1982.7999999523163","","","html-slider-response","458","1346224","0.0-24.0-1.0-0.22","38835","List2B","white","man","","","","","","","","survey_race","56","","","The older I get, the wiser I feel.","filler"
"1784.4000000953674","","","html-slider-response","459","1348009","0.0-24.0-1.0-0.23","38835","List2B","white","man","","","","","","","","survey_race","57","","","I am glad to be the age I am.","filler"
"2285.2999999523163","","","html-slider-response","460","1350294","0.0-24.0-1.0-0.24","38835","List2B","white","man","","","","","","","","survey_race","29","","","The fact that I am my race is an important part of my identity.","identity"
"2214.5999999046326","","","html-slider-response","461","1352510","0.0-24.0-1.0-0.25","38835","List2B","white","man","","","","","","","","survey_race","0","","","I consider myself an extrovert.","filler"
"1730.0999999046326","","","html-slider-response","462","1354241","0.0-24.0-1.0-0.26","38835","List2B","white","man","","","","","","","","survey_race","27","","","I feel committed to my race.","committed"
"1872.1000001430511","","","html-slider-response","463","1356113","0.0-24.0-1.0-0.27","38835","List2B","white","man","","","","","","","","survey_race","39","","","I am similar to the average person of my race.","similar"
"3796.7999999523163","","","survey-text","464","1359912","0.0-25.0","38835","List2B","white","man","","","","","{""Q0"":""615a0987c9051ab9211feaad""}","","","worker_id","","","","",""
"51509.40000009537","","","external-html","465","1411942","0.0-26.0","38835","List2B","white","man","debrief.html","","","","","","","","","","","",""
