rt,stimulus,button_pressed,trial_type,trial_index,time_elapsed,internal_node_id,subject,list,ppt_race,ppt_gender,url,first_guess,correct,key_press,responses,image_type,phrase_type,test_part,response,stimulus1,stimulus2,question_type,survey_item
2115.5,Welcome to the experiment. Press Continue to begin.,0,html-button-response,0,2121,0.0-0.0,39160,List1A,black,woman,,,,,,,,,,,,,
41081.6,,,external-html,1,44646,0.0-1.0,39160,List1A,black,woman,consent.html,,,,,,,,,,,,
5407.3,"<p>On the next page, you will see portraits of 8 people and their names.</p><p>Your first task is to take a few minutes to memorise the names of these people.</p><p>You will have to recall their names during the rest of the experiment, so it is</p><p>essential that you try to memorise these people and their names as best as you can.</p><br><p><strong>You will then be tested on your memory of these names and portraits.</strong></p><br><p>The experiment will start after you have completed this memory test.</p><br><p>Ready?</p>",0,html-button-response,2,50056,0.0-2.0,39160,List1A,black,woman,,,,,,,,,,,,,
29668.9,"<img src='img/portrait_matrix_list1.jpg' style='width:900px;height:500px;''></img><p>If you have memorised all the portraits and names and are ready to start, press Continue.</p><p><strong>Please note: Your memory of these faces will be tested 4 times during this experiment.</strong></p>",0,html-button-response,3,80743,0.0-3.0-0.0,39160,List1A,black,woman,,,,,,,,,,,,,
10384.4,"<img src=""portrait/WW2.jpg""style=""height:400px;""></img>",3,html-button-response,4,92154,0.0-3.0-1.0,39160,List1A,black,woman,,TRUE,3,,,,,,,,,,
null,CORRECT,,html-keyboard-response,5,93662,0.0-3.0-2.0-0.0,39160,List1A,black,woman,,,,null,,,,,,,,,
7491,"<img src=""portrait/BM2.jpg""style=""height:400px;""></img>",5,html-button-response,6,101156,0.0-3.0-4.0,39160,List1A,black,woman,,TRUE,5,,,,,,,,,,
null,CORRECT,,html-keyboard-response,7,102681,0.0-3.0-5.0-0.0,39160,List1A,black,woman,,,,null,,,,,,,,,
4644,"<img src=""portrait/BW2.jpg""style=""height:400px;""></img>",2,html-button-response,8,107327,0.0-3.0-7.0,39160,List1A,black,woman,,TRUE,2,,,,,,,,,,
null,CORRECT,,html-keyboard-response,9,108855,0.0-3.0-8.0-0.0,39160,List1A,black,woman,,,,null,,,,,,,,,
5509.9,"<img src=""portrait/BM1.jpg""style=""height:400px;""></img>",4,html-button-response,10,114366,0.0-3.0-10.0,39160,List1A,black,woman,,TRUE,4,,,,,,,,,,
null,CORRECT,,html-keyboard-response,11,115886,0.0-3.0-11.0-0.0,39160,List1A,black,woman,,,,null,,,,,,,,,
6142.9,"<img src=""portrait/WW1.jpg""style=""height:400px;""></img>",1,html-button-response,12,122031,0.0-3.0-13.0,39160,List1A,black,woman,,TRUE,1,,,,,,,,,,
null,CORRECT,,html-keyboard-response,13,123555,0.0-3.0-14.0-0.0,39160,List1A,black,woman,,,,null,,,,,,,,,
4982.9,"<img src=""portrait/BW1.jpg""style=""height:400px;""></img>",0,html-button-response,14,128540,0.0-3.0-16.0,39160,List1A,black,woman,,TRUE,0,,,,,,,,,,
null,CORRECT,,html-keyboard-response,15,130052,0.0-3.0-17.0-0.0,39160,List1A,black,woman,,,,null,,,,,,,,,
6112.1,"<img src=""portrait/WM2.jpg""style=""height:400px;""></img>",7,html-button-response,16,136165,0.0-3.0-19.0,39160,List1A,black,woman,,TRUE,7,,,,,,,,,,
null,CORRECT,,html-keyboard-response,17,137688,0.0-3.0-20.0-0.0,39160,List1A,black,woman,,,,null,,,,,,,,,
5373.9,"<img src=""portrait/WM1.jpg""style=""height:400px;""></img>",6,html-button-response,18,143074,0.0-3.0-22.0,39160,List1A,black,woman,,TRUE,6,,,,,,,,,,
null,CORRECT,,html-keyboard-response,19,144590,0.0-3.0-23.0-0.0,39160,List1A,black,woman,,,,null,,,,,,,,,
2442.6,<p>You got 8 out of 8 right first time. Press Continue.</p>,0,html-button-response,20,147036,0.0-3.0-25.0,39160,List1A,black,woman,,,,,,,,,,,,,
31580.4,"<p>In this experiment, you will view photographs of the people from the memory game interacting.</p><p>By using the <strong>exact</strong> phrase given <i>after</i> the photograph appears and recalling the correct names of the people in the photographs, form a sentence describing the interaction. You do not need to capitalise names.</p><p>Type your answer in the space provided. Please complete every sentence before moving onto the next trial.</p><p>You will only have a few seconds to memorise each given photograph and phrase before you can respond, so try your best to focus.</p><p>An example is given below. Press 'Continue' when you are ready.</p><img src='img/speaking_example.jpg' style='width:800px;height:460px;''></img>",0,html-button-response,21,179636,0.0-4.0,39160,List1A,black,woman,,,,,,,,,,,,,
4377.9,"<p>Before the experiment starts, you will watch two example trials. Press 'Continue'.</p>",0,html-button-response,22,185022,0.0-5.0,39160,List1A,black,woman,,,,,,,,,,,,,
null,<img src='img/play_eg.gif' style='height:400px;''></img>,,html-keyboard-response,23,188040,0.0-6.0,39160,List1A,black,woman,,,,null,,,,,,,,,
null,<p>is playing with</p>,,html-keyboard-response,24,190055,0.0-7.0,39160,List1A,black,woman,,,,null,,,,,,,,,
3075.9,<p><b>Answer:</b> kate is playing with beth</p>,0,html-button-response,25,193132,0.0-8.0,39160,List1A,black,woman,,,,,,,,,,,,,
null,<img src='img/dance_eg.gif' style='height:400px;''></img>,,html-keyboard-response,26,196137,0.0-9.0,39160,List1A,black,woman,,,,null,,,,,,,,,
null,<p>is being entertained by</p>,,html-keyboard-response,27,198144,0.0-10.0,39160,List1A,black,woman,,,,null,,,,,,,,,
1565.7,<p><b>Answer:</b> luke is being entertained by dave</p>,0,html-button-response,28,199711,0.0-11.0,39160,List1A,black,woman,,,,,,,,,,,,,
7908.2,"<p>Ready to start the experiment?</p><br><p><strong>Remember to describe the picture using a full sentence,</strong></p><p><strong>that combines the names of the people with the <i>exact</i> phrase given.</strong></p><p><strong>To receive full payment you must do this correctly.</strong></p><p><strong> You do not need to capitalise names or use punctuation.</strong></p><br><p>Press 'Continue' to begin.</p>",0,html-button-response,29,208669,0.0-12.0,39160,List1A,black,woman,,,,,,,,,,,,,
null,"<div style=""font-size:60px;"">+</div>",,html-keyboard-response,30,210201,0.0-13.0-0.0,39160,List1A,black,woman,,,,null,,,,,,,,,
null,"<img src=""stim_listA/oppose3.gif""style=""height:400px;""></stim_listA>",,html-keyboard-response,31,212206,0.0-13.0-1.0,39160,List1A,black,woman,,,,null,,,,,,,,,
null,is opposing,,html-keyboard-response,32,214221,0.0-13.0-2.0,39160,List1A,black,woman,,,,null,,,,,,,,,
41609.3,,,survey-text,33,255853,0.0-13.0-3.0,39160,List1A,black,woman,,,,,"{""Q0"":""jane is fighting with dave.""}","<img src=""stim_listA/oppose3.gif""style=""height:400px;""></stim_listA>",is opposing,,,,,,
null,"<div style=""font-size:60px;"">+</div>",,html-keyboard-response,34,256360,0.0-13.0-0.1,39160,List1A,black,woman,,,,null,,,,,,,,,
null,"<img src=""stim_listA/touch3.gif""style=""height:400px;""></stim_listA>",,html-keyboard-response,35,258376,0.0-13.0-1.1,39160,List1A,black,woman,,,,null,,,,,,,,,
null,is touching,,html-keyboard-response,36,260378,0.0-13.0-2.1,39160,List1A,black,woman,,,,null,,,,,,,,,
33491,,,survey-text,37,293874,0.0-13.0-3.1,39160,List1A,black,woman,,,,,"{""Q0"":""jane is touching dave.""}","<img src=""stim_listA/touch3.gif""style=""height:400px;""></stim_listA>",is touching,,,,,,
null,"<div style=""font-size:60px;"">+</div>",,html-keyboard-response,38,294383,0.0-13.0-0.2,39160,List1A,black,woman,,,,null,,,,,,,,,
null,"<img src=""stim_listA/challenge2.gif""style=""height:400px;""></stim_listA>",,html-keyboard-response,39,296398,0.0-13.0-1.2,39160,List1A,black,woman,,,,null,,,,,,,,,
null,is being challenged by,,html-keyboard-response,40,298412,0.0-13.0-2.2,39160,List1A,black,woman,,,,null,,,,,,,,,
22853.1,,,survey-text,41,321270,0.0-13.0-3.2,39160,List1A,black,woman,,,,,"{""Q0"":""fred is being challenged by kate.""}","<img src=""stim_listA/challenge2.gif""style=""height:400px;""></stim_listA>",is being challenged by,,,,,,
null,"<div style=""font-size:60px;"">+</div>",,html-keyboard-response,42,321781,0.0-13.0-0.3,39160,List1A,black,woman,,,,null,,,,,,,,,
null,"<img src=""stim_listA/touch1.gif""style=""height:400px;""></stim_listA>",,html-keyboard-response,43,323785,0.0-13.0-1.3,39160,List1A,black,woman,,,,null,,,,,,,,,
null,is touching,,html-keyboard-response,44,325797,0.0-13.0-2.3,39160,List1A,black,woman,,,,null,,,,,,,,,
11782.3,,,survey-text,45,337587,0.0-13.0-3.3,39160,List1A,black,woman,,,,,"{""Q0"":""mike is touching kate.""}","<img src=""stim_listA/touch1.gif""style=""height:400px;""></stim_listA>",is touching,,,,,,
null,"<div style=""font-size:60px;"">+</div>",,html-keyboard-response,46,338100,0.0-13.0-0.4,39160,List1A,black,woman,,,,null,,,,,,,,,
null,"<img src=""stim_listA/shout8.gif""style=""height:400px;""></stim_listA>",,html-keyboard-response,47,340115,0.0-13.0-1.4,39160,List1A,black,woman,,,,null,,,,,,,,,
null,is being shouted at by,,html-keyboard-response,48,342126,0.0-13.0-2.4,39160,List1A,black,woman,,,,null,,,,,,,,,
12891.5,,,survey-text,49,355022,0.0-13.0-3.4,39160,List1A,black,woman,,,,,"{""Q0"":""jane is being shouted at by kate.""}","<img src=""stim_listA/shout8.gif""style=""height:400px;""></stim_listA>",is being shouted at by,,,,,,
null,"<div style=""font-size:60px;"">+</div>",,html-keyboard-response,50,355531,0.0-13.0-0.5,39160,List1A,black,woman,,,,null,,,,,,,,,
null,"<img src=""stim_listA/greet7.gif""style=""height:400px;""></stim_listA>",,html-keyboard-response,51,357548,0.0-13.0-1.5,39160,List1A,black,woman,,,,null,,,,,,,,,
null,is greeting,,html-keyboard-response,52,359552,0.0-13.0-2.5,39160,List1A,black,woman,,,,null,,,,,,,,,
9809.4,,,survey-text,53,369368,0.0-13.0-3.5,39160,List1A,black,woman,,,,,"{""Q0"":""kate is greeting ruth.""}","<img src=""stim_listA/greet7.gif""style=""height:400px;""></stim_listA>",is greeting,,,,,,
null,"<div style=""font-size:60px;"">+</div>",,html-keyboard-response,54,369883,0.0-13.0-0.6,39160,List1A,black,woman,,,,null,,,,,,,,,
null,"<img src=""stim_listA/hug8.gif""style=""height:400px;""></stim_listA>",,html-keyboard-response,55,371896,0.0-13.0-1.6,39160,List1A,black,woman,,,,null,,,,,,,,,
null,is being hugged by,,html-keyboard-response,56,373910,0.0-13.0-2.6,39160,List1A,black,woman,,,,null,,,,,,,,,
9046.9,,,survey-text,57,382964,0.0-13.0-3.6,39160,List1A,black,woman,,,,,"{""Q0"":""kate is being hugged by jane.""}","<img src=""stim_listA/hug8.gif""style=""height:400px;""></stim_listA>",is being hugged by,,,,,,
null,"<div style=""font-size:60px;"">+</div>",,html-keyboard-response,58,383466,0.0-13.0-0.7,39160,List1A,black,woman,,,,null,,,,,,,,,
null,"<img src=""stim_listA/copy4.gif""style=""height:400px;""></stim_listA>",,html-keyboard-response,59,385479,0.0-13.0-1.7,39160,List1A,black,woman,,,,null,,,,,,,,,
null,is being copied by,,html-keyboard-response,60,387482,0.0-13.0-2.7,39160,List1A,black,woman,,,,null,,,,,,,,,
11865.4,,,survey-text,61,399353,0.0-13.0-3.7,39160,List1A,black,woman,,,,,"{""Q0"":""luke is being copied by jane.""}","<img src=""stim_listA/copy4.gif""style=""height:400px;""></stim_listA>",is being copied by,,,,,,
null,"<div style=""font-size:60px;"">+</div>",,html-keyboard-response,62,399864,0.0-13.0-0.8,39160,List1A,black,woman,,,,null,,,,,,,,,
null,"<img src=""stim_listA/oppose5.gif""style=""height:400px;""></stim_listA>",,html-keyboard-response,63,401877,0.0-13.0-1.8,39160,List1A,black,woman,,,,null,,,,,,,,,
null,is opposing,,html-keyboard-response,64,403893,0.0-13.0-2.8,39160,List1A,black,woman,,,,null,,,,,,,,,
12625.7,,,survey-text,65,416523,0.0-13.0-3.8,39160,List1A,black,woman,,,,,"{""Q0"":""mike is opposing dave.""}","<img src=""stim_listA/oppose5.gif""style=""height:400px;""></stim_listA>",is opposing,,,,,,
null,"<div style=""font-size:60px;"">+</div>",,html-keyboard-response,66,417026,0.0-13.0-0.9,39160,List1A,black,woman,,,,null,,,,,,,,,
null,"<img src=""stim_listA/seduce3.gif""style=""height:400px;""></stim_listA>",,html-keyboard-response,67,419031,0.0-13.0-1.9,39160,List1A,black,woman,,,,null,,,,,,,,,
null,is seducing,,html-keyboard-response,68,421055,0.0-13.0-2.9,39160,List1A,black,woman,,,,null,,,,,,,,,
10595.6,,,survey-text,69,431656,0.0-13.0-3.9,39160,List1A,black,woman,,,,,"{""Q0"":""luke is seducing jane.""}","<img src=""stim_listA/seduce3.gif""style=""height:400px;""></stim_listA>",is seducing,,,,,,
null,"<div style=""font-size:60px;"">+</div>",,html-keyboard-response,70,432173,0.0-13.0-0.10,39160,List1A,black,woman,,,,null,,,,,,,,,
null,"<img src=""stim_listA/copy6.gif""style=""height:400px;""></stim_listA>",,html-keyboard-response,71,434189,0.0-13.0-1.10,39160,List1A,black,woman,,,,null,,,,,,,,,
null,is being copied by,,html-keyboard-response,72,436192,0.0-13.0-2.10,39160,List1A,black,woman,,,,null,,,,,,,,,
13381.3,,,survey-text,73,449578,0.0-13.0-3.10,39160,List1A,black,woman,,,,,"{""Q0"":""fred is being copied by dave.""}","<img src=""stim_listA/copy6.gif""style=""height:400px;""></stim_listA>",is being copied by,,,,,,
null,"<div style=""font-size:60px;"">+</div>",,html-keyboard-response,74,450087,0.0-13.0-0.11,39160,List1A,black,woman,,,,null,,,,,,,,,
null,"<img src=""stim_listA/kiss3.gif""style=""height:400px;""></stim_listA>",,html-keyboard-response,75,452102,0.0-13.0-1.11,39160,List1A,black,woman,,,,null,,,,,,,,,
null,is kissing,,html-keyboard-response,76,454117,0.0-13.0-2.11,39160,List1A,black,woman,,,,null,,,,,,,,,
9973.2,,,survey-text,77,464095,0.0-13.0-3.11,39160,List1A,black,woman,,,,,"{""Q0"":""mike is kissing ruth.""}","<img src=""stim_listA/kiss3.gif""style=""height:400px;""></stim_listA>",is kissing,,,,,,
null,"<div style=""font-size:60px;"">+</div>",,html-keyboard-response,78,464602,0.0-13.0-0.12,39160,List1A,black,woman,,,,null,,,,,,,,,
null,"<img src=""stim_listA/greet4.gif""style=""height:400px;""></stim_listA>",,html-keyboard-response,79,466619,0.0-13.0-1.12,39160,List1A,black,woman,,,,null,,,,,,,,,
null,is being greeted by,,html-keyboard-response,80,468621,0.0-13.0-2.12,39160,List1A,black,woman,,,,null,,,,,,,,,
9605.6,,,survey-text,81,478253,0.0-13.0-3.12,39160,List1A,black,woman,,,,,"{""Q0"":""jane is being greeted by luke.""}","<img src=""stim_listA/greet4.gif""style=""height:400px;""></stim_listA>",is being greeted by,,,,,,
null,"<div style=""font-size:60px;"">+</div>",,html-keyboard-response,82,478770,0.0-13.0-0.13,39160,List1A,black,woman,,,,null,,,,,,,,,
null,"<img src=""stim_listA/copy2.gif""style=""height:400px;""></stim_listA>",,html-keyboard-response,83,480785,0.0-13.0-1.13,39160,List1A,black,woman,,,,null,,,,,,,,,
null,is being copied by,,html-keyboard-response,84,482800,0.0-13.0-2.13,39160,List1A,black,woman,,,,null,,,,,,,,,
9175,,,survey-text,85,491980,0.0-13.0-3.13,39160,List1A,black,woman,,,,,"{""Q0"":""kate is being copied by fred.""}","<img src=""stim_listA/copy2.gif""style=""height:400px;""></stim_listA>",is being copied by,,,,,,
null,"<div style=""font-size:60px;"">+</div>",,html-keyboard-response,86,492488,0.0-13.0-0.14,39160,List1A,black,woman,,,,null,,,,,,,,,
null,"<img src=""stim_listA/shout1.gif""style=""height:400px;""></stim_listA>",,html-keyboard-response,87,494502,0.0-13.0-1.14,39160,List1A,black,woman,,,,null,,,,,,,,,
null,is shouting at,,html-keyboard-response,88,496517,0.0-13.0-2.14,39160,List1A,black,woman,,,,null,,,,,,,,,
13290.5,,,survey-text,89,509833,0.0-13.0-3.14,39160,List1A,black,woman,,,,,"{""Q0"":""beth is shouting at fred.""}","<img src=""stim_listA/shout1.gif""style=""height:400px;""></stim_listA>",is shouting at,,,,,,
null,"<div style=""font-size:60px;"">+</div>",,html-keyboard-response,90,510341,0.0-13.0-0.15,39160,List1A,black,woman,,,,null,,,,,,,,,
null,"<img src=""stim_listA/copy3.gif""style=""height:400px;""></stim_listA>",,html-keyboard-response,91,512347,0.0-13.0-1.15,39160,List1A,black,woman,,,,null,,,,,,,,,
null,is copying,,html-keyboard-response,92,514363,0.0-13.0-2.15,39160,List1A,black,woman,,,,null,,,,,,,,,
10518.3,,,survey-text,93,524886,0.0-13.0-3.15,39160,List1A,black,woman,,,,,"{""Q0"":""ruth is copying dave.""}","<img src=""stim_listA/copy3.gif""style=""height:400px;""></stim_listA>",is copying,,,,,,
null,"<div style=""font-size:60px;"">+</div>",,html-keyboard-response,94,525397,0.0-13.0-0.16,39160,List1A,black,woman,,,,null,,,,,,,,,
null,"<img src=""stim_listA/look5.gif""style=""height:400px;""></stim_listA>",,html-keyboard-response,95,527414,0.0-13.0-1.16,39160,List1A,black,woman,,,,null,,,,,,,,,
null,is looking at,,html-keyboard-response,96,529429,0.0-13.0-2.16,39160,List1A,black,woman,,,,null,,,,,,,,,
15943.8,,,survey-text,97,545377,0.0-13.0-3.16,39160,List1A,black,woman,,,,,"{""Q0"":""luke is looking at fred.""}","<img src=""stim_listA/look5.gif""style=""height:400px;""></stim_listA>",is looking at,,,,,,
null,"<div style=""font-size:60px;"">+</div>",,html-keyboard-response,98,545891,0.0-13.0-0.17,39160,List1A,black,woman,,,,null,,,,,,,,,
null,"<img src=""stim_listA/seduce1.gif""style=""height:400px;""></stim_listA>",,html-keyboard-response,99,547908,0.0-13.0-1.17,39160,List1A,black,woman,,,,null,,,,,,,,,
null,is seducing,,html-keyboard-response,100,549912,0.0-13.0-2.17,39160,List1A,black,woman,,,,null,,,,,,,,,
11844.4,,,survey-text,101,561784,0.0-13.0-3.17,39160,List1A,black,woman,,,,,"{""Q0"":""fred is seducing kate.""}","<img src=""stim_listA/seduce1.gif""style=""height:400px;""></stim_listA>",is seducing,,,,,,
null,"<div style=""font-size:60px;"">+</div>",,html-keyboard-response,102,562291,0.0-13.0-0.18,39160,List1A,black,woman,,,,null,,,,,,,,,
null,"<img src=""stim_listA/hug2.gif""style=""height:400px;""></stim_listA>",,html-keyboard-response,103,564305,0.0-13.0-1.18,39160,List1A,black,woman,,,,null,,,,,,,,,
null,is being hugged by,,html-keyboard-response,104,566308,0.0-13.0-2.18,39160,List1A,black,woman,,,,null,,,,,,,,,
12452.1,,,survey-text,105,578763,0.0-13.0-3.18,39160,List1A,black,woman,,,,,"{""Q0"":""mike is being hugged by kate.""}","<img src=""stim_listA/hug2.gif""style=""height:400px;""></stim_listA>",is being hugged by,,,,,,
null,"<div style=""font-size:60px;"">+</div>",,html-keyboard-response,106,579272,0.0-13.0-0.19,39160,List1A,black,woman,,,,null,,,,,,,,,
null,"<img src=""stim_listA/seduce4.gif""style=""height:400px;""></stim_listA>",,html-keyboard-response,107,581279,0.0-13.0-1.19,39160,List1A,black,woman,,,,null,,,,,,,,,
null,is being seduced by,,html-keyboard-response,108,583283,0.0-13.0-2.19,39160,List1A,black,woman,,,,null,,,,,,,,,
10967.5,,,survey-text,109,594256,0.0-13.0-3.19,39160,List1A,black,woman,,,,,"{""Q0"":""dave is being seduced by ruth.""}","<img src=""stim_listA/seduce4.gif""style=""height:400px;""></stim_listA>",is being seduced by,,,,,,
11958,"<img src='img/portrait_matrix_list1.jpg' style='width:900px;height:500px;''></img><p>If you have memorised all the portraits and names and are ready to start, press Continue.</p><p><strong>Please note: Your memory of these faces will be tested 4 times during this experiment.</strong></p>",0,html-button-response,110,606216,0.0-14.0-0.0,39160,List1A,black,woman,,,,,,,,,,,,,
3316.4,"<img src=""portrait/WW1.jpg""style=""height:400px;""></img>",1,html-button-response,111,610548,0.0-14.0-1.0,39160,List1A,black,woman,,TRUE,1,,,,,,,,,,
null,CORRECT,,html-keyboard-response,112,612073,0.0-14.0-2.0-0.0,39160,List1A,black,woman,,,,null,,,,,,,,,
4042.2,"<img src=""portrait/WM1.jpg""style=""height:400px;""></img>",6,html-button-response,113,616118,0.0-14.0-4.0,39160,List1A,black,woman,,TRUE,6,,,,,,,,,,
null,CORRECT,,html-keyboard-response,114,617642,0.0-14.0-5.0-0.0,39160,List1A,black,woman,,,,null,,,,,,,,,
2333.4,"<img src=""portrait/BW1.jpg""style=""height:400px;""></img>",0,html-button-response,115,619978,0.0-14.0-7.0,39160,List1A,black,woman,,TRUE,0,,,,,,,,,,
null,CORRECT,,html-keyboard-response,116,621489,0.0-14.0-8.0-0.0,39160,List1A,black,woman,,,,null,,,,,,,,,
2460.1,"<img src=""portrait/BM1.jpg""style=""height:400px;""></img>",4,html-button-response,117,623951,0.0-14.0-10.0,39160,List1A,black,woman,,TRUE,4,,,,,,,,,,
null,CORRECT,,html-keyboard-response,118,625482,0.0-14.0-11.0-0.0,39160,List1A,black,woman,,,,null,,,,,,,,,
1990.2,"<img src=""portrait/WW2.jpg""style=""height:400px;""></img>",3,html-button-response,119,627474,0.0-14.0-13.0,39160,List1A,black,woman,,TRUE,3,,,,,,,,,,
null,CORRECT,,html-keyboard-response,120,628996,0.0-14.0-14.0-0.0,39160,List1A,black,woman,,,,null,,,,,,,,,
2788,"<img src=""portrait/BW2.jpg""style=""height:400px;""></img>",2,html-button-response,121,631787,0.0-14.0-16.0,39160,List1A,black,woman,,TRUE,2,,,,,,,,,,
null,CORRECT,,html-keyboard-response,122,633308,0.0-14.0-17.0-0.0,39160,List1A,black,woman,,,,null,,,,,,,,,
4939.3,"<img src=""portrait/WM2.jpg""style=""height:400px;""></img>",7,html-button-response,123,638250,0.0-14.0-19.0,39160,List1A,black,woman,,TRUE,7,,,,,,,,,,
null,CORRECT,,html-keyboard-response,124,639782,0.0-14.0-20.0-0.0,39160,List1A,black,woman,,,,null,,,,,,,,,
2932.3,"<img src=""portrait/BM2.jpg""style=""height:400px;""></img>",5,html-button-response,125,642717,0.0-14.0-22.0,39160,List1A,black,woman,,TRUE,5,,,,,,,,,,
null,CORRECT,,html-keyboard-response,126,644244,0.0-14.0-23.0-0.0,39160,List1A,black,woman,,,,null,,,,,,,,,
4001.4,<p>You got 8 out of 8 right first time. Press Continue.</p>,0,html-button-response,127,648248,0.0-14.0-25.0,39160,List1A,black,woman,,,,,,,,,,,,,
null,"<div style=""font-size:60px;"">+</div>",,html-keyboard-response,128,649771,0.0-15.0-0.0,39160,List1A,black,woman,,,,null,,,,,,,,,
null,"<img src=""stim_listA/hug6.gif""style=""height:400px;""></stim_listA>",,html-keyboard-response,129,651782,0.0-15.0-1.0,39160,List1A,black,woman,,,,null,,,,,,,,,
null,is being hugged by,,html-keyboard-response,130,653786,0.0-15.0-2.0,39160,List1A,black,woman,,,,null,,,,,,,,,
13236.1,,,survey-text,131,667027,0.0-15.0-3.0,39160,List1A,black,woman,,,,,"{""Q0"":""dave is being hugged by mike.""}","<img src=""stim_listA/hug6.gif""style=""height:400px;""></stim_listA>",is being hugged by,,,,,,
null,"<div style=""font-size:60px;"">+</div>",,html-keyboard-response,132,667536,0.0-15.0-0.1,39160,List1A,black,woman,,,,null,,,,,,,,,
null,"<img src=""stim_listA/greet2.gif""style=""height:400px;""></stim_listA>",,html-keyboard-response,133,669550,0.0-15.0-1.1,39160,List1A,black,woman,,,,null,,,,,,,,,
null,is being greeted by,,html-keyboard-response,134,671564,0.0-15.0-2.1,39160,List1A,black,woman,,,,null,,,,,,,,,
15644.7,,,survey-text,135,687213,0.0-15.0-3.1,39160,List1A,black,woman,,,,,"{""Q0"":""fred is being greeted by dave.""}","<img src=""stim_listA/greet2.gif""style=""height:400px;""></stim_listA>",is being greeted by,,,,,,
null,"<div style=""font-size:60px;"">+</div>",,html-keyboard-response,136,687727,0.0-15.0-0.2,39160,List1A,black,woman,,,,null,,,,,,,,,
null,"<img src=""stim_listA/seduce7.gif""style=""height:400px;""></stim_listA>",,html-keyboard-response,137,689742,0.0-15.0-1.2,39160,List1A,black,woman,,,,null,,,,,,,,,
null,is seducing,,html-keyboard-response,138,691757,0.0-15.0-2.2,39160,List1A,black,woman,,,,null,,,,,,,,,
17731.8,,,survey-text,139,709494,0.0-15.0-3.2,39160,List1A,black,woman,,,,,"{""Q0"":""beth is seducing jane.""}","<img src=""stim_listA/seduce7.gif""style=""height:400px;""></stim_listA>",is seducing,,,,,,
null,"<div style=""font-size:60px;"">+</div>",,html-keyboard-response,140,710010,0.0-15.0-0.3,39160,List1A,black,woman,,,,null,,,,,,,,,
null,"<img src=""stim_listA/challenge4.gif""style=""height:400px;""></stim_listA>",,html-keyboard-response,141,712023,0.0-15.0-1.3,39160,List1A,black,woman,,,,null,,,,,,,,,
null,is being challenged by,,html-keyboard-response,142,714038,0.0-15.0-2.3,39160,List1A,black,woman,,,,null,,,,,,,,,
10835.8,,,survey-text,143,724878,0.0-15.0-3.3,39160,List1A,black,woman,,,,,"{""Q0"":""luke is being challenged by jane.""}","<img src=""stim_listA/challenge4.gif""style=""height:400px;""></stim_listA>",is being challenged by,,,,,,
null,"<div style=""font-size:60px;"">+</div>",,html-keyboard-response,144,725385,0.0-15.0-0.4,39160,List1A,black,woman,,,,null,,,,,,,,,
null,"<img src=""stim_listA/look2.gif""style=""height:400px;""></stim_listA>",,html-keyboard-response,145,727388,0.0-15.0-1.4,39160,List1A,black,woman,,,,null,,,,,,,,,
null,is being looked at by,,html-keyboard-response,146,729390,0.0-15.0-2.4,39160,List1A,black,woman,,,,null,,,,,,,,,
14799.9,,,survey-text,147,744196,0.0-15.0-3.4,39160,List1A,black,woman,,,,,"{""Q0"":""kate is being looked at by mike.""}","<img src=""stim_listA/look2.gif""style=""height:400px;""></stim_listA>",is being looked at by,,,,,,
null,"<div style=""font-size:60px;"">+</div>",,html-keyboard-response,148,744711,0.0-15.0-0.5,39160,List1A,black,woman,,,,null,,,,,,,,,
null,"<img src=""stim_listA/look8.gif""style=""height:400px;""></stim_listA>",,html-keyboard-response,149,746725,0.0-15.0-1.5,39160,List1A,black,woman,,,,null,,,,,,,,,
null,is being looked at by,,html-keyboard-response,150,748735,0.0-15.0-2.5,39160,List1A,black,woman,,,,null,,,,,,,,,
18216.7,,,survey-text,151,766956,0.0-15.0-3.5,39160,List1A,black,woman,,,,,"{""Q0"":""jane is being looked at by kate.""}","<img src=""stim_listA/look8.gif""style=""height:400px;""></stim_listA>",is being looked at by,,,,,,
null,"<div style=""font-size:60px;"">+</div>",,html-keyboard-response,152,767468,0.0-15.0-0.6,39160,List1A,black,woman,,,,null,,,,,,,,,
null,"<img src=""stim_listA/greet6.gif""style=""height:400px;""></stim_listA>",,html-keyboard-response,153,769480,0.0-15.0-1.6,39160,List1A,black,woman,,,,null,,,,,,,,,
null,is being greeted by,,html-keyboard-response,154,771495,0.0-15.0-2.6,39160,List1A,black,woman,,,,null,,,,,,,,,
10761.7,,,survey-text,155,782262,0.0-15.0-3.6,39160,List1A,black,woman,,,,,"{""Q0"":""dave is being greeted by fred.""}","<img src=""stim_listA/greet6.gif""style=""height:400px;""></stim_listA>",is being greeted by,,,,,,
null,"<div style=""font-size:60px;"">+</div>",,html-keyboard-response,156,782779,0.0-15.0-0.7,39160,List1A,black,woman,,,,null,,,,,,,,,
null,"<img src=""stim_listA/look4.gif""style=""height:400px;""></stim_listA>",,html-keyboard-response,157,784784,0.0-15.0-1.7,39160,List1A,black,woman,,,,null,,,,,,,,,
null,is being looked at by,,html-keyboard-response,158,786797,0.0-15.0-2.7,39160,List1A,black,woman,,,,null,,,,,,,,,
21310.9,,,survey-text,159,808113,0.0-15.0-3.7,39160,List1A,black,woman,,,,,"{""Q0"":""dave is being looked at by jane.""}","<img src=""stim_listA/look4.gif""style=""height:400px;""></stim_listA>",is being looked at by,,,,,,
null,"<div style=""font-size:60px;"">+</div>",,html-keyboard-response,160,808625,0.0-15.0-0.8,39160,List1A,black,woman,,,,null,,,,,,,,,
null,"<img src=""stim_listA/seduce8.gif""style=""height:400px;""></stim_listA>",,html-keyboard-response,161,810636,0.0-15.0-1.8,39160,List1A,black,woman,,,,null,,,,,,,,,
null,is being seduced by,,html-keyboard-response,162,812644,0.0-15.0-2.8,39160,List1A,black,woman,,,,null,,,,,,,,,
12605.9,,,survey-text,163,825286,0.0-15.0-3.8,39160,List1A,black,woman,,,,,"{""Q0"":""ruth is being seduced by kate.""}","<img src=""stim_listA/seduce8.gif""style=""height:400px;""></stim_listA>",is being seduced by,,,,,,
null,"<div style=""font-size:60px;"">+</div>",,html-keyboard-response,164,825801,0.0-15.0-0.9,39160,List1A,black,woman,,,,null,,,,,,,,,
null,"<img src=""stim_listA/shout6.gif""style=""height:400px;""></stim_listA>",,html-keyboard-response,165,827817,0.0-15.0-1.9,39160,List1A,black,woman,,,,null,,,,,,,,,
null,is being shouted at by,,html-keyboard-response,166,829827,0.0-15.0-2.9,39160,List1A,black,woman,,,,null,,,,,,,,,
19556.2,,,survey-text,167,849402,0.0-15.0-3.9,39160,List1A,black,woman,,,,,"{""Q0"":""mike is being shouted at by dave. ""}","<img src=""stim_listA/shout6.gif""style=""height:400px;""></stim_listA>",is being shouted at by,,,,,,
null,"<div style=""font-size:60px;"">+</div>",,html-keyboard-response,168,849907,0.0-15.0-0.10,39160,List1A,black,woman,,,,null,,,,,,,,,
null,"<img src=""stim_listA/challenge7.gif""style=""height:400px;""></stim_listA>",,html-keyboard-response,169,851925,0.0-15.0-1.10,39160,List1A,black,woman,,,,null,,,,,,,,,
null,is challenging,,html-keyboard-response,170,853942,0.0-15.0-2.10,39160,List1A,black,woman,,,,null,,,,,,,,,
11328.7,,,survey-text,171,865276,0.0-15.0-3.10,39160,List1A,black,woman,,,,,"{""Q0"":""kate is challenging ruth.""}","<img src=""stim_listA/challenge7.gif""style=""height:400px;""></stim_listA>",is challenging,,,,,,
null,"<div style=""font-size:60px;"">+</div>",,html-keyboard-response,172,865789,0.0-15.0-0.11,39160,List1A,black,woman,,,,null,,,,,,,,,
null,"<img src=""stim_listA/look6.gif""style=""height:400px;""></stim_listA>",,html-keyboard-response,173,867805,0.0-15.0-1.11,39160,List1A,black,woman,,,,null,,,,,,,,,
null,is being looked at by,,html-keyboard-response,174,869819,0.0-15.0-2.11,39160,List1A,black,woman,,,,null,,,,,,,,,
12033.5,,,survey-text,175,881857,0.0-15.0-3.11,39160,List1A,black,woman,,,,,"{""Q0"":""mike is being looked at by dave.""}","<img src=""stim_listA/look6.gif""style=""height:400px;""></stim_listA>",is being looked at by,,,,,,
null,"<div style=""font-size:60px;"">+</div>",,html-keyboard-response,176,882368,0.0-15.0-0.12,39160,List1A,black,woman,,,,null,,,,,,,,,
null,"<img src=""stim_listA/kiss6.gif""style=""height:400px;""></stim_listA>",,html-keyboard-response,177,884386,0.0-15.0-1.12,39160,List1A,black,woman,,,,null,,,,,,,,,
null,is being kissed by,,html-keyboard-response,178,886400,0.0-15.0-2.12,39160,List1A,black,woman,,,,null,,,,,,,,,
8944.3,,,survey-text,179,895371,0.0-15.0-3.12,39160,List1A,black,woman,,,,,"{""Q0"":""dave is being kissed by mike.""}","<img src=""stim_listA/kiss6.gif""style=""height:400px;""></stim_listA>",is being kissed by,,,,,,
null,"<div style=""font-size:60px;"">+</div>",,html-keyboard-response,180,895886,0.0-15.0-0.13,39160,List1A,black,woman,,,,null,,,,,,,,,
null,"<img src=""stim_listA/challenge3.gif""style=""height:400px;""></stim_listA>",,html-keyboard-response,181,897902,0.0-15.0-1.13,39160,List1A,black,woman,,,,null,,,,,,,,,
null,is challenging,,html-keyboard-response,182,899916,0.0-15.0-2.13,39160,List1A,black,woman,,,,null,,,,,,,,,
8497.6,,,survey-text,183,908420,0.0-15.0-3.13,39160,List1A,black,woman,,,,,"{""Q0"":""ruth is challenging dave.""}","<img src=""stim_listA/challenge3.gif""style=""height:400px;""></stim_listA>",is challenging,,,,,,
null,"<div style=""font-size:60px;"">+</div>",,html-keyboard-response,184,908927,0.0-15.0-0.14,39160,List1A,black,woman,,,,null,,,,,,,,,
null,"<img src=""stim_listA/copy1.gif""style=""height:400px;""></stim_listA>",,html-keyboard-response,185,910938,0.0-15.0-1.14,39160,List1A,black,woman,,,,null,,,,,,,,,
null,is copying,,html-keyboard-response,186,912940,0.0-15.0-2.14,39160,List1A,black,woman,,,,null,,,,,,,,,
9557.4,,,survey-text,187,922522,0.0-15.0-3.14,39160,List1A,black,woman,,,,,"{""Q0"":""beth is copying mike.""}","<img src=""stim_listA/copy1.gif""style=""height:400px;""></stim_listA>",is copying,,,,,,
null,"<div style=""font-size:60px;"">+</div>",,html-keyboard-response,188,923028,0.0-15.0-0.15,39160,List1A,black,woman,,,,null,,,,,,,,,
null,"<img src=""stim_listA/seduce6.gif""style=""height:400px;""></stim_listA>",,html-keyboard-response,189,925042,0.0-15.0-1.15,39160,List1A,black,woman,,,,null,,,,,,,,,
null,is being seduced by,,html-keyboard-response,190,927060,0.0-15.0-2.15,39160,List1A,black,woman,,,,null,,,,,,,,,
13984,,,survey-text,191,941066,0.0-15.0-3.15,39160,List1A,black,woman,,,,,"{""Q0"":""mike is being seduced by luke.""}","<img src=""stim_listA/seduce6.gif""style=""height:400px;""></stim_listA>",is being seduced by,,,,,,
null,"<div style=""font-size:60px;"">+</div>",,html-keyboard-response,192,941583,0.0-15.0-0.16,39160,List1A,black,woman,,,,null,,,,,,,,,
null,"<img src=""stim_listA/shout2.gif""style=""height:400px;""></stim_listA>",,html-keyboard-response,193,943600,0.0-15.0-1.16,39160,List1A,black,woman,,,,null,,,,,,,,,
null,is being shouted at by,,html-keyboard-response,194,945611,0.0-15.0-2.16,39160,List1A,black,woman,,,,null,,,,,,,,,
15443.3,,,survey-text,195,961059,0.0-15.0-3.16,39160,List1A,black,woman,,,,,"{""Q0"":""mike is being shouted at by kate.""}","<img src=""stim_listA/shout2.gif""style=""height:400px;""></stim_listA>",is being shouted at by,,,,,,
null,"<div style=""font-size:60px;"">+</div>",,html-keyboard-response,196,961575,0.0-15.0-0.17,39160,List1A,black,woman,,,,null,,,,,,,,,
null,"<img src=""stim_listA/oppose8.gif""style=""height:400px;""></stim_listA>",,html-keyboard-response,197,963585,0.0-15.0-1.17,39160,List1A,black,woman,,,,null,,,,,,,,,
null,is being opposed by,,html-keyboard-response,198,965596,0.0-15.0-2.17,39160,List1A,black,woman,,,,null,,,,,,,,,
15393.9,,,survey-text,199,980994,0.0-15.0-3.17,39160,List1A,black,woman,,,,,"{""Q0"":""ruth is being opposed by beth.""}","<img src=""stim_listA/oppose8.gif""style=""height:400px;""></stim_listA>",is being opposed by,,,,,,
null,"<div style=""font-size:60px;"">+</div>",,html-keyboard-response,200,981505,0.0-15.0-0.18,39160,List1A,black,woman,,,,null,,,,,,,,,
null,"<img src=""stim_listA/shout3.gif""style=""height:400px;""></stim_listA>",,html-keyboard-response,201,983510,0.0-15.0-1.18,39160,List1A,black,woman,,,,null,,,,,,,,,
null,is shouting at,,html-keyboard-response,202,985525,0.0-15.0-2.18,39160,List1A,black,woman,,,,null,,,,,,,,,
12335.7,,,survey-text,203,997872,0.0-15.0-3.18,39160,List1A,black,woman,,,,,"{""Q0"":""luke is shouting at ruth.""}","<img src=""stim_listA/shout3.gif""style=""height:400px;""></stim_listA>",is shouting at,,,,,,
null,"<div style=""font-size:60px;"">+</div>",,html-keyboard-response,204,998388,0.0-15.0-0.19,39160,List1A,black,woman,,,,null,,,,,,,,,
null,"<img src=""stim_listA/hug5.gif""style=""height:400px;""></stim_listA>",,html-keyboard-response,205,1000400,0.0-15.0-1.19,39160,List1A,black,woman,,,,null,,,,,,,,,
null,is hugging,,html-keyboard-response,206,1002410,0.0-15.0-2.19,39160,List1A,black,woman,,,,null,,,,,,,,,
17883.9,,,survey-text,207,1020299,0.0-15.0-3.19,39160,List1A,black,woman,,,,,"{""Q0"":""i missed the picture.""}","<img src=""stim_listA/hug5.gif""style=""height:400px;""></stim_listA>",is hugging,,,,,,
5846.1,"<img src='img/portrait_matrix_list1.jpg' style='width:900px;height:500px;''></img><p>If you have memorised all the portraits and names and are ready to start, press Continue.</p><p><strong>Please note: Your memory of these faces will be tested 4 times during this experiment.</strong></p>",0,html-button-response,208,1026147,0.0-16.0-0.0,39160,List1A,black,woman,,,,,,,,,,,,,
3060.1,"<img src=""portrait/WW2.jpg""style=""height:400px;""></img>",3,html-button-response,209,1030214,0.0-16.0-1.0,39160,List1A,black,woman,,TRUE,3,,,,,,,,,,
null,CORRECT,,html-keyboard-response,210,1031749,0.0-16.0-2.0-0.0,39160,List1A,black,woman,,,,null,,,,,,,,,
2508.4,"<img src=""portrait/BM2.jpg""style=""height:400px;""></img>",5,html-button-response,211,1034260,0.0-16.0-4.0,39160,List1A,black,woman,,TRUE,5,,,,,,,,,,
null,CORRECT,,html-keyboard-response,212,1035782,0.0-16.0-5.0-0.0,39160,List1A,black,woman,,,,null,,,,,,,,,
2930.7,"<img src=""portrait/WM2.jpg""style=""height:400px;""></img>",7,html-button-response,213,1038715,0.0-16.0-7.0,39160,List1A,black,woman,,TRUE,7,,,,,,,,,,
null,CORRECT,,html-keyboard-response,214,1040236,0.0-16.0-8.0-0.0,39160,List1A,black,woman,,,,null,,,,,,,,,
2942,"<img src=""portrait/BW1.jpg""style=""height:400px;""></img>",0,html-button-response,215,1043181,0.0-16.0-10.0,39160,List1A,black,woman,,TRUE,0,,,,,,,,,,
null,CORRECT,,html-keyboard-response,216,1044698,0.0-16.0-11.0-0.0,39160,List1A,black,woman,,,,null,,,,,,,,,
3529.7,"<img src=""portrait/BW2.jpg""style=""height:400px;""></img>",2,html-button-response,217,1048231,0.0-16.0-13.0,39160,List1A,black,woman,,TRUE,2,,,,,,,,,,
null,CORRECT,,html-keyboard-response,218,1049743,0.0-16.0-14.0-0.0,39160,List1A,black,woman,,,,null,,,,,,,,,
2604.7,"<img src=""portrait/WW1.jpg""style=""height:400px;""></img>",1,html-button-response,219,1052351,0.0-16.0-16.0,39160,List1A,black,woman,,TRUE,1,,,,,,,,,,
null,CORRECT,,html-keyboard-response,220,1053869,0.0-16.0-17.0-0.0,39160,List1A,black,woman,,,,null,,,,,,,,,
3366.4,"<img src=""portrait/BM1.jpg""style=""height:400px;""></img>",4,html-button-response,221,1057237,0.0-16.0-19.0,39160,List1A,black,woman,,TRUE,4,,,,,,,,,,
null,CORRECT,,html-keyboard-response,222,1058755,0.0-16.0-20.0-0.0,39160,List1A,black,woman,,,,null,,,,,,,,,
5160.8,"<img src=""portrait/WM1.jpg""style=""height:400px;""></img>",6,html-button-response,223,1063918,0.0-16.0-22.0,39160,List1A,black,woman,,TRUE,6,,,,,,,,,,
null,CORRECT,,html-keyboard-response,224,1065427,0.0-16.0-23.0-0.0,39160,List1A,black,woman,,,,null,,,,,,,,,
4824.4,<p>You got 8 out of 8 right first time. Press Continue.</p>,0,html-button-response,225,1070254,0.0-16.0-25.0,39160,List1A,black,woman,,,,,,,,,,,,,
null,"<div style=""font-size:60px;"">+</div>",,html-keyboard-response,226,1071775,0.0-17.0-0.0,39160,List1A,black,woman,,,,null,,,,,,,,,
null,"<img src=""stim_listA/kiss4.gif""style=""height:400px;""></stim_listA>",,html-keyboard-response,227,1073783,0.0-17.0-1.0,39160,List1A,black,woman,,,,null,,,,,,,,,
null,is being kissed by,,html-keyboard-response,228,1075795,0.0-17.0-2.0,39160,List1A,black,woman,,,,null,,,,,,,,,
23069.5,,,survey-text,229,1098870,0.0-17.0-3.0,39160,List1A,black,woman,,,,,"{""Q0"":""dave is being kissed by ruth.""}","<img src=""stim_listA/kiss4.gif""style=""height:400px;""></stim_listA>",is being kissed by,,,,,,
null,"<div style=""font-size:60px;"">+</div>",,html-keyboard-response,230,1099380,0.0-17.0-0.1,39160,List1A,black,woman,,,,null,,,,,,,,,
null,"<img src=""stim_listA/copy7.gif""style=""height:400px;""></stim_listA>",,html-keyboard-response,231,1101388,0.0-17.0-1.1,39160,List1A,black,woman,,,,null,,,,,,,,,
null,is copying,,html-keyboard-response,232,1103397,0.0-17.0-2.1,39160,List1A,black,woman,,,,null,,,,,,,,,
23129,,,survey-text,233,1126531,0.0-17.0-3.1,39160,List1A,black,woman,,,,,"{""Q0"":""ruth and kate, i missed the action.""}","<img src=""stim_listA/copy7.gif""style=""height:400px;""></stim_listA>",is copying,,,,,,
null,"<div style=""font-size:60px;"">+</div>",,html-keyboard-response,234,1127036,0.0-17.0-0.2,39160,List1A,black,woman,,,,null,,,,,,,,,
null,"<img src=""stim_listA/touch5.gif""style=""height:400px;""></stim_listA>",,html-keyboard-response,235,1129041,0.0-17.0-1.2,39160,List1A,black,woman,,,,null,,,,,,,,,
null,is touching,,html-keyboard-response,236,1131047,0.0-17.0-2.2,39160,List1A,black,woman,,,,null,,,,,,,,,
15194,,,survey-text,237,1146246,0.0-17.0-3.2,39160,List1A,black,woman,,,,,"{""Q0"":""dave is touching mike.""}","<img src=""stim_listA/touch5.gif""style=""height:400px;""></stim_listA>",is touching,,,,,,
null,"<div style=""font-size:60px;"">+</div>",,html-keyboard-response,238,1146761,0.0-17.0-0.3,39160,List1A,black,woman,,,,null,,,,,,,,,
null,"<img src=""stim_listA/kiss5.gif""style=""height:400px;""></stim_listA>",,html-keyboard-response,239,1148764,0.0-17.0-1.3,39160,List1A,black,woman,,,,null,,,,,,,,,
null,is kissing,,html-keyboard-response,240,1150771,0.0-17.0-2.3,39160,List1A,black,woman,,,,null,,,,,,,,,
7271.7,,,survey-text,241,1158047,0.0-17.0-3.3,39160,List1A,black,woman,,,,,"{""Q0"":""fred is kissing luke.""}","<img src=""stim_listA/kiss5.gif""style=""height:400px;""></stim_listA>",is kissing,,,,,,
null,"<div style=""font-size:60px;"">+</div>",,html-keyboard-response,242,1158564,0.0-17.0-0.4,39160,List1A,black,woman,,,,null,,,,,,,,,
null,"<img src=""stim_listA/challenge5.gif""style=""height:400px;""></stim_listA>",,html-keyboard-response,243,1160582,0.0-17.0-1.4,39160,List1A,black,woman,,,,null,,,,,,,,,
null,is challenging,,html-keyboard-response,244,1162596,0.0-17.0-2.4,39160,List1A,black,woman,,,,null,,,,,,,,,
10853.6,,,survey-text,245,1173454,0.0-17.0-3.4,39160,List1A,black,woman,,,,,"{""Q0"":""luke is challenging mike.""}","<img src=""stim_listA/challenge5.gif""style=""height:400px;""></stim_listA>",is challenging,,,,,,
null,"<div style=""font-size:60px;"">+</div>",,html-keyboard-response,246,1173965,0.0-17.0-0.5,39160,List1A,black,woman,,,,null,,,,,,,,,
null,"<img src=""stim_listA/greet5.gif""style=""height:400px;""></stim_listA>",,html-keyboard-response,247,1175978,0.0-17.0-1.5,39160,List1A,black,woman,,,,null,,,,,,,,,
null,is greeting,,html-keyboard-response,248,1177986,0.0-17.0-2.5,39160,List1A,black,woman,,,,null,,,,,,,,,
6319.3,,,survey-text,249,1184316,0.0-17.0-3.5,39160,List1A,black,woman,,,,,"{""Q0"":""luke is greeting mike.""}","<img src=""stim_listA/greet5.gif""style=""height:400px;""></stim_listA>",is greeting,,,,,,
null,"<div style=""font-size:60px;"">+</div>",,html-keyboard-response,250,1184830,0.0-17.0-0.6,39160,List1A,black,woman,,,,null,,,,,,,,,
null,"<img src=""stim_listA/shout7.gif""style=""height:400px;""></stim_listA>",,html-keyboard-response,251,1186849,0.0-17.0-1.6,39160,List1A,black,woman,,,,null,,,,,,,,,
null,is shouting at,,html-keyboard-response,252,1188876,0.0-17.0-2.6,39160,List1A,black,woman,,,,null,,,,,,,,,
9255.2,,,survey-text,253,1198136,0.0-17.0-3.6,39160,List1A,black,woman,,,,,"{""Q0"":""beth is shouting at ruth.""}","<img src=""stim_listA/shout7.gif""style=""height:400px;""></stim_listA>",is shouting at,,,,,,
null,"<div style=""font-size:60px;"">+</div>",,html-keyboard-response,254,1198651,0.0-17.0-0.7,39160,List1A,black,woman,,,,null,,,,,,,,,
null,"<img src=""stim_listA/greet3.gif""style=""height:400px;""></stim_listA>",,html-keyboard-response,255,1200667,0.0-17.0-1.7,39160,List1A,black,woman,,,,null,,,,,,,,,
null,is greeting,,html-keyboard-response,256,1202683,0.0-17.0-2.7,39160,List1A,black,woman,,,,null,,,,,,,,,
12511.8,,,survey-text,257,1215199,0.0-17.0-3.7,39160,List1A,black,woman,,,,,"{""Q0"":""dave is greeting ruth.""}","<img src=""stim_listA/greet3.gif""style=""height:400px;""></stim_listA>",is greeting,,,,,,
null,"<div style=""font-size:60px;"">+</div>",,html-keyboard-response,258,1215714,0.0-17.0-0.8,39160,List1A,black,woman,,,,null,,,,,,,,,
null,"<img src=""stim_listA/hug7.gif""style=""height:400px;""></stim_listA>",,html-keyboard-response,259,1217729,0.0-17.0-1.8,39160,List1A,black,woman,,,,null,,,,,,,,,
null,is hugging,,html-keyboard-response,260,1219742,0.0-17.0-2.8,39160,List1A,black,woman,,,,null,,,,,,,,,
6665.5,,,survey-text,261,1226412,0.0-17.0-3.8,39160,List1A,black,woman,,,,,"{""Q0"":""ruth is hugging beth.""}","<img src=""stim_listA/hug7.gif""style=""height:400px;""></stim_listA>",is hugging,,,,,,
null,"<div style=""font-size:60px;"">+</div>",,html-keyboard-response,262,1226928,0.0-17.0-0.9,39160,List1A,black,woman,,,,null,,,,,,,,,
null,"<img src=""stim_listA/touch8.gif""style=""height:400px;""></stim_listA>",,html-keyboard-response,263,1228935,0.0-17.0-1.9,39160,List1A,black,woman,,,,null,,,,,,,,,
null,is being touched by,,html-keyboard-response,264,1230952,0.0-17.0-2.9,39160,List1A,black,woman,,,,null,,,,,,,,,
8435.6,,,survey-text,265,1239410,0.0-17.0-3.9,39160,List1A,black,woman,,,,,"{""Q0"":""ruth is being touched by beth.""}","<img src=""stim_listA/touch8.gif""style=""height:400px;""></stim_listA>",is being touched by,,,,,,
null,"<div style=""font-size:60px;"">+</div>",,html-keyboard-response,266,1239915,0.0-17.0-0.10,39160,List1A,black,woman,,,,null,,,,,,,,,
null,"<img src=""stim_listA/oppose2.gif""style=""height:400px;""></stim_listA>",,html-keyboard-response,267,1241929,0.0-17.0-1.10,39160,List1A,black,woman,,,,null,,,,,,,,,
null,is being opposed by,,html-keyboard-response,268,1243939,0.0-17.0-2.10,39160,List1A,black,woman,,,,null,,,,,,,,,
8699.2,,,survey-text,269,1252645,0.0-17.0-3.10,39160,List1A,black,woman,,,,,"{""Q0"":""fred is being opposed by beth.""}","<img src=""stim_listA/oppose2.gif""style=""height:400px;""></stim_listA>",is being opposed by,,,,,,
null,"<div style=""font-size:60px;"">+</div>",,html-keyboard-response,270,1253162,0.0-17.0-0.11,39160,List1A,black,woman,,,,null,,,,,,,,,
null,"<img src=""stim_listA/look7.gif""style=""height:400px;""></stim_listA>",,html-keyboard-response,271,1255173,0.0-17.0-1.11,39160,List1A,black,woman,,,,null,,,,,,,,,
null,is looking at,,html-keyboard-response,272,1257184,0.0-17.0-2.11,39160,List1A,black,woman,,,,null,,,,,,,,,
6554.3,,,survey-text,273,1263743,0.0-17.0-3.11,39160,List1A,black,woman,,,,,"{""Q0"":""beth is looking at ruth.""}","<img src=""stim_listA/look7.gif""style=""height:400px;""></stim_listA>",is looking at,,,,,,
null,"<div style=""font-size:60px;"">+</div>",,html-keyboard-response,274,1264247,0.0-17.0-0.12,39160,List1A,black,woman,,,,null,,,,,,,,,
null,"<img src=""stim_listA/hug1.gif""style=""height:400px;""></stim_listA>",,html-keyboard-response,275,1266258,0.0-17.0-1.12,39160,List1A,black,woman,,,,null,,,,,,,,,
null,is hugging,,html-keyboard-response,276,1268275,0.0-17.0-2.12,39160,List1A,black,woman,,,,null,,,,,,,,,
8434,,,survey-text,277,1276730,0.0-17.0-3.12,39160,List1A,black,woman,,,,,"{""Q0"":""fred is hugging beth.""}","<img src=""stim_listA/hug1.gif""style=""height:400px;""></stim_listA>",is hugging,,,,,,
null,"<div style=""font-size:60px;"">+</div>",,html-keyboard-response,278,1277242,0.0-17.0-0.13,39160,List1A,black,woman,,,,null,,,,,,,,,
null,"<img src=""stim_listA/oppose1.gif""style=""height:400px;""></stim_listA>",,html-keyboard-response,279,1279261,0.0-17.0-1.13,39160,List1A,black,woman,,,,null,,,,,,,,,
null,is opposing,,html-keyboard-response,280,1281265,0.0-17.0-2.13,39160,List1A,black,woman,,,,null,,,,,,,,,
28663.9,,,survey-text,281,1309934,0.0-17.0-3.13,39160,List1A,black,woman,,,,,"{""Q0"":""mike is opposing kate.""}","<img src=""stim_listA/oppose1.gif""style=""height:400px;""></stim_listA>",is opposing,,,,,,
null,"<div style=""font-size:60px;"">+</div>",,html-keyboard-response,282,1310463,0.0-17.0-0.14,39160,List1A,black,woman,,,,null,,,,,,,,,
null,"<img src=""stim_listA/kiss2.gif""style=""height:400px;""></stim_listA>",,html-keyboard-response,283,1312471,0.0-17.0-1.14,39160,List1A,black,woman,,,,null,,,,,,,,,
null,is being kissed by,,html-keyboard-response,284,1314488,0.0-17.0-2.14,39160,List1A,black,woman,,,,null,,,,,,,,,
8617.9,,,survey-text,285,1323110,0.0-17.0-3.14,39160,List1A,black,woman,,,,,"{""Q0"":""mike is being kissed by kate.""}","<img src=""stim_listA/kiss2.gif""style=""height:400px;""></stim_listA>",is being kissed by,,,,,,
null,"<div style=""font-size:60px;"">+</div>",,html-keyboard-response,286,1323623,0.0-17.0-0.15,39160,List1A,black,woman,,,,null,,,,,,,,,
null,"<img src=""stim_listA/greet1.gif""style=""height:400px;""></stim_listA>",,html-keyboard-response,287,1325634,0.0-17.0-1.15,39160,List1A,black,woman,,,,null,,,,,,,,,
null,is greeting,,html-keyboard-response,288,1327641,0.0-17.0-2.15,39160,List1A,black,woman,,,,null,,,,,,,,,
7758,,,survey-text,289,1335404,0.0-17.0-3.15,39160,List1A,black,woman,,,,,"{""Q0"":""beth is greeting mike.""}","<img src=""stim_listA/greet1.gif""style=""height:400px;""></stim_listA>",is greeting,,,,,,
null,"<div style=""font-size:60px;"">+</div>",,html-keyboard-response,290,1335911,0.0-17.0-0.16,39160,List1A,black,woman,,,,null,,,,,,,,,
null,"<img src=""stim_listA/kiss8.gif""style=""height:400px;""></stim_listA>",,html-keyboard-response,291,1337924,0.0-17.0-1.16,39160,List1A,black,woman,,,,null,,,,,,,,,
null,is being kissed by,,html-keyboard-response,292,1339927,0.0-17.0-2.16,39160,List1A,black,woman,,,,null,,,,,,,,,
14726,,,survey-text,293,1354658,0.0-17.0-3.16,39160,List1A,black,woman,,,,,"{""Q0"":""kate is being kissed by jane.""}","<img src=""stim_listA/kiss8.gif""style=""height:400px;""></stim_listA>",is being kissed by,,,,,,
null,"<div style=""font-size:60px;"">+</div>",,html-keyboard-response,294,1355171,0.0-17.0-0.17,39160,List1A,black,woman,,,,null,,,,,,,,,
null,"<img src=""stim_listA/oppose4.gif""style=""height:400px;""></stim_listA>",,html-keyboard-response,295,1357185,0.0-17.0-1.17,39160,List1A,black,woman,,,,null,,,,,,,,,
null,is being opposed by,,html-keyboard-response,296,1359194,0.0-17.0-2.17,39160,List1A,black,woman,,,,null,,,,,,,,,
13133.2,,,survey-text,297,1372332,0.0-17.0-3.17,39160,List1A,black,woman,,,,,"{""Q0"":""luke is being opposed by ruth.""}","<img src=""stim_listA/oppose4.gif""style=""height:400px;""></stim_listA>",is being opposed by,,,,,,
null,"<div style=""font-size:60px;"">+</div>",,html-keyboard-response,298,1372849,0.0-17.0-0.18,39160,List1A,black,woman,,,,null,,,,,,,,,
null,"<img src=""stim_listA/challenge1.gif""style=""height:400px;""></stim_listA>",,html-keyboard-response,299,1374862,0.0-17.0-1.18,39160,List1A,black,woman,,,,null,,,,,,,,,
null,is challenging,,html-keyboard-response,300,1376871,0.0-17.0-2.18,39160,List1A,black,woman,,,,null,,,,,,,,,
9305.5,,,survey-text,301,1386198,0.0-17.0-3.18,39160,List1A,black,woman,,,,,"{""Q0"":""beth is challenging mike.""}","<img src=""stim_listA/challenge1.gif""style=""height:400px;""></stim_listA>",is challenging,,,,,,
null,"<div style=""font-size:60px;"">+</div>",,html-keyboard-response,302,1386703,0.0-17.0-0.19,39160,List1A,black,woman,,,,null,,,,,,,,,
null,"<img src=""stim_listA/copy5.gif""style=""height:400px;""></stim_listA>",,html-keyboard-response,303,1388716,0.0-17.0-1.19,39160,List1A,black,woman,,,,null,,,,,,,,,
null,is copying,,html-keyboard-response,304,1390719,0.0-17.0-2.19,39160,List1A,black,woman,,,,null,,,,,,,,,
11236.4,,,survey-text,305,1401983,0.0-17.0-3.19,39160,List1A,black,woman,,,,,"{""Q0"":""luke is copying mike.""}","<img src=""stim_listA/copy5.gif""style=""height:400px;""></stim_listA>",is copying,,,,,,
2270.6,"<img src='img/portrait_matrix_list1.jpg' style='width:900px;height:500px;''></img><p>If you have memorised all the portraits and names and are ready to start, press Continue.</p><p><strong>Please note: Your memory of these faces will be tested 4 times during this experiment.</strong></p>",0,html-button-response,306,1404256,0.0-18.0-0.0,39160,List1A,black,woman,,,,,,,,,,,,,
2440.9,"<img src=""portrait/BM1.jpg""style=""height:400px;""></img>",4,html-button-response,307,1407707,0.0-18.0-1.0,39160,List1A,black,woman,,TRUE,4,,,,,,,,,,
null,CORRECT,,html-keyboard-response,308,1409225,0.0-18.0-2.0-0.0,39160,List1A,black,woman,,,,null,,,,,,,,,
1889.3,"<img src=""portrait/WW2.jpg""style=""height:400px;""></img>",3,html-button-response,309,1411116,0.0-18.0-4.0,39160,List1A,black,woman,,TRUE,3,,,,,,,,,,
null,CORRECT,,html-keyboard-response,310,1412635,0.0-18.0-5.0-0.0,39160,List1A,black,woman,,,,null,,,,,,,,,
2135.2,"<img src=""portrait/WM2.jpg""style=""height:400px;""></img>",7,html-button-response,311,1414772,0.0-18.0-7.0,39160,List1A,black,woman,,TRUE,7,,,,,,,,,,
null,CORRECT,,html-keyboard-response,312,1416294,0.0-18.0-8.0-0.0,39160,List1A,black,woman,,,,null,,,,,,,,,
2182.7,"<img src=""portrait/WW1.jpg""style=""height:400px;""></img>",1,html-button-response,313,1418480,0.0-18.0-10.0,39160,List1A,black,woman,,TRUE,1,,,,,,,,,,
null,CORRECT,,html-keyboard-response,314,1420011,0.0-18.0-11.0-0.0,39160,List1A,black,woman,,,,null,,,,,,,,,
3547.4,"<img src=""portrait/BM2.jpg""style=""height:400px;""></img>",5,html-button-response,315,1423560,0.0-18.0-13.0,39160,List1A,black,woman,,TRUE,5,,,,,,,,,,
null,CORRECT,,html-keyboard-response,316,1425086,0.0-18.0-14.0-0.0,39160,List1A,black,woman,,,,null,,,,,,,,,
3838.5,"<img src=""portrait/WM1.jpg""style=""height:400px;""></img>",6,html-button-response,317,1428927,0.0-18.0-16.0,39160,List1A,black,woman,,TRUE,6,,,,,,,,,,
null,CORRECT,,html-keyboard-response,318,1430477,0.0-18.0-17.0-0.0,39160,List1A,black,woman,,,,null,,,,,,,,,
3486.6,"<img src=""portrait/BW1.jpg""style=""height:400px;""></img>",0,html-button-response,319,1433965,0.0-18.0-19.0,39160,List1A,black,woman,,TRUE,0,,,,,,,,,,
null,CORRECT,,html-keyboard-response,320,1435498,0.0-18.0-20.0-0.0,39160,List1A,black,woman,,,,null,,,,,,,,,
1824,"<img src=""portrait/BW2.jpg""style=""height:400px;""></img>",2,html-button-response,321,1437324,0.0-18.0-22.0,39160,List1A,black,woman,,TRUE,2,,,,,,,,,,
null,CORRECT,,html-keyboard-response,322,1438841,0.0-18.0-23.0-0.0,39160,List1A,black,woman,,,,null,,,,,,,,,
1389.1,<p>You got 8 out of 8 right first time. Press Continue.</p>,0,html-button-response,323,1440232,0.0-18.0-25.0,39160,List1A,black,woman,,,,,,,,,,,,,
null,"<div style=""font-size:60px;"">+</div>",,html-keyboard-response,324,1441752,0.0-19.0-0.0,39160,List1A,black,woman,,,,null,,,,,,,,,
null,"<img src=""stim_listA/touch2.gif""style=""height:400px;""></stim_listA>",,html-keyboard-response,325,1443759,0.0-19.0-1.0,39160,List1A,black,woman,,,,null,,,,,,,,,
null,is being touched by,,html-keyboard-response,326,1445774,0.0-19.0-2.0,39160,List1A,black,woman,,,,null,,,,,,,,,
8802.1,,,survey-text,327,1454581,0.0-19.0-3.0,39160,List1A,black,woman,,,,,"{""Q0"":""fred is being touched by beth.""}","<img src=""stim_listA/touch2.gif""style=""height:400px;""></stim_listA>",is being touched by,,,,,,
null,"<div style=""font-size:60px;"">+</div>",,html-keyboard-response,328,1455093,0.0-19.0-0.1,39160,List1A,black,woman,,,,null,,,,,,,,,
null,"<img src=""stim_listA/copy8.gif""style=""height:400px;""></stim_listA>",,html-keyboard-response,329,1457106,0.0-19.0-1.1,39160,List1A,black,woman,,,,null,,,,,,,,,
null,is being copied by,,html-keyboard-response,330,1459112,0.0-19.0-2.1,39160,List1A,black,woman,,,,null,,,,,,,,,
11529.2,,,survey-text,331,1470668,0.0-19.0-3.1,39160,List1A,black,woman,,,,,"{""Q0"":""beth is being copied by jane.""}","<img src=""stim_listA/copy8.gif""style=""height:400px;""></stim_listA>",is being copied by,,,,,,
null,"<div style=""font-size:60px;"">+</div>",,html-keyboard-response,332,1471185,0.0-19.0-0.2,39160,List1A,black,woman,,,,null,,,,,,,,,
null,"<img src=""stim_listA/touch7.gif""style=""height:400px;""></stim_listA>",,html-keyboard-response,333,1473198,0.0-19.0-1.2,39160,List1A,black,woman,,,,null,,,,,,,,,
null,is touching,,html-keyboard-response,334,1475207,0.0-19.0-2.2,39160,List1A,black,woman,,,,null,,,,,,,,,
9925.2,,,survey-text,335,1485139,0.0-19.0-3.2,39160,List1A,black,woman,,,,,"{""Q0"":""kate is touching jane.""}","<img src=""stim_listA/touch7.gif""style=""height:400px;""></stim_listA>",is touching,,,,,,
null,"<div style=""font-size:60px;"">+</div>",,html-keyboard-response,336,1485645,0.0-19.0-0.3,39160,List1A,black,woman,,,,null,,,,,,,,,
null,"<img src=""stim_listA/look1.gif""style=""height:400px;""></stim_listA>",,html-keyboard-response,337,1487657,0.0-19.0-1.3,39160,List1A,black,woman,,,,null,,,,,,,,,
null,is looking at,,html-keyboard-response,338,1489668,0.0-19.0-2.3,39160,List1A,black,woman,,,,null,,,,,,,,,
7657,,,survey-text,339,1497337,0.0-19.0-3.3,39160,List1A,black,woman,,,,,"{""Q0"":""fred is looking at beth.""}","<img src=""stim_listA/look1.gif""style=""height:400px;""></stim_listA>",is looking at,,,,,,
null,"<div style=""font-size:60px;"">+</div>",,html-keyboard-response,340,1497843,0.0-19.0-0.4,39160,List1A,black,woman,,,,null,,,,,,,,,
null,"<img src=""stim_listA/hug4.gif""style=""height:400px;""></stim_listA>",,html-keyboard-response,341,1499862,0.0-19.0-1.4,39160,List1A,black,woman,,,,null,,,,,,,,,
null,is being hugged by,,html-keyboard-response,342,1501880,0.0-19.0-2.4,39160,List1A,black,woman,,,,null,,,,,,,,,
16810.9,,,survey-text,343,1518696,0.0-19.0-3.4,39160,List1A,black,woman,,,,,"{""Q0"":""jane is being hugged by dave.""}","<img src=""stim_listA/hug4.gif""style=""height:400px;""></stim_listA>",is being hugged by,,,,,,
null,"<div style=""font-size:60px;"">+</div>",,html-keyboard-response,344,1519212,0.0-19.0-0.5,39160,List1A,black,woman,,,,null,,,,,,,,,
null,"<img src=""stim_listA/touch6.gif""style=""height:400px;""></stim_listA>",,html-keyboard-response,345,1521228,0.0-19.0-1.5,39160,List1A,black,woman,,,,null,,,,,,,,,
null,is being touched by,,html-keyboard-response,346,1523242,0.0-19.0-2.5,39160,List1A,black,woman,,,,null,,,,,,,,,
15126.4,,,survey-text,347,1538373,0.0-19.0-3.5,39160,List1A,black,woman,,,,,"{""Q0"":""fred is being touched by luke.""}","<img src=""stim_listA/touch6.gif""style=""height:400px;""></stim_listA>",is being touched by,,,,,,
null,"<div style=""font-size:60px;"">+</div>",,html-keyboard-response,348,1538890,0.0-19.0-0.6,39160,List1A,black,woman,,,,null,,,,,,,,,
null,"<img src=""stim_listA/kiss7.gif""style=""height:400px;""></stim_listA>",,html-keyboard-response,349,1540908,0.0-19.0-1.6,39160,List1A,black,woman,,,,null,,,,,,,,,
null,is kissing,,html-keyboard-response,350,1542918,0.0-19.0-2.6,39160,List1A,black,woman,,,,null,,,,,,,,,
7335.9,,,survey-text,351,1550260,0.0-19.0-3.6,39160,List1A,black,woman,,,,,"{""Q0"":""beth is kissing ruth.""}","<img src=""stim_listA/kiss7.gif""style=""height:400px;""></stim_listA>",is kissing,,,,,,
null,"<div style=""font-size:60px;"">+</div>",,html-keyboard-response,352,1550775,0.0-19.0-0.7,39160,List1A,black,woman,,,,null,,,,,,,,,
null,"<img src=""stim_listA/kiss1.gif""style=""height:400px;""></stim_listA>",,html-keyboard-response,353,1552809,0.0-19.0-1.7,39160,List1A,black,woman,,,,null,,,,,,,,,
null,is kissing,,html-keyboard-response,354,1554822,0.0-19.0-2.7,39160,List1A,black,woman,,,,null,,,,,,,,,
12993.8,,,survey-text,355,1567821,0.0-19.0-3.7,39160,List1A,black,woman,,,,,"{""Q0"":""fred is kissing beth.""}","<img src=""stim_listA/kiss1.gif""style=""height:400px;""></stim_listA>",is kissing,,,,,,
null,"<div style=""font-size:60px;"">+</div>",,html-keyboard-response,356,1568325,0.0-19.0-0.8,39160,List1A,black,woman,,,,null,,,,,,,,,
null,"<img src=""stim_listA/seduce2.gif""style=""height:400px;""></stim_listA>",,html-keyboard-response,357,1570339,0.0-19.0-1.8,39160,List1A,black,woman,,,,null,,,,,,,,,
null,is being seduced by,,html-keyboard-response,358,1572354,0.0-19.0-2.8,39160,List1A,black,woman,,,,null,,,,,,,,,
13325.5,,,survey-text,359,1585707,0.0-19.0-3.8,39160,List1A,black,woman,,,,,"{""Q0"":""mike is being seduced by beth.""}","<img src=""stim_listA/seduce2.gif""style=""height:400px;""></stim_listA>",is being seduced by,,,,,,
null,"<div style=""font-size:60px;"">+</div>",,html-keyboard-response,360,1586223,0.0-19.0-0.9,39160,List1A,black,woman,,,,null,,,,,,,,,
null,"<img src=""stim_listA/touch4.gif""style=""height:400px;""></stim_listA>",,html-keyboard-response,361,1588234,0.0-19.0-1.9,39160,List1A,black,woman,,,,null,,,,,,,,,
null,is being touched by,,html-keyboard-response,362,1590250,0.0-19.0-2.9,39160,List1A,black,woman,,,,null,,,,,,,,,
10238.7,,,survey-text,363,1600495,0.0-19.0-3.9,39160,List1A,black,woman,,,,,"{""Q0"":""luke is being touched by ruth.""}","<img src=""stim_listA/touch4.gif""style=""height:400px;""></stim_listA>",is being touched by,,,,,,
null,"<div style=""font-size:60px;"">+</div>",,html-keyboard-response,364,1601003,0.0-19.0-0.10,39160,List1A,black,woman,,,,null,,,,,,,,,
null,"<img src=""stim_listA/shout4.gif""style=""height:400px;""></stim_listA>",,html-keyboard-response,365,1603022,0.0-19.0-1.10,39160,List1A,black,woman,,,,null,,,,,,,,,
null,is being shouted at by,,html-keyboard-response,366,1605032,0.0-19.0-2.10,39160,List1A,black,woman,,,,null,,,,,,,,,
15532.1,,,survey-text,367,1620569,0.0-19.0-3.10,39160,List1A,black,woman,,,,,"{""Q0"":""jane is being shouted at by dave""}","<img src=""stim_listA/shout4.gif""style=""height:400px;""></stim_listA>",is being shouted at by,,,,,,
null,"<div style=""font-size:60px;"">+</div>",,html-keyboard-response,368,1621080,0.0-19.0-0.11,39160,List1A,black,woman,,,,null,,,,,,,,,
null,"<img src=""stim_listA/look3.gif""style=""height:400px;""></stim_listA>",,html-keyboard-response,369,1623094,0.0-19.0-1.11,39160,List1A,black,woman,,,,null,,,,,,,,,
null,is looking at,,html-keyboard-response,370,1625110,0.0-19.0-2.11,39160,List1A,black,woman,,,,null,,,,,,,,,
8764.1,,,survey-text,371,1633880,0.0-19.0-3.11,39160,List1A,black,woman,,,,,"{""Q0"":""ruth is looking at luke.""}","<img src=""stim_listA/look3.gif""style=""height:400px;""></stim_listA>",is looking at,,,,,,
null,"<div style=""font-size:60px;"">+</div>",,html-keyboard-response,372,1634395,0.0-19.0-0.12,39160,List1A,black,woman,,,,null,,,,,,,,,
null,"<img src=""stim_listA/oppose6.gif""style=""height:400px;""></stim_listA>",,html-keyboard-response,373,1636408,0.0-19.0-1.12,39160,List1A,black,woman,,,,null,,,,,,,,,
null,is being opposed by,,html-keyboard-response,374,1638419,0.0-19.0-2.12,39160,List1A,black,woman,,,,null,,,,,,,,,
10988.5,,,survey-text,375,1649413,0.0-19.0-3.12,39160,List1A,black,woman,,,,,"{""Q0"":""fred is being opposed by luke.""}","<img src=""stim_listA/oppose6.gif""style=""height:400px;""></stim_listA>",is being opposed by,,,,,,
null,"<div style=""font-size:60px;"">+</div>",,html-keyboard-response,376,1649929,0.0-19.0-0.13,39160,List1A,black,woman,,,,null,,,,,,,,,
null,"<img src=""stim_listA/seduce5.gif""style=""height:400px;""></stim_listA>",,html-keyboard-response,377,1651941,0.0-19.0-1.13,39160,List1A,black,woman,,,,null,,,,,,,,,
null,is seducing,,html-keyboard-response,378,1653958,0.0-19.0-2.13,39160,List1A,black,woman,,,,null,,,,,,,,,
6939.4,,,survey-text,379,1660902,0.0-19.0-3.13,39160,List1A,black,woman,,,,,"{""Q0"":""dave is seducing fred.""}","<img src=""stim_listA/seduce5.gif""style=""height:400px;""></stim_listA>",is seducing,,,,,,
null,"<div style=""font-size:60px;"">+</div>",,html-keyboard-response,380,1661414,0.0-19.0-0.14,39160,List1A,black,woman,,,,null,,,,,,,,,
null,"<img src=""stim_listA/challenge8.gif""style=""height:400px;""></stim_listA>",,html-keyboard-response,381,1663422,0.0-19.0-1.14,39160,List1A,black,woman,,,,null,,,,,,,,,
null,is being challenged by,,html-keyboard-response,382,1665429,0.0-19.0-2.14,39160,List1A,black,woman,,,,null,,,,,,,,,
15566.3,,,survey-text,383,1680999,0.0-19.0-3.14,39160,List1A,black,woman,,,,,"{""Q0"":""beth is being challenged by jane.""}","<img src=""stim_listA/challenge8.gif""style=""height:400px;""></stim_listA>",is being challenged by,,,,,,
null,"<div style=""font-size:60px;"">+</div>",,html-keyboard-response,384,1681502,0.0-19.0-0.15,39160,List1A,black,woman,,,,null,,,,,,,,,
null,"<img src=""stim_listA/shout5.gif""style=""height:400px;""></stim_listA>",,html-keyboard-response,385,1683507,0.0-19.0-1.15,39160,List1A,black,woman,,,,null,,,,,,,,,
null,is shouting at,,html-keyboard-response,386,1685517,0.0-19.0-2.15,39160,List1A,black,woman,,,,null,,,,,,,,,
8862.3,,,survey-text,387,1694385,0.0-19.0-3.15,39160,List1A,black,woman,,,,,"{""Q0"":""luke is shouting at fred.""}","<img src=""stim_listA/shout5.gif""style=""height:400px;""></stim_listA>",is shouting at,,,,,,
null,"<div style=""font-size:60px;"">+</div>",,html-keyboard-response,388,1694894,0.0-19.0-0.16,39160,List1A,black,woman,,,,null,,,,,,,,,
null,"<img src=""stim_listA/oppose7.gif""style=""height:400px;""></stim_listA>",,html-keyboard-response,389,1696909,0.0-19.0-1.16,39160,List1A,black,woman,,,,null,,,,,,,,,
null,is opposing,,html-keyboard-response,390,1698924,0.0-19.0-2.16,39160,List1A,black,woman,,,,null,,,,,,,,,
6996.2,,,survey-text,391,1705945,0.0-19.0-3.16,39160,List1A,black,woman,,,,,"{""Q0"":""kate is opposing jane.""}","<img src=""stim_listA/oppose7.gif""style=""height:400px;""></stim_listA>",is opposing,,,,,,
null,"<div style=""font-size:60px;"">+</div>",,html-keyboard-response,392,1706449,0.0-19.0-0.17,39160,List1A,black,woman,,,,null,,,,,,,,,
null,"<img src=""stim_listA/greet8.gif""style=""height:400px;""></stim_listA>",,html-keyboard-response,393,1708454,0.0-19.0-1.17,39160,List1A,black,woman,,,,null,,,,,,,,,
null,is being greeted by,,html-keyboard-response,394,1710463,0.0-19.0-2.17,39160,List1A,black,woman,,,,null,,,,,,,,,
9929.3,,,survey-text,395,1720397,0.0-19.0-3.17,39160,List1A,black,woman,,,,,"{""Q0"":""beth is being greeted by jane.""}","<img src=""stim_listA/greet8.gif""style=""height:400px;""></stim_listA>",is being greeted by,,,,,,
null,"<div style=""font-size:60px;"">+</div>",,html-keyboard-response,396,1720910,0.0-19.0-0.18,39160,List1A,black,woman,,,,null,,,,,,,,,
null,"<img src=""stim_listA/challenge6.gif""style=""height:400px;""></stim_listA>",,html-keyboard-response,397,1722925,0.0-19.0-1.18,39160,List1A,black,woman,,,,null,,,,,,,,,
null,is being challenged by,,html-keyboard-response,398,1724939,0.0-19.0-2.18,39160,List1A,black,woman,,,,null,,,,,,,,,
11118.1,,,survey-text,399,1736062,0.0-19.0-3.18,39160,List1A,black,woman,,,,,"{""Q0"":""fred is being greeted by dave.""}","<img src=""stim_listA/challenge6.gif""style=""height:400px;""></stim_listA>",is being challenged by,,,,,,
null,"<div style=""font-size:60px;"">+</div>",,html-keyboard-response,400,1736564,0.0-19.0-0.19,39160,List1A,black,woman,,,,null,,,,,,,,,
null,"<img src=""stim_listA/hug3.gif""style=""height:400px;""></stim_listA>",,html-keyboard-response,401,1738578,0.0-19.0-1.19,39160,List1A,black,woman,,,,null,,,,,,,,,
null,is hugging,,html-keyboard-response,402,1740591,0.0-19.0-2.19,39160,List1A,black,woman,,,,null,,,,,,,,,
8203.5,,,survey-text,403,1748800,0.0-19.0-3.19,39160,List1A,black,woman,,,,,"{""Q0"":""ruth is hugging luke.""}","<img src=""stim_listA/hug3.gif""style=""height:400px;""></stim_listA>",is hugging,,,,,,
3172.5,<p>Thank you for completing that task.</p><p>The final part of this session is a questionnaire that will take about 4 minutes.</p><p>Press Continue.</p>,0,html-button-response,404,1751975,0.0-20.0,39160,List1A,black,woman,,,,,,,,,,,,,
32896,,,survey-text,405,1785910,0.0-21.0,39160,List1A,black,woman,,,,,"{""Q0"":""28"",""Q1"":""english"",""Q2"":""english"",""Q3"":""united states of america"",""Q4"":""american"",""Q5"":""black"",""Q6"":""female""}",,,demographics,,,,,
3074.5,<p>Have you lived in the USA for the last 5 years or more?</p>,0,html-button-response,406,1788987,0.0-22.0,39160,List1A,black,woman,,,,,,,,fiveyears,,,,,
2664.8,<p>Move the slider to show the extent to which you agree with the following statements.</p>,0,html-button-response,407,1792669,0.0-23.0,39160,List1A,black,woman,,,,,,,,,,,,,
6496.5,,,html-slider-response,408,1800208,0.0-24.0-0.0-0.0,39160,List1A,black,woman,,,,,,,,survey_gender,72,,,I have a lot in common with the average person of my gender.,average
6090.1,,,html-slider-response,409,1806300,0.0-24.0-0.0-0.1,39160,List1A,black,woman,,,,,,,,survey_gender,100,,,Being my gender gives me a good feeling.,feeling
5795.7,,,html-slider-response,410,1812099,0.0-24.0-0.0-0.2,39160,List1A,black,woman,,,,,,,,survey_gender,79,,,I feel solidarity with my friends.,filler
5202.9,,,html-slider-response,411,1817304,0.0-24.0-0.0-0.3,39160,List1A,black,woman,,,,,,,,survey_gender,100,,,It is not always easy for people to know what I am thinking.,filler
4321.6,,,html-slider-response,412,1821628,0.0-24.0-0.0-0.4,39160,List1A,black,woman,,,,,,,,survey_gender,100,,,I would say I am an animal person.,filler
6441.5,,,html-slider-response,413,1828072,0.0-24.0-0.0-0.5,39160,List1A,black,woman,,,,,,,,survey_gender,100,,,I think that my gender has a lot to be proud of.,proud
5128.7,,,html-slider-response,414,1833204,0.0-24.0-0.0-0.6,39160,List1A,black,woman,,,,,,,,survey_gender,76,,,I am similar to the average person of my gender.,similar
3869.7,,,html-slider-response,415,1837077,0.0-24.0-0.0-0.7,39160,List1A,black,woman,,,,,,,,survey_gender,77,,,I feel a bond with my gender.,bond
3501.6,,,html-slider-response,416,1840581,0.0-24.0-0.0-0.8,39160,List1A,black,woman,,,,,,,,survey_gender,80,,,It is pleasant to be my gender.,pleasant
3439.6,,,html-slider-response,417,1844024,0.0-24.0-0.0-0.9,39160,List1A,black,woman,,,,,,,,survey_gender,74,,,I feel solidarity with my gender.,solidarity
3349,,,html-slider-response,418,1847375,0.0-24.0-0.0-0.10,39160,List1A,black,woman,,,,,,,,survey_gender,83,,,I am glad to be my gender.,glad
3317.7,,,html-slider-response,419,1850695,0.0-24.0-0.0-0.11,39160,List1A,black,woman,,,,,,,,survey_gender,100,,,I often think about my actions.,filler
3338.9,,,html-slider-response,420,1854037,0.0-24.0-0.0-0.12,39160,List1A,black,woman,,,,,,,,survey_gender,90,,,I feel committed to my gender.,committed
5184.3,,,html-slider-response,421,1859224,0.0-24.0-0.0-0.13,39160,List1A,black,woman,,,,,,,,survey_gender,0,,,I often think about the fact that I am my gender.,often
4353.1,,,html-slider-response,422,1863579,0.0-24.0-0.0-0.14,39160,List1A,black,woman,,,,,,,,survey_gender,77,,,People of my gender have a lot in common with each other.,common
4813.8,,,html-slider-response,423,1868395,0.0-24.0-0.0-0.15,39160,List1A,black,woman,,,,,,,,survey_gender,57,,,Routine is not important to me.,filler
4331.8,,,html-slider-response,424,1872729,0.0-24.0-0.0-0.16,39160,List1A,black,woman,,,,,,,,survey_gender,27,,,Most of the friends in my life are very similar to me.,filler
7467.2,,,html-slider-response,425,1880199,0.0-24.0-0.0-0.17,39160,List1A,black,woman,,,,,,,,survey_gender,60,,,People of my gender are very similar to each other.,verysimilar
3245,,,html-slider-response,426,1883447,0.0-24.0-0.0-0.18,39160,List1A,black,woman,,,,,,,,survey_gender,100,,,I am glad to have the friends that I have.,filler
3276.8,,,html-slider-response,427,1886726,0.0-24.0-0.0-0.19,39160,List1A,black,woman,,,,,,,,survey_gender,100,,,I consider myself a highly empathetic person.,filler
5173.1,,,html-slider-response,428,1891901,0.0-24.0-0.0-0.20,39160,List1A,black,woman,,,,,,,,survey_gender,66,,,My friends have a lot in common with each other.,filler
3634.3,,,html-slider-response,429,1895539,0.0-24.0-0.0-0.21,39160,List1A,black,woman,,,,,,,,survey_gender,70,,,I have a lot in common with my friends.,filler
7282.6,,,html-slider-response,430,1902825,0.0-24.0-0.0-0.22,39160,List1A,black,woman,,,,,,,,survey_gender,57,,,Family is not more important to me than friendship.,filler
3090.8,,,html-slider-response,431,1905918,0.0-24.0-0.0-0.23,39160,List1A,black,woman,,,,,,,,survey_gender,61,,,Being around my friends gives me a good feeling.,filler
4424.5,,,html-slider-response,432,1910345,0.0-24.0-0.0-0.24,39160,List1A,black,woman,,,,,,,,survey_gender,0,,,The fact that I am my gender is an important part of my identity.,identity
3153.9,,,html-slider-response,433,1913501,0.0-24.0-0.0-0.25,39160,List1A,black,woman,,,,,,,,survey_gender,70,,,My friends understand me.,filler
3614,,,html-slider-response,434,1917118,0.0-24.0-0.0-0.26,39160,List1A,black,woman,,,,,,,,survey_gender,71,,,I feel a bond with my friends.,filler
4936.5,,,html-slider-response,435,1922057,0.0-24.0-0.0-0.27,39160,List1A,black,woman,,,,,,,,survey_gender,0,,,Being my gender is an important part of how I see myself.,important
4988.2,,,html-slider-response,436,1927048,0.0-24.0-1.0-0.0,39160,List1A,black,woman,,,,,,,,survey_race,62,,,I have a lot in common with the average person of my race.,average
3616.2,,,html-slider-response,437,1930667,0.0-24.0-1.0-0.1,39160,List1A,black,woman,,,,,,,,survey_race,60,,,Being my age gives me a good feeling.,filler
2693,,,html-slider-response,438,1933364,0.0-24.0-1.0-0.2,39160,List1A,black,woman,,,,,,,,survey_race,67,,,I am glad to be my age.,filler
4774.8,,,html-slider-response,439,1938141,0.0-24.0-1.0-0.3,39160,List1A,black,woman,,,,,,,,survey_race,33,,,I feel solidarity with people the same age as me.,filler
3060.5,,,html-slider-response,440,1941204,0.0-24.0-1.0-0.4,39160,List1A,black,woman,,,,,,,,survey_race,0,,,I often think about the fact that I am my age.,filler
3431,,,html-slider-response,441,1944637,0.0-24.0-1.0-0.5,39160,List1A,black,woman,,,,,,,,survey_race,0,,,I enjoy being in large groups.,filler
3860,,,html-slider-response,442,1948500,0.0-24.0-1.0-0.6,39160,List1A,black,woman,,,,,,,,survey_race,65,,,I feel committed to my race.,committed
6844.4,,,html-slider-response,443,1955347,0.0-24.0-1.0-0.7,39160,List1A,black,woman,,,,,,,,survey_race,100,,,It is pleasant to be my race.,pleasant
4506,,,html-slider-response,444,1959856,0.0-24.0-1.0-0.8,39160,List1A,black,woman,,,,,,,,survey_race,56,,,People my age have a lot in common with each other.,filler
3143.7,,,html-slider-response,445,1963002,0.0-24.0-1.0-0.9,39160,List1A,black,woman,,,,,,,,survey_race,100,,,I consider myself an introvert.,filler
3626.1,,,html-slider-response,446,1966631,0.0-24.0-1.0-0.10,39160,List1A,black,woman,,,,,,,,survey_race,24,,,I consider myself an extrovert.,filler
3503.2,,,html-slider-response,447,1970137,0.0-24.0-1.0-0.11,39160,List1A,black,woman,,,,,,,,survey_race,100,,,"The older I get, the wiser I feel.",filler
3266.7,,,html-slider-response,448,1973405,0.0-24.0-1.0-0.12,39160,List1A,black,woman,,,,,,,,survey_race,63,,,I feel a bond with my race.,bond
3093.1,,,html-slider-response,449,1976501,0.0-24.0-1.0-0.13,39160,List1A,black,woman,,,,,,,,survey_race,100,,,I think that my race has a lot to be proud of.,proud
2868.2,,,html-slider-response,450,1979372,0.0-24.0-1.0-0.14,39160,List1A,black,woman,,,,,,,,survey_race,77,,,I am glad to be the age I am.,filler
4148.9,,,html-slider-response,451,1983523,0.0-24.0-1.0-0.15,39160,List1A,black,woman,,,,,,,,survey_race,60,,,I feel a bond with people the same age as me.,filler
3319,,,html-slider-response,452,1986844,0.0-24.0-1.0-0.16,39160,List1A,black,woman,,,,,,,,survey_race,100,,,Getting older does not worry me.,filler
3636.5,,,html-slider-response,453,1990484,0.0-24.0-1.0-0.17,39160,List1A,black,woman,,,,,,,,survey_race,100,,,I am glad to be my race.,glad
3226.6,,,html-slider-response,454,1993713,0.0-24.0-1.0-0.18,39160,List1A,black,woman,,,,,,,,survey_race,68,,,People of my race have a lot in common with each other.,common
4457.7,,,html-slider-response,455,1998173,0.0-24.0-1.0-0.19,39160,List1A,black,woman,,,,,,,,survey_race,100,,,My age is not an important part of who I am.,filler
4314.8,,,html-slider-response,456,2002490,0.0-24.0-1.0-0.20,39160,List1A,black,woman,,,,,,,,survey_race,0,,,The fact that I am my race is an important part of my identity.,identity
3431.5,,,html-slider-response,457,2005924,0.0-24.0-1.0-0.21,39160,List1A,black,woman,,,,,,,,survey_race,100,,,Being my race gives me a good feeling.,feeling
3586.1,,,html-slider-response,458,2009513,0.0-24.0-1.0-0.22,39160,List1A,black,woman,,,,,,,,survey_race,65,,,People of my race are very similar to each other.,verysimilar
4139.7,,,html-slider-response,459,2013655,0.0-24.0-1.0-0.23,39160,List1A,black,woman,,,,,,,,survey_race,65,,,I feel solidarity with my race.,solidarity
3709.5,,,html-slider-response,460,2017367,0.0-24.0-1.0-0.24,39160,List1A,black,woman,,,,,,,,survey_race,0,,,Being my race is an important part of how I see myself.,important
4775.6,,,html-slider-response,461,2022145,0.0-24.0-1.0-0.25,39160,List1A,black,woman,,,,,,,,survey_race,58,,,I have a lot in common with people of a similar age to me.,filler
3759.6,,,html-slider-response,462,2025907,0.0-24.0-1.0-0.26,39160,List1A,black,woman,,,,,,,,survey_race,61,,,I am similar to the average person of my race.,similar
3010.9,,,html-slider-response,463,2028921,0.0-24.0-1.0-0.27,39160,List1A,black,woman,,,,,,,,survey_race,0,,,I often think about the fact that I am my race.,often
10704.9,,,survey-text,464,2039632,0.0-25.0,39160,List1A,black,woman,,,,,"{""Q0"":""ccc""}",,,worker_id,,,,,
18424.4,,,external-html,465,2058425,0.0-26.0,39160,List1A,black,woman,debrief.html,,,,,,,,,,,,
