rt,stimulus,button_pressed,trial_type,trial_index,time_elapsed,internal_node_id,subject,list,ppt_race,ppt_gender,url,first_guess,correct,key_press,responses,image_type,phrase_type,test_part,response,stimulus1,stimulus2,question_type,survey_item
3426,Welcome to the experiment. Press Continue to begin.,0,html-button-response,0,3434,0.0-0.0,39207,List1A,black,man,,,,,,,,,,,,,
12063,,,external-html,1,16980,0.0-1.0,39207,List1A,black,man,consent.html,,,,,,,,,,,,
745452,"<p>On the next page, you will see portraits of 8 people and their names.</p><p>Your first task is to take a few minutes to memorise the names of these people.</p><p>You will have to recall their names during the rest of the experiment, so it is</p><p>essential that you try to memorise these people and their names as best as you can.</p><br><p><strong>You will then be tested on your memory of these names and portraits.</strong></p><br><p>The experiment will start after you have completed this memory test.</p><br><p>Ready?</p>",0,html-button-response,2,762438,0.0-2.0,39207,List1A,black,man,,,,,,,,,,,,,
137995,"<img src='img/portrait_matrix_list1.jpg' style='width:900px;height:500px;''></img><p>If you have memorised all the portraits and names and are ready to start, press Continue.</p><p><strong>Please note: Your memory of these faces will be tested 4 times during this experiment.</strong></p>",0,html-button-response,3,901439,0.0-3.0-0.0,39207,List1A,black,man,,,,,,,,,,,,,
2978,"<img src=""portrait/BM1.jpg""style=""height:400px;""></img>",4,html-button-response,4,905438,0.0-3.0-1.0,39207,List1A,black,man,,TRUE,4,,,,,,,,,,
null,CORRECT,,html-keyboard-response,5,906965,0.0-3.0-2.0-0.0,39207,List1A,black,man,,,,null,,,,,,,,,
11541,"<img src=""portrait/WW1.jpg""style=""height:400px;""></img>",1,html-button-response,6,918509,0.0-3.0-4.0,39207,List1A,black,man,,TRUE,1,,,,,,,,,,
null,CORRECT,,html-keyboard-response,7,920044,0.0-3.0-5.0-0.0,39207,List1A,black,man,,,,null,,,,,,,,,
8212,"<img src=""portrait/WM2.jpg""style=""height:400px;""></img>",7,html-button-response,8,928259,0.0-3.0-7.0,39207,List1A,black,man,,TRUE,7,,,,,,,,,,
null,CORRECT,,html-keyboard-response,9,929795,0.0-3.0-8.0-0.0,39207,List1A,black,man,,,,null,,,,,,,,,
6024,"<img src=""portrait/BW1.jpg""style=""height:400px;""></img>",0,html-button-response,10,935822,0.0-3.0-10.0,39207,List1A,black,man,,TRUE,0,,,,,,,,,,
null,CORRECT,,html-keyboard-response,11,937346,0.0-3.0-11.0-0.0,39207,List1A,black,man,,,,null,,,,,,,,,
5271,"<img src=""portrait/WM1.jpg""style=""height:400px;""></img>",6,html-button-response,12,942619,0.0-3.0-13.0,39207,List1A,black,man,,TRUE,6,,,,,,,,,,
null,CORRECT,,html-keyboard-response,13,944146,0.0-3.0-14.0-0.0,39207,List1A,black,man,,,,null,,,,,,,,,
3641,"<img src=""portrait/BM2.jpg""style=""height:400px;""></img>",5,html-button-response,14,947790,0.0-3.0-16.0,39207,List1A,black,man,,TRUE,5,,,,,,,,,,
null,CORRECT,,html-keyboard-response,15,949326,0.0-3.0-17.0-0.0,39207,List1A,black,man,,,,null,,,,,,,,,
3991,"<img src=""portrait/WW2.jpg""style=""height:400px;""></img>",3,html-button-response,16,953319,0.0-3.0-19.0,39207,List1A,black,man,,TRUE,3,,,,,,,,,,
null,CORRECT,,html-keyboard-response,17,954856,0.0-3.0-20.0-0.0,39207,List1A,black,man,,,,null,,,,,,,,,
4893,"<img src=""portrait/BW2.jpg""style=""height:400px;""></img>",2,html-button-response,18,959751,0.0-3.0-22.0,39207,List1A,black,man,,TRUE,2,,,,,,,,,,
null,CORRECT,,html-keyboard-response,19,961286,0.0-3.0-23.0-0.0,39207,List1A,black,man,,,,null,,,,,,,,,
3602,<p>You got 8 out of 8 right first time. Press Continue.</p>,0,html-button-response,20,964891,0.0-3.0-25.0,39207,List1A,black,man,,,,,,,,,,,,,
25412,"<p>In this experiment, you will view photographs of the people from the memory game interacting.</p><p>By using the <strong>exact</strong> phrase given <i>after</i> the photograph appears and recalling the correct names of the people in the photographs, form a sentence describing the interaction. You do not need to capitalise names.</p><p>Type your answer in the space provided. Please complete every sentence before moving onto the next trial.</p><p>You will only have a few seconds to memorise each given photograph and phrase before you can respond, so try your best to focus.</p><p>An example is given below. Press 'Continue' when you are ready.</p><img src='img/speaking_example.jpg' style='width:800px;height:460px;''></img>",0,html-button-response,21,991322,0.0-4.0,39207,List1A,black,man,,,,,,,,,,,,,
1416,"<p>Before the experiment starts, you will watch two example trials. Press 'Continue'.</p>",0,html-button-response,22,993740,0.0-5.0,39207,List1A,black,man,,,,,,,,,,,,,
null,<img src='img/play_eg.gif' style='height:400px;''></img>,,html-keyboard-response,23,996773,0.0-6.0,39207,List1A,black,man,,,,null,,,,,,,,,
null,<p>is playing with</p>,,html-keyboard-response,24,998777,0.0-7.0,39207,List1A,black,man,,,,null,,,,,,,,,
3842,<p><b>Answer:</b> kate is playing with beth</p>,0,html-button-response,25,1002620,0.0-8.0,39207,List1A,black,man,,,,,,,,,,,,,
null,<img src='img/dance_eg.gif' style='height:400px;''></img>,,html-keyboard-response,26,1005657,0.0-9.0,39207,List1A,black,man,,,,null,,,,,,,,,
null,<p>is being entertained by</p>,,html-keyboard-response,27,1007678,0.0-10.0,39207,List1A,black,man,,,,null,,,,,,,,,
1642,<p><b>Answer:</b> luke is being entertained by dave</p>,0,html-button-response,28,1009322,0.0-11.0,39207,List1A,black,man,,,,,,,,,,,,,
518334,"<p>Ready to start the experiment?</p><br><p><strong>Remember to describe the picture using a full sentence,</strong></p><p><strong>that combines the names of the people with the <i>exact</i> phrase given.</strong></p><p><strong>To receive full payment you must do this correctly.</strong></p><p><strong> You do not need to capitalise names or use punctuation.</strong></p><br><p>Press 'Continue' to begin.</p>",0,html-button-response,29,1528667,0.0-12.0,39207,List1A,black,man,,,,,,,,,,,,,
null,"<div style=""font-size:60px;"">+</div>",,html-keyboard-response,30,1530195,0.0-13.0-0.0,39207,List1A,black,man,,,,null,,,,,,,,,
null,"<img src=""stim_listA/greet2.gif""style=""height:400px;""></stim_listA>",,html-keyboard-response,31,1532215,0.0-13.0-1.0,39207,List1A,black,man,,,,null,,,,,,,,,
null,is being greeted by,,html-keyboard-response,32,1534235,0.0-13.0-2.0,39207,List1A,black,man,,,,null,,,,,,,,,
51687,,,survey-text,33,1586006,0.0-13.0-3.0,39207,List1A,black,man,,,,,"{""Q0"":""luke is being greeted by kate""}","<img src=""stim_listA/greet2.gif""style=""height:400px;""></stim_listA>",is being greeted by,,,,,,
null,"<div style=""font-size:60px;"">+</div>",,html-keyboard-response,34,1586516,0.0-13.0-0.1,39207,List1A,black,man,,,,null,,,,,,,,,
null,"<img src=""stim_listA/kiss7.gif""style=""height:400px;""></stim_listA>",,html-keyboard-response,35,1588536,0.0-13.0-1.1,39207,List1A,black,man,,,,null,,,,,,,,,
null,is kissing,,html-keyboard-response,36,1590547,0.0-13.0-2.1,39207,List1A,black,man,,,,null,,,,,,,,,
34751,,,survey-text,37,1625304,0.0-13.0-3.1,39207,List1A,black,man,,,,,"{""Q0"":""beth is kissing jane""}","<img src=""stim_listA/kiss7.gif""style=""height:400px;""></stim_listA>",is kissing,,,,,,
null,"<div style=""font-size:60px;"">+</div>",,html-keyboard-response,38,1625813,0.0-13.0-0.2,39207,List1A,black,man,,,,null,,,,,,,,,
null,"<img src=""stim_listA/kiss8.gif""style=""height:400px;""></stim_listA>",,html-keyboard-response,39,1627838,0.0-13.0-1.2,39207,List1A,black,man,,,,null,,,,,,,,,
null,is being kissed by,,html-keyboard-response,40,1629847,0.0-13.0-2.2,39207,List1A,black,man,,,,null,,,,,,,,,
22441,,,survey-text,41,1652295,0.0-13.0-3.2,39207,List1A,black,man,,,,,"{""Q0"":""kate is kissing ruth""}","<img src=""stim_listA/kiss8.gif""style=""height:400px;""></stim_listA>",is being kissed by,,,,,,
null,"<div style=""font-size:60px;"">+</div>",,html-keyboard-response,42,1652809,0.0-13.0-0.3,39207,List1A,black,man,,,,null,,,,,,,,,
null,"<img src=""stim_listA/touch6.gif""style=""height:400px;""></stim_listA>",,html-keyboard-response,43,1654828,0.0-13.0-1.3,39207,List1A,black,man,,,,null,,,,,,,,,
null,is being touched by,,html-keyboard-response,44,1656846,0.0-13.0-2.3,39207,List1A,black,man,,,,null,,,,,,,,,
37977,,,survey-text,45,1694829,0.0-13.0-3.3,39207,List1A,black,man,,,,,"{""Q0"":""fred is giving luke a high five""}","<img src=""stim_listA/touch6.gif""style=""height:400px;""></stim_listA>",is being touched by,,,,,,
null,"<div style=""font-size:60px;"">+</div>",,html-keyboard-response,46,1695340,0.0-13.0-0.4,39207,List1A,black,man,,,,null,,,,,,,,,
null,"<img src=""stim_listA/shout6.gif""style=""height:400px;""></stim_listA>",,html-keyboard-response,47,1697360,0.0-13.0-1.4,39207,List1A,black,man,,,,null,,,,,,,,,
null,is being shouted at by,,html-keyboard-response,48,1699380,0.0-13.0-2.4,39207,List1A,black,man,,,,null,,,,,,,,,
25132,,,survey-text,49,1724518,0.0-13.0-3.4,39207,List1A,black,man,,,,,"{""Q0"":""dave and luke are both yelling""}","<img src=""stim_listA/shout6.gif""style=""height:400px;""></stim_listA>",is being shouted at by,,,,,,
null,"<div style=""font-size:60px;"">+</div>",,html-keyboard-response,50,1725028,0.0-13.0-0.5,39207,List1A,black,man,,,,null,,,,,,,,,
null,"<img src=""stim_listA/oppose2.gif""style=""height:400px;""></stim_listA>",,html-keyboard-response,51,1727041,0.0-13.0-1.5,39207,List1A,black,man,,,,null,,,,,,,,,
null,is being opposed by,,html-keyboard-response,52,1729061,0.0-13.0-2.5,39207,List1A,black,man,,,,null,,,,,,,,,
33964,,,survey-text,53,1763029,0.0-13.0-3.5,39207,List1A,black,man,,,,,"{""Q0"":""fred is being opposed by kate""}","<img src=""stim_listA/oppose2.gif""style=""height:400px;""></stim_listA>",is being opposed by,,,,,,
null,"<div style=""font-size:60px;"">+</div>",,html-keyboard-response,54,1763542,0.0-13.0-0.6,39207,List1A,black,man,,,,null,,,,,,,,,
null,"<img src=""stim_listA/shout4.gif""style=""height:400px;""></stim_listA>",,html-keyboard-response,55,1765563,0.0-13.0-1.6,39207,List1A,black,man,,,,null,,,,,,,,,
null,is being shouted at by,,html-keyboard-response,56,1767582,0.0-13.0-2.6,39207,List1A,black,man,,,,null,,,,,,,,,
52423,,,survey-text,57,1820010,0.0-13.0-3.6,39207,List1A,black,man,,,,,"{""Q0"":""jane is being shouted at by dave""}","<img src=""stim_listA/shout4.gif""style=""height:400px;""></stim_listA>",is being shouted at by,,,,,,
null,"<div style=""font-size:60px;"">+</div>",,html-keyboard-response,58,1820524,0.0-13.0-0.7,39207,List1A,black,man,,,,null,,,,,,,,,
null,"<img src=""stim_listA/copy5.gif""style=""height:400px;""></stim_listA>",,html-keyboard-response,59,1822534,0.0-13.0-1.7,39207,List1A,black,man,,,,null,,,,,,,,,
null,is copying,,html-keyboard-response,60,1824554,0.0-13.0-2.7,39207,List1A,black,man,,,,null,,,,,,,,,
23752,,,survey-text,61,1848313,0.0-13.0-3.7,39207,List1A,black,man,,,,,"{""Q0"":""mike is giving luke an elbow""}","<img src=""stim_listA/copy5.gif""style=""height:400px;""></stim_listA>",is copying,,,,,,
null,"<div style=""font-size:60px;"">+</div>",,html-keyboard-response,62,1848825,0.0-13.0-0.8,39207,List1A,black,man,,,,null,,,,,,,,,
null,"<img src=""stim_listA/copy6.gif""style=""height:400px;""></stim_listA>",,html-keyboard-response,63,1850845,0.0-13.0-1.8,39207,List1A,black,man,,,,null,,,,,,,,,
null,is being copied by,,html-keyboard-response,64,1852851,0.0-13.0-2.8,39207,List1A,black,man,,,,null,,,,,,,,,
43337,,,survey-text,65,1896193,0.0-13.0-3.8,39207,List1A,black,man,,,,,"{""Q0"":""fred is being copied by dave""}","<img src=""stim_listA/copy6.gif""style=""height:400px;""></stim_listA>",is being copied by,,,,,,
null,"<div style=""font-size:60px;"">+</div>",,html-keyboard-response,66,1896707,0.0-13.0-0.9,39207,List1A,black,man,,,,null,,,,,,,,,
null,"<img src=""stim_listA/look7.gif""style=""height:400px;""></stim_listA>",,html-keyboard-response,67,1898727,0.0-13.0-1.9,39207,List1A,black,man,,,,null,,,,,,,,,
null,is looking at,,html-keyboard-response,68,1900746,0.0-13.0-2.9,39207,List1A,black,man,,,,null,,,,,,,,,
22751,,,survey-text,69,1923504,0.0-13.0-3.9,39207,List1A,black,man,,,,,"{""Q0"":""jane is looking at ruth""}","<img src=""stim_listA/look7.gif""style=""height:400px;""></stim_listA>",is looking at,,,,,,
null,"<div style=""font-size:60px;"">+</div>",,html-keyboard-response,70,1924017,0.0-13.0-0.10,39207,List1A,black,man,,,,null,,,,,,,,,
null,"<img src=""stim_listA/hug1.gif""style=""height:400px;""></stim_listA>",,html-keyboard-response,71,1926037,0.0-13.0-1.10,39207,List1A,black,man,,,,null,,,,,,,,,
null,is hugging,,html-keyboard-response,72,1928057,0.0-13.0-2.10,39207,List1A,black,man,,,,null,,,,,,,,,
13712,,,survey-text,73,1941775,0.0-13.0-3.10,39207,List1A,black,man,,,,,"{""Q0"":""fred is hugging beth""}","<img src=""stim_listA/hug1.gif""style=""height:400px;""></stim_listA>",is hugging,,,,,,
null,"<div style=""font-size:60px;"">+</div>",,html-keyboard-response,74,1942278,0.0-13.0-0.11,39207,List1A,black,man,,,,null,,,,,,,,,
null,"<img src=""stim_listA/kiss3.gif""style=""height:400px;""></stim_listA>",,html-keyboard-response,75,1944298,0.0-13.0-1.11,39207,List1A,black,man,,,,null,,,,,,,,,
null,is kissing,,html-keyboard-response,76,1946318,0.0-13.0-2.11,39207,List1A,black,man,,,,null,,,,,,,,,
14052,,,survey-text,77,1960375,0.0-13.0-3.11,39207,List1A,black,man,,,,,"{""Q0"":""ruth is kissing luke""}","<img src=""stim_listA/kiss3.gif""style=""height:400px;""></stim_listA>",is kissing,,,,,,
null,"<div style=""font-size:60px;"">+</div>",,html-keyboard-response,78,1960889,0.0-13.0-0.12,39207,List1A,black,man,,,,null,,,,,,,,,
null,"<img src=""stim_listA/copy3.gif""style=""height:400px;""></stim_listA>",,html-keyboard-response,79,1962908,0.0-13.0-1.12,39207,List1A,black,man,,,,null,,,,,,,,,
null,is copying,,html-keyboard-response,80,1964925,0.0-13.0-2.12,39207,List1A,black,man,,,,null,,,,,,,,,
27956,,,survey-text,81,1992887,0.0-13.0-3.12,39207,List1A,black,man,,,,,"{""Q0"":""dave is copping ruth""}","<img src=""stim_listA/copy3.gif""style=""height:400px;""></stim_listA>",is copying,,,,,,
null,"<div style=""font-size:60px;"">+</div>",,html-keyboard-response,82,1993399,0.0-13.0-0.13,39207,List1A,black,man,,,,null,,,,,,,,,
null,"<img src=""stim_listA/touch2.gif""style=""height:400px;""></stim_listA>",,html-keyboard-response,83,1995410,0.0-13.0-1.13,39207,List1A,black,man,,,,null,,,,,,,,,
null,is being touched by,,html-keyboard-response,84,1997420,0.0-13.0-2.13,39207,List1A,black,man,,,,null,,,,,,,,,
22254,,,survey-text,85,2019679,0.0-13.0-3.13,39207,List1A,black,man,,,,,"{""Q0"":""fred is being touched by beth""}","<img src=""stim_listA/touch2.gif""style=""height:400px;""></stim_listA>",is being touched by,,,,,,
null,"<div style=""font-size:60px;"">+</div>",,html-keyboard-response,86,2020191,0.0-13.0-0.14,39207,List1A,black,man,,,,null,,,,,,,,,
null,"<img src=""stim_listA/greet3.gif""style=""height:400px;""></stim_listA>",,html-keyboard-response,87,2022201,0.0-13.0-1.14,39207,List1A,black,man,,,,null,,,,,,,,,
null,is greeting,,html-keyboard-response,88,2024221,0.0-13.0-2.14,39207,List1A,black,man,,,,null,,,,,,,,,
16491,,,survey-text,89,2040718,0.0-13.0-3.14,39207,List1A,black,man,,,,,"{""Q0"":""dave is greeting ruth""}","<img src=""stim_listA/greet3.gif""style=""height:400px;""></stim_listA>",is greeting,,,,,,
null,"<div style=""font-size:60px;"">+</div>",,html-keyboard-response,90,2041229,0.0-13.0-0.15,39207,List1A,black,man,,,,null,,,,,,,,,
null,"<img src=""stim_listA/shout3.gif""style=""height:400px;""></stim_listA>",,html-keyboard-response,91,2043251,0.0-13.0-1.15,39207,List1A,black,man,,,,null,,,,,,,,,
null,is shouting at,,html-keyboard-response,92,2045262,0.0-13.0-2.15,39207,List1A,black,man,,,,null,,,,,,,,,
16321,,,survey-text,93,2061589,0.0-13.0-3.15,39207,List1A,black,man,,,,,"{""Q0"":""ruth is shouting at luke""}","<img src=""stim_listA/shout3.gif""style=""height:400px;""></stim_listA>",is shouting at,,,,,,
null,"<div style=""font-size:60px;"">+</div>",,html-keyboard-response,94,2062102,0.0-13.0-0.16,39207,List1A,black,man,,,,null,,,,,,,,,
null,"<img src=""stim_listA/shout2.gif""style=""height:400px;""></stim_listA>",,html-keyboard-response,95,2064122,0.0-13.0-1.16,39207,List1A,black,man,,,,null,,,,,,,,,
null,is being shouted at by,,html-keyboard-response,96,2066142,0.0-13.0-2.16,39207,List1A,black,man,,,,null,,,,,,,,,
23803,,,survey-text,97,2089949,0.0-13.0-3.16,39207,List1A,black,man,,,,,"{""Q0"":""mike is being shouted at by jane""}","<img src=""stim_listA/shout2.gif""style=""height:400px;""></stim_listA>",is being shouted at by,,,,,,
null,"<div style=""font-size:60px;"">+</div>",,html-keyboard-response,98,2090462,0.0-13.0-0.17,39207,List1A,black,man,,,,null,,,,,,,,,
null,"<img src=""stim_listA/look3.gif""style=""height:400px;""></stim_listA>",,html-keyboard-response,99,2092483,0.0-13.0-1.17,39207,List1A,black,man,,,,null,,,,,,,,,
null,is looking at,,html-keyboard-response,100,2094493,0.0-13.0-2.17,39207,List1A,black,man,,,,null,,,,,,,,,
13620,,,survey-text,101,2108119,0.0-13.0-3.17,39207,List1A,black,man,,,,,"{""Q0"":""luke is looking at ruth""}","<img src=""stim_listA/look3.gif""style=""height:400px;""></stim_listA>",is looking at,,,,,,
null,"<div style=""font-size:60px;"">+</div>",,html-keyboard-response,102,2108633,0.0-13.0-0.18,39207,List1A,black,man,,,,null,,,,,,,,,
null,"<img src=""stim_listA/oppose8.gif""style=""height:400px;""></stim_listA>",,html-keyboard-response,103,2110653,0.0-13.0-1.18,39207,List1A,black,man,,,,null,,,,,,,,,
null,is being opposed by,,html-keyboard-response,104,2112673,0.0-13.0-2.18,39207,List1A,black,man,,,,null,,,,,,,,,
21153,,,survey-text,105,2133831,0.0-13.0-3.18,39207,List1A,black,man,,,,,"{""Q0"":""kate is being opposed by jane""}","<img src=""stim_listA/oppose8.gif""style=""height:400px;""></stim_listA>",is being opposed by,,,,,,
null,"<div style=""font-size:60px;"">+</div>",,html-keyboard-response,106,2134344,0.0-13.0-0.19,39207,List1A,black,man,,,,null,,,,,,,,,
null,"<img src=""stim_listA/copy8.gif""style=""height:400px;""></stim_listA>",,html-keyboard-response,107,2136364,0.0-13.0-1.19,39207,List1A,black,man,,,,null,,,,,,,,,
null,is being copied by,,html-keyboard-response,108,2138384,0.0-13.0-2.19,39207,List1A,black,man,,,,null,,,,,,,,,
27373,,,survey-text,109,2165762,0.0-13.0-3.19,39207,List1A,black,man,,,,,"{""Q0"":""ruth is being copied by kate""}","<img src=""stim_listA/copy8.gif""style=""height:400px;""></stim_listA>",is being copied by,,,,,,
55966,"<img src='img/portrait_matrix_list1.jpg' style='width:900px;height:500px;''></img><p>If you have memorised all the portraits and names and are ready to start, press Continue.</p><p><strong>Please note: Your memory of these faces will be tested 4 times during this experiment.</strong></p>",0,html-button-response,110,2221731,0.0-14.0-0.0,39207,List1A,black,man,,,,,,,,,,,,,
5000,"<img src=""portrait/WW1.jpg""style=""height:400px;""></img>",1,html-button-response,111,2227741,0.0-14.0-1.0,39207,List1A,black,man,,TRUE,1,,,,,,,,,,
null,CORRECT,,html-keyboard-response,112,2229278,0.0-14.0-2.0-0.0,39207,List1A,black,man,,,,null,,,,,,,,,
2800,"<img src=""portrait/BW2.jpg""style=""height:400px;""></img>",2,html-button-response,113,2232081,0.0-14.0-4.0,39207,List1A,black,man,,TRUE,2,,,,,,,,,,
null,CORRECT,,html-keyboard-response,114,2233617,0.0-14.0-5.0-0.0,39207,List1A,black,man,,,,null,,,,,,,,,
2751,"<img src=""portrait/WM2.jpg""style=""height:400px;""></img>",7,html-button-response,115,2236371,0.0-14.0-7.0,39207,List1A,black,man,,TRUE,7,,,,,,,,,,
null,CORRECT,,html-keyboard-response,116,2237908,0.0-14.0-8.0-0.0,39207,List1A,black,man,,,,null,,,,,,,,,
4062,"<img src=""portrait/BW1.jpg""style=""height:400px;""></img>",0,html-button-response,117,2241972,0.0-14.0-10.0,39207,List1A,black,man,,TRUE,0,,,,,,,,,,
null,CORRECT,,html-keyboard-response,118,2243508,0.0-14.0-11.0-0.0,39207,List1A,black,man,,,,null,,,,,,,,,
2881,"<img src=""portrait/WM1.jpg""style=""height:400px;""></img>",6,html-button-response,119,2246391,0.0-14.0-13.0,39207,List1A,black,man,,TRUE,6,,,,,,,,,,
null,CORRECT,,html-keyboard-response,120,2247924,0.0-14.0-14.0-0.0,39207,List1A,black,man,,,,null,,,,,,,,,
2505,"<img src=""portrait/BM2.jpg""style=""height:400px;""></img>",5,html-button-response,121,2250432,0.0-14.0-16.0,39207,List1A,black,man,,TRUE,5,,,,,,,,,,
null,CORRECT,,html-keyboard-response,122,2251969,0.0-14.0-17.0-0.0,39207,List1A,black,man,,,,null,,,,,,,,,
3040,"<img src=""portrait/BM1.jpg""style=""height:400px;""></img>",4,html-button-response,123,2255012,0.0-14.0-19.0,39207,List1A,black,man,,TRUE,4,,,,,,,,,,
null,CORRECT,,html-keyboard-response,124,2256539,0.0-14.0-20.0-0.0,39207,List1A,black,man,,,,null,,,,,,,,,
3202,"<img src=""portrait/WW2.jpg""style=""height:400px;""></img>",3,html-button-response,125,2259742,0.0-14.0-22.0,39207,List1A,black,man,,TRUE,3,,,,,,,,,,
null,CORRECT,,html-keyboard-response,126,2261278,0.0-14.0-23.0-0.0,39207,List1A,black,man,,,,null,,,,,,,,,
1620,<p>You got 8 out of 8 right first time. Press Continue.</p>,0,html-button-response,127,2262902,0.0-14.0-25.0,39207,List1A,black,man,,,,,,,,,,,,,
null,"<div style=""font-size:60px;"">+</div>",,html-keyboard-response,128,2264439,0.0-15.0-0.0,39207,List1A,black,man,,,,null,,,,,,,,,
null,"<img src=""stim_listA/copy1.gif""style=""height:400px;""></stim_listA>",,html-keyboard-response,129,2266454,0.0-15.0-1.0,39207,List1A,black,man,,,,null,,,,,,,,,
null,is copying,,html-keyboard-response,130,2268459,0.0-15.0-2.0,39207,List1A,black,man,,,,null,,,,,,,,,
29573,,,survey-text,131,2298036,0.0-15.0-3.0,39207,List1A,black,man,,,,,"{""Q0"":""kate is coping mike""}","<img src=""stim_listA/copy1.gif""style=""height:400px;""></stim_listA>",is copying,,,,,,
null,"<div style=""font-size:60px;"">+</div>",,html-keyboard-response,132,2298549,0.0-15.0-0.1,39207,List1A,black,man,,,,null,,,,,,,,,
null,"<img src=""stim_listA/seduce7.gif""style=""height:400px;""></stim_listA>",,html-keyboard-response,133,2300569,0.0-15.0-1.1,39207,List1A,black,man,,,,null,,,,,,,,,
null,is seducing,,html-keyboard-response,134,2302590,0.0-15.0-2.1,39207,List1A,black,man,,,,null,,,,,,,,,
25071,,,survey-text,135,2327666,0.0-15.0-3.1,39207,List1A,black,man,,,,,"{""Q0"":""beth is looking at jane""}","<img src=""stim_listA/seduce7.gif""style=""height:400px;""></stim_listA>",is seducing,,,,,,
null,"<div style=""font-size:60px;"">+</div>",,html-keyboard-response,136,2328181,0.0-15.0-0.2,39207,List1A,black,man,,,,null,,,,,,,,,
null,"<img src=""stim_listA/greet5.gif""style=""height:400px;""></stim_listA>",,html-keyboard-response,137,2330200,0.0-15.0-1.2,39207,List1A,black,man,,,,null,,,,,,,,,
null,is greeting,,html-keyboard-response,138,2332220,0.0-15.0-2.2,39207,List1A,black,man,,,,null,,,,,,,,,
14300,,,survey-text,139,2346526,0.0-15.0-3.2,39207,List1A,black,man,,,,,"{""Q0"":""mike is greeting luke""}","<img src=""stim_listA/greet5.gif""style=""height:400px;""></stim_listA>",is greeting,,,,,,
null,"<div style=""font-size:60px;"">+</div>",,html-keyboard-response,140,2347041,0.0-15.0-0.3,39207,List1A,black,man,,,,null,,,,,,,,,
null,"<img src=""stim_listA/greet4.gif""style=""height:400px;""></stim_listA>",,html-keyboard-response,141,2349061,0.0-15.0-1.3,39207,List1A,black,man,,,,null,,,,,,,,,
null,is being greeted by,,html-keyboard-response,142,2351082,0.0-15.0-2.3,39207,List1A,black,man,,,,null,,,,,,,,,
20554,,,survey-text,143,2371639,0.0-15.0-3.3,39207,List1A,black,man,,,,,"{""Q0"":""jane is greeting luke""}","<img src=""stim_listA/greet4.gif""style=""height:400px;""></stim_listA>",is being greeted by,,,,,,
null,"<div style=""font-size:60px;"">+</div>",,html-keyboard-response,144,2372152,0.0-15.0-0.4,39207,List1A,black,man,,,,null,,,,,,,,,
null,"<img src=""stim_listA/touch1.gif""style=""height:400px;""></stim_listA>",,html-keyboard-response,145,2374172,0.0-15.0-1.4,39207,List1A,black,man,,,,null,,,,,,,,,
null,is touching,,html-keyboard-response,146,2376192,0.0-15.0-2.4,39207,List1A,black,man,,,,null,,,,,,,,,
28321,,,survey-text,147,2404520,0.0-15.0-3.4,39207,List1A,black,man,,,,,"{""Q0"":""kate is opossing mike""}","<img src=""stim_listA/touch1.gif""style=""height:400px;""></stim_listA>",is touching,,,,,,
null,"<div style=""font-size:60px;"">+</div>",,html-keyboard-response,148,2405033,0.0-15.0-0.5,39207,List1A,black,man,,,,null,,,,,,,,,
null,"<img src=""stim_listA/seduce1.gif""style=""height:400px;""></stim_listA>",,html-keyboard-response,149,2407043,0.0-15.0-1.5,39207,List1A,black,man,,,,null,,,,,,,,,
null,is seducing,,html-keyboard-response,150,2409063,0.0-15.0-2.5,39207,List1A,black,man,,,,null,,,,,,,,,
30852,,,survey-text,151,2439920,0.0-15.0-3.5,39207,List1A,black,man,,,,,"{""Q0"":""kate is playing with fred""}","<img src=""stim_listA/seduce1.gif""style=""height:400px;""></stim_listA>",is seducing,,,,,,
null,"<div style=""font-size:60px;"">+</div>",,html-keyboard-response,152,2440434,0.0-15.0-0.6,39207,List1A,black,man,,,,null,,,,,,,,,
null,"<img src=""stim_listA/challenge3.gif""style=""height:400px;""></stim_listA>",,html-keyboard-response,153,2442454,0.0-15.0-1.6,39207,List1A,black,man,,,,null,,,,,,,,,
null,is challenging,,html-keyboard-response,154,2444474,0.0-15.0-2.6,39207,List1A,black,man,,,,null,,,,,,,,,
16040,,,survey-text,155,2460521,0.0-15.0-3.6,39207,List1A,black,man,,,,,"{""Q0"":""ruth is challenging dave""}","<img src=""stim_listA/challenge3.gif""style=""height:400px;""></stim_listA>",is challenging,,,,,,
null,"<div style=""font-size:60px;"">+</div>",,html-keyboard-response,156,2461035,0.0-15.0-0.7,39207,List1A,black,man,,,,null,,,,,,,,,
null,"<img src=""stim_listA/kiss6.gif""style=""height:400px;""></stim_listA>",,html-keyboard-response,157,2463054,0.0-15.0-1.7,39207,List1A,black,man,,,,null,,,,,,,,,
null,is being kissed by,,html-keyboard-response,158,2465075,0.0-15.0-2.7,39207,List1A,black,man,,,,null,,,,,,,,,
18192,,,survey-text,159,2483272,0.0-15.0-3.7,39207,List1A,black,man,,,,,"{""Q0"":""dave is being kissed by mike""}","<img src=""stim_listA/kiss6.gif""style=""height:400px;""></stim_listA>",is being kissed by,,,,,,
null,"<div style=""font-size:60px;"">+</div>",,html-keyboard-response,160,2483776,0.0-15.0-0.8,39207,List1A,black,man,,,,null,,,,,,,,,
null,"<img src=""stim_listA/seduce3.gif""style=""height:400px;""></stim_listA>",,html-keyboard-response,161,2485785,0.0-15.0-1.8,39207,List1A,black,man,,,,null,,,,,,,,,
null,is seducing,,html-keyboard-response,162,2487806,0.0-15.0-2.8,39207,List1A,black,man,,,,null,,,,,,,,,
22451,,,survey-text,163,2510262,0.0-15.0-3.8,39207,List1A,black,man,,,,,"{""Q0"":""ruth is seducing luke""}","<img src=""stim_listA/seduce3.gif""style=""height:400px;""></stim_listA>",is seducing,,,,,,
null,"<div style=""font-size:60px;"">+</div>",,html-keyboard-response,164,2510776,0.0-15.0-0.9,39207,List1A,black,man,,,,null,,,,,,,,,
null,"<img src=""stim_listA/greet8.gif""style=""height:400px;""></stim_listA>",,html-keyboard-response,165,2512786,0.0-15.0-1.9,39207,List1A,black,man,,,,null,,,,,,,,,
null,is being greeted by,,html-keyboard-response,166,2514806,0.0-15.0-2.9,39207,List1A,black,man,,,,null,,,,,,,,,
19442,,,survey-text,167,2534256,0.0-15.0-3.9,39207,List1A,black,man,,,,,"{""Q0"":""ruth is being greeted by jane ""}","<img src=""stim_listA/greet8.gif""style=""height:400px;""></stim_listA>",is being greeted by,,,,,,
null,"<div style=""font-size:60px;"">+</div>",,html-keyboard-response,168,2534767,0.0-15.0-0.10,39207,List1A,black,man,,,,null,,,,,,,,,
null,"<img src=""stim_listA/greet7.gif""style=""height:400px;""></stim_listA>",,html-keyboard-response,169,2536788,0.0-15.0-1.10,39207,List1A,black,man,,,,null,,,,,,,,,
null,is greeting,,html-keyboard-response,170,2538807,0.0-15.0-2.10,39207,List1A,black,man,,,,null,,,,,,,,,
23290,,,survey-text,171,2562104,0.0-15.0-3.10,39207,List1A,black,man,,,,,"{""Q0"":""ruth is being waved by kate""}","<img src=""stim_listA/greet7.gif""style=""height:400px;""></stim_listA>",is greeting,,,,,,
null,"<div style=""font-size:60px;"">+</div>",,html-keyboard-response,172,2562618,0.0-15.0-0.11,39207,List1A,black,man,,,,null,,,,,,,,,
null,"<img src=""stim_listA/greet6.gif""style=""height:400px;""></stim_listA>",,html-keyboard-response,173,2564638,0.0-15.0-1.11,39207,List1A,black,man,,,,null,,,,,,,,,
null,is being greeted by,,html-keyboard-response,174,2566658,0.0-15.0-2.11,39207,List1A,black,man,,,,null,,,,,,,,,
20471,,,survey-text,175,2587134,0.0-15.0-3.11,39207,List1A,black,man,,,,,"{""Q0"":""dave is being greeted by fred""}","<img src=""stim_listA/greet6.gif""style=""height:400px;""></stim_listA>",is being greeted by,,,,,,
null,"<div style=""font-size:60px;"">+</div>",,html-keyboard-response,176,2587649,0.0-15.0-0.12,39207,List1A,black,man,,,,null,,,,,,,,,
null,"<img src=""stim_listA/hug3.gif""style=""height:400px;""></stim_listA>",,html-keyboard-response,177,2589669,0.0-15.0-1.12,39207,List1A,black,man,,,,null,,,,,,,,,
null,is hugging,,html-keyboard-response,178,2591689,0.0-15.0-2.12,39207,List1A,black,man,,,,null,,,,,,,,,
15771,,,survey-text,179,2607465,0.0-15.0-3.12,39207,List1A,black,man,,,,,"{""Q0"":""ruth is hugging luke""}","<img src=""stim_listA/hug3.gif""style=""height:400px;""></stim_listA>",is hugging,,,,,,
null,"<div style=""font-size:60px;"">+</div>",,html-keyboard-response,180,2607969,0.0-15.0-0.13,39207,List1A,black,man,,,,null,,,,,,,,,
null,"<img src=""stim_listA/seduce5.gif""style=""height:400px;""></stim_listA>",,html-keyboard-response,181,2609989,0.0-15.0-1.13,39207,List1A,black,man,,,,null,,,,,,,,,
null,is seducing,,html-keyboard-response,182,2611999,0.0-15.0-2.13,39207,List1A,black,man,,,,null,,,,,,,,,
16622,,,survey-text,183,2628627,0.0-15.0-3.13,39207,List1A,black,man,,,,,"{""Q0"":""fred is seducing dave""}","<img src=""stim_listA/seduce5.gif""style=""height:400px;""></stim_listA>",is seducing,,,,,,
null,"<div style=""font-size:60px;"">+</div>",,html-keyboard-response,184,2629140,0.0-15.0-0.14,39207,List1A,black,man,,,,null,,,,,,,,,
null,"<img src=""stim_listA/touch4.gif""style=""height:400px;""></stim_listA>",,html-keyboard-response,185,2631160,0.0-15.0-1.14,39207,List1A,black,man,,,,null,,,,,,,,,
null,is being touched by,,html-keyboard-response,186,2633180,0.0-15.0-2.14,39207,List1A,black,man,,,,null,,,,,,,,,
21601,,,survey-text,187,2654787,0.0-15.0-3.14,39207,List1A,black,man,,,,,"{""Q0"":""ruth is being touched by luke""}","<img src=""stim_listA/touch4.gif""style=""height:400px;""></stim_listA>",is being touched by,,,,,,
null,"<div style=""font-size:60px;"">+</div>",,html-keyboard-response,188,2655301,0.0-15.0-0.15,39207,List1A,black,man,,,,null,,,,,,,,,
null,"<img src=""stim_listA/oppose5.gif""style=""height:400px;""></stim_listA>",,html-keyboard-response,189,2657321,0.0-15.0-1.15,39207,List1A,black,man,,,,null,,,,,,,,,
null,is opposing,,html-keyboard-response,190,2659335,0.0-15.0-2.15,39207,List1A,black,man,,,,null,,,,,,,,,
13568,,,survey-text,191,2672908,0.0-15.0-3.15,39207,List1A,black,man,,,,,"{""Q0"":""dave is opposing mike""}","<img src=""stim_listA/oppose5.gif""style=""height:400px;""></stim_listA>",is opposing,,,,,,
null,"<div style=""font-size:60px;"">+</div>",,html-keyboard-response,192,2673422,0.0-15.0-0.16,39207,List1A,black,man,,,,null,,,,,,,,,
null,"<img src=""stim_listA/challenge1.gif""style=""height:400px;""></stim_listA>",,html-keyboard-response,193,2675441,0.0-15.0-1.16,39207,List1A,black,man,,,,null,,,,,,,,,
null,is challenging,,html-keyboard-response,194,2677451,0.0-15.0-2.16,39207,List1A,black,man,,,,null,,,,,,,,,
17941,,,survey-text,195,2695398,0.0-15.0-3.16,39207,List1A,black,man,,,,,"{""Q0"":""beth is challenging mike""}","<img src=""stim_listA/challenge1.gif""style=""height:400px;""></stim_listA>",is challenging,,,,,,
null,"<div style=""font-size:60px;"">+</div>",,html-keyboard-response,196,2695912,0.0-15.0-0.17,39207,List1A,black,man,,,,null,,,,,,,,,
null,"<img src=""stim_listA/copy7.gif""style=""height:400px;""></stim_listA>",,html-keyboard-response,197,2697928,0.0-15.0-1.17,39207,List1A,black,man,,,,null,,,,,,,,,
null,is copying,,html-keyboard-response,198,2699929,0.0-15.0-2.17,39207,List1A,black,man,,,,null,,,,,,,,,
10794,,,survey-text,199,2710729,0.0-15.0-3.17,39207,List1A,black,man,,,,,"{""Q0"":""jane is copping kate""}","<img src=""stim_listA/copy7.gif""style=""height:400px;""></stim_listA>",is copying,,,,,,
null,"<div style=""font-size:60px;"">+</div>",,html-keyboard-response,200,2711243,0.0-15.0-0.18,39207,List1A,black,man,,,,null,,,,,,,,,
null,"<img src=""stim_listA/shout1.gif""style=""height:400px;""></stim_listA>",,html-keyboard-response,201,2713263,0.0-15.0-1.18,39207,List1A,black,man,,,,null,,,,,,,,,
null,is shouting at,,html-keyboard-response,202,2715283,0.0-15.0-2.18,39207,List1A,black,man,,,,null,,,,,,,,,
16433,,,survey-text,203,2731721,0.0-15.0-3.18,39207,List1A,black,man,,,,,"{""Q0"":""beth is shouting at fred""}","<img src=""stim_listA/shout1.gif""style=""height:400px;""></stim_listA>",is shouting at,,,,,,
null,"<div style=""font-size:60px;"">+</div>",,html-keyboard-response,204,2732234,0.0-15.0-0.19,39207,List1A,black,man,,,,null,,,,,,,,,
null,"<img src=""stim_listA/oppose7.gif""style=""height:400px;""></stim_listA>",,html-keyboard-response,205,2734243,0.0-15.0-1.19,39207,List1A,black,man,,,,null,,,,,,,,,
null,is opposing,,html-keyboard-response,206,2736262,0.0-15.0-2.19,39207,List1A,black,man,,,,null,,,,,,,,,
14663,,,survey-text,207,2750931,0.0-15.0-3.19,39207,List1A,black,man,,,,,"{""Q0"":""jane is opposing kate""}","<img src=""stim_listA/oppose7.gif""style=""height:400px;""></stim_listA>",is opposing,,,,,,
8245,"<img src='img/portrait_matrix_list1.jpg' style='width:900px;height:500px;''></img><p>If you have memorised all the portraits and names and are ready to start, press Continue.</p><p><strong>Please note: Your memory of these faces will be tested 4 times during this experiment.</strong></p>",0,html-button-response,208,2759178,0.0-16.0-0.0,39207,List1A,black,man,,,,,,,,,,,,,
2736,"<img src=""portrait/WM1.jpg""style=""height:400px;""></img>",6,html-button-response,209,2762928,0.0-16.0-1.0,39207,List1A,black,man,,TRUE,6,,,,,,,,,,
null,CORRECT,,html-keyboard-response,210,2764465,0.0-16.0-2.0-0.0,39207,List1A,black,man,,,,null,,,,,,,,,
2802,"<img src=""portrait/BW2.jpg""style=""height:400px;""></img>",2,html-button-response,211,2767269,0.0-16.0-4.0,39207,List1A,black,man,,TRUE,2,,,,,,,,,,
null,CORRECT,,html-keyboard-response,212,2768804,0.0-16.0-5.0-0.0,39207,List1A,black,man,,,,null,,,,,,,,,
3532,"<img src=""portrait/BW1.jpg""style=""height:400px;""></img>",0,html-button-response,213,2772339,0.0-16.0-7.0,39207,List1A,black,man,,TRUE,0,,,,,,,,,,
null,CORRECT,,html-keyboard-response,214,2773875,0.0-16.0-8.0-0.0,39207,List1A,black,man,,,,null,,,,,,,,,
2762,"<img src=""portrait/WW1.jpg""style=""height:400px;""></img>",1,html-button-response,215,2776639,0.0-16.0-10.0,39207,List1A,black,man,,TRUE,1,,,,,,,,,,
null,CORRECT,,html-keyboard-response,216,2778165,0.0-16.0-11.0-0.0,39207,List1A,black,man,,,,null,,,,,,,,,
2457,"<img src=""portrait/WW2.jpg""style=""height:400px;""></img>",3,html-button-response,217,2780625,0.0-16.0-13.0,39207,List1A,black,man,,TRUE,3,,,,,,,,,,
null,CORRECT,,html-keyboard-response,218,2782165,0.0-16.0-14.0-0.0,39207,List1A,black,man,,,,null,,,,,,,,,
2181,"<img src=""portrait/WM2.jpg""style=""height:400px;""></img>",7,html-button-response,219,2784348,0.0-16.0-16.0,39207,List1A,black,man,,TRUE,7,,,,,,,,,,
null,CORRECT,,html-keyboard-response,220,2785886,0.0-16.0-17.0-0.0,39207,List1A,black,man,,,,null,,,,,,,,,
2333,"<img src=""portrait/BM1.jpg""style=""height:400px;""></img>",4,html-button-response,221,2788220,0.0-16.0-19.0,39207,List1A,black,man,,TRUE,4,,,,,,,,,,
null,CORRECT,,html-keyboard-response,222,2789745,0.0-16.0-20.0-0.0,39207,List1A,black,man,,,,null,,,,,,,,,
3242,"<img src=""portrait/BM2.jpg""style=""height:400px;""></img>",5,html-button-response,223,2792988,0.0-16.0-22.0,39207,List1A,black,man,,TRUE,5,,,,,,,,,,
null,CORRECT,,html-keyboard-response,224,2794515,0.0-16.0-23.0-0.0,39207,List1A,black,man,,,,null,,,,,,,,,
2006,<p>You got 8 out of 8 right first time. Press Continue.</p>,0,html-button-response,225,2796524,0.0-16.0-25.0,39207,List1A,black,man,,,,,,,,,,,,,
null,"<div style=""font-size:60px;"">+</div>",,html-keyboard-response,226,2798055,0.0-17.0-0.0,39207,List1A,black,man,,,,null,,,,,,,,,
null,"<img src=""stim_listA/challenge2.gif""style=""height:400px;""></stim_listA>",,html-keyboard-response,227,2800075,0.0-17.0-1.0,39207,List1A,black,man,,,,null,,,,,,,,,
null,is being challenged by,,html-keyboard-response,228,2802085,0.0-17.0-2.0,39207,List1A,black,man,,,,null,,,,,,,,,
15933,,,survey-text,229,2818024,0.0-17.0-3.0,39207,List1A,black,man,,,,,"{""Q0"":""kate is opposing fred""}","<img src=""stim_listA/challenge2.gif""style=""height:400px;""></stim_listA>",is being challenged by,,,,,,
null,"<div style=""font-size:60px;"">+</div>",,html-keyboard-response,230,2818536,0.0-17.0-0.1,39207,List1A,black,man,,,,null,,,,,,,,,
null,"<img src=""stim_listA/touch7.gif""style=""height:400px;""></stim_listA>",,html-keyboard-response,231,2820547,0.0-17.0-1.1,39207,List1A,black,man,,,,null,,,,,,,,,
null,is touching,,html-keyboard-response,232,2822567,0.0-17.0-2.1,39207,List1A,black,man,,,,null,,,,,,,,,
12383,,,survey-text,233,2834954,0.0-17.0-3.1,39207,List1A,black,man,,,,,"{""Q0"":""kate is touching jane""}","<img src=""stim_listA/touch7.gif""style=""height:400px;""></stim_listA>",is touching,,,,,,
null,"<div style=""font-size:60px;"">+</div>",,html-keyboard-response,234,2835466,0.0-17.0-0.2,39207,List1A,black,man,,,,null,,,,,,,,,
null,"<img src=""stim_listA/challenge5.gif""style=""height:400px;""></stim_listA>",,html-keyboard-response,235,2837487,0.0-17.0-1.2,39207,List1A,black,man,,,,null,,,,,,,,,
null,is challenging,,html-keyboard-response,236,2839507,0.0-17.0-2.2,39207,List1A,black,man,,,,null,,,,,,,,,
10420,,,survey-text,237,2849932,0.0-17.0-3.2,39207,List1A,black,man,,,,,"{""Q0"":""luke is challenging mike""}","<img src=""stim_listA/challenge5.gif""style=""height:400px;""></stim_listA>",is challenging,,,,,,
null,"<div style=""font-size:60px;"">+</div>",,html-keyboard-response,238,2850449,0.0-17.0-0.3,39207,List1A,black,man,,,,null,,,,,,,,,
null,"<img src=""stim_listA/hug5.gif""style=""height:400px;""></stim_listA>",,html-keyboard-response,239,2852468,0.0-17.0-1.3,39207,List1A,black,man,,,,null,,,,,,,,,
null,is hugging,,html-keyboard-response,240,2854477,0.0-17.0-2.3,39207,List1A,black,man,,,,null,,,,,,,,,
147215,,,survey-text,241,3001698,0.0-17.0-3.3,39207,List1A,black,man,,,,,"{""Q0"":""kate is touching beth""}","<img src=""stim_listA/hug5.gif""style=""height:400px;""></stim_listA>",is hugging,,,,,,
null,"<div style=""font-size:60px;"">+</div>",,html-keyboard-response,242,3002212,0.0-17.0-0.4,39207,List1A,black,man,,,,null,,,,,,,,,
null,"<img src=""stim_listA/seduce4.gif""style=""height:400px;""></stim_listA>",,html-keyboard-response,243,3004232,0.0-17.0-1.4,39207,List1A,black,man,,,,null,,,,,,,,,
null,is being seduced by,,html-keyboard-response,244,3006253,0.0-17.0-2.4,39207,List1A,black,man,,,,null,,,,,,,,,
19192,,,survey-text,245,3025449,0.0-17.0-3.4,39207,List1A,black,man,,,,,"{""Q0"":""dave is being seduced by ruth""}","<img src=""stim_listA/seduce4.gif""style=""height:400px;""></stim_listA>",is being seduced by,,,,,,
null,"<div style=""font-size:60px;"">+</div>",,html-keyboard-response,246,3025963,0.0-17.0-0.5,39207,List1A,black,man,,,,null,,,,,,,,,
null,"<img src=""stim_listA/kiss4.gif""style=""height:400px;""></stim_listA>",,html-keyboard-response,247,3027983,0.0-17.0-1.5,39207,List1A,black,man,,,,null,,,,,,,,,
null,is being kissed by,,html-keyboard-response,248,3029993,0.0-17.0-2.5,39207,List1A,black,man,,,,null,,,,,,,,,
19913,,,survey-text,249,3049910,0.0-17.0-3.5,39207,List1A,black,man,,,,,"{""Q0"":""dave is kissing jane""}","<img src=""stim_listA/kiss4.gif""style=""height:400px;""></stim_listA>",is being kissed by,,,,,,
null,"<div style=""font-size:60px;"">+</div>",,html-keyboard-response,250,3050424,0.0-17.0-0.6,39207,List1A,black,man,,,,null,,,,,,,,,
null,"<img src=""stim_listA/hug6.gif""style=""height:400px;""></stim_listA>",,html-keyboard-response,251,3052443,0.0-17.0-1.6,39207,List1A,black,man,,,,null,,,,,,,,,
null,is being hugged by,,html-keyboard-response,252,3054464,0.0-17.0-2.6,39207,List1A,black,man,,,,null,,,,,,,,,
11298,,,survey-text,253,3065768,0.0-17.0-3.6,39207,List1A,black,man,,,,,"{""Q0"":""mike is hugging dave""}","<img src=""stim_listA/hug6.gif""style=""height:400px;""></stim_listA>",is being hugged by,,,,,,
null,"<div style=""font-size:60px;"">+</div>",,html-keyboard-response,254,3066284,0.0-17.0-0.7,39207,List1A,black,man,,,,null,,,,,,,,,
null,"<img src=""stim_listA/oppose3.gif""style=""height:400px;""></stim_listA>",,html-keyboard-response,255,3068304,0.0-17.0-1.7,39207,List1A,black,man,,,,null,,,,,,,,,
null,is opposing,,html-keyboard-response,256,3070324,0.0-17.0-2.7,39207,List1A,black,man,,,,null,,,,,,,,,
13931,,,survey-text,257,3084261,0.0-17.0-3.7,39207,List1A,black,man,,,,,"{""Q0"":""jane is opposing dave""}","<img src=""stim_listA/oppose3.gif""style=""height:400px;""></stim_listA>",is opposing,,,,,,
null,"<div style=""font-size:60px;"">+</div>",,html-keyboard-response,258,3084775,0.0-17.0-0.8,39207,List1A,black,man,,,,null,,,,,,,,,
null,"<img src=""stim_listA/oppose6.gif""style=""height:400px;""></stim_listA>",,html-keyboard-response,259,3086786,0.0-17.0-1.8,39207,List1A,black,man,,,,null,,,,,,,,,
null,is being opposed by,,html-keyboard-response,260,3088805,0.0-17.0-2.8,39207,List1A,black,man,,,,null,,,,,,,,,
17460,,,survey-text,261,3106272,0.0-17.0-3.8,39207,List1A,black,man,,,,,"{""Q0"":""fred is opposing luke""}","<img src=""stim_listA/oppose6.gif""style=""height:400px;""></stim_listA>",is being opposed by,,,,,,
null,"<div style=""font-size:60px;"">+</div>",,html-keyboard-response,262,3106785,0.0-17.0-0.9,39207,List1A,black,man,,,,null,,,,,,,,,
null,"<img src=""stim_listA/copy4.gif""style=""height:400px;""></stim_listA>",,html-keyboard-response,263,3108796,0.0-17.0-1.9,39207,List1A,black,man,,,,null,,,,,,,,,
null,is being copied by,,html-keyboard-response,264,3110815,0.0-17.0-2.9,39207,List1A,black,man,,,,null,,,,,,,,,
14983,,,survey-text,265,3125804,0.0-17.0-3.9,39207,List1A,black,man,,,,,"{""Q0"":""ruth is coping luke""}","<img src=""stim_listA/copy4.gif""style=""height:400px;""></stim_listA>",is being copied by,,,,,,
null,"<div style=""font-size:60px;"">+</div>",,html-keyboard-response,266,3126316,0.0-17.0-0.10,39207,List1A,black,man,,,,null,,,,,,,,,
null,"<img src=""stim_listA/kiss2.gif""style=""height:400px;""></stim_listA>",,html-keyboard-response,267,3128335,0.0-17.0-1.10,39207,List1A,black,man,,,,null,,,,,,,,,
null,is being kissed by,,html-keyboard-response,268,3130337,0.0-17.0-2.10,39207,List1A,black,man,,,,null,,,,,,,,,
22761,,,survey-text,269,3153103,0.0-17.0-3.10,39207,List1A,black,man,,,,,"{""Q0"":""mike is kissing kate""}","<img src=""stim_listA/kiss2.gif""style=""height:400px;""></stim_listA>",is being kissed by,,,,,,
null,"<div style=""font-size:60px;"">+</div>",,html-keyboard-response,270,3153617,0.0-17.0-0.11,39207,List1A,black,man,,,,null,,,,,,,,,
null,"<img src=""stim_listA/look4.gif""style=""height:400px;""></stim_listA>",,html-keyboard-response,271,3155637,0.0-17.0-1.11,39207,List1A,black,man,,,,null,,,,,,,,,
null,is being looked at by,,html-keyboard-response,272,3157657,0.0-17.0-2.11,39207,List1A,black,man,,,,null,,,,,,,,,
19603,,,survey-text,273,3177265,0.0-17.0-3.11,39207,List1A,black,man,,,,,"{""Q0"":""jane is being looked at by dave""}","<img src=""stim_listA/look4.gif""style=""height:400px;""></stim_listA>",is being looked at by,,,,,,
null,"<div style=""font-size:60px;"">+</div>",,html-keyboard-response,274,3177778,0.0-17.0-0.12,39207,List1A,black,man,,,,null,,,,,,,,,
null,"<img src=""stim_listA/hug7.gif""style=""height:400px;""></stim_listA>",,html-keyboard-response,275,3179798,0.0-17.0-1.12,39207,List1A,black,man,,,,null,,,,,,,,,
null,is hugging,,html-keyboard-response,276,3181818,0.0-17.0-2.12,39207,List1A,black,man,,,,null,,,,,,,,,
8811,,,survey-text,277,3190634,0.0-17.0-3.12,39207,List1A,black,man,,,,,"{""Q0"":""ruth is hugging beth""}","<img src=""stim_listA/hug7.gif""style=""height:400px;""></stim_listA>",is hugging,,,,,,
null,"<div style=""font-size:60px;"">+</div>",,html-keyboard-response,278,3191149,0.0-17.0-0.13,39207,List1A,black,man,,,,null,,,,,,,,,
null,"<img src=""stim_listA/challenge4.gif""style=""height:400px;""></stim_listA>",,html-keyboard-response,279,3193168,0.0-17.0-1.13,39207,List1A,black,man,,,,null,,,,,,,,,
null,is being challenged by,,html-keyboard-response,280,3195189,0.0-17.0-2.13,39207,List1A,black,man,,,,null,,,,,,,,,
27123,,,survey-text,281,3222316,0.0-17.0-3.13,39207,List1A,black,man,,,,,"{""Q0"":""luke is being challenged by jane""}","<img src=""stim_listA/challenge4.gif""style=""height:400px;""></stim_listA>",is being challenged by,,,,,,
null,"<div style=""font-size:60px;"">+</div>",,html-keyboard-response,282,3222829,0.0-17.0-0.14,39207,List1A,black,man,,,,null,,,,,,,,,
null,"<img src=""stim_listA/greet1.gif""style=""height:400px;""></stim_listA>",,html-keyboard-response,283,3224847,0.0-17.0-1.14,39207,List1A,black,man,,,,null,,,,,,,,,
null,is greeting,,html-keyboard-response,284,3226849,0.0-17.0-2.14,39207,List1A,black,man,,,,null,,,,,,,,,
13313,,,survey-text,285,3240169,0.0-17.0-3.14,39207,List1A,black,man,,,,,"{""Q0"":""mike is greeting beth""}","<img src=""stim_listA/greet1.gif""style=""height:400px;""></stim_listA>",is greeting,,,,,,
null,"<div style=""font-size:60px;"">+</div>",,html-keyboard-response,286,3240681,0.0-17.0-0.15,39207,List1A,black,man,,,,null,,,,,,,,,
null,"<img src=""stim_listA/look5.gif""style=""height:400px;""></stim_listA>",,html-keyboard-response,287,3242690,0.0-17.0-1.15,39207,List1A,black,man,,,,null,,,,,,,,,
null,is looking at,,html-keyboard-response,288,3244700,0.0-17.0-2.15,39207,List1A,black,man,,,,null,,,,,,,,,
10811,,,survey-text,289,3255516,0.0-17.0-3.15,39207,List1A,black,man,,,,,"{""Q0"":""fred is looking at luke""}","<img src=""stim_listA/look5.gif""style=""height:400px;""></stim_listA>",is looking at,,,,,,
null,"<div style=""font-size:60px;"">+</div>",,html-keyboard-response,290,3256030,0.0-17.0-0.16,39207,List1A,black,man,,,,null,,,,,,,,,
null,"<img src=""stim_listA/hug8.gif""style=""height:400px;""></stim_listA>",,html-keyboard-response,291,3258050,0.0-17.0-1.16,39207,List1A,black,man,,,,null,,,,,,,,,
null,is being hugged by,,html-keyboard-response,292,3260060,0.0-17.0-2.16,39207,List1A,black,man,,,,null,,,,,,,,,
24803,,,survey-text,293,3284868,0.0-17.0-3.16,39207,List1A,black,man,,,,,"{""Q0"":""kate is been hugged by ruth""}","<img src=""stim_listA/hug8.gif""style=""height:400px;""></stim_listA>",is being hugged by,,,,,,
null,"<div style=""font-size:60px;"">+</div>",,html-keyboard-response,294,3285381,0.0-17.0-0.17,39207,List1A,black,man,,,,null,,,,,,,,,
null,"<img src=""stim_listA/kiss5.gif""style=""height:400px;""></stim_listA>",,html-keyboard-response,295,3287401,0.0-17.0-1.17,39207,List1A,black,man,,,,null,,,,,,,,,
null,is kissing,,html-keyboard-response,296,3289422,0.0-17.0-2.17,39207,List1A,black,man,,,,null,,,,,,,,,
10602,,,survey-text,297,3300029,0.0-17.0-3.17,39207,List1A,black,man,,,,,"{""Q0"":""fred is kissing luke""}","<img src=""stim_listA/kiss5.gif""style=""height:400px;""></stim_listA>",is kissing,,,,,,
null,"<div style=""font-size:60px;"">+</div>",,html-keyboard-response,298,3300543,0.0-17.0-0.18,39207,List1A,black,man,,,,null,,,,,,,,,
null,"<img src=""stim_listA/look1.gif""style=""height:400px;""></stim_listA>",,html-keyboard-response,299,3302562,0.0-17.0-1.18,39207,List1A,black,man,,,,null,,,,,,,,,
null,is looking at,,html-keyboard-response,300,3304570,0.0-17.0-2.18,39207,List1A,black,man,,,,null,,,,,,,,,
17163,,,survey-text,301,3321738,0.0-17.0-3.18,39207,List1A,black,man,,,,,"{""Q0"":""beth is looking at fred""}","<img src=""stim_listA/look1.gif""style=""height:400px;""></stim_listA>",is looking at,,,,,,
null,"<div style=""font-size:60px;"">+</div>",,html-keyboard-response,302,3322253,0.0-17.0-0.19,39207,List1A,black,man,,,,null,,,,,,,,,
null,"<img src=""stim_listA/challenge8.gif""style=""height:400px;""></stim_listA>",,html-keyboard-response,303,3324272,0.0-17.0-1.19,39207,List1A,black,man,,,,null,,,,,,,,,
null,is being challenged by,,html-keyboard-response,304,3326293,0.0-17.0-2.19,39207,List1A,black,man,,,,null,,,,,,,,,
21061,,,survey-text,305,3347359,0.0-17.0-3.19,39207,List1A,black,man,,,,,"{""Q0"":""beth is being challenged by jane""}","<img src=""stim_listA/challenge8.gif""style=""height:400px;""></stim_listA>",is being challenged by,,,,,,
2215,"<img src='img/portrait_matrix_list1.jpg' style='width:900px;height:500px;''></img><p>If you have memorised all the portraits and names and are ready to start, press Continue.</p><p><strong>Please note: Your memory of these faces will be tested 4 times during this experiment.</strong></p>",0,html-button-response,306,3349577,0.0-18.0-0.0,39207,List1A,black,man,,,,,,,,,,,,,
4082,"<img src=""portrait/BW2.jpg""style=""height:400px;""></img>",2,html-button-response,307,3354678,0.0-18.0-1.0,39207,List1A,black,man,,TRUE,2,,,,,,,,,,
null,CORRECT,,html-keyboard-response,308,3356213,0.0-18.0-2.0-0.0,39207,List1A,black,man,,,,null,,,,,,,,,
1993,"<img src=""portrait/WM1.jpg""style=""height:400px;""></img>",6,html-button-response,309,3358207,0.0-18.0-4.0,39207,List1A,black,man,,TRUE,6,,,,,,,,,,
null,CORRECT,,html-keyboard-response,310,3359734,0.0-18.0-5.0-0.0,39207,List1A,black,man,,,,null,,,,,,,,,
2042,"<img src=""portrait/WW1.jpg""style=""height:400px;""></img>",1,html-button-response,311,3361779,0.0-18.0-7.0,39207,List1A,black,man,,TRUE,1,,,,,,,,,,
null,CORRECT,,html-keyboard-response,312,3363314,0.0-18.0-8.0-0.0,39207,List1A,black,man,,,,null,,,,,,,,,
2671,"<img src=""portrait/BM2.jpg""style=""height:400px;""></img>",5,html-button-response,313,3365988,0.0-18.0-10.0,39207,List1A,black,man,,TRUE,5,,,,,,,,,,
null,CORRECT,,html-keyboard-response,314,3367504,0.0-18.0-11.0-0.0,39207,List1A,black,man,,,,null,,,,,,,,,
2671,"<img src=""portrait/WW2.jpg""style=""height:400px;""></img>",3,html-button-response,315,3370177,0.0-18.0-13.0,39207,List1A,black,man,,TRUE,3,,,,,,,,,,
null,CORRECT,,html-keyboard-response,316,3371714,0.0-18.0-14.0-0.0,39207,List1A,black,man,,,,null,,,,,,,,,
2432,"<img src=""portrait/BM1.jpg""style=""height:400px;""></img>",4,html-button-response,317,3374149,0.0-18.0-16.0,39207,List1A,black,man,,TRUE,4,,,,,,,,,,
null,CORRECT,,html-keyboard-response,318,3375674,0.0-18.0-17.0-0.0,39207,List1A,black,man,,,,null,,,,,,,,,
2622,"<img src=""portrait/WM2.jpg""style=""height:400px;""></img>",7,html-button-response,319,3378299,0.0-18.0-19.0,39207,List1A,black,man,,TRUE,7,,,,,,,,,,
null,CORRECT,,html-keyboard-response,320,3379834,0.0-18.0-20.0-0.0,39207,List1A,black,man,,,,null,,,,,,,,,
2532,"<img src=""portrait/BW1.jpg""style=""height:400px;""></img>",0,html-button-response,321,3382369,0.0-18.0-22.0,39207,List1A,black,man,,TRUE,0,,,,,,,,,,
null,CORRECT,,html-keyboard-response,322,3383904,0.0-18.0-23.0-0.0,39207,List1A,black,man,,,,null,,,,,,,,,
2111,<p>You got 8 out of 8 right first time. Press Continue.</p>,0,html-button-response,323,3386017,0.0-18.0-25.0,39207,List1A,black,man,,,,,,,,,,,,,
null,"<div style=""font-size:60px;"">+</div>",,html-keyboard-response,324,3387555,0.0-19.0-0.0,39207,List1A,black,man,,,,null,,,,,,,,,
null,"<img src=""stim_listA/touch8.gif""style=""height:400px;""></stim_listA>",,html-keyboard-response,325,3389575,0.0-19.0-1.0,39207,List1A,black,man,,,,null,,,,,,,,,
null,is being touched by,,html-keyboard-response,326,3391585,0.0-19.0-2.0,39207,List1A,black,man,,,,null,,,,,,,,,
28773,,,survey-text,327,3420363,0.0-19.0-3.0,39207,List1A,black,man,,,,,"{""Q0"":""beth is being touced by jane""}","<img src=""stim_listA/touch8.gif""style=""height:400px;""></stim_listA>",is being touched by,,,,,,
null,"<div style=""font-size:60px;"">+</div>",,html-keyboard-response,328,3420876,0.0-19.0-0.1,39207,List1A,black,man,,,,null,,,,,,,,,
null,"<img src=""stim_listA/seduce8.gif""style=""height:400px;""></stim_listA>",,html-keyboard-response,329,3422885,0.0-19.0-1.1,39207,List1A,black,man,,,,null,,,,,,,,,
null,is being seduced by,,html-keyboard-response,330,3424906,0.0-19.0-2.1,39207,List1A,black,man,,,,null,,,,,,,,,
44423,,,survey-text,331,3469335,0.0-19.0-3.1,39207,List1A,black,man,,,,,"{""Q0"":""jane is being seduced by kate""}","<img src=""stim_listA/seduce8.gif""style=""height:400px;""></stim_listA>",is being seduced by,,,,,,
null,"<div style=""font-size:60px;"">+</div>",,html-keyboard-response,332,3469847,0.0-19.0-0.2,39207,List1A,black,man,,,,null,,,,,,,,,
null,"<img src=""stim_listA/touch3.gif""style=""height:400px;""></stim_listA>",,html-keyboard-response,333,3471857,0.0-19.0-1.2,39207,List1A,black,man,,,,null,,,,,,,,,
null,is touching,,html-keyboard-response,334,3473878,0.0-19.0-2.2,39207,List1A,black,man,,,,null,,,,,,,,,
34631,,,survey-text,335,3508513,0.0-19.0-3.2,39207,List1A,black,man,,,,,"{""Q0"":""dave is being touched by jane""}","<img src=""stim_listA/touch3.gif""style=""height:400px;""></stim_listA>",is touching,,,,,,
null,"<div style=""font-size:60px;"">+</div>",,html-keyboard-response,336,3509028,0.0-19.0-0.3,39207,List1A,black,man,,,,null,,,,,,,,,
null,"<img src=""stim_listA/shout5.gif""style=""height:400px;""></stim_listA>",,html-keyboard-response,337,3511049,0.0-19.0-1.3,39207,List1A,black,man,,,,null,,,,,,,,,
null,is shouting at,,html-keyboard-response,338,3513058,0.0-19.0-2.3,39207,List1A,black,man,,,,null,,,,,,,,,
21793,,,survey-text,339,3534855,0.0-19.0-3.3,39207,List1A,black,man,,,,,"{""Q0"":""luke is shouting at fred""}","<img src=""stim_listA/shout5.gif""style=""height:400px;""></stim_listA>",is shouting at,,,,,,
null,"<div style=""font-size:60px;"">+</div>",,html-keyboard-response,340,3535370,0.0-19.0-0.4,39207,List1A,black,man,,,,null,,,,,,,,,
null,"<img src=""stim_listA/challenge6.gif""style=""height:400px;""></stim_listA>",,html-keyboard-response,341,3537379,0.0-19.0-1.4,39207,List1A,black,man,,,,null,,,,,,,,,
null,is being challenged by,,html-keyboard-response,342,3539400,0.0-19.0-2.4,39207,List1A,black,man,,,,null,,,,,,,,,
31371,,,survey-text,343,3570775,0.0-19.0-3.4,39207,List1A,black,man,,,,,"{""Q0"":""dave is being challenged by fred""}","<img src=""stim_listA/challenge6.gif""style=""height:400px;""></stim_listA>",is being challenged by,,,,,,
null,"<div style=""font-size:60px;"">+</div>",,html-keyboard-response,344,3571290,0.0-19.0-0.5,39207,List1A,black,man,,,,null,,,,,,,,,
null,"<img src=""stim_listA/shout7.gif""style=""height:400px;""></stim_listA>",,html-keyboard-response,345,3573311,0.0-19.0-1.5,39207,List1A,black,man,,,,null,,,,,,,,,
null,is shouting at,,html-keyboard-response,346,3575330,0.0-19.0-2.5,39207,List1A,black,man,,,,null,,,,,,,,,
27062,,,survey-text,347,3602397,0.0-19.0-3.5,39207,List1A,black,man,,,,,"{""Q0"":""beth is shouting at jane""}","<img src=""stim_listA/shout7.gif""style=""height:400px;""></stim_listA>",is shouting at,,,,,,
null,"<div style=""font-size:60px;"">+</div>",,html-keyboard-response,348,3602911,0.0-19.0-0.6,39207,List1A,black,man,,,,null,,,,,,,,,
null,"<img src=""stim_listA/oppose4.gif""style=""height:400px;""></stim_listA>",,html-keyboard-response,349,3604932,0.0-19.0-1.6,39207,List1A,black,man,,,,null,,,,,,,,,
null,is being opposed by,,html-keyboard-response,350,3606952,0.0-19.0-2.6,39207,List1A,black,man,,,,null,,,,,,,,,
23323,,,survey-text,351,3630280,0.0-19.0-3.6,39207,List1A,black,man,,,,,"{""Q0"":""luke is being challenged by ruth""}","<img src=""stim_listA/oppose4.gif""style=""height:400px;""></stim_listA>",is being opposed by,,,,,,
null,"<div style=""font-size:60px;"">+</div>",,html-keyboard-response,352,3630793,0.0-19.0-0.7,39207,List1A,black,man,,,,null,,,,,,,,,
null,"<img src=""stim_listA/seduce2.gif""style=""height:400px;""></stim_listA>",,html-keyboard-response,353,3632813,0.0-19.0-1.7,39207,List1A,black,man,,,,null,,,,,,,,,
null,is being seduced by,,html-keyboard-response,354,3634832,0.0-19.0-2.7,39207,List1A,black,man,,,,null,,,,,,,,,
22172,,,survey-text,355,3657010,0.0-19.0-3.7,39207,List1A,black,man,,,,,"{""Q0"":""mike is being seduced by beth""}","<img src=""stim_listA/seduce2.gif""style=""height:400px;""></stim_listA>",is being seduced by,,,,,,
null,"<div style=""font-size:60px;"">+</div>",,html-keyboard-response,356,3657523,0.0-19.0-0.8,39207,List1A,black,man,,,,null,,,,,,,,,
null,"<img src=""stim_listA/copy2.gif""style=""height:400px;""></stim_listA>",,html-keyboard-response,357,3659543,0.0-19.0-1.8,39207,List1A,black,man,,,,null,,,,,,,,,
null,is being copied by,,html-keyboard-response,358,3661564,0.0-19.0-2.8,39207,List1A,black,man,,,,null,,,,,,,,,
23511,,,survey-text,359,3685079,0.0-19.0-3.8,39207,List1A,black,man,,,,,"{""Q0"":""fred is being copied by kate""}","<img src=""stim_listA/copy2.gif""style=""height:400px;""></stim_listA>",is being copied by,,,,,,
null,"<div style=""font-size:60px;"">+</div>",,html-keyboard-response,360,3685594,0.0-19.0-0.9,39207,List1A,black,man,,,,null,,,,,,,,,
null,"<img src=""stim_listA/oppose1.gif""style=""height:400px;""></stim_listA>",,html-keyboard-response,361,3687604,0.0-19.0-1.9,39207,List1A,black,man,,,,null,,,,,,,,,
null,is opposing,,html-keyboard-response,362,3689625,0.0-19.0-2.9,39207,List1A,black,man,,,,null,,,,,,,,,
20811,,,survey-text,363,3710442,0.0-19.0-3.9,39207,List1A,black,man,,,,,"{""Q0"":""kate is oppossing mike""}","<img src=""stim_listA/oppose1.gif""style=""height:400px;""></stim_listA>",is opposing,,,,,,
null,"<div style=""font-size:60px;"">+</div>",,html-keyboard-response,364,3710956,0.0-19.0-0.10,39207,List1A,black,man,,,,null,,,,,,,,,
null,"<img src=""stim_listA/seduce6.gif""style=""height:400px;""></stim_listA>",,html-keyboard-response,365,3712965,0.0-19.0-1.10,39207,List1A,black,man,,,,null,,,,,,,,,
null,is being seduced by,,html-keyboard-response,366,3714985,0.0-19.0-2.10,39207,List1A,black,man,,,,null,,,,,,,,,
19332,,,survey-text,367,3734323,0.0-19.0-3.10,39207,List1A,black,man,,,,,"{""Q0"":""luke is being seduced by mike""}","<img src=""stim_listA/seduce6.gif""style=""height:400px;""></stim_listA>",is being seduced by,,,,,,
null,"<div style=""font-size:60px;"">+</div>",,html-keyboard-response,368,3734835,0.0-19.0-0.11,39207,List1A,black,man,,,,null,,,,,,,,,
null,"<img src=""stim_listA/look2.gif""style=""height:400px;""></stim_listA>",,html-keyboard-response,369,3736845,0.0-19.0-1.11,39207,List1A,black,man,,,,null,,,,,,,,,
null,is being looked at by,,html-keyboard-response,370,3738866,0.0-19.0-2.11,39207,List1A,black,man,,,,null,,,,,,,,,
17582,,,survey-text,371,3756453,0.0-19.0-3.11,39207,List1A,black,man,,,,,"{""Q0"":""mike is looking at kate""}","<img src=""stim_listA/look2.gif""style=""height:400px;""></stim_listA>",is being looked at by,,,,,,
null,"<div style=""font-size:60px;"">+</div>",,html-keyboard-response,372,3756967,0.0-19.0-0.12,39207,List1A,black,man,,,,null,,,,,,,,,
null,"<img src=""stim_listA/look8.gif""style=""height:400px;""></stim_listA>",,html-keyboard-response,373,3758987,0.0-19.0-1.12,39207,List1A,black,man,,,,null,,,,,,,,,
null,is being looked at by,,html-keyboard-response,374,3760997,0.0-19.0-2.12,39207,List1A,black,man,,,,null,,,,,,,,,
19433,,,survey-text,375,3780436,0.0-19.0-3.12,39207,List1A,black,man,,,,,"{""Q0"":""kate is being looked at by  jane""}","<img src=""stim_listA/look8.gif""style=""height:400px;""></stim_listA>",is being looked at by,,,,,,
null,"<div style=""font-size:60px;"">+</div>",,html-keyboard-response,376,3780948,0.0-19.0-0.13,39207,List1A,black,man,,,,null,,,,,,,,,
null,"<img src=""stim_listA/touch5.gif""style=""height:400px;""></stim_listA>",,html-keyboard-response,377,3782967,0.0-19.0-1.13,39207,List1A,black,man,,,,null,,,,,,,,,
null,is touching,,html-keyboard-response,378,3784978,0.0-19.0-2.13,39207,List1A,black,man,,,,null,,,,,,,,,
27372,,,survey-text,379,3812356,0.0-19.0-3.13,39207,List1A,black,man,,,,,"{""Q0"":""mike is touching dave""}","<img src=""stim_listA/touch5.gif""style=""height:400px;""></stim_listA>",is touching,,,,,,
null,"<div style=""font-size:60px;"">+</div>",,html-keyboard-response,380,3812869,0.0-19.0-0.14,39207,List1A,black,man,,,,null,,,,,,,,,
null,"<img src=""stim_listA/hug2.gif""style=""height:400px;""></stim_listA>",,html-keyboard-response,381,3814889,0.0-19.0-1.14,39207,List1A,black,man,,,,null,,,,,,,,,
null,is being hugged by,,html-keyboard-response,382,3816899,0.0-19.0-2.14,39207,List1A,black,man,,,,null,,,,,,,,,
15051,,,survey-text,383,3831956,0.0-19.0-3.14,39207,List1A,black,man,,,,,"{""Q0"":""mike is hugging kate""}","<img src=""stim_listA/hug2.gif""style=""height:400px;""></stim_listA>",is being hugged by,,,,,,
null,"<div style=""font-size:60px;"">+</div>",,html-keyboard-response,384,3832469,0.0-19.0-0.15,39207,List1A,black,man,,,,null,,,,,,,,,
null,"<img src=""stim_listA/kiss1.gif""style=""height:400px;""></stim_listA>",,html-keyboard-response,385,3834479,0.0-19.0-1.15,39207,List1A,black,man,,,,null,,,,,,,,,
null,is kissing,,html-keyboard-response,386,3836500,0.0-19.0-2.15,39207,List1A,black,man,,,,null,,,,,,,,,
14760,,,survey-text,387,3851264,0.0-19.0-3.15,39207,List1A,black,man,,,,,"{""Q0"":""fred is kissing beth""}","<img src=""stim_listA/kiss1.gif""style=""height:400px;""></stim_listA>",is kissing,,,,,,
null,"<div style=""font-size:60px;"">+</div>",,html-keyboard-response,388,3851779,0.0-19.0-0.16,39207,List1A,black,man,,,,null,,,,,,,,,
null,"<img src=""stim_listA/hug4.gif""style=""height:400px;""></stim_listA>",,html-keyboard-response,389,3853799,0.0-19.0-1.16,39207,List1A,black,man,,,,null,,,,,,,,,
null,is being hugged by,,html-keyboard-response,390,3855809,0.0-19.0-2.16,39207,List1A,black,man,,,,null,,,,,,,,,
28051,,,survey-text,391,3883868,0.0-19.0-3.16,39207,List1A,black,man,,,,,"{""Q0"":""jane is being hugged by dave""}","<img src=""stim_listA/hug4.gif""style=""height:400px;""></stim_listA>",is being hugged by,,,,,,
null,"<div style=""font-size:60px;"">+</div>",,html-keyboard-response,392,3884371,0.0-19.0-0.17,39207,List1A,black,man,,,,null,,,,,,,,,
null,"<img src=""stim_listA/look6.gif""style=""height:400px;""></stim_listA>",,html-keyboard-response,393,3886391,0.0-19.0-1.17,39207,List1A,black,man,,,,null,,,,,,,,,
null,is being looked at by,,html-keyboard-response,394,3888411,0.0-19.0-2.17,39207,List1A,black,man,,,,null,,,,,,,,,
18958,,,survey-text,395,3907375,0.0-19.0-3.17,39207,List1A,black,man,,,,,"{""Q0"":""dave is being looked at by mike""}","<img src=""stim_listA/look6.gif""style=""height:400px;""></stim_listA>",is being looked at by,,,,,,
null,"<div style=""font-size:60px;"">+</div>",,html-keyboard-response,396,3907893,0.0-19.0-0.18,39207,List1A,black,man,,,,null,,,,,,,,,
null,"<img src=""stim_listA/shout8.gif""style=""height:400px;""></stim_listA>",,html-keyboard-response,397,3909912,0.0-19.0-1.18,39207,List1A,black,man,,,,null,,,,,,,,,
null,is being shouted at by,,html-keyboard-response,398,3911932,0.0-19.0-2.18,39207,List1A,black,man,,,,null,,,,,,,,,
20621,,,survey-text,399,3932558,0.0-19.0-3.18,39207,List1A,black,man,,,,,"{""Q0"":""kate is being shouted at by jane""}","<img src=""stim_listA/shout8.gif""style=""height:400px;""></stim_listA>",is being shouted at by,,,,,,
null,"<div style=""font-size:60px;"">+</div>",,html-keyboard-response,400,3933073,0.0-19.0-0.19,39207,List1A,black,man,,,,null,,,,,,,,,
null,"<img src=""stim_listA/challenge7.gif""style=""height:400px;""></stim_listA>",,html-keyboard-response,401,3935092,0.0-19.0-1.19,39207,List1A,black,man,,,,null,,,,,,,,,
null,is challenging,,html-keyboard-response,402,3937103,0.0-19.0-2.19,39207,List1A,black,man,,,,null,,,,,,,,,
22123,,,survey-text,403,3959231,0.0-19.0-3.19,39207,List1A,black,man,,,,,"{""Q0"":""kate is challenging ruth""}","<img src=""stim_listA/challenge7.gif""style=""height:400px;""></stim_listA>",is challenging,,,,,,
6302,<p>Thank you for completing that task.</p><p>The final part of this session is a questionnaire that will take about 4 minutes.</p><p>Press Continue.</p>,0,html-button-response,404,3965537,0.0-20.0,39207,List1A,black,man,,,,,,,,,,,,,
63492,,,survey-text,405,4030055,0.0-21.0,39207,List1A,black,man,,,,,"{""Q0"":""29"",""Q1"":""english"",""Q2"":""english"",""Q3"":""united state of america"",""Q4"":""american"",""Q5"":""black"",""Q6"":""male""}",,,demographics,,,,,
3901,<p>Have you lived in the USA for the last 5 years or more?</p>,0,html-button-response,406,4033959,0.0-22.0,39207,List1A,black,man,,,,,,,,fiveyears,,,,,
4821,<p>Move the slider to show the extent to which you agree with the following statements.</p>,0,html-button-response,407,4039799,0.0-23.0,39207,List1A,black,man,,,,,,,,,,,,,
13996,,,html-slider-response,408,4054820,0.0-24.0-0.0-0.0,39207,List1A,black,man,,,,,,,,survey_gender,51,,,Family is not more important to me than friendship.,filler
4825,,,html-slider-response,409,4059649,0.0-24.0-0.0-0.1,39207,List1A,black,man,,,,,,,,survey_gender,84,,,It is pleasant to be my gender.,pleasant
6223,,,html-slider-response,410,4065875,0.0-24.0-0.0-0.2,39207,List1A,black,man,,,,,,,,survey_gender,55,,,I have a lot in common with my friends.,filler
4639,,,html-slider-response,411,4070520,0.0-24.0-0.0-0.3,39207,List1A,black,man,,,,,,,,survey_gender,78,,,People of my gender have a lot in common with each other.,common
5577,,,html-slider-response,412,4076101,0.0-24.0-0.0-0.4,39207,List1A,black,man,,,,,,,,survey_gender,62,,,I am similar to the average person of my gender.,similar
6106,,,html-slider-response,413,4082212,0.0-24.0-0.0-0.5,39207,List1A,black,man,,,,,,,,survey_gender,75,,,I often think about the fact that I am my gender.,often
3205,,,html-slider-response,414,4085421,0.0-24.0-0.0-0.6,39207,List1A,black,man,,,,,,,,survey_gender,83,,,I feel a bond with my gender.,bond
3335,,,html-slider-response,415,4088760,0.0-24.0-0.0-0.7,39207,List1A,black,man,,,,,,,,survey_gender,80,,,I feel a bond with my friends.,filler
4516,,,html-slider-response,416,4093280,0.0-24.0-0.0-0.8,39207,List1A,black,man,,,,,,,,survey_gender,71,,,I would say I am an animal person.,filler
2266,,,html-slider-response,417,4095551,0.0-24.0-0.0-0.9,39207,List1A,black,man,,,,,,,,survey_gender,80,,,Being around my friends gives me a good feeling.,filler
3236,,,html-slider-response,418,4098792,0.0-24.0-0.0-0.10,39207,List1A,black,man,,,,,,,,survey_gender,74,,,I have a lot in common with the average person of my gender.,average
2798,,,html-slider-response,419,4101601,0.0-24.0-0.0-0.11,39207,List1A,black,man,,,,,,,,survey_gender,72,,,I think that my gender has a lot to be proud of.,proud
2994,,,html-slider-response,420,4104602,0.0-24.0-0.0-0.12,39207,List1A,black,man,,,,,,,,survey_gender,66,,,I am glad to have the friends that I have.,filler
3047,,,html-slider-response,421,4107661,0.0-24.0-0.0-0.13,39207,List1A,black,man,,,,,,,,survey_gender,76,,,I feel solidarity with my friends.,filler
1913,,,html-slider-response,422,4109581,0.0-24.0-0.0-0.14,39207,List1A,black,man,,,,,,,,survey_gender,75,,,People of my gender are very similar to each other.,verysimilar
5134,,,html-slider-response,423,4114722,0.0-24.0-0.0-0.15,39207,List1A,black,man,,,,,,,,survey_gender,59,,,My friends have a lot in common with each other.,filler
2014,,,html-slider-response,424,4116742,0.0-24.0-0.0-0.16,39207,List1A,black,man,,,,,,,,survey_gender,61,,,It is not always easy for people to know what I am thinking.,filler
2114,,,html-slider-response,425,4118862,0.0-24.0-0.0-0.17,39207,List1A,black,man,,,,,,,,survey_gender,63,,,My friends understand me.,filler
3584,,,html-slider-response,426,4122451,0.0-24.0-0.0-0.18,39207,List1A,black,man,,,,,,,,survey_gender,85,,,I often think about my actions.,filler
4056,,,html-slider-response,427,4126512,0.0-24.0-0.0-0.19,39207,List1A,black,man,,,,,,,,survey_gender,93,,,The fact that I am my gender is an important part of my identity.,identity
6305,,,html-slider-response,428,4132822,0.0-24.0-0.0-0.20,39207,List1A,black,man,,,,,,,,survey_gender,26,,,Routine is not important to me.,filler
3545,,,html-slider-response,429,4136372,0.0-24.0-0.0-0.21,39207,List1A,black,man,,,,,,,,survey_gender,69,,,I consider myself a highly empathetic person.,filler
5025,,,html-slider-response,430,4141403,0.0-24.0-0.0-0.22,39207,List1A,black,man,,,,,,,,survey_gender,89,,,Being my gender is an important part of how I see myself.,important
3775,,,html-slider-response,431,4145182,0.0-24.0-0.0-0.23,39207,List1A,black,man,,,,,,,,survey_gender,85,,,I feel solidarity with my gender.,solidarity
2134,,,html-slider-response,432,4147323,0.0-24.0-0.0-0.24,39207,List1A,black,man,,,,,,,,survey_gender,80,,,I feel committed to my gender.,committed
1935,,,html-slider-response,433,4149262,0.0-24.0-0.0-0.25,39207,List1A,black,man,,,,,,,,survey_gender,85,,,Being my gender gives me a good feeling.,feeling
6199,,,html-slider-response,434,4155465,0.0-24.0-0.0-0.26,39207,List1A,black,man,,,,,,,,survey_gender,68,,,Most of the friends in my life are very similar to me.,filler
2913,,,html-slider-response,435,4158382,0.0-24.0-0.0-0.27,39207,List1A,black,man,,,,,,,,survey_gender,86,,,I am glad to be my gender.,glad
3587,,,html-slider-response,436,4161974,0.0-24.0-1.0-0.0,39207,List1A,black,man,,,,,,,,survey_race,86,,,I enjoy being in large groups.,filler
3530,,,html-slider-response,437,4165514,0.0-24.0-1.0-0.1,39207,List1A,black,man,,,,,,,,survey_race,81,,,"The older I get, the wiser I feel.",filler
3933,,,html-slider-response,438,4169453,0.0-24.0-1.0-0.2,39207,List1A,black,man,,,,,,,,survey_race,82,,,I often think about the fact that I am my age.,filler
2842,,,html-slider-response,439,4172304,0.0-24.0-1.0-0.3,39207,List1A,black,man,,,,,,,,survey_race,91,,,I am glad to be the age I am.,filler
2574,,,html-slider-response,440,4174884,0.0-24.0-1.0-0.4,39207,List1A,black,man,,,,,,,,survey_race,92,,,I feel committed to my race.,committed
4105,,,html-slider-response,441,4178994,0.0-24.0-1.0-0.5,39207,List1A,black,man,,,,,,,,survey_race,74,,,People my age have a lot in common with each other.,filler
4454,,,html-slider-response,442,4183454,0.0-24.0-1.0-0.6,39207,List1A,black,man,,,,,,,,survey_race,18,,,I consider myself an introvert.,filler
3095,,,html-slider-response,443,4186555,0.0-24.0-1.0-0.7,39207,List1A,black,man,,,,,,,,survey_race,80,,,I often think about the fact that I am my race.,often
6624,,,html-slider-response,444,4193184,0.0-24.0-1.0-0.8,39207,List1A,black,man,,,,,,,,survey_race,53,,,Getting older does not worry me.,filler
5144,,,html-slider-response,445,4198334,0.0-24.0-1.0-0.9,39207,List1A,black,man,,,,,,,,survey_race,88,,,The fact that I am my race is an important part of my identity.,identity
2835,,,html-slider-response,446,4201175,0.0-24.0-1.0-0.10,39207,List1A,black,man,,,,,,,,survey_race,86,,,People of my race are very similar to each other.,verysimilar
2173,,,html-slider-response,447,4203354,0.0-24.0-1.0-0.11,39207,List1A,black,man,,,,,,,,survey_race,82,,,I feel a bond with my race.,bond
2286,,,html-slider-response,448,4205644,0.0-24.0-1.0-0.12,39207,List1A,black,man,,,,,,,,survey_race,87,,,I am glad to be my race.,glad
6366,,,html-slider-response,449,4212014,0.0-24.0-1.0-0.13,39207,List1A,black,man,,,,,,,,survey_race,73,,,My age is not an important part of who I am.,filler
6777,,,html-slider-response,450,4218794,0.0-24.0-1.0-0.14,39207,List1A,black,man,,,,,,,,survey_race,65,,,I feel a bond with people the same age as me.,filler
1456,,,html-slider-response,451,4220254,0.0-24.0-1.0-0.15,39207,List1A,black,man,,,,,,,,survey_race,72,,,Being my age gives me a good feeling.,filler
5437,,,html-slider-response,452,4225695,0.0-24.0-1.0-0.16,39207,List1A,black,man,,,,,,,,survey_race,75,,,People of my race have a lot in common with each other.,common
2555,,,html-slider-response,453,4228257,0.0-24.0-1.0-0.17,39207,List1A,black,man,,,,,,,,survey_race,77,,,I feel solidarity with my race.,solidarity
1454,,,html-slider-response,454,4229715,0.0-24.0-1.0-0.18,39207,List1A,black,man,,,,,,,,survey_race,81,,,Being my race gives me a good feeling.,feeling
5785,,,html-slider-response,455,4235505,0.0-24.0-1.0-0.19,39207,List1A,black,man,,,,,,,,survey_race,72,,,I have a lot in common with the average person of my race.,average
2454,,,html-slider-response,456,4237965,0.0-24.0-1.0-0.20,39207,List1A,black,man,,,,,,,,survey_race,75,,,I feel solidarity with people the same age as me.,filler
3885,,,html-slider-response,457,4241855,0.0-24.0-1.0-0.21,39207,List1A,black,man,,,,,,,,survey_race,72,,,I consider myself an extrovert.,filler
1606,,,html-slider-response,458,4243466,0.0-24.0-1.0-0.22,39207,List1A,black,man,,,,,,,,survey_race,71,,,It is pleasant to be my race.,pleasant
3647,,,html-slider-response,459,4247116,0.0-24.0-1.0-0.23,39207,List1A,black,man,,,,,,,,survey_race,28,,,I have a lot in common with people of a similar age to me.,filler
3006,,,html-slider-response,460,4250125,0.0-24.0-1.0-0.24,39207,List1A,black,man,,,,,,,,survey_race,79,,,I am glad to be my age.,filler
4786,,,html-slider-response,461,4254915,0.0-24.0-1.0-0.25,39207,List1A,black,man,,,,,,,,survey_race,87,,,I think that my race has a lot to be proud of.,proud
1716,,,html-slider-response,462,4256636,0.0-24.0-1.0-0.26,39207,List1A,black,man,,,,,,,,survey_race,86,,,I am similar to the average person of my race.,similar
3747,,,html-slider-response,463,4260388,0.0-24.0-1.0-0.27,39207,List1A,black,man,,,,,,,,survey_race,88,,,Being my race is an important part of how I see myself.,important
17365,,,survey-text,464,4277762,0.0-25.0,39207,List1A,black,man,,,,,"{""Q0"":""ccc""}",,,worker_id,,,,,
9696,,,external-html,465,4288258,0.0-26.0,39207,List1A,black,man,debrief.html,,,,,,,,,,,,
