rt,stimulus,button_pressed,trial_type,trial_index,time_elapsed,internal_node_id,subject,list,ppt_race,ppt_gender,url,first_guess,correct,key_press,responses,image_type,phrase_type,test_part,response,stimulus1,stimulus2,question_type,survey_item
3008.5,Welcome to the experiment. Press Continue to begin.,0,html-button-response,0,3012,0.0-0.0,3947,List2B,white,man,,,,,,,,,,,,,
19641,,,external-html,1,23800,0.0-1.0,3947,List2B,white,man,consent.html,,,,,,,,,,,,
24287,"<p>On the next page, you will see portraits of 8 people and their names.</p><p>Your first task is to take a few minutes to memorise the names of these people.</p><p>You will have to recall their names during the rest of the experiment, so it is</p><p>essential that you try to memorise these people and their names as best as you can.</p><br><p><strong>You will then be tested on your memory of these names and portraits.</strong></p><br><p>The experiment will start after you have completed this memory test.</p><br><p>Ready?</p>",0,html-button-response,2,48087,0.0-2.0,3947,List2B,white,man,,,,,,,,,,,,,
36625.5,"<img src='img/portrait_matrix_list2.jpg' style='width:900px;height:500px;''></img><p>If you have memorised all the portraits and names and are ready to start, press Continue.</p><p><strong>Please note: Your memory of these faces will be tested 4 times during this experiment.</strong></p>",0,html-button-response,3,85731,0.0-3.0-0.0,3947,List2B,white,man,,,,,,,,,,,,,
7123.7,"<img src=""portrait/WM1.jpg""style=""height:400px;""></img>",6,html-button-response,4,93858,0.0-3.0-1.0,3947,List2B,white,man,,TRUE,6,,,,,,,,,,
null,CORRECT,,html-keyboard-response,5,95363,0.0-3.0-2.0-0.0,3947,List2B,white,man,,,,null,,,,,,,,,
7212.6,"<img src=""portrait/WM2.jpg""style=""height:400px;""></img>",5,html-button-response,6,102578,0.0-3.0-4.0,3947,List2B,white,man,,TRUE,7,,,,,,,,,,
5390,"<img src=""portrait/WM2.jpg""style=""height:400px;""></img>",7,html-button-response,7,108974,0.0-3.0-6.0-0.0,3947,List2B,white,man,,FALSE,7,,,,,,,,,,
null,CORRECT,,html-keyboard-response,8,110478,0.0-3.0-6.0-1.0-0.0,3947,List2B,white,man,,,,null,,,,,,,,,
3515.2,"<img src=""portrait/WW1.jpg""style=""height:400px;""></img>",1,html-button-response,9,113994,0.0-3.0-7.0,3947,List2B,white,man,,TRUE,1,,,,,,,,,,
null,CORRECT,,html-keyboard-response,10,115516,0.0-3.0-8.0-0.0,3947,List2B,white,man,,,,null,,,,,,,,,
2662.8,"<img src=""portrait/BW2.jpg""style=""height:400px;""></img>",3,html-button-response,11,118181,0.0-3.0-10.0,3947,List2B,white,man,,TRUE,2,,,,,,,,,,
3309.8,"<img src=""portrait/BW2.jpg""style=""height:400px;""></img>",2,html-button-response,12,122506,0.0-3.0-12.0-0.0,3947,List2B,white,man,,FALSE,2,,,,,,,,,,
null,CORRECT,,html-keyboard-response,13,124031,0.0-3.0-12.0-1.0-0.0,3947,List2B,white,man,,,,null,,,,,,,,,
4949.3,"<img src=""portrait/BM1.jpg""style=""height:400px;""></img>",5,html-button-response,14,128982,0.0-3.0-13.0,3947,List2B,white,man,,TRUE,4,,,,,,,,,,
2327.4,"<img src=""portrait/BM1.jpg""style=""height:400px;""></img>",4,html-button-response,15,132326,0.0-3.0-15.0-0.0,3947,List2B,white,man,,FALSE,4,,,,,,,,,,
null,CORRECT,,html-keyboard-response,16,133846,0.0-3.0-15.0-1.0-0.0,3947,List2B,white,man,,,,null,,,,,,,,,
4145.6,"<img src=""portrait/WW2.jpg""style=""height:400px;""></img>",1,html-button-response,17,137993,0.0-3.0-16.0,3947,List2B,white,man,,TRUE,3,,,,,,,,,,
1538.7,"<img src=""portrait/WW2.jpg""style=""height:400px;""></img>",3,html-button-response,18,140535,0.0-3.0-18.0-0.0,3947,List2B,white,man,,FALSE,3,,,,,,,,,,
null,CORRECT,,html-keyboard-response,19,142047,0.0-3.0-18.0-1.0-0.0,3947,List2B,white,man,,,,null,,,,,,,,,
4399.9,"<img src=""portrait/BM2.jpg""style=""height:400px;""></img>",5,html-button-response,20,146448,0.0-3.0-19.0,3947,List2B,white,man,,TRUE,5,,,,,,,,,,
null,CORRECT,,html-keyboard-response,21,147952,0.0-3.0-20.0-0.0,3947,List2B,white,man,,,,null,,,,,,,,,
3841.9,"<img src=""portrait/BW1.jpg""style=""height:400px;""></img>",0,html-button-response,22,151796,0.0-3.0-22.0,3947,List2B,white,man,,TRUE,0,,,,,,,,,,
null,CORRECT,,html-keyboard-response,23,153321,0.0-3.0-23.0-0.0,3947,List2B,white,man,,,,null,,,,,,,,,
1622.7,<p>You got 4 out of 8 right first time. Press Continue.</p>,0,html-button-response,24,154946,0.0-3.0-25.0,3947,List2B,white,man,,,,,,,,,,,,,
2742.7,"As you did not score 100%, the memory game will repeat. Press Continue.",0,html-button-response,25,158690,0.0-3.0-26.0-0.0,3947,List2B,white,man,,,,,,,,,,,,,
46984.5,"<img src='img/portrait_matrix_list2.jpg' style='width:900px;height:500px;''></img><p>If you have memorised all the portraits and names and are ready to start, press Continue.</p><p><strong>Please note: Your memory of these faces will be tested 4 times during this experiment.</strong></p>",0,html-button-response,26,206688,0.0-3.1-0.1,3947,List2B,white,man,,,,,,,,,,,,,
2828.8,"<img src=""portrait/WM1.jpg""style=""height:400px;""></img>",6,html-button-response,27,210518,0.0-3.1-1.1,3947,List2B,white,man,,TRUE,6,,,,,,,,,,
null,CORRECT,,html-keyboard-response,28,212024,0.0-3.1-2.1-0.1,3947,List2B,white,man,,,,null,,,,,,,,,
6038.8,"<img src=""portrait/WM2.jpg""style=""height:400px;""></img>",7,html-button-response,29,218064,0.0-3.1-4.1,3947,List2B,white,man,,TRUE,7,,,,,,,,,,
null,CORRECT,,html-keyboard-response,30,219567,0.0-3.1-5.1-0.1,3947,List2B,white,man,,,,null,,,,,,,,,
10547.8,"<img src=""portrait/WW1.jpg""style=""height:400px;""></img>",2,html-button-response,31,230117,0.0-3.1-7.1,3947,List2B,white,man,,TRUE,1,,,,,,,,,,
1900.2,"<img src=""portrait/WW1.jpg""style=""height:400px;""></img>",1,html-button-response,32,233025,0.0-3.1-9.1-0.1,3947,List2B,white,man,,FALSE,1,,,,,,,,,,
null,CORRECT,,html-keyboard-response,33,234539,0.0-3.1-9.1-1.1-0.1,3947,List2B,white,man,,,,null,,,,,,,,,
15212.1,"<img src=""portrait/BW2.jpg""style=""height:400px;""></img>",3,html-button-response,34,249753,0.0-3.1-10.1,3947,List2B,white,man,,TRUE,2,,,,,,,,,,
1004.9,"<img src=""portrait/BW2.jpg""style=""height:400px;""></img>",2,html-button-response,35,251771,0.0-3.1-12.1-0.1,3947,List2B,white,man,,FALSE,2,,,,,,,,,,
null,CORRECT,,html-keyboard-response,36,253279,0.0-3.1-12.1-1.1-0.1,3947,List2B,white,man,,,,null,,,,,,,,,
10457.4,"<img src=""portrait/BM1.jpg""style=""height:400px;""></img>",4,html-button-response,37,263738,0.0-3.1-13.1,3947,List2B,white,man,,TRUE,4,,,,,,,,,,
null,CORRECT,,html-keyboard-response,38,265264,0.0-3.1-14.1-0.1,3947,List2B,white,man,,,,null,,,,,,,,,
7891.7,"<img src=""portrait/WW2.jpg""style=""height:400px;""></img>",3,html-button-response,39,273157,0.0-3.1-16.1,3947,List2B,white,man,,TRUE,3,,,,,,,,,,
null,CORRECT,,html-keyboard-response,40,274682,0.0-3.1-17.1-0.1,3947,List2B,white,man,,,,null,,,,,,,,,
1761.1,"<img src=""portrait/BM2.jpg""style=""height:400px;""></img>",5,html-button-response,41,276445,0.0-3.1-19.1,3947,List2B,white,man,,TRUE,5,,,,,,,,,,
null,CORRECT,,html-keyboard-response,42,277947,0.0-3.1-20.1-0.1,3947,List2B,white,man,,,,null,,,,,,,,,
1662.3,"<img src=""portrait/BW1.jpg""style=""height:400px;""></img>",0,html-button-response,43,279611,0.0-3.1-22.1,3947,List2B,white,man,,TRUE,0,,,,,,,,,,
null,CORRECT,,html-keyboard-response,44,281113,0.0-3.1-23.1-0.1,3947,List2B,white,man,,,,null,,,,,,,,,
1804.3,<p>You got 6 out of 8 right first time. Press Continue.</p>,0,html-button-response,45,282919,0.0-3.1-25.1,3947,List2B,white,man,,,,,,,,,,,,,
1135,"As you did not score 100%, the memory game will repeat. Press Continue.",0,html-button-response,46,285057,0.0-3.1-26.1-0.1,3947,List2B,white,man,,,,,,,,,,,,,
13445.5,"<img src='img/portrait_matrix_list2.jpg' style='width:900px;height:500px;''></img><p>If you have memorised all the portraits and names and are ready to start, press Continue.</p><p><strong>Please note: Your memory of these faces will be tested 4 times during this experiment.</strong></p>",0,html-button-response,47,299517,0.0-3.2-0.2,3947,List2B,white,man,,,,,,,,,,,,,
3347.7,"<img src=""portrait/WM1.jpg""style=""height:400px;""></img>",6,html-button-response,48,303868,0.0-3.2-1.2,3947,List2B,white,man,,TRUE,6,,,,,,,,,,
null,CORRECT,,html-keyboard-response,49,305370,0.0-3.2-2.2-0.2,3947,List2B,white,man,,,,null,,,,,,,,,
1001.8,"<img src=""portrait/WM2.jpg""style=""height:400px;""></img>",7,html-button-response,50,306373,0.0-3.2-4.2,3947,List2B,white,man,,TRUE,7,,,,,,,,,,
null,CORRECT,,html-keyboard-response,51,307874,0.0-3.2-5.2-0.2,3947,List2B,white,man,,,,null,,,,,,,,,
1407.5,"<img src=""portrait/WW1.jpg""style=""height:400px;""></img>",1,html-button-response,52,309283,0.0-3.2-7.2,3947,List2B,white,man,,TRUE,1,,,,,,,,,,
null,CORRECT,,html-keyboard-response,53,310791,0.0-3.2-8.2-0.2,3947,List2B,white,man,,,,null,,,,,,,,,
3516.9,"<img src=""portrait/BW2.jpg""style=""height:400px;""></img>",2,html-button-response,54,314312,0.0-3.2-10.2,3947,List2B,white,man,,TRUE,2,,,,,,,,,,
null,CORRECT,,html-keyboard-response,55,315833,0.0-3.2-11.2-0.2,3947,List2B,white,man,,,,null,,,,,,,,,
4839.9,"<img src=""portrait/BM1.jpg""style=""height:400px;""></img>",4,html-button-response,56,320674,0.0-3.2-13.2,3947,List2B,white,man,,TRUE,4,,,,,,,,,,
null,CORRECT,,html-keyboard-response,57,322191,0.0-3.2-14.2-0.2,3947,List2B,white,man,,,,null,,,,,,,,,
3827.2,"<img src=""portrait/WW2.jpg""style=""height:400px;""></img>",3,html-button-response,58,326020,0.0-3.2-16.2,3947,List2B,white,man,,TRUE,3,,,,,,,,,,
null,CORRECT,,html-keyboard-response,59,327531,0.0-3.2-17.2-0.2,3947,List2B,white,man,,,,null,,,,,,,,,
1181.7,"<img src=""portrait/BM2.jpg""style=""height:400px;""></img>",5,html-button-response,60,328714,0.0-3.2-19.2,3947,List2B,white,man,,TRUE,5,,,,,,,,,,
null,CORRECT,,html-keyboard-response,61,330216,0.0-3.2-20.2-0.2,3947,List2B,white,man,,,,null,,,,,,,,,
1022.2,"<img src=""portrait/BW1.jpg""style=""height:400px;""></img>",0,html-button-response,62,331240,0.0-3.2-22.2,3947,List2B,white,man,,TRUE,0,,,,,,,,,,
null,CORRECT,,html-keyboard-response,63,332742,0.0-3.2-23.2-0.2,3947,List2B,white,man,,,,null,,,,,,,,,
1040.6,<p>You got 8 out of 8 right first time. Press Continue.</p>,0,html-button-response,64,333785,0.0-3.2-25.2,3947,List2B,white,man,,,,,,,,,,,,,
20510,"<p>In this experiment, you will view photographs of the people from the memory game interacting.</p><p>By using the <strong>exact</strong> phrase given <i>after</i> the photograph appears and recalling the correct names of the people in the photographs, form a sentence describing the interaction. You do not need to capitalise names.</p><p>Type your answer in the space provided. Please complete every sentence before moving onto the next trial.</p><p>You will only have a few seconds to memorise each given photograph and phrase before you can respond, so try your best to focus.</p><p>An example is given below. Press 'Continue' when you are ready.</p><img src='img/speaking_example.jpg' style='width:800px;height:460px;''></img>",0,html-button-response,65,355307,0.0-4.0,3947,List2B,white,man,,,,,,,,,,,,,
1970.1,"<p>Before the experiment starts, you will watch two example trials. Press 'Continue'.</p>",0,html-button-response,66,358279,0.0-5.0,3947,List2B,white,man,,,,,,,,,,,,,
null,<img src='img/play_eg.gif' style='height:400px;''></img>,,html-keyboard-response,67,361281,0.0-6.0,3947,List2B,white,man,,,,null,,,,,,,,,
null,<p>is playing with</p>,,html-keyboard-response,68,363283,0.0-7.0,3947,List2B,white,man,,,,null,,,,,,,,,
2749.1,<p><b>Answer:</b> jane is playing with ruth</p>,0,html-button-response,69,366033,0.0-8.0,3947,List2B,white,man,,,,,,,,,,,,,
null,<img src='img/dance_eg.gif' style='height:400px;''></img>,,html-keyboard-response,70,369054,0.0-9.0,3947,List2B,white,man,,,,null,,,,,,,,,
null,<p>is being entertained by</p>,,html-keyboard-response,71,371067,0.0-10.0,3947,List2B,white,man,,,,null,,,,,,,,,
2187,<p><b>Answer:</b> fred is being entertained by mike</p>,0,html-button-response,72,373255,0.0-11.0,3947,List2B,white,man,,,,,,,,,,,,,
7840.4,"<p>Ready to start the experiment?</p><br><p><strong>Remember to describe the picture using a full sentence,</strong></p><p><strong>that combines the names of the people with the <i>exact</i> phrase given.</strong></p><p><strong>To receive full payment you must do this correctly.</strong></p><p><strong> You do not need to capitalise names or use punctuation.</strong></p><br><p>Press 'Continue' to begin.</p>",0,html-button-response,73,382105,0.0-12.0,3947,List2B,white,man,,,,,,,,,,,,,
null,"<div style=""font-size:60px;"">+</div>",,html-keyboard-response,74,383609,0.0-13.0-0.0,3947,List2B,white,man,,,,null,,,,,,,,,
null,"<img src=""stim_listB/oppose1.gif""style=""height:400px;""></stim_listB>",,html-keyboard-response,75,385612,0.0-13.0-1.0,3947,List2B,white,man,,,,null,,,,,,,,,
null,is opposing,,html-keyboard-response,76,387625,0.0-13.0-2.0,3947,List2B,white,man,,,,null,,,,,,,,,
7958.8,,,survey-text,77,395589,0.0-13.0-3.0,3947,List2B,white,man,,,,,"{""Q0"":""dave is opposing jane""}","<img src=""stim_listB/oppose1.gif""style=""height:400px;""></stim_listB>",is opposing,,,,,,
null,"<div style=""font-size:60px;"">+</div>",,html-keyboard-response,78,396102,0.0-13.0-0.1,3947,List2B,white,man,,,,null,,,,,,,,,
null,"<img src=""stim_listB/oppose7.gif""style=""height:400px;""></stim_listB>",,html-keyboard-response,79,398111,0.0-13.0-1.1,3947,List2B,white,man,,,,null,,,,,,,,,
null,is opposing,,html-keyboard-response,80,400125,0.0-13.0-2.1,3947,List2B,white,man,,,,null,,,,,,,,,
7217.7,,,survey-text,81,407346,0.0-13.0-3.1,3947,List2B,white,man,,,,,"{""Q0"":""kate is opposing jane""}","<img src=""stim_listB/oppose7.gif""style=""height:400px;""></stim_listB>",is opposing,,,,,,
null,"<div style=""font-size:60px;"">+</div>",,html-keyboard-response,82,407847,0.0-13.0-0.2,3947,List2B,white,man,,,,null,,,,,,,,,
null,"<img src=""stim_listB/touch8.gif""style=""height:400px;""></stim_listB>",,html-keyboard-response,83,409860,0.0-13.0-1.2,3947,List2B,white,man,,,,null,,,,,,,,,
null,is being touched by,,html-keyboard-response,84,411869,0.0-13.0-2.2,3947,List2B,white,man,,,,null,,,,,,,,,
10578.3,,,survey-text,85,422450,0.0-13.0-3.2,3947,List2B,white,man,,,,,"{""Q0"":""beth is touching ruth""}","<img src=""stim_listB/touch8.gif""style=""height:400px;""></stim_listB>",is being touched by,,,,,,
null,"<div style=""font-size:60px;"">+</div>",,html-keyboard-response,86,422952,0.0-13.0-0.3,3947,List2B,white,man,,,,null,,,,,,,,,
null,"<img src=""stim_listB/copy6.gif""style=""height:400px;""></stim_listB>",,html-keyboard-response,87,424966,0.0-13.0-1.3,3947,List2B,white,man,,,,null,,,,,,,,,
null,is being copied by,,html-keyboard-response,88,426981,0.0-13.0-2.3,3947,List2B,white,man,,,,null,,,,,,,,,
33334.4,,,survey-text,89,460317,0.0-13.0-3.3,3947,List2B,white,man,,,,,"{""Q0"":""mike is copying luke""}","<img src=""stim_listB/copy6.gif""style=""height:400px;""></stim_listB>",is being copied by,,,,,,
null,"<div style=""font-size:60px;"">+</div>",,html-keyboard-response,90,460825,0.0-13.0-0.4,3947,List2B,white,man,,,,null,,,,,,,,,
null,"<img src=""stim_listB/challenge7.gif""style=""height:400px;""></stim_listB>",,html-keyboard-response,91,462833,0.0-13.0-1.4,3947,List2B,white,man,,,,null,,,,,,,,,
null,is challenging,,html-keyboard-response,92,464844,0.0-13.0-2.4,3947,List2B,white,man,,,,null,,,,,,,,,
9653.7,,,survey-text,93,474500,0.0-13.0-3.4,3947,List2B,white,man,,,,,"{""Q0"":""beth is challenging jane""}","<img src=""stim_listB/challenge7.gif""style=""height:400px;""></stim_listB>",is challenging,,,,,,
null,"<div style=""font-size:60px;"">+</div>",,html-keyboard-response,94,475005,0.0-13.0-0.5,3947,List2B,white,man,,,,null,,,,,,,,,
null,"<img src=""stim_listB/challenge8.gif""style=""height:400px;""></stim_listB>",,html-keyboard-response,95,477019,0.0-13.0-1.5,3947,List2B,white,man,,,,null,,,,,,,,,
null,is being challenged by,,html-keyboard-response,96,479034,0.0-13.0-2.5,3947,List2B,white,man,,,,null,,,,,,,,,
9735.9,,,survey-text,97,488774,0.0-13.0-3.5,3947,List2B,white,man,,,,,"{""Q0"":""ruth is being challenged by kate""}","<img src=""stim_listB/challenge8.gif""style=""height:400px;""></stim_listB>",is being challenged by,,,,,,
null,"<div style=""font-size:60px;"">+</div>",,html-keyboard-response,98,489278,0.0-13.0-0.6,3947,List2B,white,man,,,,null,,,,,,,,,
null,"<img src=""stim_listB/touch3.gif""style=""height:400px;""></stim_listB>",,html-keyboard-response,99,491294,0.0-13.0-1.6,3947,List2B,white,man,,,,null,,,,,,,,,
null,is touching,,html-keyboard-response,100,493307,0.0-13.0-2.6,3947,List2B,white,man,,,,null,,,,,,,,,
18337.1,,,survey-text,101,511647,0.0-13.0-3.6,3947,List2B,white,man,,,,,"{""Q0"":""kate is touching mike""}","<img src=""stim_listB/touch3.gif""style=""height:400px;""></stim_listB>",is touching,,,,,,
null,"<div style=""font-size:60px;"">+</div>",,html-keyboard-response,102,512150,0.0-13.0-0.7,3947,List2B,white,man,,,,null,,,,,,,,,
null,"<img src=""stim_listB/look4.gif""style=""height:400px;""></stim_listB>",,html-keyboard-response,103,514161,0.0-13.0-1.7,3947,List2B,white,man,,,,null,,,,,,,,,
null,is being looked at by,,html-keyboard-response,104,516171,0.0-13.0-2.7,3947,List2B,white,man,,,,null,,,,,,,,,
6885.8,,,survey-text,105,523060,0.0-13.0-3.7,3947,List2B,white,man,,,,,"{""Q0"":""mike is being looked at by kate""}","<img src=""stim_listB/look4.gif""style=""height:400px;""></stim_listB>",is being looked at by,,,,,,
null,"<div style=""font-size:60px;"">+</div>",,html-keyboard-response,106,523560,0.0-13.0-0.8,3947,List2B,white,man,,,,null,,,,,,,,,
null,"<img src=""stim_listB/oppose8.gif""style=""height:400px;""></stim_listB>",,html-keyboard-response,107,525571,0.0-13.0-1.8,3947,List2B,white,man,,,,null,,,,,,,,,
null,is being opposed by,,html-keyboard-response,108,527583,0.0-13.0-2.8,3947,List2B,white,man,,,,null,,,,,,,,,
12015.9,,,survey-text,109,539602,0.0-13.0-3.8,3947,List2B,white,man,,,,,"{""Q0"":""ruth is being opposed by beth""}","<img src=""stim_listB/oppose8.gif""style=""height:400px;""></stim_listB>",is being opposed by,,,,,,
null,"<div style=""font-size:60px;"">+</div>",,html-keyboard-response,110,540107,0.0-13.0-0.9,3947,List2B,white,man,,,,null,,,,,,,,,
null,"<img src=""stim_listB/touch4.gif""style=""height:400px;""></stim_listB>",,html-keyboard-response,111,542116,0.0-13.0-1.9,3947,List2B,white,man,,,,null,,,,,,,,,
null,is being touched by,,html-keyboard-response,112,544127,0.0-13.0-2.9,3947,List2B,white,man,,,,null,,,,,,,,,
11723.5,,,survey-text,113,555853,0.0-13.0-3.9,3947,List2B,white,man,,,,,"{""Q0"":""beth is being touched by luke""}","<img src=""stim_listB/touch4.gif""style=""height:400px;""></stim_listB>",is being touched by,,,,,,
null,"<div style=""font-size:60px;"">+</div>",,html-keyboard-response,114,556367,0.0-13.0-0.10,3947,List2B,white,man,,,,null,,,,,,,,,
null,"<img src=""stim_listB/touch1.gif""style=""height:400px;""></stim_listB>",,html-keyboard-response,115,558379,0.0-13.0-1.10,3947,List2B,white,man,,,,null,,,,,,,,,
null,is touching,,html-keyboard-response,116,560391,0.0-13.0-2.10,3947,List2B,white,man,,,,null,,,,,,,,,
12553.4,,,survey-text,117,572947,0.0-13.0-3.10,3947,List2B,white,man,,,,,"{""Q0"":""dave is touching jane""}","<img src=""stim_listB/touch1.gif""style=""height:400px;""></stim_listB>",is touching,,,,,,
null,"<div style=""font-size:60px;"">+</div>",,html-keyboard-response,118,573455,0.0-13.0-0.11,3947,List2B,white,man,,,,null,,,,,,,,,
null,"<img src=""stim_listB/copy8.gif""style=""height:400px;""></stim_listB>",,html-keyboard-response,119,575467,0.0-13.0-1.11,3947,List2B,white,man,,,,null,,,,,,,,,
null,is being copied by,,html-keyboard-response,120,577477,0.0-13.0-2.11,3947,List2B,white,man,,,,null,,,,,,,,,
15363.6,,,survey-text,121,592843,0.0-13.0-3.11,3947,List2B,white,man,,,,,"{""Q0"":""ruth is being copied by kate""}","<img src=""stim_listB/copy8.gif""style=""height:400px;""></stim_listB>",is being copied by,,,,,,
null,"<div style=""font-size:60px;"">+</div>",,html-keyboard-response,122,593353,0.0-13.0-0.12,3947,List2B,white,man,,,,null,,,,,,,,,
null,"<img src=""stim_listB/look7.gif""style=""height:400px;""></stim_listB>",,html-keyboard-response,123,595361,0.0-13.0-1.12,3947,List2B,white,man,,,,null,,,,,,,,,
null,is looking at,,html-keyboard-response,124,597375,0.0-13.0-2.12,3947,List2B,white,man,,,,null,,,,,,,,,
10638.8,,,survey-text,125,608016,0.0-13.0-3.12,3947,List2B,white,man,,,,,"{""Q0"":""beth is looking at ruth""}","<img src=""stim_listB/look7.gif""style=""height:400px;""></stim_listB>",is looking at,,,,,,
null,"<div style=""font-size:60px;"">+</div>",,html-keyboard-response,126,608528,0.0-13.0-0.13,3947,List2B,white,man,,,,null,,,,,,,,,
null,"<img src=""stim_listB/seduce4.gif""style=""height:400px;""></stim_listB>",,html-keyboard-response,127,610540,0.0-13.0-1.13,3947,List2B,white,man,,,,null,,,,,,,,,
null,is being seduced by,,html-keyboard-response,128,612542,0.0-13.0-2.13,3947,List2B,white,man,,,,null,,,,,,,,,
47225.2,,,survey-text,129,659770,0.0-13.0-3.13,3947,List2B,white,man,,,,,"{""Q0"":""mike is being seduced by kate""}","<img src=""stim_listB/seduce4.gif""style=""height:400px;""></stim_listB>",is being seduced by,,,,,,
null,"<div style=""font-size:60px;"">+</div>",,html-keyboard-response,130,660286,0.0-13.0-0.14,3947,List2B,white,man,,,,null,,,,,,,,,
null,"<img src=""stim_listB/seduce3.gif""style=""height:400px;""></stim_listB>",,html-keyboard-response,131,662301,0.0-13.0-1.14,3947,List2B,white,man,,,,null,,,,,,,,,
null,is seducing,,html-keyboard-response,132,664306,0.0-13.0-2.14,3947,List2B,white,man,,,,null,,,,,,,,,
42747.4,,,survey-text,133,707057,0.0-13.0-3.14,3947,List2B,white,man,,,,,"{""Q0"":""kate is being seduced by luke""}","<img src=""stim_listB/seduce3.gif""style=""height:400px;""></stim_listB>",is seducing,,,,,,
null,"<div style=""font-size:60px;"">+</div>",,html-keyboard-response,134,707564,0.0-13.0-0.15,3947,List2B,white,man,,,,null,,,,,,,,,
null,"<img src=""stim_listB/seduce7.gif""style=""height:400px;""></stim_listB>",,html-keyboard-response,135,709571,0.0-13.0-1.15,3947,List2B,white,man,,,,null,,,,,,,,,
null,is seducing,,html-keyboard-response,136,711578,0.0-13.0-2.15,3947,List2B,white,man,,,,null,,,,,,,,,
13699.1,,,survey-text,137,725280,0.0-13.0-3.15,3947,List2B,white,man,,,,,"{""Q0"":""ruth is seducing kate""}","<img src=""stim_listB/seduce7.gif""style=""height:400px;""></stim_listB>",is seducing,,,,,,
null,"<div style=""font-size:60px;"">+</div>",,html-keyboard-response,138,725788,0.0-13.0-0.16,3947,List2B,white,man,,,,null,,,,,,,,,
null,"<img src=""stim_listB/challenge1.gif""style=""height:400px;""></stim_listB>",,html-keyboard-response,139,727801,0.0-13.0-1.16,3947,List2B,white,man,,,,null,,,,,,,,,
null,is challenging,,html-keyboard-response,140,729814,0.0-13.0-2.16,3947,List2B,white,man,,,,null,,,,,,,,,
6279.7,,,survey-text,141,736097,0.0-13.0-3.16,3947,List2B,white,man,,,,,"{""Q0"":""dave is challenging ruth""}","<img src=""stim_listB/challenge1.gif""style=""height:400px;""></stim_listB>",is challenging,,,,,,
null,"<div style=""font-size:60px;"">+</div>",,html-keyboard-response,142,736611,0.0-13.0-0.17,3947,List2B,white,man,,,,null,,,,,,,,,
null,"<img src=""stim_listB/oppose3.gif""style=""height:400px;""></stim_listB>",,html-keyboard-response,143,738614,0.0-13.0-1.17,3947,List2B,white,man,,,,null,,,,,,,,,
null,is opposing,,html-keyboard-response,144,740620,0.0-13.0-2.17,3947,List2B,white,man,,,,null,,,,,,,,,
5965.5,,,survey-text,145,746589,0.0-13.0-3.17,3947,List2B,white,man,,,,,"{""Q0"":""kate is opposing mike""}","<img src=""stim_listB/oppose3.gif""style=""height:400px;""></stim_listB>",is opposing,,,,,,
null,"<div style=""font-size:60px;"">+</div>",,html-keyboard-response,146,747100,0.0-13.0-0.18,3947,List2B,white,man,,,,null,,,,,,,,,
null,"<img src=""stim_listB/shout2.gif""style=""height:400px;""></stim_listB>",,html-keyboard-response,147,749110,0.0-13.0-1.18,3947,List2B,white,man,,,,null,,,,,,,,,
null,is being shouted at by,,html-keyboard-response,148,751121,0.0-13.0-2.18,3947,List2B,white,man,,,,null,,,,,,,,,
5799.3,,,survey-text,149,756923,0.0-13.0-3.18,3947,List2B,white,man,,,,,"{""Q0"":""jane is shouting at dave""}","<img src=""stim_listB/shout2.gif""style=""height:400px;""></stim_listB>",is being shouted at by,,,,,,
null,"<div style=""font-size:60px;"">+</div>",,html-keyboard-response,150,757427,0.0-13.0-0.19,3947,List2B,white,man,,,,null,,,,,,,,,
null,"<img src=""stim_listB/hug1.gif""style=""height:400px;""></stim_listB>",,html-keyboard-response,151,759437,0.0-13.0-1.19,3947,List2B,white,man,,,,null,,,,,,,,,
null,is hugging,,html-keyboard-response,152,761447,0.0-13.0-2.19,3947,List2B,white,man,,,,null,,,,,,,,,
13566.2,,,survey-text,153,775016,0.0-13.0-3.19,3947,List2B,white,man,,,,,"{""Q0"":""ruth is hugging john""}","<img src=""stim_listB/hug1.gif""style=""height:400px;""></stim_listB>",is hugging,,,,,,
6639,"<img src='img/portrait_matrix_list2.jpg' style='width:900px;height:500px;''></img><p>If you have memorised all the portraits and names and are ready to start, press Continue.</p><p><strong>Please note: Your memory of these faces will be tested 4 times during this experiment.</strong></p>",0,html-button-response,154,781655,0.0-14.0-0.0,3947,List2B,white,man,,,,,,,,,,,,,
3282.4,"<img src=""portrait/BW1.jpg""style=""height:400px;""></img>",0,html-button-response,155,785939,0.0-14.0-1.0,3947,List2B,white,man,,TRUE,0,,,,,,,,,,
null,CORRECT,,html-keyboard-response,156,787441,0.0-14.0-2.0-0.0,3947,List2B,white,man,,,,null,,,,,,,,,
1697.9,"<img src=""portrait/BM2.jpg""style=""height:400px;""></img>",5,html-button-response,157,789140,0.0-14.0-4.0,3947,List2B,white,man,,TRUE,5,,,,,,,,,,
null,CORRECT,,html-keyboard-response,158,790656,0.0-14.0-5.0-0.0,3947,List2B,white,man,,,,null,,,,,,,,,
7449.8,"<img src=""portrait/WW1.jpg""style=""height:400px;""></img>",1,html-button-response,159,798107,0.0-14.0-7.0,3947,List2B,white,man,,TRUE,1,,,,,,,,,,
null,CORRECT,,html-keyboard-response,160,799623,0.0-14.0-8.0-0.0,3947,List2B,white,man,,,,null,,,,,,,,,
1861.1,"<img src=""portrait/BW2.jpg""style=""height:400px;""></img>",2,html-button-response,161,801486,0.0-14.0-10.0,3947,List2B,white,man,,TRUE,2,,,,,,,,,,
null,CORRECT,,html-keyboard-response,162,803017,0.0-14.0-11.0-0.0,3947,List2B,white,man,,,,null,,,,,,,,,
7213.5,"<img src=""portrait/WM1.jpg""style=""height:400px;""></img>",6,html-button-response,163,810232,0.0-14.0-13.0,3947,List2B,white,man,,TRUE,6,,,,,,,,,,
null,CORRECT,,html-keyboard-response,164,811734,0.0-14.0-14.0-0.0,3947,List2B,white,man,,,,null,,,,,,,,,
2617.8,"<img src=""portrait/WW2.jpg""style=""height:400px;""></img>",3,html-button-response,165,814354,0.0-14.0-16.0,3947,List2B,white,man,,TRUE,3,,,,,,,,,,
null,CORRECT,,html-keyboard-response,166,815858,0.0-14.0-17.0-0.0,3947,List2B,white,man,,,,null,,,,,,,,,
2961.5,"<img src=""portrait/WM2.jpg""style=""height:400px;""></img>",7,html-button-response,167,818821,0.0-14.0-19.0,3947,List2B,white,man,,TRUE,7,,,,,,,,,,
null,CORRECT,,html-keyboard-response,168,820324,0.0-14.0-20.0-0.0,3947,List2B,white,man,,,,null,,,,,,,,,
2165.7,"<img src=""portrait/BM1.jpg""style=""height:400px;""></img>",4,html-button-response,169,822492,0.0-14.0-22.0,3947,List2B,white,man,,TRUE,4,,,,,,,,,,
null,CORRECT,,html-keyboard-response,170,824016,0.0-14.0-23.0-0.0,3947,List2B,white,man,,,,null,,,,,,,,,
1237.8,<p>You got 8 out of 8 right first time. Press Continue.</p>,0,html-button-response,171,825255,0.0-14.0-25.0,3947,List2B,white,man,,,,,,,,,,,,,
null,"<div style=""font-size:60px;"">+</div>",,html-keyboard-response,172,826776,0.0-15.0-0.0,3947,List2B,white,man,,,,null,,,,,,,,,
null,"<img src=""stim_listB/seduce6.gif""style=""height:400px;""></stim_listB>",,html-keyboard-response,173,828787,0.0-15.0-1.0,3947,List2B,white,man,,,,null,,,,,,,,,
null,is being seduced by,,html-keyboard-response,174,830803,0.0-15.0-2.0,3947,List2B,white,man,,,,null,,,,,,,,,
9156.7,,,survey-text,175,839963,0.0-15.0-3.0,3947,List2B,white,man,,,,,"{""Q0"":""fred is being seduced by dave""}","<img src=""stim_listB/seduce6.gif""style=""height:400px;""></stim_listB>",is being seduced by,,,,,,
null,"<div style=""font-size:60px;"">+</div>",,html-keyboard-response,176,840473,0.0-15.0-0.1,3947,List2B,white,man,,,,null,,,,,,,,,
null,"<img src=""stim_listB/hug7.gif""style=""height:400px;""></stim_listB>",,html-keyboard-response,177,842484,0.0-15.0-1.1,3947,List2B,white,man,,,,null,,,,,,,,,
null,is hugging,,html-keyboard-response,178,844493,0.0-15.0-2.1,3947,List2B,white,man,,,,null,,,,,,,,,
5682.6,,,survey-text,179,850179,0.0-15.0-3.1,3947,List2B,white,man,,,,,"{""Q0"":""beth is hugging kate""}","<img src=""stim_listB/hug7.gif""style=""height:400px;""></stim_listB>",is hugging,,,,,,
null,"<div style=""font-size:60px;"">+</div>",,html-keyboard-response,180,850691,0.0-15.0-0.2,3947,List2B,white,man,,,,null,,,,,,,,,
null,"<img src=""stim_listB/touch5.gif""style=""height:400px;""></stim_listB>",,html-keyboard-response,181,852700,0.0-15.0-1.2,3947,List2B,white,man,,,,null,,,,,,,,,
null,is touching,,html-keyboard-response,182,854712,0.0-15.0-2.2,3947,List2B,white,man,,,,null,,,,,,,,,
5233.3,,,survey-text,183,859948,0.0-15.0-3.2,3947,List2B,white,man,,,,,"{""Q0"":""dave is touching mike""}","<img src=""stim_listB/touch5.gif""style=""height:400px;""></stim_listB>",is touching,,,,,,
null,"<div style=""font-size:60px;"">+</div>",,html-keyboard-response,184,860449,0.0-15.0-0.3,3947,List2B,white,man,,,,null,,,,,,,,,
null,"<img src=""stim_listB/challenge2.gif""style=""height:400px;""></stim_listB>",,html-keyboard-response,185,862452,0.0-15.0-1.3,3947,List2B,white,man,,,,null,,,,,,,,,
null,is being challenged by,,html-keyboard-response,186,864464,0.0-15.0-2.3,3947,List2B,white,man,,,,null,,,,,,,,,
9713.8,,,survey-text,187,874180,0.0-15.0-3.3,3947,List2B,white,man,,,,,"{""Q0"":""dave is being challenged by jane""}","<img src=""stim_listB/challenge2.gif""style=""height:400px;""></stim_listB>",is being challenged by,,,,,,
null,"<div style=""font-size:60px;"">+</div>",,html-keyboard-response,188,874690,0.0-15.0-0.4,3947,List2B,white,man,,,,null,,,,,,,,,
null,"<img src=""stim_listB/copy1.gif""style=""height:400px;""></stim_listB>",,html-keyboard-response,189,876701,0.0-15.0-1.4,3947,List2B,white,man,,,,null,,,,,,,,,
null,is copying,,html-keyboard-response,190,878713,0.0-15.0-2.4,3947,List2B,white,man,,,,null,,,,,,,,,
6688.2,,,survey-text,191,885404,0.0-15.0-3.4,3947,List2B,white,man,,,,,"{""Q0"":""beth is copying dave""}","<img src=""stim_listB/copy1.gif""style=""height:400px;""></stim_listB>",is copying,,,,,,
null,"<div style=""font-size:60px;"">+</div>",,html-keyboard-response,192,885920,0.0-15.0-0.5,3947,List2B,white,man,,,,null,,,,,,,,,
null,"<img src=""stim_listB/shout5.gif""style=""height:400px;""></stim_listB>",,html-keyboard-response,193,887934,0.0-15.0-1.5,3947,List2B,white,man,,,,null,,,,,,,,,
null,is shouting at,,html-keyboard-response,194,889949,0.0-15.0-2.5,3947,List2B,white,man,,,,null,,,,,,,,,
5674.9,,,survey-text,195,895626,0.0-15.0-3.5,3947,List2B,white,man,,,,,"{""Q0"":""luke is shouting at fred""}","<img src=""stim_listB/shout5.gif""style=""height:400px;""></stim_listB>",is shouting at,,,,,,
null,"<div style=""font-size:60px;"">+</div>",,html-keyboard-response,196,896132,0.0-15.0-0.6,3947,List2B,white,man,,,,null,,,,,,,,,
null,"<img src=""stim_listB/kiss7.gif""style=""height:400px;""></stim_listB>",,html-keyboard-response,197,898141,0.0-15.0-1.6,3947,List2B,white,man,,,,null,,,,,,,,,
null,is kissing,,html-keyboard-response,198,900156,0.0-15.0-2.6,3947,List2B,white,man,,,,null,,,,,,,,,
6339.5,,,survey-text,199,906499,0.0-15.0-3.6,3947,List2B,white,man,,,,,"{""Q0"":""beth is kissing ruth""}","<img src=""stim_listB/kiss7.gif""style=""height:400px;""></stim_listB>",is kissing,,,,,,
null,"<div style=""font-size:60px;"">+</div>",,html-keyboard-response,200,907004,0.0-15.0-0.7,3947,List2B,white,man,,,,null,,,,,,,,,
null,"<img src=""stim_listB/kiss6.gif""style=""height:400px;""></stim_listB>",,html-keyboard-response,201,909015,0.0-15.0-1.7,3947,List2B,white,man,,,,null,,,,,,,,,
null,is being kissed by,,html-keyboard-response,202,911023,0.0-15.0-2.7,3947,List2B,white,man,,,,null,,,,,,,,,
7148.9,,,survey-text,203,918175,0.0-15.0-3.7,3947,List2B,white,man,,,,,"{""Q0"":""dave is being kissed by mike""}","<img src=""stim_listB/kiss6.gif""style=""height:400px;""></stim_listB>",is being kissed by,,,,,,
null,"<div style=""font-size:60px;"">+</div>",,html-keyboard-response,204,918684,0.0-15.0-0.8,3947,List2B,white,man,,,,null,,,,,,,,,
null,"<img src=""stim_listB/look6.gif""style=""height:400px;""></stim_listB>",,html-keyboard-response,205,920696,0.0-15.0-1.8,3947,List2B,white,man,,,,null,,,,,,,,,
null,is being looked at by,,html-keyboard-response,206,922708,0.0-15.0-2.8,3947,List2B,white,man,,,,null,,,,,,,,,
6874.6,,,survey-text,207,929585,0.0-15.0-3.8,3947,List2B,white,man,,,,,"{""Q0"":""dave is being looked at by mike""}","<img src=""stim_listB/look6.gif""style=""height:400px;""></stim_listB>",is being looked at by,,,,,,
null,"<div style=""font-size:60px;"">+</div>",,html-keyboard-response,208,930095,0.0-15.0-0.9,3947,List2B,white,man,,,,null,,,,,,,,,
null,"<img src=""stim_listB/hug3.gif""style=""height:400px;""></stim_listB>",,html-keyboard-response,209,932101,0.0-15.0-1.9,3947,List2B,white,man,,,,null,,,,,,,,,
null,is hugging,,html-keyboard-response,210,934116,0.0-15.0-2.9,3947,List2B,white,man,,,,null,,,,,,,,,
23408.2,,,survey-text,211,957527,0.0-15.0-3.9,3947,List2B,white,man,,,,,"{""Q0"":""fred is hugging kate""}","<img src=""stim_listB/hug3.gif""style=""height:400px;""></stim_listB>",is hugging,,,,,,
null,"<div style=""font-size:60px;"">+</div>",,html-keyboard-response,212,958043,0.0-15.0-0.10,3947,List2B,white,man,,,,null,,,,,,,,,
null,"<img src=""stim_listB/greet3.gif""style=""height:400px;""></stim_listB>",,html-keyboard-response,213,960050,0.0-15.0-1.10,3947,List2B,white,man,,,,null,,,,,,,,,
null,is greeting,,html-keyboard-response,214,962063,0.0-15.0-2.10,3947,List2B,white,man,,,,null,,,,,,,,,
4068.1,,,survey-text,215,966133,0.0-15.0-3.10,3947,List2B,white,man,,,,,"{""Q0"":""kate is greeting mike""}","<img src=""stim_listB/greet3.gif""style=""height:400px;""></stim_listB>",is greeting,,,,,,
null,"<div style=""font-size:60px;"">+</div>",,html-keyboard-response,216,966644,0.0-15.0-0.11,3947,List2B,white,man,,,,null,,,,,,,,,
null,"<img src=""stim_listB/hug5.gif""style=""height:400px;""></stim_listB>",,html-keyboard-response,217,968646,0.0-15.0-1.11,3947,List2B,white,man,,,,null,,,,,,,,,
null,is hugging,,html-keyboard-response,218,970653,0.0-15.0-2.11,3947,List2B,white,man,,,,null,,,,,,,,,
9081.1,,,survey-text,219,979737,0.0-15.0-3.11,3947,List2B,white,man,,,,,"{""Q0"":""luke is hugging fred""}","<img src=""stim_listB/hug5.gif""style=""height:400px;""></stim_listB>",is hugging,,,,,,
null,"<div style=""font-size:60px;"">+</div>",,html-keyboard-response,220,980242,0.0-15.0-0.12,3947,List2B,white,man,,,,null,,,,,,,,,
null,"<img src=""stim_listB/look8.gif""style=""height:400px;""></stim_listB>",,html-keyboard-response,221,982255,0.0-15.0-1.12,3947,List2B,white,man,,,,null,,,,,,,,,
null,is being looked at by,,html-keyboard-response,222,984263,0.0-15.0-2.12,3947,List2B,white,man,,,,null,,,,,,,,,
8479,,,survey-text,223,992744,0.0-15.0-3.12,3947,List2B,white,man,,,,,"{""Q0"":""jane is being looked at by kate""}","<img src=""stim_listB/look8.gif""style=""height:400px;""></stim_listB>",is being looked at by,,,,,,
null,"<div style=""font-size:60px;"">+</div>",,html-keyboard-response,224,993257,0.0-15.0-0.13,3947,List2B,white,man,,,,null,,,,,,,,,
null,"<img src=""stim_listB/shout7.gif""style=""height:400px;""></stim_listB>",,html-keyboard-response,225,995259,0.0-15.0-1.13,3947,List2B,white,man,,,,null,,,,,,,,,
null,is shouting at,,html-keyboard-response,226,997265,0.0-15.0-2.13,3947,List2B,white,man,,,,null,,,,,,,,,
5929.3,,,survey-text,227,1003197,0.0-15.0-3.13,3947,List2B,white,man,,,,,"{""Q0"":""beth is shouting at ruth""}","<img src=""stim_listB/shout7.gif""style=""height:400px;""></stim_listB>",is shouting at,,,,,,
null,"<div style=""font-size:60px;"">+</div>",,html-keyboard-response,228,1003704,0.0-15.0-0.14,3947,List2B,white,man,,,,null,,,,,,,,,
null,"<img src=""stim_listB/challenge3.gif""style=""height:400px;""></stim_listB>",,html-keyboard-response,229,1005718,0.0-15.0-1.14,3947,List2B,white,man,,,,null,,,,,,,,,
null,is challenging,,html-keyboard-response,230,1007732,0.0-15.0-2.14,3947,List2B,white,man,,,,null,,,,,,,,,
5951.5,,,survey-text,231,1013687,0.0-15.0-3.14,3947,List2B,white,man,,,,,"{""Q0"":""beth is challenging mike""}","<img src=""stim_listB/challenge3.gif""style=""height:400px;""></stim_listB>",is challenging,,,,,,
null,"<div style=""font-size:60px;"">+</div>",,html-keyboard-response,232,1014190,0.0-15.0-0.15,3947,List2B,white,man,,,,null,,,,,,,,,
null,"<img src=""stim_listB/shout8.gif""style=""height:400px;""></stim_listB>",,html-keyboard-response,233,1016196,0.0-15.0-1.15,3947,List2B,white,man,,,,null,,,,,,,,,
null,is being shouted at by,,html-keyboard-response,234,1018208,0.0-15.0-2.15,3947,List2B,white,man,,,,null,,,,,,,,,
18121.6,,,survey-text,235,1036334,0.0-15.0-3.15,3947,List2B,white,man,,,,,"{""Q0"":""kate is being shouted at by jane""}","<img src=""stim_listB/shout8.gif""style=""height:400px;""></stim_listB>",is being shouted at by,,,,,,
null,"<div style=""font-size:60px;"">+</div>",,html-keyboard-response,236,1036842,0.0-15.0-0.16,3947,List2B,white,man,,,,null,,,,,,,,,
null,"<img src=""stim_listB/shout3.gif""style=""height:400px;""></stim_listB>",,html-keyboard-response,237,1038852,0.0-15.0-1.16,3947,List2B,white,man,,,,null,,,,,,,,,
null,is shouting at,,html-keyboard-response,238,1040863,0.0-15.0-2.16,3947,List2B,white,man,,,,null,,,,,,,,,
8787.2,,,survey-text,239,1049651,0.0-15.0-3.16,3947,List2B,white,man,,,,,"{""Q0"":""beth is shouting at fred""}","<img src=""stim_listB/shout3.gif""style=""height:400px;""></stim_listB>",is shouting at,,,,,,
null,"<div style=""font-size:60px;"">+</div>",,html-keyboard-response,240,1050165,0.0-15.0-0.17,3947,List2B,white,man,,,,null,,,,,,,,,
null,"<img src=""stim_listB/seduce5.gif""style=""height:400px;""></stim_listB>",,html-keyboard-response,241,1052180,0.0-15.0-1.17,3947,List2B,white,man,,,,null,,,,,,,,,
null,is seducing,,html-keyboard-response,242,1054194,0.0-15.0-2.17,3947,List2B,white,man,,,,null,,,,,,,,,
8573,,,survey-text,243,1062770,0.0-15.0-3.17,3947,List2B,white,man,,,,,"{""Q0"":""mike is seducing luke""}","<img src=""stim_listB/seduce5.gif""style=""height:400px;""></stim_listB>",is seducing,,,,,,
null,"<div style=""font-size:60px;"">+</div>",,html-keyboard-response,244,1063277,0.0-15.0-0.18,3947,List2B,white,man,,,,null,,,,,,,,,
null,"<img src=""stim_listB/oppose5.gif""style=""height:400px;""></stim_listB>",,html-keyboard-response,245,1065293,0.0-15.0-1.18,3947,List2B,white,man,,,,null,,,,,,,,,
null,is opposing,,html-keyboard-response,246,1067307,0.0-15.0-2.18,3947,List2B,white,man,,,,null,,,,,,,,,
4275.5,,,survey-text,247,1071586,0.0-15.0-3.18,3947,List2B,white,man,,,,,"{""Q0"":""mike is opposing dave""}","<img src=""stim_listB/oppose5.gif""style=""height:400px;""></stim_listB>",is opposing,,,,,,
null,"<div style=""font-size:60px;"">+</div>",,html-keyboard-response,248,1072087,0.0-15.0-0.19,3947,List2B,white,man,,,,null,,,,,,,,,
null,"<img src=""stim_listB/greet7.gif""style=""height:400px;""></stim_listB>",,html-keyboard-response,249,1074096,0.0-15.0-1.19,3947,List2B,white,man,,,,null,,,,,,,,,
null,is greeting,,html-keyboard-response,250,1076107,0.0-15.0-2.19,3947,List2B,white,man,,,,null,,,,,,,,,
7413.3,,,survey-text,251,1083524,0.0-15.0-3.19,3947,List2B,white,man,,,,,"{""Q0"":""beth is greeting jane""}","<img src=""stim_listB/greet7.gif""style=""height:400px;""></stim_listB>",is greeting,,,,,,
6415.6,"<img src='img/portrait_matrix_list2.jpg' style='width:900px;height:500px;''></img><p>If you have memorised all the portraits and names and are ready to start, press Continue.</p><p><strong>Please note: Your memory of these faces will be tested 4 times during this experiment.</strong></p>",0,html-button-response,252,1089940,0.0-16.0-0.0,3947,List2B,white,man,,,,,,,,,,,,,
3590.8,"<img src=""portrait/BW2.jpg""style=""height:400px;""></img>",2,html-button-response,253,1094533,0.0-16.0-1.0,3947,List2B,white,man,,TRUE,2,,,,,,,,,,
null,CORRECT,,html-keyboard-response,254,1096050,0.0-16.0-2.0-0.0,3947,List2B,white,man,,,,null,,,,,,,,,
2255.4,"<img src=""portrait/WM1.jpg""style=""height:400px;""></img>",6,html-button-response,255,1098307,0.0-16.0-4.0,3947,List2B,white,man,,TRUE,6,,,,,,,,,,
null,CORRECT,,html-keyboard-response,256,1099809,0.0-16.0-5.0-0.0,3947,List2B,white,man,,,,null,,,,,,,,,
1909.4,"<img src=""portrait/BW1.jpg""style=""height:400px;""></img>",0,html-button-response,257,1101720,0.0-16.0-7.0,3947,List2B,white,man,,TRUE,0,,,,,,,,,,
null,CORRECT,,html-keyboard-response,258,1103222,0.0-16.0-8.0-0.0,3947,List2B,white,man,,,,null,,,,,,,,,
1038,"<img src=""portrait/WW1.jpg""style=""height:400px;""></img>",1,html-button-response,259,1104261,0.0-16.0-10.0,3947,List2B,white,man,,TRUE,1,,,,,,,,,,
null,CORRECT,,html-keyboard-response,260,1105781,0.0-16.0-11.0-0.0,3947,List2B,white,man,,,,null,,,,,,,,,
3013.8,"<img src=""portrait/BM1.jpg""style=""height:400px;""></img>",4,html-button-response,261,1108797,0.0-16.0-13.0,3947,List2B,white,man,,TRUE,4,,,,,,,,,,
null,CORRECT,,html-keyboard-response,262,1110300,0.0-16.0-14.0-0.0,3947,List2B,white,man,,,,null,,,,,,,,,
1299.2,"<img src=""portrait/WM2.jpg""style=""height:400px;""></img>",7,html-button-response,263,1111601,0.0-16.0-16.0,3947,List2B,white,man,,TRUE,7,,,,,,,,,,
null,CORRECT,,html-keyboard-response,264,1113102,0.0-16.0-17.0-0.0,3947,List2B,white,man,,,,null,,,,,,,,,
8875.5,"<img src=""portrait/WW2.jpg""style=""height:400px;""></img>",3,html-button-response,265,1121979,0.0-16.0-19.0,3947,List2B,white,man,,TRUE,3,,,,,,,,,,
null,CORRECT,,html-keyboard-response,266,1123498,0.0-16.0-20.0-0.0,3947,List2B,white,man,,,,null,,,,,,,,,
1189.2,"<img src=""portrait/BM2.jpg""style=""height:400px;""></img>",5,html-button-response,267,1124689,0.0-16.0-22.0,3947,List2B,white,man,,TRUE,5,,,,,,,,,,
null,CORRECT,,html-keyboard-response,268,1126193,0.0-16.0-23.0-0.0,3947,List2B,white,man,,,,null,,,,,,,,,
1059.8,<p>You got 8 out of 8 right first time. Press Continue.</p>,0,html-button-response,269,1127254,0.0-16.0-25.0,3947,List2B,white,man,,,,,,,,,,,,,
null,"<div style=""font-size:60px;"">+</div>",,html-keyboard-response,270,1128783,0.0-17.0-0.0,3947,List2B,white,man,,,,null,,,,,,,,,
null,"<img src=""stim_listB/hug4.gif""style=""height:400px;""></stim_listB>",,html-keyboard-response,271,1130786,0.0-17.0-1.0,3947,List2B,white,man,,,,null,,,,,,,,,
null,is being hugged by,,html-keyboard-response,272,1132789,0.0-17.0-2.0,3947,List2B,white,man,,,,null,,,,,,,,,
7513.9,,,survey-text,273,1140306,0.0-17.0-3.0,3947,List2B,white,man,,,,,"{""Q0"":""kate is being hugged by mike""}","<img src=""stim_listB/hug4.gif""style=""height:400px;""></stim_listB>",is being hugged by,,,,,,
null,"<div style=""font-size:60px;"">+</div>",,html-keyboard-response,274,1140812,0.0-17.0-0.1,3947,List2B,white,man,,,,null,,,,,,,,,
null,"<img src=""stim_listB/kiss4.gif""style=""height:400px;""></stim_listB>",,html-keyboard-response,275,1142822,0.0-17.0-1.1,3947,List2B,white,man,,,,null,,,,,,,,,
null,is being kissed by,,html-keyboard-response,276,1144834,0.0-17.0-2.1,3947,List2B,white,man,,,,null,,,,,,,,,
7994.2,,,survey-text,277,1152831,0.0-17.0-3.1,3947,List2B,white,man,,,,,"{""Q0"":""mike is being kissed by kate""}","<img src=""stim_listB/kiss4.gif""style=""height:400px;""></stim_listB>",is being kissed by,,,,,,
null,"<div style=""font-size:60px;"">+</div>",,html-keyboard-response,278,1153343,0.0-17.0-0.2,3947,List2B,white,man,,,,null,,,,,,,,,
null,"<img src=""stim_listB/kiss2.gif""style=""height:400px;""></stim_listB>",,html-keyboard-response,279,1155356,0.0-17.0-1.2,3947,List2B,white,man,,,,null,,,,,,,,,
null,is being kissed by,,html-keyboard-response,280,1157366,0.0-17.0-2.2,3947,List2B,white,man,,,,null,,,,,,,,,
12179.8,,,survey-text,281,1169548,0.0-17.0-3.2,3947,List2B,white,man,,,,,"{""Q0"":""dave is being kissed by jane""}","<img src=""stim_listB/kiss2.gif""style=""height:400px;""></stim_listB>",is being kissed by,,,,,,
null,"<div style=""font-size:60px;"">+</div>",,html-keyboard-response,282,1170064,0.0-17.0-0.3,3947,List2B,white,man,,,,null,,,,,,,,,
null,"<img src=""stim_listB/touch7.gif""style=""height:400px;""></stim_listB>",,html-keyboard-response,283,1172076,0.0-17.0-1.3,3947,List2B,white,man,,,,null,,,,,,,,,
null,is touching,,html-keyboard-response,284,1174085,0.0-17.0-2.3,3947,List2B,white,man,,,,null,,,,,,,,,
6611.7,,,survey-text,285,1180700,0.0-17.0-3.3,3947,List2B,white,man,,,,,"{""Q0"":""jane is touching kate""}","<img src=""stim_listB/touch7.gif""style=""height:400px;""></stim_listB>",is touching,,,,,,
null,"<div style=""font-size:60px;"">+</div>",,html-keyboard-response,286,1181205,0.0-17.0-0.4,3947,List2B,white,man,,,,null,,,,,,,,,
null,"<img src=""stim_listB/hug6.gif""style=""height:400px;""></stim_listB>",,html-keyboard-response,287,1183215,0.0-17.0-1.4,3947,List2B,white,man,,,,null,,,,,,,,,
null,is being hugged by,,html-keyboard-response,288,1185228,0.0-17.0-2.4,3947,List2B,white,man,,,,null,,,,,,,,,
7559.6,,,survey-text,289,1192790,0.0-17.0-3.4,3947,List2B,white,man,,,,,"{""Q0"":""mike is being hugged by dave""}","<img src=""stim_listB/hug6.gif""style=""height:400px;""></stim_listB>",is being hugged by,,,,,,
null,"<div style=""font-size:60px;"">+</div>",,html-keyboard-response,290,1193303,0.0-17.0-0.5,3947,List2B,white,man,,,,null,,,,,,,,,
null,"<img src=""stim_listB/copy4.gif""style=""height:400px;""></stim_listB>",,html-keyboard-response,291,1195313,0.0-17.0-1.5,3947,List2B,white,man,,,,null,,,,,,,,,
null,is being copied by,,html-keyboard-response,292,1197327,0.0-17.0-2.5,3947,List2B,white,man,,,,null,,,,,,,,,
11369.9,,,survey-text,293,1208699,0.0-17.0-3.5,3947,List2B,white,man,,,,,"{""Q0"":""fred is being copied by kate""}","<img src=""stim_listB/copy4.gif""style=""height:400px;""></stim_listB>",is being copied by,,,,,,
null,"<div style=""font-size:60px;"">+</div>",,html-keyboard-response,294,1209208,0.0-17.0-0.6,3947,List2B,white,man,,,,null,,,,,,,,,
null,"<img src=""stim_listB/touch6.gif""style=""height:400px;""></stim_listB>",,html-keyboard-response,295,1211221,0.0-17.0-1.6,3947,List2B,white,man,,,,null,,,,,,,,,
null,is being touched by,,html-keyboard-response,296,1213236,0.0-17.0-2.6,3947,List2B,white,man,,,,null,,,,,,,,,
6615.4,,,survey-text,297,1219854,0.0-17.0-3.6,3947,List2B,white,man,,,,,"{""Q0"":""fred is being touched by luke""}","<img src=""stim_listB/touch6.gif""style=""height:400px;""></stim_listB>",is being touched by,,,,,,
null,"<div style=""font-size:60px;"">+</div>",,html-keyboard-response,298,1220360,0.0-17.0-0.7,3947,List2B,white,man,,,,null,,,,,,,,,
null,"<img src=""stim_listB/kiss1.gif""style=""height:400px;""></stim_listB>",,html-keyboard-response,299,1222371,0.0-17.0-1.7,3947,List2B,white,man,,,,null,,,,,,,,,
null,is kissing,,html-keyboard-response,300,1224379,0.0-17.0-2.7,3947,List2B,white,man,,,,null,,,,,,,,,
12813.9,,,survey-text,301,1237196,0.0-17.0-3.7,3947,List2B,white,man,,,,,"{""Q0"":""luke is kissing ruth""}","<img src=""stim_listB/kiss1.gif""style=""height:400px;""></stim_listB>",is kissing,,,,,,
null,"<div style=""font-size:60px;"">+</div>",,html-keyboard-response,302,1237702,0.0-17.0-0.8,3947,List2B,white,man,,,,null,,,,,,,,,
null,"<img src=""stim_listB/look5.gif""style=""height:400px;""></stim_listB>",,html-keyboard-response,303,1239709,0.0-17.0-1.8,3947,List2B,white,man,,,,null,,,,,,,,,
null,is looking at,,html-keyboard-response,304,1241722,0.0-17.0-2.8,3947,List2B,white,man,,,,null,,,,,,,,,
5579.5,,,survey-text,305,1247304,0.0-17.0-3.8,3947,List2B,white,man,,,,,"{""Q0"":""luke is looking at fred""}","<img src=""stim_listB/look5.gif""style=""height:400px;""></stim_listB>",is looking at,,,,,,
null,"<div style=""font-size:60px;"">+</div>",,html-keyboard-response,306,1247811,0.0-17.0-0.9,3947,List2B,white,man,,,,null,,,,,,,,,
null,"<img src=""stim_listB/shout1.gif""style=""height:400px;""></stim_listB>",,html-keyboard-response,307,1249824,0.0-17.0-1.9,3947,List2B,white,man,,,,null,,,,,,,,,
null,is shouting at,,html-keyboard-response,308,1251836,0.0-17.0-2.9,3947,List2B,white,man,,,,null,,,,,,,,,
8518.8,,,survey-text,309,1260358,0.0-17.0-3.9,3947,List2B,white,man,,,,,"{""Q0"":""beth is shouting at luke""}","<img src=""stim_listB/shout1.gif""style=""height:400px;""></stim_listB>",is shouting at,,,,,,
null,"<div style=""font-size:60px;"">+</div>",,html-keyboard-response,310,1260864,0.0-17.0-0.10,3947,List2B,white,man,,,,null,,,,,,,,,
null,"<img src=""stim_listB/greet5.gif""style=""height:400px;""></stim_listB>",,html-keyboard-response,311,1262876,0.0-17.0-1.10,3947,List2B,white,man,,,,null,,,,,,,,,
null,is greeting,,html-keyboard-response,312,1264889,0.0-17.0-2.10,3947,List2B,white,man,,,,null,,,,,,,,,
8508.3,,,survey-text,313,1273400,0.0-17.0-3.10,3947,List2B,white,man,,,,,"{""Q0"":""fred is greeting dave""}","<img src=""stim_listB/greet5.gif""style=""height:400px;""></stim_listB>",is greeting,,,,,,
null,"<div style=""font-size:60px;"">+</div>",,html-keyboard-response,314,1273901,0.0-17.0-0.11,3947,List2B,white,man,,,,null,,,,,,,,,
null,"<img src=""stim_listB/greet2.gif""style=""height:400px;""></stim_listB>",,html-keyboard-response,315,1275905,0.0-17.0-1.11,3947,List2B,white,man,,,,null,,,,,,,,,
null,is being greeted by,,html-keyboard-response,316,1277908,0.0-17.0-2.11,3947,List2B,white,man,,,,null,,,,,,,,,
7333.8,,,survey-text,317,1285245,0.0-17.0-3.11,3947,List2B,white,man,,,,,"{""Q0"":""jane is being greeted by luke""}","<img src=""stim_listB/greet2.gif""style=""height:400px;""></stim_listB>",is being greeted by,,,,,,
null,"<div style=""font-size:60px;"">+</div>",,html-keyboard-response,318,1285751,0.0-17.0-0.12,3947,List2B,white,man,,,,null,,,,,,,,,
null,"<img src=""stim_listB/kiss5.gif""style=""height:400px;""></stim_listB>",,html-keyboard-response,319,1287762,0.0-17.0-1.12,3947,List2B,white,man,,,,null,,,,,,,,,
null,is kissing,,html-keyboard-response,320,1289771,0.0-17.0-2.12,3947,List2B,white,man,,,,null,,,,,,,,,
12675.9,,,survey-text,321,1302450,0.0-17.0-3.12,3947,List2B,white,man,,,,,"{""Q0"":""fred is kissing luke""}","<img src=""stim_listB/kiss5.gif""style=""height:400px;""></stim_listB>",is kissing,,,,,,
null,"<div style=""font-size:60px;"">+</div>",,html-keyboard-response,322,1302956,0.0-17.0-0.13,3947,List2B,white,man,,,,null,,,,,,,,,
null,"<img src=""stim_listB/look2.gif""style=""height:400px;""></stim_listB>",,html-keyboard-response,323,1304969,0.0-17.0-1.13,3947,List2B,white,man,,,,null,,,,,,,,,
null,is being looked at by,,html-keyboard-response,324,1306981,0.0-17.0-2.13,3947,List2B,white,man,,,,null,,,,,,,,,
8912.9,,,survey-text,325,1315897,0.0-17.0-3.13,3947,List2B,white,man,,,,,"{""Q0"":""dave is being looked at by jane""}","<img src=""stim_listB/look2.gif""style=""height:400px;""></stim_listB>",is being looked at by,,,,,,
null,"<div style=""font-size:60px;"">+</div>",,html-keyboard-response,326,1316402,0.0-17.0-0.14,3947,List2B,white,man,,,,null,,,,,,,,,
null,"<img src=""stim_listB/copy3.gif""style=""height:400px;""></stim_listB>",,html-keyboard-response,327,1318403,0.0-17.0-1.14,3947,List2B,white,man,,,,null,,,,,,,,,
null,is copying,,html-keyboard-response,328,1320418,0.0-17.0-2.14,3947,List2B,white,man,,,,null,,,,,,,,,
6154.4,,,survey-text,329,1326574,0.0-17.0-3.14,3947,List2B,white,man,,,,,"{""Q0"":""beth is copying mike""}","<img src=""stim_listB/copy3.gif""style=""height:400px;""></stim_listB>",is copying,,,,,,
null,"<div style=""font-size:60px;"">+</div>",,html-keyboard-response,330,1327076,0.0-17.0-0.15,3947,List2B,white,man,,,,null,,,,,,,,,
null,"<img src=""stim_listB/greet8.gif""style=""height:400px;""></stim_listB>",,html-keyboard-response,331,1329091,0.0-17.0-1.15,3947,List2B,white,man,,,,null,,,,,,,,,
null,is being greeted by,,html-keyboard-response,332,1331103,0.0-17.0-2.15,3947,List2B,white,man,,,,null,,,,,,,,,
8617.4,,,survey-text,333,1339723,0.0-17.0-3.15,3947,List2B,white,man,,,,,"{""Q0"":""ruth is being greeted by kate""}","<img src=""stim_listB/greet8.gif""style=""height:400px;""></stim_listB>",is being greeted by,,,,,,
null,"<div style=""font-size:60px;"">+</div>",,html-keyboard-response,334,1340227,0.0-17.0-0.16,3947,List2B,white,man,,,,null,,,,,,,,,
null,"<img src=""stim_listB/challenge5.gif""style=""height:400px;""></stim_listB>",,html-keyboard-response,335,1342241,0.0-17.0-1.16,3947,List2B,white,man,,,,null,,,,,,,,,
null,is challenging,,html-keyboard-response,336,1344255,0.0-17.0-2.16,3947,List2B,white,man,,,,null,,,,,,,,,
10697.7,,,survey-text,337,1354956,0.0-17.0-3.16,3947,List2B,white,man,,,,,"{""Q0"":""dave is challenging fred""}","<img src=""stim_listB/challenge5.gif""style=""height:400px;""></stim_listB>",is challenging,,,,,,
null,"<div style=""font-size:60px;"">+</div>",,html-keyboard-response,338,1355458,0.0-17.0-0.17,3947,List2B,white,man,,,,null,,,,,,,,,
null,"<img src=""stim_listB/oppose4.gif""style=""height:400px;""></stim_listB>",,html-keyboard-response,339,1357467,0.0-17.0-1.17,3947,List2B,white,man,,,,null,,,,,,,,,
null,is being opposed by,,html-keyboard-response,340,1359482,0.0-17.0-2.17,3947,List2B,white,man,,,,null,,,,,,,,,
10346.7,,,survey-text,341,1369831,0.0-17.0-3.17,3947,List2B,white,man,,,,,"{""Q0"":""fred is being opposed by beth""}","<img src=""stim_listB/oppose4.gif""style=""height:400px;""></stim_listB>",is being opposed by,,,,,,
null,"<div style=""font-size:60px;"">+</div>",,html-keyboard-response,342,1370343,0.0-17.0-0.18,3947,List2B,white,man,,,,null,,,,,,,,,
null,"<img src=""stim_listB/copy5.gif""style=""height:400px;""></stim_listB>",,html-keyboard-response,343,1372355,0.0-17.0-1.18,3947,List2B,white,man,,,,null,,,,,,,,,
null,is copying,,html-keyboard-response,344,1374371,0.0-17.0-2.18,3947,List2B,white,man,,,,null,,,,,,,,,
6773,,,survey-text,345,1381146,0.0-17.0-3.18,3947,List2B,white,man,,,,,"{""Q0"":""fred is copying dave""}","<img src=""stim_listB/copy5.gif""style=""height:400px;""></stim_listB>",is copying,,,,,,
null,"<div style=""font-size:60px;"">+</div>",,html-keyboard-response,346,1381661,0.0-17.0-0.19,3947,List2B,white,man,,,,null,,,,,,,,,
null,"<img src=""stim_listB/shout4.gif""style=""height:400px;""></stim_listB>",,html-keyboard-response,347,1383673,0.0-17.0-1.19,3947,List2B,white,man,,,,null,,,,,,,,,
null,is being shouted at by,,html-keyboard-response,348,1385684,0.0-17.0-2.19,3947,List2B,white,man,,,,null,,,,,,,,,
8000.1,,,survey-text,349,1393686,0.0-17.0-3.19,3947,List2B,white,man,,,,,"{""Q0"":""mike is being shouted at by kate""}","<img src=""stim_listB/shout4.gif""style=""height:400px;""></stim_listB>",is being shouted at by,,,,,,
4562.1,"<img src='img/portrait_matrix_list2.jpg' style='width:900px;height:500px;''></img><p>If you have memorised all the portraits and names and are ready to start, press Continue.</p><p><strong>Please note: Your memory of these faces will be tested 4 times during this experiment.</strong></p>",0,html-button-response,350,1398249,0.0-18.0-0.0,3947,List2B,white,man,,,,,,,,,,,,,
2011.1,"<img src=""portrait/BM1.jpg""style=""height:400px;""></img>",4,html-button-response,351,1401262,0.0-18.0-1.0,3947,List2B,white,man,,TRUE,4,,,,,,,,,,
null,CORRECT,,html-keyboard-response,352,1402770,0.0-18.0-2.0-0.0,3947,List2B,white,man,,,,null,,,,,,,,,
1953.8,"<img src=""portrait/BW2.jpg""style=""height:400px;""></img>",2,html-button-response,353,1404726,0.0-18.0-4.0,3947,List2B,white,man,,TRUE,2,,,,,,,,,,
null,CORRECT,,html-keyboard-response,354,1406229,0.0-18.0-5.0-0.0,3947,List2B,white,man,,,,null,,,,,,,,,
1383.9,"<img src=""portrait/WW2.jpg""style=""height:400px;""></img>",3,html-button-response,355,1407614,0.0-18.0-7.0,3947,List2B,white,man,,TRUE,3,,,,,,,,,,
null,CORRECT,,html-keyboard-response,356,1409144,0.0-18.0-8.0-0.0,3947,List2B,white,man,,,,null,,,,,,,,,
1266.3,"<img src=""portrait/BW1.jpg""style=""height:400px;""></img>",0,html-button-response,357,1410412,0.0-18.0-10.0,3947,List2B,white,man,,TRUE,0,,,,,,,,,,
null,CORRECT,,html-keyboard-response,358,1411919,0.0-18.0-11.0-0.0,3947,List2B,white,man,,,,null,,,,,,,,,
1387.1,"<img src=""portrait/WM2.jpg""style=""height:400px;""></img>",7,html-button-response,359,1413308,0.0-18.0-13.0,3947,List2B,white,man,,TRUE,7,,,,,,,,,,
null,CORRECT,,html-keyboard-response,360,1414832,0.0-18.0-14.0-0.0,3947,List2B,white,man,,,,null,,,,,,,,,
1240.6,"<img src=""portrait/WW1.jpg""style=""height:400px;""></img>",0,html-button-response,361,1416074,0.0-18.0-16.0,3947,List2B,white,man,,TRUE,1,,,,,,,,,,
1814.7,"<img src=""portrait/WW1.jpg""style=""height:400px;""></img>",1,html-button-response,362,1418894,0.0-18.0-18.0-0.0,3947,List2B,white,man,,FALSE,1,,,,,,,,,,
null,CORRECT,,html-keyboard-response,363,1420413,0.0-18.0-18.0-1.0-0.0,3947,List2B,white,man,,,,null,,,,,,,,,
3902.8,"<img src=""portrait/WM1.jpg""style=""height:400px;""></img>",6,html-button-response,364,1424318,0.0-18.0-19.0,3947,List2B,white,man,,TRUE,6,,,,,,,,,,
null,CORRECT,,html-keyboard-response,365,1425821,0.0-18.0-20.0-0.0,3947,List2B,white,man,,,,null,,,,,,,,,
1239.2,"<img src=""portrait/BM2.jpg""style=""height:400px;""></img>",5,html-button-response,366,1427062,0.0-18.0-22.0,3947,List2B,white,man,,TRUE,5,,,,,,,,,,
null,CORRECT,,html-keyboard-response,367,1428576,0.0-18.0-23.0-0.0,3947,List2B,white,man,,,,null,,,,,,,,,
1473.2,<p>You got 7 out of 8 right first time. Press Continue.</p>,0,html-button-response,368,1430050,0.0-18.0-25.0,3947,List2B,white,man,,,,,,,,,,,,,
1338.4,"As you did not score 100%, the memory game will repeat. Press Continue.",0,html-button-response,369,1432390,0.0-18.0-26.0-0.0,3947,List2B,white,man,,,,,,,,,,,,,
1442.6,"<img src='img/portrait_matrix_list2.jpg' style='width:900px;height:500px;''></img><p>If you have memorised all the portraits and names and are ready to start, press Continue.</p><p><strong>Please note: Your memory of these faces will be tested 4 times during this experiment.</strong></p>",0,html-button-response,370,1434835,0.0-18.1-0.1,3947,List2B,white,man,,,,,,,,,,,,,
1882.2,"<img src=""portrait/BM1.jpg""style=""height:400px;""></img>",4,html-button-response,371,1437720,0.0-18.1-1.1,3947,List2B,white,man,,TRUE,4,,,,,,,,,,
null,CORRECT,,html-keyboard-response,372,1439221,0.0-18.1-2.1-0.1,3947,List2B,white,man,,,,null,,,,,,,,,
2452.4,"<img src=""portrait/BW2.jpg""style=""height:400px;""></img>",2,html-button-response,373,1441676,0.0-18.1-4.1,3947,List2B,white,man,,TRUE,2,,,,,,,,,,
null,CORRECT,,html-keyboard-response,374,1443193,0.0-18.1-5.1-0.1,3947,List2B,white,man,,,,null,,,,,,,,,
1362.5,"<img src=""portrait/WW2.jpg""style=""height:400px;""></img>",3,html-button-response,375,1444558,0.0-18.1-7.1,3947,List2B,white,man,,TRUE,3,,,,,,,,,,
null,CORRECT,,html-keyboard-response,376,1446079,0.0-18.1-8.1-0.1,3947,List2B,white,man,,,,null,,,,,,,,,
1259.1,"<img src=""portrait/BW1.jpg""style=""height:400px;""></img>",0,html-button-response,377,1447340,0.0-18.1-10.1,3947,List2B,white,man,,TRUE,0,,,,,,,,,,
null,CORRECT,,html-keyboard-response,378,1448853,0.0-18.1-11.1-0.1,3947,List2B,white,man,,,,null,,,,,,,,,
2003.5,"<img src=""portrait/WM2.jpg""style=""height:400px;""></img>",7,html-button-response,379,1450857,0.0-18.1-13.1,3947,List2B,white,man,,TRUE,7,,,,,,,,,,
null,CORRECT,,html-keyboard-response,380,1452377,0.0-18.1-14.1-0.1,3947,List2B,white,man,,,,null,,,,,,,,,
3425.3,"<img src=""portrait/WW1.jpg""style=""height:400px;""></img>",1,html-button-response,381,1455803,0.0-18.1-16.1,3947,List2B,white,man,,TRUE,1,,,,,,,,,,
null,CORRECT,,html-keyboard-response,382,1457305,0.0-18.1-17.1-0.1,3947,List2B,white,man,,,,null,,,,,,,,,
2183.1,"<img src=""portrait/WM1.jpg""style=""height:400px;""></img>",6,html-button-response,383,1459489,0.0-18.1-19.1,3947,List2B,white,man,,TRUE,6,,,,,,,,,,
null,CORRECT,,html-keyboard-response,384,1460991,0.0-18.1-20.1-0.1,3947,List2B,white,man,,,,null,,,,,,,,,
844.6,"<img src=""portrait/BM2.jpg""style=""height:400px;""></img>",5,html-button-response,385,1461837,0.0-18.1-22.1,3947,List2B,white,man,,TRUE,5,,,,,,,,,,
null,CORRECT,,html-keyboard-response,386,1463353,0.0-18.1-23.1-0.1,3947,List2B,white,man,,,,null,,,,,,,,,
1862.6,<p>You got 8 out of 8 right first time. Press Continue.</p>,0,html-button-response,387,1465217,0.0-18.1-25.1,3947,List2B,white,man,,,,,,,,,,,,,
null,"<div style=""font-size:60px;"">+</div>",,html-keyboard-response,388,1466720,0.0-19.0-0.0,3947,List2B,white,man,,,,null,,,,,,,,,
null,"<img src=""stim_listB/greet4.gif""style=""height:400px;""></stim_listB>",,html-keyboard-response,389,1468728,0.0-19.0-1.0,3947,List2B,white,man,,,,null,,,,,,,,,
null,is being greeted by,,html-keyboard-response,390,1470736,0.0-19.0-2.0,3947,List2B,white,man,,,,null,,,,,,,,,
7845.1,,,survey-text,391,1478584,0.0-19.0-3.0,3947,List2B,white,man,,,,,"{""Q0"":""fred is being greeted by kate""}","<img src=""stim_listB/greet4.gif""style=""height:400px;""></stim_listB>",is being greeted by,,,,,,
null,"<div style=""font-size:60px;"">+</div>",,html-keyboard-response,392,1479093,0.0-19.0-0.1,3947,List2B,white,man,,,,null,,,,,,,,,
null,"<img src=""stim_listB/seduce1.gif""style=""height:400px;""></stim_listB>",,html-keyboard-response,393,1481108,0.0-19.0-1.1,3947,List2B,white,man,,,,null,,,,,,,,,
null,is seducing,,html-keyboard-response,394,1483119,0.0-19.0-2.1,3947,List2B,white,man,,,,null,,,,,,,,,
5728,,,survey-text,395,1488850,0.0-19.0-3.1,3947,List2B,white,man,,,,,"{""Q0"":""jane is seducing luke""}","<img src=""stim_listB/seduce1.gif""style=""height:400px;""></stim_listB>",is seducing,,,,,,
null,"<div style=""font-size:60px;"">+</div>",,html-keyboard-response,396,1489362,0.0-19.0-0.2,3947,List2B,white,man,,,,null,,,,,,,,,
null,"<img src=""stim_listB/seduce2.gif""style=""height:400px;""></stim_listB>",,html-keyboard-response,397,1491374,0.0-19.0-1.2,3947,List2B,white,man,,,,null,,,,,,,,,
null,is being seduced by,,html-keyboard-response,398,1493382,0.0-19.0-2.2,3947,List2B,white,man,,,,null,,,,,,,,,
9260.2,,,survey-text,399,1502645,0.0-19.0-3.2,3947,List2B,white,man,,,,,"{""Q0"":""ruth is being seduced by dave""}","<img src=""stim_listB/seduce2.gif""style=""height:400px;""></stim_listB>",is being seduced by,,,,,,
null,"<div style=""font-size:60px;"">+</div>",,html-keyboard-response,400,1503160,0.0-19.0-0.3,3947,List2B,white,man,,,,null,,,,,,,,,
null,"<img src=""stim_listB/look3.gif""style=""height:400px;""></stim_listB>",,html-keyboard-response,401,1505171,0.0-19.0-1.3,3947,List2B,white,man,,,,null,,,,,,,,,
null,is looking at,,html-keyboard-response,402,1507178,0.0-19.0-2.3,3947,List2B,white,man,,,,null,,,,,,,,,
4988.7,,,survey-text,403,1512170,0.0-19.0-3.3,3947,List2B,white,man,,,,,"{""Q0"":""beth is looking at fred""}","<img src=""stim_listB/look3.gif""style=""height:400px;""></stim_listB>",is looking at,,,,,,
null,"<div style=""font-size:60px;"">+</div>",,html-keyboard-response,404,1512678,0.0-19.0-0.4,3947,List2B,white,man,,,,null,,,,,,,,,
null,"<img src=""stim_listB/copy2.gif""style=""height:400px;""></stim_listB>",,html-keyboard-response,405,1514688,0.0-19.0-1.4,3947,List2B,white,man,,,,null,,,,,,,,,
null,is being copied by,,html-keyboard-response,406,1516695,0.0-19.0-2.4,3947,List2B,white,man,,,,null,,,,,,,,,
11991,,,survey-text,407,1528687,0.0-19.0-3.4,3947,List2B,white,man,,,,,"{""Q0"":""luke is being copied by jane""}","<img src=""stim_listB/copy2.gif""style=""height:400px;""></stim_listB>",is being copied by,,,,,,
null,"<div style=""font-size:60px;"">+</div>",,html-keyboard-response,408,1529188,0.0-19.0-0.5,3947,List2B,white,man,,,,null,,,,,,,,,
null,"<img src=""stim_listB/touch2.gif""style=""height:400px;""></stim_listB>",,html-keyboard-response,409,1531202,0.0-19.0-1.5,3947,List2B,white,man,,,,null,,,,,,,,,
null,is being touched by,,html-keyboard-response,410,1533214,0.0-19.0-2.5,3947,List2B,white,man,,,,null,,,,,,,,,
10072,,,survey-text,411,1543288,0.0-19.0-3.5,3947,List2B,white,man,,,,,"{""Q0"":""ruth is being touched by luke""}","<img src=""stim_listB/touch2.gif""style=""height:400px;""></stim_listB>",is being touched by,,,,,,
null,"<div style=""font-size:60px;"">+</div>",,html-keyboard-response,412,1543792,0.0-19.0-0.6,3947,List2B,white,man,,,,null,,,,,,,,,
null,"<img src=""stim_listB/challenge6.gif""style=""height:400px;""></stim_listB>",,html-keyboard-response,413,1545807,0.0-19.0-1.6,3947,List2B,white,man,,,,null,,,,,,,,,
null,is being challenged by,,html-keyboard-response,414,1547817,0.0-19.0-2.6,3947,List2B,white,man,,,,null,,,,,,,,,
7128.3,,,survey-text,415,1554948,0.0-19.0-3.6,3947,List2B,white,man,,,,,"{""Q0"":""luke is being challenged by mike""}","<img src=""stim_listB/challenge6.gif""style=""height:400px;""></stim_listB>",is being challenged by,,,,,,
null,"<div style=""font-size:60px;"">+</div>",,html-keyboard-response,416,1555450,0.0-19.0-0.7,3947,List2B,white,man,,,,null,,,,,,,,,
null,"<img src=""stim_listB/greet1.gif""style=""height:400px;""></stim_listB>",,html-keyboard-response,417,1557453,0.0-19.0-1.7,3947,List2B,white,man,,,,null,,,,,,,,,
null,is greeting,,html-keyboard-response,418,1559459,0.0-19.0-2.7,3947,List2B,white,man,,,,null,,,,,,,,,
6112.1,,,survey-text,419,1565574,0.0-19.0-3.7,3947,List2B,white,man,,,,,"{""Q0"":""dave is greeting jane""}","<img src=""stim_listB/greet1.gif""style=""height:400px;""></stim_listB>",is greeting,,,,,,
null,"<div style=""font-size:60px;"">+</div>",,html-keyboard-response,420,1566076,0.0-19.0-0.8,3947,List2B,white,man,,,,null,,,,,,,,,
null,"<img src=""stim_listB/greet6.gif""style=""height:400px;""></stim_listB>",,html-keyboard-response,421,1568080,0.0-19.0-1.8,3947,List2B,white,man,,,,null,,,,,,,,,
null,is being greeted by,,html-keyboard-response,422,1570090,0.0-19.0-2.8,3947,List2B,white,man,,,,null,,,,,,,,,
6527.1,,,survey-text,423,1576620,0.0-19.0-3.8,3947,List2B,white,man,,,,,"{""Q0"":""mike is being greeted by luke""}","<img src=""stim_listB/greet6.gif""style=""height:400px;""></stim_listB>",is being greeted by,,,,,,
null,"<div style=""font-size:60px;"">+</div>",,html-keyboard-response,424,1577129,0.0-19.0-0.9,3947,List2B,white,man,,,,null,,,,,,,,,
null,"<img src=""stim_listB/kiss3.gif""style=""height:400px;""></stim_listB>",,html-keyboard-response,425,1579133,0.0-19.0-1.9,3947,List2B,white,man,,,,null,,,,,,,,,
null,is kissing,,html-keyboard-response,426,1581138,0.0-19.0-2.9,3947,List2B,white,man,,,,null,,,,,,,,,
5827,,,survey-text,427,1586968,0.0-19.0-3.9,3947,List2B,white,man,,,,,"{""Q0"":""beth is kissing fred""}","<img src=""stim_listB/kiss3.gif""style=""height:400px;""></stim_listB>",is kissing,,,,,,
null,"<div style=""font-size:60px;"">+</div>",,html-keyboard-response,428,1587474,0.0-19.0-0.10,3947,List2B,white,man,,,,null,,,,,,,,,
null,"<img src=""stim_listB/shout6.gif""style=""height:400px;""></stim_listB>",,html-keyboard-response,429,1589485,0.0-19.0-1.10,3947,List2B,white,man,,,,null,,,,,,,,,
null,is being shouted at by,,html-keyboard-response,430,1591494,0.0-19.0-2.10,3947,List2B,white,man,,,,null,,,,,,,,,
9110.5,,,survey-text,431,1600608,0.0-19.0-3.10,3947,List2B,white,man,,,,,"{""Q0"":""mike is being shouted at by dave""}","<img src=""stim_listB/shout6.gif""style=""height:400px;""></stim_listB>",is being shouted at by,,,,,,
null,"<div style=""font-size:60px;"">+</div>",,html-keyboard-response,432,1601114,0.0-19.0-0.11,3947,List2B,white,man,,,,null,,,,,,,,,
null,"<img src=""stim_listB/challenge4.gif""style=""height:400px;""></stim_listB>",,html-keyboard-response,433,1603131,0.0-19.0-1.11,3947,List2B,white,man,,,,null,,,,,,,,,
null,is being challenged by,,html-keyboard-response,434,1605146,0.0-19.0-2.11,3947,List2B,white,man,,,,null,,,,,,,,,
10109.2,,,survey-text,435,1615258,0.0-19.0-3.11,3947,List2B,white,man,,,,,"{""Q0"":""fred is being challenged by kate""}","<img src=""stim_listB/challenge4.gif""style=""height:400px;""></stim_listB>",is being challenged by,,,,,,
null,"<div style=""font-size:60px;"">+</div>",,html-keyboard-response,436,1615767,0.0-19.0-0.12,3947,List2B,white,man,,,,null,,,,,,,,,
null,"<img src=""stim_listB/hug2.gif""style=""height:400px;""></stim_listB>",,html-keyboard-response,437,1617773,0.0-19.0-1.12,3947,List2B,white,man,,,,null,,,,,,,,,
null,is being hugged by,,html-keyboard-response,438,1619782,0.0-19.0-2.12,3947,List2B,white,man,,,,null,,,,,,,,,
8169.6,,,survey-text,439,1627955,0.0-19.0-3.12,3947,List2B,white,man,,,,,"{""Q0"":""jane is being hugged by dave""}","<img src=""stim_listB/hug2.gif""style=""height:400px;""></stim_listB>",is being hugged by,,,,,,
null,"<div style=""font-size:60px;"">+</div>",,html-keyboard-response,440,1628470,0.0-19.0-0.13,3947,List2B,white,man,,,,null,,,,,,,,,
null,"<img src=""stim_listB/kiss8.gif""style=""height:400px;""></stim_listB>",,html-keyboard-response,441,1630473,0.0-19.0-1.13,3947,List2B,white,man,,,,null,,,,,,,,,
null,is being kissed by,,html-keyboard-response,442,1632481,0.0-19.0-2.13,3947,List2B,white,man,,,,null,,,,,,,,,
10578,,,survey-text,443,1643062,0.0-19.0-3.13,3947,List2B,white,man,,,,,"{""Q0"":""jane is being kissed by kate""}","<img src=""stim_listB/kiss8.gif""style=""height:400px;""></stim_listB>",is being kissed by,,,,,,
null,"<div style=""font-size:60px;"">+</div>",,html-keyboard-response,444,1643578,0.0-19.0-0.14,3947,List2B,white,man,,,,null,,,,,,,,,
null,"<img src=""stim_listB/oppose2.gif""style=""height:400px;""></stim_listB>",,html-keyboard-response,445,1645591,0.0-19.0-1.14,3947,List2B,white,man,,,,null,,,,,,,,,
null,is being opposed by,,html-keyboard-response,446,1647602,0.0-19.0-2.14,3947,List2B,white,man,,,,null,,,,,,,,,
9386.6,,,survey-text,447,1656992,0.0-19.0-3.14,3947,List2B,white,man,,,,,"{""Q0"":""ruth is being opposed by luke""}","<img src=""stim_listB/oppose2.gif""style=""height:400px;""></stim_listB>",is being opposed by,,,,,,
null,"<div style=""font-size:60px;"">+</div>",,html-keyboard-response,448,1657498,0.0-19.0-0.15,3947,List2B,white,man,,,,null,,,,,,,,,
null,"<img src=""stim_listB/look1.gif""style=""height:400px;""></stim_listB>",,html-keyboard-response,449,1659509,0.0-19.0-1.15,3947,List2B,white,man,,,,null,,,,,,,,,
null,is looking at,,html-keyboard-response,450,1661520,0.0-19.0-2.15,3947,List2B,white,man,,,,null,,,,,,,,,
5798.8,,,survey-text,451,1667322,0.0-19.0-3.15,3947,List2B,white,man,,,,,"{""Q0"":""luke is looking at ruth""}","<img src=""stim_listB/look1.gif""style=""height:400px;""></stim_listB>",is looking at,,,,,,
null,"<div style=""font-size:60px;"">+</div>",,html-keyboard-response,452,1667828,0.0-19.0-0.16,3947,List2B,white,man,,,,null,,,,,,,,,
null,"<img src=""stim_listB/copy7.gif""style=""height:400px;""></stim_listB>",,html-keyboard-response,453,1669838,0.0-19.0-1.16,3947,List2B,white,man,,,,null,,,,,,,,,
null,is copying,,html-keyboard-response,454,1671849,0.0-19.0-2.16,3947,List2B,white,man,,,,null,,,,,,,,,
4360,,,survey-text,455,1676212,0.0-19.0-3.16,3947,List2B,white,man,,,,,"{""Q0"":""beth is copying jane""}","<img src=""stim_listB/copy7.gif""style=""height:400px;""></stim_listB>",is copying,,,,,,
null,"<div style=""font-size:60px;"">+</div>",,html-keyboard-response,456,1676715,0.0-19.0-0.17,3947,List2B,white,man,,,,null,,,,,,,,,
null,"<img src=""stim_listB/oppose6.gif""style=""height:400px;""></stim_listB>",,html-keyboard-response,457,1678730,0.0-19.0-1.17,3947,List2B,white,man,,,,null,,,,,,,,,
null,is being opposed by,,html-keyboard-response,458,1680742,0.0-19.0-2.17,3947,List2B,white,man,,,,null,,,,,,,,,
13621.1,,,survey-text,459,1694366,0.0-19.0-3.17,3947,List2B,white,man,,,,,"{""Q0"":""fred is opposing luke""}","<img src=""stim_listB/oppose6.gif""style=""height:400px;""></stim_listB>",is being opposed by,,,,,,
null,"<div style=""font-size:60px;"">+</div>",,html-keyboard-response,460,1694874,0.0-19.0-0.18,3947,List2B,white,man,,,,null,,,,,,,,,
null,"<img src=""stim_listB/hug8.gif""style=""height:400px;""></stim_listB>",,html-keyboard-response,461,1696886,0.0-19.0-1.18,3947,List2B,white,man,,,,null,,,,,,,,,
null,is being hugged by,,html-keyboard-response,462,1698902,0.0-19.0-2.18,3947,List2B,white,man,,,,null,,,,,,,,,
9382.2,,,survey-text,463,1708287,0.0-19.0-3.18,3947,List2B,white,man,,,,,"{""Q0"":""jane is being hugged by kate""}","<img src=""stim_listB/hug8.gif""style=""height:400px;""></stim_listB>",is being hugged by,,,,,,
null,"<div style=""font-size:60px;"">+</div>",,html-keyboard-response,464,1708791,0.0-19.0-0.19,3947,List2B,white,man,,,,null,,,,,,,,,
null,"<img src=""stim_listB/seduce8.gif""style=""height:400px;""></stim_listB>",,html-keyboard-response,465,1710801,0.0-19.0-1.19,3947,List2B,white,man,,,,null,,,,,,,,,
null,is being seduced by,,html-keyboard-response,466,1712812,0.0-19.0-2.19,3947,List2B,white,man,,,,null,,,,,,,,,
10118.7,,,survey-text,467,1722934,0.0-19.0-3.19,3947,List2B,white,man,,,,,"{""Q0"":""jane is being seduced by beth""}","<img src=""stim_listB/seduce8.gif""style=""height:400px;""></stim_listB>",is being seduced by,,,,,,
2712.9,<p>Thank you for completing that task.</p><p>The final part of this session is a questionnaire that will take about 4 minutes.</p><p>Press Continue.</p>,0,html-button-response,468,1725647,0.0-20.0,3947,List2B,white,man,,,,,,,,,,,,,
30677.8,,,survey-text,469,1757327,0.0-21.0,3947,List2B,white,man,,,,,"{""Q0"":""23"",""Q1"":""English"",""Q2"":""English"",""Q3"":""United States"",""Q4"":""United States"",""Q5"":""White"",""Q6"":""Male""}",,,demographics,,,,,
2098.8,<p>Have you lived in the USA for the last 5 years or more?</p>,0,html-button-response,470,1759427,0.0-22.0,3947,List2B,white,man,,,,,,,,fiveyears,,,,,
3124.6,<p>Move the slider to show the extent to which you agree with the following statements.</p>,0,html-button-response,471,1763553,0.0-23.0,3947,List2B,white,man,,,,,,,,,,,,,
9765.9,,,html-slider-response,472,1774339,0.0-24.0-0.0-0.0,3947,List2B,white,man,,,,,,,,survey_race,28,,,I have a lot in common with the average person of my race.,average
6829.3,,,html-slider-response,473,1781169,0.0-24.0-0.0-0.1,3947,List2B,white,man,,,,,,,,survey_race,56,,,I feel solidarity with people the same age as me.,filler
4530.4,,,html-slider-response,474,1785701,0.0-24.0-0.0-0.2,3947,List2B,white,man,,,,,,,,survey_race,17,,,Getting older does not worry me.,filler
4215.4,,,html-slider-response,475,1789917,0.0-24.0-0.0-0.3,3947,List2B,white,man,,,,,,,,survey_race,58,,,Being my age gives me a good feeling.,filler
5759,,,html-slider-response,476,1795677,0.0-24.0-0.0-0.4,3947,List2B,white,man,,,,,,,,survey_race,0,,,I often think about the fact that I am my race.,often
3813.1,,,html-slider-response,477,1799491,0.0-24.0-0.0-0.5,3947,List2B,white,man,,,,,,,,survey_race,61,,,I consider myself an introvert.,filler
3906.3,,,html-slider-response,478,1803398,0.0-24.0-0.0-0.6,3947,List2B,white,man,,,,,,,,survey_race,0,,,Being my race is an important part of how I see myself.,important
4875.8,,,html-slider-response,479,1808275,0.0-24.0-0.0-0.7,3947,List2B,white,man,,,,,,,,survey_race,17,,,I think that my race has a lot to be proud of.,proud
4145.1,,,html-slider-response,480,1812421,0.0-24.0-0.0-0.8,3947,List2B,white,man,,,,,,,,survey_race,44,,,"The older I get, the wiser I feel.",filler
7129.1,,,html-slider-response,481,1819551,0.0-24.0-0.0-0.9,3947,List2B,white,man,,,,,,,,survey_race,14,,,People of my race are very similar to each other.,verysimilar
3200.9,,,html-slider-response,482,1822753,0.0-24.0-0.0-0.10,3947,List2B,white,man,,,,,,,,survey_race,60,,,I am glad to be my age.,filler
5509,,,html-slider-response,483,1828263,0.0-24.0-0.0-0.11,3947,List2B,white,man,,,,,,,,survey_race,56,,,My age is not an important part of who I am.,filler
6865,,,html-slider-response,484,1835129,0.0-24.0-0.0-0.12,3947,List2B,white,man,,,,,,,,survey_race,54,,,People my age have a lot in common with each other.,filler
4882.8,,,html-slider-response,485,1840013,0.0-24.0-0.0-0.13,3947,List2B,white,man,,,,,,,,survey_race,54,,,I have a lot in common with people of a similar age to me.,filler
4937.2,,,html-slider-response,486,1844951,0.0-24.0-0.0-0.14,3947,List2B,white,man,,,,,,,,survey_race,0,,,I feel solidarity with my race.,solidarity
5864.3,,,html-slider-response,487,1850817,0.0-24.0-0.0-0.15,3947,List2B,white,man,,,,,,,,survey_race,10,,,I am similar to the average person of my race.,similar
2956.9,,,html-slider-response,488,1853774,0.0-24.0-0.0-0.16,3947,List2B,white,man,,,,,,,,survey_race,34,,,I consider myself an extrovert.,filler
2494.5,,,html-slider-response,489,1856270,0.0-24.0-0.0-0.17,3947,List2B,white,man,,,,,,,,survey_race,11,,,I enjoy being in large groups.,filler
4219.1,,,html-slider-response,490,1860489,0.0-24.0-0.0-0.18,3947,List2B,white,man,,,,,,,,survey_race,13,,,I often think about the fact that I am my age.,filler
5131,,,html-slider-response,491,1865621,0.0-24.0-0.0-0.19,3947,List2B,white,man,,,,,,,,survey_race,15,,,People of my race have a lot in common with each other.,common
3955.6,,,html-slider-response,492,1869578,0.0-24.0-0.0-0.20,3947,List2B,white,man,,,,,,,,survey_race,55,,,I am glad to be the age I am.,filler
4453.5,,,html-slider-response,493,1874033,0.0-24.0-0.0-0.21,3947,List2B,white,man,,,,,,,,survey_race,0,,,I feel committed to my race.,committed
2239.3,,,html-slider-response,494,1876273,0.0-24.0-0.0-0.22,3947,List2B,white,man,,,,,,,,survey_race,0,,,Being my race gives me a good feeling.,feeling
3463,,,html-slider-response,495,1879737,0.0-24.0-0.0-0.23,3947,List2B,white,man,,,,,,,,survey_race,11,,,I am glad to be my race.,glad
3551.1,,,html-slider-response,496,1883289,0.0-24.0-0.0-0.24,3947,List2B,white,man,,,,,,,,survey_race,0,,,I feel a bond with my race.,bond
4545,,,html-slider-response,497,1887834,0.0-24.0-0.0-0.25,3947,List2B,white,man,,,,,,,,survey_race,25,,,I feel a bond with people the same age as me.,filler
5373.3,,,html-slider-response,498,1893209,0.0-24.0-0.0-0.26,3947,List2B,white,man,,,,,,,,survey_race,62,,,It is pleasant to be my race.,pleasant
4195,,,html-slider-response,499,1897405,0.0-24.0-0.0-0.27,3947,List2B,white,man,,,,,,,,survey_race,0,,,The fact that I am my race is an important part of my identity.,identity
5135.1,,,html-slider-response,500,1902541,0.0-24.0-1.0-0.0,3947,List2B,white,man,,,,,,,,survey_gender,63,,,It is not always easy for people to know what I am thinking.,filler
4154.2,,,html-slider-response,501,1906696,0.0-24.0-1.0-0.1,3947,List2B,white,man,,,,,,,,survey_gender,59,,,It is pleasant to be my gender.,pleasant
6886.5,,,html-slider-response,502,1913583,0.0-24.0-1.0-0.2,3947,List2B,white,man,,,,,,,,survey_gender,36,,,People of my gender have a lot in common with each other.,common
5068.2,,,html-slider-response,503,1918653,0.0-24.0-1.0-0.3,3947,List2B,white,man,,,,,,,,survey_gender,100,,,Being around my friends gives me a good feeling.,filler
3320.2,,,html-slider-response,504,1921974,0.0-24.0-1.0-0.4,3947,List2B,white,man,,,,,,,,survey_gender,61,,,I feel solidarity with my friends.,filler
2299.3,,,html-slider-response,505,1924274,0.0-24.0-1.0-0.5,3947,List2B,white,man,,,,,,,,survey_gender,80,,,I feel a bond with my friends.,filler
2788.3,,,html-slider-response,506,1927062,0.0-24.0-1.0-0.6,3947,List2B,white,man,,,,,,,,survey_gender,87,,,I consider myself a highly empathetic person.,filler
4845.5,,,html-slider-response,507,1931908,0.0-24.0-1.0-0.7,3947,List2B,white,man,,,,,,,,survey_gender,39,,,Most of the friends in my life are very similar to me.,filler
9375.2,,,html-slider-response,508,1941285,0.0-24.0-1.0-0.8,3947,List2B,white,man,,,,,,,,survey_gender,44,,,I feel committed to my gender.,committed
6915.8,,,html-slider-response,509,1948201,0.0-24.0-1.0-0.9,3947,List2B,white,man,,,,,,,,survey_gender,37,,,I have a lot in common with the average person of my gender.,average
2702.9,,,html-slider-response,510,1950905,0.0-24.0-1.0-0.10,3947,List2B,white,man,,,,,,,,survey_gender,10,,,I often think about the fact that I am my gender.,often
3090.5,,,html-slider-response,511,1953997,0.0-24.0-1.0-0.11,3947,List2B,white,man,,,,,,,,survey_gender,25,,,I think that my gender has a lot to be proud of.,proud
4729.6,,,html-slider-response,512,1958727,0.0-24.0-1.0-0.12,3947,List2B,white,man,,,,,,,,survey_gender,27,,,I feel solidarity with my gender.,solidarity
3376.2,,,html-slider-response,513,1962104,0.0-24.0-1.0-0.13,3947,List2B,white,man,,,,,,,,survey_gender,39,,,My friends understand me.,filler
6500,,,html-slider-response,514,1968605,0.0-24.0-1.0-0.14,3947,List2B,white,man,,,,,,,,survey_gender,41,,,Being my gender gives me a good feeling.,feeling
3582,,,html-slider-response,515,1972188,0.0-24.0-1.0-0.15,3947,List2B,white,man,,,,,,,,survey_gender,37,,,The fact that I am my gender is an important part of my identity.,identity
3868.2,,,html-slider-response,516,1976057,0.0-24.0-1.0-0.16,3947,List2B,white,man,,,,,,,,survey_gender,0,,,Being my gender is an important part of how I see myself.,important
6786.9,,,html-slider-response,517,1982845,0.0-24.0-1.0-0.17,3947,List2B,white,man,,,,,,,,survey_gender,39,,,Routine is not important to me.,filler
3295,,,html-slider-response,518,1986141,0.0-24.0-1.0-0.18,3947,List2B,white,man,,,,,,,,survey_gender,61,,,I have a lot in common with my friends.,filler
2794.1,,,html-slider-response,519,1988936,0.0-24.0-1.0-0.19,3947,List2B,white,man,,,,,,,,survey_gender,59,,,I am glad to be my gender.,glad
5055.2,,,html-slider-response,520,1993993,0.0-24.0-1.0-0.20,3947,List2B,white,man,,,,,,,,survey_gender,88,,,I am glad to have the friends that I have.,filler
4003.6,,,html-slider-response,521,1997997,0.0-24.0-1.0-0.21,3947,List2B,white,man,,,,,,,,survey_gender,71,,,I would say I am an animal person.,filler
4662.5,,,html-slider-response,522,2002661,0.0-24.0-1.0-0.22,3947,List2B,white,man,,,,,,,,survey_gender,43,,,I am similar to the average person of my gender.,similar
2752.8,,,html-slider-response,523,2005415,0.0-24.0-1.0-0.23,3947,List2B,white,man,,,,,,,,survey_gender,30,,,I feel a bond with my gender.,bond
3290.2,,,html-slider-response,524,2008706,0.0-24.0-1.0-0.24,3947,List2B,white,man,,,,,,,,survey_gender,15,,,People of my gender are very similar to each other.,verysimilar
6287.2,,,html-slider-response,525,2014994,0.0-24.0-1.0-0.25,3947,List2B,white,man,,,,,,,,survey_gender,59,,,My friends have a lot in common with each other.,filler
4146.9,,,html-slider-response,526,2019142,0.0-24.0-1.0-0.26,3947,List2B,white,man,,,,,,,,survey_gender,63,,,I often think about my actions.,filler
7990.1,,,html-slider-response,527,2027133,0.0-24.0-1.0-0.27,3947,List2B,white,man,,,,,,,,survey_gender,57,,,Family is not more important to me than friendship.,filler
12983.6,,,survey-text,528,2040118,0.0-25.0,3947,List2B,white,man,,,,,"{""Q0"":""ccc""}",,,worker_id,,,,,
26719.5,,,external-html,529,2067116,0.0-26.0,3947,List2B,white,man,debrief.html,,,,,,,,,,,,
