rt,stimulus,button_pressed,trial_type,trial_index,time_elapsed,internal_node_id,subject,list,ppt_race,ppt_gender,url,first_guess,correct,key_press,responses,image_type,phrase_type,test_part,response,stimulus1,stimulus2,question_type,survey_item
3104,Welcome to the experiment. Press Continue to begin.,0,html-button-response,0,3115,0.0-0.0,40234,List2B,black,man,,,,,,,,,,,,,
8466.1,,,external-html,1,12637,0.0-1.0,40234,List2B,black,man,consent.html,,,,,,,,,,,,
1418.4,"<p>On the next page, you will see portraits of 8 people and their names.</p><p>Your first task is to take a few minutes to memorise the names of these people.</p><p>You will have to recall their names during the rest of the experiment, so it is</p><p>essential that you try to memorise these people and their names as best as you can.</p><br><p><strong>You will then be tested on your memory of these names and portraits.</strong></p><br><p>The experiment will start after you have completed this memory test.</p><br><p>Ready?</p>",0,html-button-response,2,14065,0.0-2.0,40234,List2B,black,man,,,,,,,,,,,,,
4890.5,"<img src='img/portrait_matrix_list2.jpg' style='width:900px;height:500px;''></img><p>If you have memorised all the portraits and names and are ready to start, press Continue.</p><p><strong>Please note: Your memory of these faces will be tested 4 times during this experiment.</strong></p>",0,html-button-response,3,19967,0.0-3.0-0.0,40234,List2B,black,man,,,,,,,,,,,,,
7633.4,"<img src=""portrait/BW2.jpg""style=""height:400px;""></img>",2,html-button-response,4,28615,0.0-3.0-1.0,40234,List2B,black,man,,TRUE,2,,,,,,,,,,
null,CORRECT,,html-keyboard-response,5,30135,0.0-3.0-2.0-0.0,40234,List2B,black,man,,,,null,,,,,,,,,
6088.9,"<img src=""portrait/WM1.jpg""style=""height:400px;""></img>",6,html-button-response,6,36238,0.0-3.0-4.0,40234,List2B,black,man,,TRUE,6,,,,,,,,,,
null,CORRECT,,html-keyboard-response,7,37750,0.0-3.0-5.0-0.0,40234,List2B,black,man,,,,null,,,,,,,,,
8077.4,"<img src=""portrait/BM1.jpg""style=""height:400px;""></img>",4,html-button-response,8,45839,0.0-3.0-7.0,40234,List2B,black,man,,TRUE,4,,,,,,,,,,
null,CORRECT,,html-keyboard-response,9,47348,0.0-3.0-8.0-0.0,40234,List2B,black,man,,,,null,,,,,,,,,
10814.6,"<img src=""portrait/BW1.jpg""style=""height:400px;""></img>",0,html-button-response,10,58175,0.0-3.0-10.0,40234,List2B,black,man,,TRUE,0,,,,,,,,,,
null,CORRECT,,html-keyboard-response,11,59682,0.0-3.0-11.0-0.0,40234,List2B,black,man,,,,null,,,,,,,,,
9136.3,"<img src=""portrait/WW1.jpg""style=""height:400px;""></img>",1,html-button-response,12,68828,0.0-3.0-13.0,40234,List2B,black,man,,TRUE,1,,,,,,,,,,
null,CORRECT,,html-keyboard-response,13,70334,0.0-3.0-14.0-0.0,40234,List2B,black,man,,,,null,,,,,,,,,
6229.1,"<img src=""portrait/WW2.jpg""style=""height:400px;""></img>",3,html-button-response,14,76573,0.0-3.0-16.0,40234,List2B,black,man,,TRUE,3,,,,,,,,,,
null,CORRECT,,html-keyboard-response,15,78080,0.0-3.0-17.0-0.0,40234,List2B,black,man,,,,null,,,,,,,,,
4622,"<img src=""portrait/BM2.jpg""style=""height:400px;""></img>",5,html-button-response,16,82713,0.0-3.0-19.0,40234,List2B,black,man,,TRUE,5,,,,,,,,,,
null,CORRECT,,html-keyboard-response,17,84218,0.0-3.0-20.0-0.0,40234,List2B,black,man,,,,null,,,,,,,,,
8045.4,"<img src=""portrait/WM2.jpg""style=""height:400px;""></img>",7,html-button-response,18,92274,0.0-3.0-22.0,40234,List2B,black,man,,TRUE,7,,,,,,,,,,
null,CORRECT,,html-keyboard-response,19,93781,0.0-3.0-23.0-0.0,40234,List2B,black,man,,,,null,,,,,,,,,
5309.1,<p>You got 8 out of 8 right first time. Press Continue.</p>,0,html-button-response,20,99103,0.0-3.0-25.0,40234,List2B,black,man,,,,,,,,,,,,,
76191.2,"<p>In this experiment, you will view photographs of the people from the memory game interacting.</p><p>By using the <strong>exact</strong> phrase given <i>after</i> the photograph appears and recalling the correct names of the people in the photographs, form a sentence describing the interaction. You do not need to capitalise names.</p><p>Type your answer in the space provided. Please complete every sentence before moving onto the next trial.</p><p>You will only have a few seconds to memorise each given photograph and phrase before you can respond, so try your best to focus.</p><p>An example is given below. Press 'Continue' when you are ready.</p><img src='img/speaking_example.jpg' style='width:800px;height:460px;''></img>",0,html-button-response,21,176314,0.0-4.0,40234,List2B,black,man,,,,,,,,,,,,,
5165.5,"<p>Before the experiment starts, you will watch two example trials. Press 'Continue'.</p>",0,html-button-response,22,182486,0.0-5.0,40234,List2B,black,man,,,,,,,,,,,,,
null,<img src='img/play_eg.gif' style='height:400px;''></img>,,html-keyboard-response,23,185494,0.0-6.0,40234,List2B,black,man,,,,null,,,,,,,,,
null,<p>is playing with</p>,,html-keyboard-response,24,187498,0.0-7.0,40234,List2B,black,man,,,,null,,,,,,,,,
9863,<p><b>Answer:</b> jane is playing with ruth</p>,0,html-button-response,25,197371,0.0-8.0,40234,List2B,black,man,,,,,,,,,,,,,
null,<img src='img/dance_eg.gif' style='height:400px;''></img>,,html-keyboard-response,26,200378,0.0-9.0,40234,List2B,black,man,,,,null,,,,,,,,,
null,<p>is being entertained by</p>,,html-keyboard-response,27,202383,0.0-10.0,40234,List2B,black,man,,,,null,,,,,,,,,
9644.9,<p><b>Answer:</b> fred is being entertained by mike</p>,0,html-button-response,28,212034,0.0-11.0,40234,List2B,black,man,,,,,,,,,,,,,
12796.1,"<p>Ready to start the experiment?</p><br><p><strong>Remember to describe the picture using a full sentence,</strong></p><p><strong>that combines the names of the people with the <i>exact</i> phrase given.</strong></p><p><strong>To receive full payment you must do this correctly.</strong></p><p><strong> You do not need to capitalise names or use punctuation.</strong></p><br><p>Press 'Continue' to begin.</p>",0,html-button-response,29,225837,0.0-12.0,40234,List2B,black,man,,,,,,,,,,,,,
null,"<div style=""font-size:60px;"">+</div>",,html-keyboard-response,30,227343,0.0-13.0-0.0,40234,List2B,black,man,,,,null,,,,,,,,,
null,"<img src=""stim_listB/look7.gif""style=""height:400px;""></stim_listB>",,html-keyboard-response,31,229356,0.0-13.0-1.0,40234,List2B,black,man,,,,null,,,,,,,,,
null,is looking at,,html-keyboard-response,32,231361,0.0-13.0-2.0,40234,List2B,black,man,,,,null,,,,,,,,,
24530.3,,,survey-text,33,255910,0.0-13.0-3.0,40234,List2B,black,man,,,,,"{""Q0"":""Beth is looking at ruth""}","<img src=""stim_listB/look7.gif""style=""height:400px;""></stim_listB>",is looking at,,,,,,
null,"<div style=""font-size:60px;"">+</div>",,html-keyboard-response,34,256419,0.0-13.0-0.1,40234,List2B,black,man,,,,null,,,,,,,,,
null,"<img src=""stim_listB/shout5.gif""style=""height:400px;""></stim_listB>",,html-keyboard-response,35,258424,0.0-13.0-1.1,40234,List2B,black,man,,,,null,,,,,,,,,
null,is shouting at,,html-keyboard-response,36,260429,0.0-13.0-2.1,40234,List2B,black,man,,,,null,,,,,,,,,
33450.3,,,survey-text,37,293900,0.0-13.0-3.1,40234,List2B,black,man,,,,,"{""Q0"":""Fred is shouting at Luke ""}","<img src=""stim_listB/shout5.gif""style=""height:400px;""></stim_listB>",is shouting at,,,,,,
null,"<div style=""font-size:60px;"">+</div>",,html-keyboard-response,38,294412,0.0-13.0-0.2,40234,List2B,black,man,,,,null,,,,,,,,,
null,"<img src=""stim_listB/look3.gif""style=""height:400px;""></stim_listB>",,html-keyboard-response,39,296427,0.0-13.0-1.2,40234,List2B,black,man,,,,null,,,,,,,,,
null,is looking at,,html-keyboard-response,40,298431,0.0-13.0-2.2,40234,List2B,black,man,,,,null,,,,,,,,,
38661.7,,,survey-text,41,337115,0.0-13.0-3.2,40234,List2B,black,man,,,,,"{""Q0"":""Fred is looking at beth""}","<img src=""stim_listB/look3.gif""style=""height:400px;""></stim_listB>",is looking at,,,,,,
null,"<div style=""font-size:60px;"">+</div>",,html-keyboard-response,42,337620,0.0-13.0-0.3,40234,List2B,black,man,,,,null,,,,,,,,,
null,"<img src=""stim_listB/challenge3.gif""style=""height:400px;""></stim_listB>",,html-keyboard-response,43,339630,0.0-13.0-1.3,40234,List2B,black,man,,,,null,,,,,,,,,
null,is challenging,,html-keyboard-response,44,341639,0.0-13.0-2.3,40234,List2B,black,man,,,,null,,,,,,,,,
22928.9,,,survey-text,45,364625,0.0-13.0-3.3,40234,List2B,black,man,,,,,"{""Q0"":""Mike is challenging beth""}","<img src=""stim_listB/challenge3.gif""style=""height:400px;""></stim_listB>",is challenging,,,,,,
null,"<div style=""font-size:60px;"">+</div>",,html-keyboard-response,46,365132,0.0-13.0-0.4,40234,List2B,black,man,,,,null,,,,,,,,,
null,"<img src=""stim_listB/challenge8.gif""style=""height:400px;""></stim_listB>",,html-keyboard-response,47,367141,0.0-13.0-1.4,40234,List2B,black,man,,,,null,,,,,,,,,
null,is being challenged by,,html-keyboard-response,48,369145,0.0-13.0-2.4,40234,List2B,black,man,,,,null,,,,,,,,,
52011.4,,,survey-text,49,421197,0.0-13.0-3.4,40234,List2B,black,man,,,,,"{""Q0"":""Jane is being challenged by ruth""}","<img src=""stim_listB/challenge8.gif""style=""height:400px;""></stim_listB>",is being challenged by,,,,,,
null,"<div style=""font-size:60px;"">+</div>",,html-keyboard-response,50,421701,0.0-13.0-0.5,40234,List2B,black,man,,,,null,,,,,,,,,
null,"<img src=""stim_listB/shout6.gif""style=""height:400px;""></stim_listB>",,html-keyboard-response,51,423708,0.0-13.0-1.5,40234,List2B,black,man,,,,null,,,,,,,,,
null,is being shouted at by,,html-keyboard-response,52,425721,0.0-13.0-2.5,40234,List2B,black,man,,,,null,,,,,,,,,
45525.4,,,survey-text,53,471290,0.0-13.0-3.5,40234,List2B,black,man,,,,,"{""Q0"":""Mike is being shouted at by dave""}","<img src=""stim_listB/shout6.gif""style=""height:400px;""></stim_listB>",is being shouted at by,,,,,,
null,"<div style=""font-size:60px;"">+</div>",,html-keyboard-response,54,471797,0.0-13.0-0.6,40234,List2B,black,man,,,,null,,,,,,,,,
null,"<img src=""stim_listB/seduce4.gif""style=""height:400px;""></stim_listB>",,html-keyboard-response,55,473809,0.0-13.0-1.6,40234,List2B,black,man,,,,null,,,,,,,,,
null,is being seduced by,,html-keyboard-response,56,475817,0.0-13.0-2.6,40234,List2B,black,man,,,,null,,,,,,,,,
30615.2,,,survey-text,57,506471,0.0-13.0-3.6,40234,List2B,black,man,,,,,"{""Q0"":""Mike is being seduced by beth""}","<img src=""stim_listB/seduce4.gif""style=""height:400px;""></stim_listB>",is being seduced by,,,,,,
null,"<div style=""font-size:60px;"">+</div>",,html-keyboard-response,58,506975,0.0-13.0-0.7,40234,List2B,black,man,,,,null,,,,,,,,,
null,"<img src=""stim_listB/copy8.gif""style=""height:400px;""></stim_listB>",,html-keyboard-response,59,508983,0.0-13.0-1.7,40234,List2B,black,man,,,,null,,,,,,,,,
null,is being copied by,,html-keyboard-response,60,510992,0.0-13.0-2.7,40234,List2B,black,man,,,,null,,,,,,,,,
56384.5,,,survey-text,61,567426,0.0-13.0-3.7,40234,List2B,black,man,,,,,"{""Q0"":""Jane is being copied by ruth""}","<img src=""stim_listB/copy8.gif""style=""height:400px;""></stim_listB>",is being copied by,,,,,,
null,"<div style=""font-size:60px;"">+</div>",,html-keyboard-response,62,567931,0.0-13.0-0.8,40234,List2B,black,man,,,,null,,,,,,,,,
null,"<img src=""stim_listB/oppose6.gif""style=""height:400px;""></stim_listB>",,html-keyboard-response,63,569940,0.0-13.0-1.8,40234,List2B,black,man,,,,null,,,,,,,,,
null,is being opposed by,,html-keyboard-response,64,571946,0.0-13.0-2.8,40234,List2B,black,man,,,,null,,,,,,,,,
22082.5,,,survey-text,65,594049,0.0-13.0-3.8,40234,List2B,black,man,,,,,"{""Q0"":""Luke is being opposed by mike""}","<img src=""stim_listB/oppose6.gif""style=""height:400px;""></stim_listB>",is being opposed by,,,,,,
null,"<div style=""font-size:60px;"">+</div>",,html-keyboard-response,66,594554,0.0-13.0-0.9,40234,List2B,black,man,,,,null,,,,,,,,,
null,"<img src=""stim_listB/look6.gif""style=""height:400px;""></stim_listB>",,html-keyboard-response,67,596563,0.0-13.0-1.9,40234,List2B,black,man,,,,null,,,,,,,,,
null,is being looked at by,,html-keyboard-response,68,598586,0.0-13.0-2.9,40234,List2B,black,man,,,,null,,,,,,,,,
22471.4,,,survey-text,69,621113,0.0-13.0-3.9,40234,List2B,black,man,,,,,"{""Q0"":""Mike is being looked at by dave""}","<img src=""stim_listB/look6.gif""style=""height:400px;""></stim_listB>",is being looked at by,,,,,,
null,"<div style=""font-size:60px;"">+</div>",,html-keyboard-response,70,621618,0.0-13.0-0.10,40234,List2B,black,man,,,,null,,,,,,,,,
null,"<img src=""stim_listB/greet5.gif""style=""height:400px;""></stim_listB>",,html-keyboard-response,71,623626,0.0-13.0-1.10,40234,List2B,black,man,,,,null,,,,,,,,,
null,is greeting,,html-keyboard-response,72,625631,0.0-13.0-2.10,40234,List2B,black,man,,,,null,,,,,,,,,
39574.9,,,survey-text,73,665226,0.0-13.0-3.10,40234,List2B,black,man,,,,,"{""Q0"":""Dave is being greeted by fred""}","<img src=""stim_listB/greet5.gif""style=""height:400px;""></stim_listB>",is greeting,,,,,,
null,"<div style=""font-size:60px;"">+</div>",,html-keyboard-response,74,665731,0.0-13.0-0.11,40234,List2B,black,man,,,,null,,,,,,,,,
null,"<img src=""stim_listB/copy6.gif""style=""height:400px;""></stim_listB>",,html-keyboard-response,75,667740,0.0-13.0-1.11,40234,List2B,black,man,,,,null,,,,,,,,,
null,is being copied by,,html-keyboard-response,76,669745,0.0-13.0-2.11,40234,List2B,black,man,,,,null,,,,,,,,,
22333.2,,,survey-text,77,692099,0.0-13.0-3.11,40234,List2B,black,man,,,,,"{""Q0"":""Mike is being copied by Luke ""}","<img src=""stim_listB/copy6.gif""style=""height:400px;""></stim_listB>",is being copied by,,,,,,
null,"<div style=""font-size:60px;"">+</div>",,html-keyboard-response,78,692604,0.0-13.0-0.12,40234,List2B,black,man,,,,null,,,,,,,,,
null,"<img src=""stim_listB/kiss4.gif""style=""height:400px;""></stim_listB>",,html-keyboard-response,79,694615,0.0-13.0-1.12,40234,List2B,black,man,,,,null,,,,,,,,,
null,is being kissed by,,html-keyboard-response,80,696621,0.0-13.0-2.12,40234,List2B,black,man,,,,null,,,,,,,,,
22038.6,,,survey-text,81,718704,0.0-13.0-3.12,40234,List2B,black,man,,,,,"{""Q0"":""Jane is being kissed by mike""}","<img src=""stim_listB/kiss4.gif""style=""height:400px;""></stim_listB>",is being kissed by,,,,,,
null,"<div style=""font-size:60px;"">+</div>",,html-keyboard-response,82,719209,0.0-13.0-0.13,40234,List2B,black,man,,,,null,,,,,,,,,
null,"<img src=""stim_listB/touch3.gif""style=""height:400px;""></stim_listB>",,html-keyboard-response,83,721220,0.0-13.0-1.13,40234,List2B,black,man,,,,null,,,,,,,,,
null,is touching,,html-keyboard-response,84,723230,0.0-13.0-2.13,40234,List2B,black,man,,,,null,,,,,,,,,
18478.5,,,survey-text,85,741779,0.0-13.0-3.13,40234,List2B,black,man,,,,,"{""Q0"":""mike is touching jane""}","<img src=""stim_listB/touch3.gif""style=""height:400px;""></stim_listB>",is touching,,,,,,
null,"<div style=""font-size:60px;"">+</div>",,html-keyboard-response,86,742284,0.0-13.0-0.14,40234,List2B,black,man,,,,null,,,,,,,,,
null,"<img src=""stim_listB/hug2.gif""style=""height:400px;""></stim_listB>",,html-keyboard-response,87,744292,0.0-13.0-1.14,40234,List2B,black,man,,,,null,,,,,,,,,
null,is being hugged by,,html-keyboard-response,88,746297,0.0-13.0-2.14,40234,List2B,black,man,,,,null,,,,,,,,,
38500.1,,,survey-text,89,784846,0.0-13.0-3.14,40234,List2B,black,man,,,,,"{""Q0"":""Jane is being hugged by dave""}","<img src=""stim_listB/hug2.gif""style=""height:400px;""></stim_listB>",is being hugged by,,,,,,
null,"<div style=""font-size:60px;"">+</div>",,html-keyboard-response,90,785351,0.0-13.0-0.15,40234,List2B,black,man,,,,null,,,,,,,,,
null,"<img src=""stim_listB/hug4.gif""style=""height:400px;""></stim_listB>",,html-keyboard-response,91,787360,0.0-13.0-1.15,40234,List2B,black,man,,,,null,,,,,,,,,
null,is being hugged by,,html-keyboard-response,92,789370,0.0-13.0-2.15,40234,List2B,black,man,,,,null,,,,,,,,,
16784,,,survey-text,93,806199,0.0-13.0-3.15,40234,List2B,black,man,,,,,"{""Q0"":""Mike is being hugged by kate""}","<img src=""stim_listB/hug4.gif""style=""height:400px;""></stim_listB>",is being hugged by,,,,,,
null,"<div style=""font-size:60px;"">+</div>",,html-keyboard-response,94,806704,0.0-13.0-0.16,40234,List2B,black,man,,,,null,,,,,,,,,
null,"<img src=""stim_listB/oppose1.gif""style=""height:400px;""></stim_listB>",,html-keyboard-response,95,808713,0.0-13.0-1.16,40234,List2B,black,man,,,,null,,,,,,,,,
null,is opposing,,html-keyboard-response,96,810722,0.0-13.0-2.16,40234,List2B,black,man,,,,null,,,,,,,,,
14442.2,,,survey-text,97,825239,0.0-13.0-3.16,40234,List2B,black,man,,,,,"{""Q0"":""Jane is opposing dave""}","<img src=""stim_listB/oppose1.gif""style=""height:400px;""></stim_listB>",is opposing,,,,,,
null,"<div style=""font-size:60px;"">+</div>",,html-keyboard-response,98,825746,0.0-13.0-0.17,40234,List2B,black,man,,,,null,,,,,,,,,
null,"<img src=""stim_listB/kiss3.gif""style=""height:400px;""></stim_listB>",,html-keyboard-response,99,827758,0.0-13.0-1.17,40234,List2B,black,man,,,,null,,,,,,,,,
null,is kissing,,html-keyboard-response,100,829764,0.0-13.0-2.17,40234,List2B,black,man,,,,null,,,,,,,,,
19311.5,,,survey-text,101,849124,0.0-13.0-3.17,40234,List2B,black,man,,,,,"{""Q0"":""Beth is kissing fred""}","<img src=""stim_listB/kiss3.gif""style=""height:400px;""></stim_listB>",is kissing,,,,,,
null,"<div style=""font-size:60px;"">+</div>",,html-keyboard-response,102,849629,0.0-13.0-0.18,40234,List2B,black,man,,,,null,,,,,,,,,
null,"<img src=""stim_listB/look1.gif""style=""height:400px;""></stim_listB>",,html-keyboard-response,103,851640,0.0-13.0-1.18,40234,List2B,black,man,,,,null,,,,,,,,,
null,is looking at,,html-keyboard-response,104,853645,0.0-13.0-2.18,40234,List2B,black,man,,,,null,,,,,,,,,
24967.8,,,survey-text,105,878634,0.0-13.0-3.18,40234,List2B,black,man,,,,,"{""Q0"":""Ruth is looking at luke""}","<img src=""stim_listB/look1.gif""style=""height:400px;""></stim_listB>",is looking at,,,,,,
null,"<div style=""font-size:60px;"">+</div>",,html-keyboard-response,106,879140,0.0-13.0-0.19,40234,List2B,black,man,,,,null,,,,,,,,,
null,"<img src=""stim_listB/seduce6.gif""style=""height:400px;""></stim_listB>",,html-keyboard-response,107,881149,0.0-13.0-1.19,40234,List2B,black,man,,,,null,,,,,,,,,
null,is being seduced by,,html-keyboard-response,108,883158,0.0-13.0-2.19,40234,List2B,black,man,,,,null,,,,,,,,,
23247.9,,,survey-text,109,906459,0.0-13.0-3.19,40234,List2B,black,man,,,,,"{""Q0"":""Dave is being seduced by fred""}","<img src=""stim_listB/seduce6.gif""style=""height:400px;""></stim_listB>",is being seduced by,,,,,,
114621.9,"<img src='img/portrait_matrix_list2.jpg' style='width:900px;height:500px;''></img><p>If you have memorised all the portraits and names and are ready to start, press Continue.</p><p><strong>Please note: Your memory of these faces will be tested 4 times during this experiment.</strong></p>",0,html-button-response,110,1021089,0.0-14.0-0.0,40234,List2B,black,man,,,,,,,,,,,,,
4207.1,"<img src=""portrait/WM1.jpg""style=""height:400px;""></img>",6,html-button-response,111,1026310,0.0-14.0-1.0,40234,List2B,black,man,,TRUE,6,,,,,,,,,,
null,CORRECT,,html-keyboard-response,112,1027817,0.0-14.0-2.0-0.0,40234,List2B,black,man,,,,null,,,,,,,,,
5163.5,"<img src=""portrait/WW2.jpg""style=""height:400px;""></img>",2,html-button-response,113,1032990,0.0-14.0-4.0,40234,List2B,black,man,,TRUE,3,,,,,,,,,,
7031.8,"<img src=""portrait/WW2.jpg""style=""height:400px;""></img>",3,html-button-response,114,1041036,0.0-14.0-6.0-0.0,40234,List2B,black,man,,FALSE,3,,,,,,,,,,
null,CORRECT,,html-keyboard-response,115,1042545,0.0-14.0-6.0-1.0-0.0,40234,List2B,black,man,,,,null,,,,,,,,,
10205.7,"<img src=""portrait/BM2.jpg""style=""height:400px;""></img>",5,html-button-response,116,1052767,0.0-14.0-7.0,40234,List2B,black,man,,TRUE,5,,,,,,,,,,
null,CORRECT,,html-keyboard-response,117,1054273,0.0-14.0-8.0-0.0,40234,List2B,black,man,,,,null,,,,,,,,,
3492.9,"<img src=""portrait/WM2.jpg""style=""height:400px;""></img>",7,html-button-response,118,1057777,0.0-14.0-10.0,40234,List2B,black,man,,TRUE,7,,,,,,,,,,
null,CORRECT,,html-keyboard-response,119,1059283,0.0-14.0-11.0-0.0,40234,List2B,black,man,,,,null,,,,,,,,,
2299,"<img src=""portrait/BW2.jpg""style=""height:400px;""></img>",2,html-button-response,120,1061594,0.0-14.0-13.0,40234,List2B,black,man,,TRUE,2,,,,,,,,,,
null,CORRECT,,html-keyboard-response,121,1063101,0.0-14.0-14.0-0.0,40234,List2B,black,man,,,,null,,,,,,,,,
2282.2,"<img src=""portrait/BM1.jpg""style=""height:400px;""></img>",4,html-button-response,122,1065399,0.0-14.0-16.0,40234,List2B,black,man,,TRUE,4,,,,,,,,,,
null,CORRECT,,html-keyboard-response,123,1066905,0.0-14.0-17.0-0.0,40234,List2B,black,man,,,,null,,,,,,,,,
8013.5,"<img src=""portrait/WW1.jpg""style=""height:400px;""></img>",1,html-button-response,124,1074930,0.0-14.0-19.0,40234,List2B,black,man,,TRUE,1,,,,,,,,,,
null,CORRECT,,html-keyboard-response,125,1076435,0.0-14.0-20.0-0.0,40234,List2B,black,man,,,,null,,,,,,,,,
6243.6,"<img src=""portrait/BW1.jpg""style=""height:400px;""></img>",0,html-button-response,126,1082687,0.0-14.0-22.0,40234,List2B,black,man,,TRUE,0,,,,,,,,,,
null,CORRECT,,html-keyboard-response,127,1084193,0.0-14.0-23.0-0.0,40234,List2B,black,man,,,,null,,,,,,,,,
3841.8,<p>You got 7 out of 8 right first time. Press Continue.</p>,0,html-button-response,128,1088045,0.0-14.0-25.0,40234,List2B,black,man,,,,,,,,,,,,,
12544.9,"As you did not score 100%, the memory game will repeat. Press Continue.",0,html-button-response,129,1101596,0.0-14.0-26.0-0.0,40234,List2B,black,man,,,,,,,,,,,,,
5291.4,"<img src='img/portrait_matrix_list2.jpg' style='width:900px;height:500px;''></img><p>If you have memorised all the portraits and names and are ready to start, press Continue.</p><p><strong>Please note: Your memory of these faces will be tested 4 times during this experiment.</strong></p>",0,html-button-response,130,1107900,0.0-14.1-0.1,40234,List2B,black,man,,,,,,,,,,,,,
3102.7,"<img src=""portrait/WM1.jpg""style=""height:400px;""></img>",6,html-button-response,131,1112015,0.0-14.1-1.1,40234,List2B,black,man,,TRUE,6,,,,,,,,,,
null,CORRECT,,html-keyboard-response,132,1113520,0.0-14.1-2.1-0.1,40234,List2B,black,man,,,,null,,,,,,,,,
8429,"<img src=""portrait/WW2.jpg""style=""height:400px;""></img>",3,html-button-response,133,1121959,0.0-14.1-4.1,40234,List2B,black,man,,TRUE,3,,,,,,,,,,
null,CORRECT,,html-keyboard-response,134,1123466,0.0-14.1-5.1-0.1,40234,List2B,black,man,,,,null,,,,,,,,,
2718,"<img src=""portrait/BM2.jpg""style=""height:400px;""></img>",5,html-button-response,135,1126196,0.0-14.1-7.1,40234,List2B,black,man,,TRUE,5,,,,,,,,,,
null,CORRECT,,html-keyboard-response,136,1127702,0.0-14.1-8.1-0.1,40234,List2B,black,man,,,,null,,,,,,,,,
1810.5,"<img src=""portrait/WM2.jpg""style=""height:400px;""></img>",7,html-button-response,137,1129525,0.0-14.1-10.1,40234,List2B,black,man,,TRUE,7,,,,,,,,,,
null,CORRECT,,html-keyboard-response,138,1131031,0.0-14.1-11.1-0.1,40234,List2B,black,man,,,,null,,,,,,,,,
1823.2,"<img src=""portrait/BW2.jpg""style=""height:400px;""></img>",2,html-button-response,139,1132864,0.0-14.1-13.1,40234,List2B,black,man,,TRUE,2,,,,,,,,,,
null,CORRECT,,html-keyboard-response,140,1134370,0.0-14.1-14.1-0.1,40234,List2B,black,man,,,,null,,,,,,,,,
1700,"<img src=""portrait/BM1.jpg""style=""height:400px;""></img>",4,html-button-response,141,1136081,0.0-14.1-16.1,40234,List2B,black,man,,TRUE,4,,,,,,,,,,
null,CORRECT,,html-keyboard-response,142,1137587,0.0-14.1-17.1-0.1,40234,List2B,black,man,,,,null,,,,,,,,,
2312.2,"<img src=""portrait/WW1.jpg""style=""height:400px;""></img>",1,html-button-response,143,1139913,0.0-14.1-19.1,40234,List2B,black,man,,TRUE,1,,,,,,,,,,
null,CORRECT,,html-keyboard-response,144,1141418,0.0-14.1-20.1-0.1,40234,List2B,black,man,,,,null,,,,,,,,,
1761.6,"<img src=""portrait/BW1.jpg""style=""height:400px;""></img>",0,html-button-response,145,1143189,0.0-14.1-22.1,40234,List2B,black,man,,TRUE,0,,,,,,,,,,
null,CORRECT,,html-keyboard-response,146,1144695,0.0-14.1-23.1-0.1,40234,List2B,black,man,,,,null,,,,,,,,,
10873.3,<p>You got 8 out of 8 right first time. Press Continue.</p>,0,html-button-response,147,1155577,0.0-14.1-25.1,40234,List2B,black,man,,,,,,,,,,,,,
null,"<div style=""font-size:60px;"">+</div>",,html-keyboard-response,148,1157084,0.0-15.0-0.0,40234,List2B,black,man,,,,null,,,,,,,,,
null,"<img src=""stim_listB/oppose2.gif""style=""height:400px;""></stim_listB>",,html-keyboard-response,149,1159097,0.0-15.0-1.0,40234,List2B,black,man,,,,null,,,,,,,,,
null,is being opposed by,,html-keyboard-response,150,1161115,0.0-15.0-2.0,40234,List2B,black,man,,,,null,,,,,,,,,
27308.2,,,survey-text,151,1188531,0.0-15.0-3.0,40234,List2B,black,man,,,,,"{""Q0"":""Luke is opposed by ruth""}","<img src=""stim_listB/oppose2.gif""style=""height:400px;""></stim_listB>",is being opposed by,,,,,,
null,"<div style=""font-size:60px;"">+</div>",,html-keyboard-response,152,1189036,0.0-15.0-0.1,40234,List2B,black,man,,,,null,,,,,,,,,
null,"<img src=""stim_listB/kiss2.gif""style=""height:400px;""></stim_listB>",,html-keyboard-response,153,1191045,0.0-15.0-1.1,40234,List2B,black,man,,,,null,,,,,,,,,
null,is being kissed by,,html-keyboard-response,154,1193050,0.0-15.0-2.1,40234,List2B,black,man,,,,null,,,,,,,,,
31615.1,,,survey-text,155,1224703,0.0-15.0-3.1,40234,List2B,black,man,,,,,"{""Q0"":""Dave is being kissed by jane""}","<img src=""stim_listB/kiss2.gif""style=""height:400px;""></stim_listB>",is being kissed by,,,,,,
null,"<div style=""font-size:60px;"">+</div>",,html-keyboard-response,156,1225209,0.0-15.0-0.2,40234,List2B,black,man,,,,null,,,,,,,,,
null,"<img src=""stim_listB/hug5.gif""style=""height:400px;""></stim_listB>",,html-keyboard-response,157,1227218,0.0-15.0-1.2,40234,List2B,black,man,,,,null,,,,,,,,,
null,is hugging,,html-keyboard-response,158,1229222,0.0-15.0-2.2,40234,List2B,black,man,,,,null,,,,,,,,,
13179.3,,,survey-text,159,1242421,0.0-15.0-3.2,40234,List2B,black,man,,,,,"{""Q0"":""Fred is hugging luke""}","<img src=""stim_listB/hug5.gif""style=""height:400px;""></stim_listB>",is hugging,,,,,,
null,"<div style=""font-size:60px;"">+</div>",,html-keyboard-response,160,1242926,0.0-15.0-0.3,40234,List2B,black,man,,,,null,,,,,,,,,
null,"<img src=""stim_listB/touch4.gif""style=""height:400px;""></stim_listB>",,html-keyboard-response,161,1244934,0.0-15.0-1.3,40234,List2B,black,man,,,,null,,,,,,,,,
null,is being touched by,,html-keyboard-response,162,1246939,0.0-15.0-2.3,40234,List2B,black,man,,,,null,,,,,,,,,
15723.7,,,survey-text,163,1262719,0.0-15.0-3.3,40234,List2B,black,man,,,,,"{""Q0"":""Fred is being touched by beth""}","<img src=""stim_listB/touch4.gif""style=""height:400px;""></stim_listB>",is being touched by,,,,,,
null,"<div style=""font-size:60px;"">+</div>",,html-keyboard-response,164,1263225,0.0-15.0-0.4,40234,List2B,black,man,,,,null,,,,,,,,,
null,"<img src=""stim_listB/challenge2.gif""style=""height:400px;""></stim_listB>",,html-keyboard-response,165,1265234,0.0-15.0-1.4,40234,List2B,black,man,,,,null,,,,,,,,,
null,is being challenged by,,html-keyboard-response,166,1267239,0.0-15.0-2.4,40234,List2B,black,man,,,,null,,,,,,,,,
24386.8,,,survey-text,167,1291640,0.0-15.0-3.4,40234,List2B,black,man,,,,,"{""Q0"":""Luke is being challenged by Jane ""}","<img src=""stim_listB/challenge2.gif""style=""height:400px;""></stim_listB>",is being challenged by,,,,,,
null,"<div style=""font-size:60px;"">+</div>",,html-keyboard-response,168,1292145,0.0-15.0-0.5,40234,List2B,black,man,,,,null,,,,,,,,,
null,"<img src=""stim_listB/touch1.gif""style=""height:400px;""></stim_listB>",,html-keyboard-response,169,1294154,0.0-15.0-1.5,40234,List2B,black,man,,,,null,,,,,,,,,
null,is touching,,html-keyboard-response,170,1296159,0.0-15.0-2.5,40234,List2B,black,man,,,,null,,,,,,,,,
20598.3,,,survey-text,171,1316810,0.0-15.0-3.5,40234,List2B,black,man,,,,,"{""Q0"":""Dave is touching jane""}","<img src=""stim_listB/touch1.gif""style=""height:400px;""></stim_listB>",is touching,,,,,,
null,"<div style=""font-size:60px;"">+</div>",,html-keyboard-response,172,1317318,0.0-15.0-0.6,40234,List2B,black,man,,,,null,,,,,,,,,
null,"<img src=""stim_listB/seduce8.gif""style=""height:400px;""></stim_listB>",,html-keyboard-response,173,1319329,0.0-15.0-1.6,40234,List2B,black,man,,,,null,,,,,,,,,
null,is being seduced by,,html-keyboard-response,174,1321333,0.0-15.0-2.6,40234,List2B,black,man,,,,null,,,,,,,,,
15804.4,,,survey-text,175,1337175,0.0-15.0-3.6,40234,List2B,black,man,,,,,"{""Q0"":""Jane is being seduced by beth""}","<img src=""stim_listB/seduce8.gif""style=""height:400px;""></stim_listB>",is being seduced by,,,,,,
null,"<div style=""font-size:60px;"">+</div>",,html-keyboard-response,176,1337680,0.0-15.0-0.7,40234,List2B,black,man,,,,null,,,,,,,,,
null,"<img src=""stim_listB/greet1.gif""style=""height:400px;""></stim_listB>",,html-keyboard-response,177,1339689,0.0-15.0-1.7,40234,List2B,black,man,,,,null,,,,,,,,,
null,is greeting,,html-keyboard-response,178,1341693,0.0-15.0-2.7,40234,List2B,black,man,,,,null,,,,,,,,,
19652.8,,,survey-text,179,1361360,0.0-15.0-3.7,40234,List2B,black,man,,,,,"{""Q0"":""Dave is greeting ruth""}","<img src=""stim_listB/greet1.gif""style=""height:400px;""></stim_listB>",is greeting,,,,,,
null,"<div style=""font-size:60px;"">+</div>",,html-keyboard-response,180,1361866,0.0-15.0-0.8,40234,List2B,black,man,,,,null,,,,,,,,,
null,"<img src=""stim_listB/challenge7.gif""style=""height:400px;""></stim_listB>",,html-keyboard-response,181,1363877,0.0-15.0-1.8,40234,List2B,black,man,,,,null,,,,,,,,,
null,is challenging,,html-keyboard-response,182,1365881,0.0-15.0-2.8,40234,List2B,black,man,,,,null,,,,,,,,,
19959.4,,,survey-text,183,1385896,0.0-15.0-3.8,40234,List2B,black,man,,,,,"{""Q0"":""Beth is challenging jane""}","<img src=""stim_listB/challenge7.gif""style=""height:400px;""></stim_listB>",is challenging,,,,,,
null,"<div style=""font-size:60px;"">+</div>",,html-keyboard-response,184,1386401,0.0-15.0-0.9,40234,List2B,black,man,,,,null,,,,,,,,,
null,"<img src=""stim_listB/touch7.gif""style=""height:400px;""></stim_listB>",,html-keyboard-response,185,1388409,0.0-15.0-1.9,40234,List2B,black,man,,,,null,,,,,,,,,
null,is touching,,html-keyboard-response,186,1390414,0.0-15.0-2.9,40234,List2B,black,man,,,,null,,,,,,,,,
12685.9,,,survey-text,187,1403120,0.0-15.0-3.9,40234,List2B,black,man,,,,,"{""Q0"":""Kate is touching jane""}","<img src=""stim_listB/touch7.gif""style=""height:400px;""></stim_listB>",is touching,,,,,,
null,"<div style=""font-size:60px;"">+</div>",,html-keyboard-response,188,1403625,0.0-15.0-0.10,40234,List2B,black,man,,,,null,,,,,,,,,
null,"<img src=""stim_listB/oppose4.gif""style=""height:400px;""></stim_listB>",,html-keyboard-response,189,1405637,0.0-15.0-1.10,40234,List2B,black,man,,,,null,,,,,,,,,
null,is being opposed by,,html-keyboard-response,190,1407646,0.0-15.0-2.10,40234,List2B,black,man,,,,null,,,,,,,,,
21729.7,,,survey-text,191,1429420,0.0-15.0-3.10,40234,List2B,black,man,,,,,"{""Q0"":""Fred is being opposed by beth""}","<img src=""stim_listB/oppose4.gif""style=""height:400px;""></stim_listB>",is being opposed by,,,,,,
null,"<div style=""font-size:60px;"">+</div>",,html-keyboard-response,192,1429926,0.0-15.0-0.11,40234,List2B,black,man,,,,null,,,,,,,,,
null,"<img src=""stim_listB/oppose8.gif""style=""height:400px;""></stim_listB>",,html-keyboard-response,193,1431935,0.0-15.0-1.11,40234,List2B,black,man,,,,null,,,,,,,,,
null,is being opposed by,,html-keyboard-response,194,1433941,0.0-15.0-2.11,40234,List2B,black,man,,,,null,,,,,,,,,
23778.2,,,survey-text,195,1457772,0.0-15.0-3.11,40234,List2B,black,man,,,,,"{""Q0"":""Ruth is being opposed by beth""}","<img src=""stim_listB/oppose8.gif""style=""height:400px;""></stim_listB>",is being opposed by,,,,,,
null,"<div style=""font-size:60px;"">+</div>",,html-keyboard-response,196,1458277,0.0-15.0-0.12,40234,List2B,black,man,,,,null,,,,,,,,,
null,"<img src=""stim_listB/challenge6.gif""style=""height:400px;""></stim_listB>",,html-keyboard-response,197,1460286,0.0-15.0-1.12,40234,List2B,black,man,,,,null,,,,,,,,,
null,is being challenged by,,html-keyboard-response,198,1462297,0.0-15.0-2.12,40234,List2B,black,man,,,,null,,,,,,,,,
20509.6,,,survey-text,199,1482877,0.0-15.0-3.12,40234,List2B,black,man,,,,,"{""Q0"":""Luke is being challenged by mike""}","<img src=""stim_listB/challenge6.gif""style=""height:400px;""></stim_listB>",is being challenged by,,,,,,
null,"<div style=""font-size:60px;"">+</div>",,html-keyboard-response,200,1483383,0.0-15.0-0.13,40234,List2B,black,man,,,,null,,,,,,,,,
null,"<img src=""stim_listB/kiss7.gif""style=""height:400px;""></stim_listB>",,html-keyboard-response,201,1485392,0.0-15.0-1.13,40234,List2B,black,man,,,,null,,,,,,,,,
null,is kissing,,html-keyboard-response,202,1487402,0.0-15.0-2.13,40234,List2B,black,man,,,,null,,,,,,,,,
16465,,,survey-text,203,1503918,0.0-15.0-3.13,40234,List2B,black,man,,,,,"{""Q0"":""Beth is kissing ruth""}","<img src=""stim_listB/kiss7.gif""style=""height:400px;""></stim_listB>",is kissing,,,,,,
null,"<div style=""font-size:60px;"">+</div>",,html-keyboard-response,204,1504423,0.0-15.0-0.14,40234,List2B,black,man,,,,null,,,,,,,,,
null,"<img src=""stim_listB/shout7.gif""style=""height:400px;""></stim_listB>",,html-keyboard-response,205,1506432,0.0-15.0-1.14,40234,List2B,black,man,,,,null,,,,,,,,,
null,is shouting at,,html-keyboard-response,206,1508441,0.0-15.0-2.14,40234,List2B,black,man,,,,null,,,,,,,,,
18825.4,,,survey-text,207,1527317,0.0-15.0-3.14,40234,List2B,black,man,,,,,"{""Q0"":""Beth is shouting at ruth""}","<img src=""stim_listB/shout7.gif""style=""height:400px;""></stim_listB>",is shouting at,,,,,,
null,"<div style=""font-size:60px;"">+</div>",,html-keyboard-response,208,1527822,0.0-15.0-0.15,40234,List2B,black,man,,,,null,,,,,,,,,
null,"<img src=""stim_listB/look4.gif""style=""height:400px;""></stim_listB>",,html-keyboard-response,209,1529831,0.0-15.0-1.15,40234,List2B,black,man,,,,null,,,,,,,,,
null,is being looked at by,,html-keyboard-response,210,1531840,0.0-15.0-2.15,40234,List2B,black,man,,,,null,,,,,,,,,
20566.5,,,survey-text,211,1552443,0.0-15.0-3.15,40234,List2B,black,man,,,,,"{""Q0"":""Mike is being looked at by kate""}","<img src=""stim_listB/look4.gif""style=""height:400px;""></stim_listB>",is being looked at by,,,,,,
null,"<div style=""font-size:60px;"">+</div>",,html-keyboard-response,212,1552948,0.0-15.0-0.16,40234,List2B,black,man,,,,null,,,,,,,,,
null,"<img src=""stim_listB/shout4.gif""style=""height:400px;""></stim_listB>",,html-keyboard-response,213,1554955,0.0-15.0-1.16,40234,List2B,black,man,,,,null,,,,,,,,,
null,is being shouted at by,,html-keyboard-response,214,1556964,0.0-15.0-2.16,40234,List2B,black,man,,,,null,,,,,,,,,
18518.6,,,survey-text,215,1575535,0.0-15.0-3.16,40234,List2B,black,man,,,,,"{""Q0"":""Mike is being shouted at by kate""}","<img src=""stim_listB/shout4.gif""style=""height:400px;""></stim_listB>",is being shouted at by,,,,,,
null,"<div style=""font-size:60px;"">+</div>",,html-keyboard-response,216,1576040,0.0-15.0-0.17,40234,List2B,black,man,,,,null,,,,,,,,,
null,"<img src=""stim_listB/copy2.gif""style=""height:400px;""></stim_listB>",,html-keyboard-response,217,1578050,0.0-15.0-1.17,40234,List2B,black,man,,,,null,,,,,,,,,
null,is being copied by,,html-keyboard-response,218,1580060,0.0-15.0-2.17,40234,List2B,black,man,,,,null,,,,,,,,,
22111.3,,,survey-text,219,1602215,0.0-15.0-3.17,40234,List2B,black,man,,,,,"{""Q0"":""Luke is being copied by jane""}","<img src=""stim_listB/copy2.gif""style=""height:400px;""></stim_listB>",is being copied by,,,,,,
null,"<div style=""font-size:60px;"">+</div>",,html-keyboard-response,220,1602721,0.0-15.0-0.18,40234,List2B,black,man,,,,null,,,,,,,,,
null,"<img src=""stim_listB/challenge4.gif""style=""height:400px;""></stim_listB>",,html-keyboard-response,221,1604730,0.0-15.0-1.18,40234,List2B,black,man,,,,null,,,,,,,,,
null,is being challenged by,,html-keyboard-response,222,1606739,0.0-15.0-2.18,40234,List2B,black,man,,,,null,,,,,,,,,
22335.2,,,survey-text,223,1629127,0.0-15.0-3.18,40234,List2B,black,man,,,,,"{""Q0"":""Fred is being challenged by kate""}","<img src=""stim_listB/challenge4.gif""style=""height:400px;""></stim_listB>",is being challenged by,,,,,,
null,"<div style=""font-size:60px;"">+</div>",,html-keyboard-response,224,1629633,0.0-15.0-0.19,40234,List2B,black,man,,,,null,,,,,,,,,
null,"<img src=""stim_listB/greet8.gif""style=""height:400px;""></stim_listB>",,html-keyboard-response,225,1631644,0.0-15.0-1.19,40234,List2B,black,man,,,,null,,,,,,,,,
null,is being greeted by,,html-keyboard-response,226,1633648,0.0-15.0-2.19,40234,List2B,black,man,,,,null,,,,,,,,,
15843.6,,,survey-text,227,1649512,0.0-15.0-3.19,40234,List2B,black,man,,,,,"{""Q0"":""Ruth is being greeted by kate""}","<img src=""stim_listB/greet8.gif""style=""height:400px;""></stim_listB>",is being greeted by,,,,,,
16588.5,"<img src='img/portrait_matrix_list2.jpg' style='width:900px;height:500px;''></img><p>If you have memorised all the portraits and names and are ready to start, press Continue.</p><p><strong>Please note: Your memory of these faces will be tested 4 times during this experiment.</strong></p>",0,html-button-response,228,1666115,0.0-16.0-0.0,40234,List2B,black,man,,,,,,,,,,,,,
2183.8,"<img src=""portrait/WM2.jpg""style=""height:400px;""></img>",7,html-button-response,229,1669314,0.0-16.0-1.0,40234,List2B,black,man,,TRUE,7,,,,,,,,,,
null,CORRECT,,html-keyboard-response,230,1670825,0.0-16.0-2.0-0.0,40234,List2B,black,man,,,,null,,,,,,,,,
2320.3,"<img src=""portrait/WM1.jpg""style=""height:400px;""></img>",6,html-button-response,231,1673167,0.0-16.0-4.0,40234,List2B,black,man,,TRUE,6,,,,,,,,,,
null,CORRECT,,html-keyboard-response,232,1674675,0.0-16.0-5.0-0.0,40234,List2B,black,man,,,,null,,,,,,,,,
1708.2,"<img src=""portrait/BM2.jpg""style=""height:400px;""></img>",5,html-button-response,233,1676396,0.0-16.0-7.0,40234,List2B,black,man,,TRUE,5,,,,,,,,,,
null,CORRECT,,html-keyboard-response,234,1677905,0.0-16.0-8.0-0.0,40234,List2B,black,man,,,,null,,,,,,,,,
7311.6,"<img src=""portrait/WW2.jpg""style=""height:400px;""></img>",3,html-button-response,235,1685228,0.0-16.0-10.0,40234,List2B,black,man,,TRUE,3,,,,,,,,,,
null,CORRECT,,html-keyboard-response,236,1686736,0.0-16.0-11.0-0.0,40234,List2B,black,man,,,,null,,,,,,,,,
2201.4,"<img src=""portrait/WW1.jpg""style=""height:400px;""></img>",1,html-button-response,237,1688951,0.0-16.0-13.0,40234,List2B,black,man,,TRUE,1,,,,,,,,,,
null,CORRECT,,html-keyboard-response,238,1690458,0.0-16.0-14.0-0.0,40234,List2B,black,man,,,,null,,,,,,,,,
2030.6,"<img src=""portrait/BW1.jpg""style=""height:400px;""></img>",0,html-button-response,239,1692499,0.0-16.0-16.0,40234,List2B,black,man,,TRUE,0,,,,,,,,,,
null,CORRECT,,html-keyboard-response,240,1694004,0.0-16.0-17.0-0.0,40234,List2B,black,man,,,,null,,,,,,,,,
1902.3,"<img src=""portrait/BW2.jpg""style=""height:400px;""></img>",2,html-button-response,241,1695916,0.0-16.0-19.0,40234,List2B,black,man,,TRUE,2,,,,,,,,,,
null,CORRECT,,html-keyboard-response,242,1697422,0.0-16.0-20.0-0.0,40234,List2B,black,man,,,,null,,,,,,,,,
2066.1,"<img src=""portrait/BM1.jpg""style=""height:400px;""></img>",4,html-button-response,243,1699499,0.0-16.0-22.0,40234,List2B,black,man,,TRUE,4,,,,,,,,,,
null,CORRECT,,html-keyboard-response,244,1701005,0.0-16.0-23.0-0.0,40234,List2B,black,man,,,,null,,,,,,,,,
2027.9,<p>You got 8 out of 8 right first time. Press Continue.</p>,0,html-button-response,245,1703043,0.0-16.0-25.0,40234,List2B,black,man,,,,,,,,,,,,,
null,"<div style=""font-size:60px;"">+</div>",,html-keyboard-response,246,1704553,0.0-17.0-0.0,40234,List2B,black,man,,,,null,,,,,,,,,
null,"<img src=""stim_listB/copy4.gif""style=""height:400px;""></stim_listB>",,html-keyboard-response,247,1706563,0.0-17.0-1.0,40234,List2B,black,man,,,,null,,,,,,,,,
null,is being copied by,,html-keyboard-response,248,1708566,0.0-17.0-2.0,40234,List2B,black,man,,,,null,,,,,,,,,
12730.3,,,survey-text,249,1721348,0.0-17.0-3.0,40234,List2B,black,man,,,,,"{""Q0"":""Fred is copied by kate""}","<img src=""stim_listB/copy4.gif""style=""height:400px;""></stim_listB>",is being copied by,,,,,,
null,"<div style=""font-size:60px;"">+</div>",,html-keyboard-response,250,1721855,0.0-17.0-0.1,40234,List2B,black,man,,,,null,,,,,,,,,
null,"<img src=""stim_listB/shout1.gif""style=""height:400px;""></stim_listB>",,html-keyboard-response,251,1723867,0.0-17.0-1.1,40234,List2B,black,man,,,,null,,,,,,,,,
null,is shouting at,,html-keyboard-response,252,1725877,0.0-17.0-2.1,40234,List2B,black,man,,,,null,,,,,,,,,
16127.6,,,survey-text,253,1742027,0.0-17.0-3.1,40234,List2B,black,man,,,,,"{""Q0"":""Ruth is shouting at luke""}","<img src=""stim_listB/shout1.gif""style=""height:400px;""></stim_listB>",is shouting at,,,,,,
null,"<div style=""font-size:60px;"">+</div>",,html-keyboard-response,254,1742534,0.0-17.0-0.2,40234,List2B,black,man,,,,null,,,,,,,,,
null,"<img src=""stim_listB/copy5.gif""style=""height:400px;""></stim_listB>",,html-keyboard-response,255,1744542,0.0-17.0-1.2,40234,List2B,black,man,,,,null,,,,,,,,,
null,is copying,,html-keyboard-response,256,1746547,0.0-17.0-2.2,40234,List2B,black,man,,,,null,,,,,,,,,
13124.3,,,survey-text,257,1759735,0.0-17.0-3.2,40234,List2B,black,man,,,,,"{""Q0"":""Fred is copying dave""}","<img src=""stim_listB/copy5.gif""style=""height:400px;""></stim_listB>",is copying,,,,,,
null,"<div style=""font-size:60px;"">+</div>",,html-keyboard-response,258,1760240,0.0-17.0-0.3,40234,List2B,black,man,,,,null,,,,,,,,,
null,"<img src=""stim_listB/hug6.gif""style=""height:400px;""></stim_listB>",,html-keyboard-response,259,1762248,0.0-17.0-1.3,40234,List2B,black,man,,,,null,,,,,,,,,
null,is being hugged by,,html-keyboard-response,260,1764253,0.0-17.0-2.3,40234,List2B,black,man,,,,null,,,,,,,,,
17750.6,,,survey-text,261,1782023,0.0-17.0-3.3,40234,List2B,black,man,,,,,"{""Q0"":""Dave is being hugged by mike""}","<img src=""stim_listB/hug6.gif""style=""height:400px;""></stim_listB>",is being hugged by,,,,,,
null,"<div style=""font-size:60px;"">+</div>",,html-keyboard-response,262,1782528,0.0-17.0-0.4,40234,List2B,black,man,,,,null,,,,,,,,,
null,"<img src=""stim_listB/oppose5.gif""style=""height:400px;""></stim_listB>",,html-keyboard-response,263,1784537,0.0-17.0-1.4,40234,List2B,black,man,,,,null,,,,,,,,,
null,is opposing,,html-keyboard-response,264,1786541,0.0-17.0-2.4,40234,List2B,black,man,,,,null,,,,,,,,,
14374,,,survey-text,265,1800934,0.0-17.0-3.4,40234,List2B,black,man,,,,,"{""Q0"":""Mike is opposing dave""}","<img src=""stim_listB/oppose5.gif""style=""height:400px;""></stim_listB>",is opposing,,,,,,
null,"<div style=""font-size:60px;"">+</div>",,html-keyboard-response,266,1801439,0.0-17.0-0.5,40234,List2B,black,man,,,,null,,,,,,,,,
null,"<img src=""stim_listB/kiss5.gif""style=""height:400px;""></stim_listB>",,html-keyboard-response,267,1803450,0.0-17.0-1.5,40234,List2B,black,man,,,,null,,,,,,,,,
null,is kissing,,html-keyboard-response,268,1805456,0.0-17.0-2.5,40234,List2B,black,man,,,,null,,,,,,,,,
12073.1,,,survey-text,269,1817584,0.0-17.0-3.5,40234,List2B,black,man,,,,,"{""Q0"":""Fred is kissing luke""}","<img src=""stim_listB/kiss5.gif""style=""height:400px;""></stim_listB>",is kissing,,,,,,
null,"<div style=""font-size:60px;"">+</div>",,html-keyboard-response,270,1818088,0.0-17.0-0.6,40234,List2B,black,man,,,,null,,,,,,,,,
null,"<img src=""stim_listB/shout2.gif""style=""height:400px;""></stim_listB>",,html-keyboard-response,271,1820099,0.0-17.0-1.6,40234,List2B,black,man,,,,null,,,,,,,,,
null,is being shouted at by,,html-keyboard-response,272,1822112,0.0-17.0-2.6,40234,List2B,black,man,,,,null,,,,,,,,,
37032.1,,,survey-text,273,1859220,0.0-17.0-3.6,40234,List2B,black,man,,,,,"{""Q0"":""Dave is being shouted at by jane""}","<img src=""stim_listB/shout2.gif""style=""height:400px;""></stim_listB>",is being shouted at by,,,,,,
null,"<div style=""font-size:60px;"">+</div>",,html-keyboard-response,274,1859725,0.0-17.0-0.7,40234,List2B,black,man,,,,null,,,,,,,,,
null,"<img src=""stim_listB/oppose3.gif""style=""height:400px;""></stim_listB>",,html-keyboard-response,275,1861738,0.0-17.0-1.7,40234,List2B,black,man,,,,null,,,,,,,,,
null,is opposing,,html-keyboard-response,276,1863746,0.0-17.0-2.7,40234,List2B,black,man,,,,null,,,,,,,,,
15094.4,,,survey-text,277,1878905,0.0-17.0-3.7,40234,List2B,black,man,,,,,"{""Q0"":""Kate is opposing mike""}","<img src=""stim_listB/oppose3.gif""style=""height:400px;""></stim_listB>",is opposing,,,,,,
null,"<div style=""font-size:60px;"">+</div>",,html-keyboard-response,278,1879411,0.0-17.0-0.8,40234,List2B,black,man,,,,null,,,,,,,,,
null,"<img src=""stim_listB/look5.gif""style=""height:400px;""></stim_listB>",,html-keyboard-response,279,1881419,0.0-17.0-1.8,40234,List2B,black,man,,,,null,,,,,,,,,
null,is looking at,,html-keyboard-response,280,1883424,0.0-17.0-2.8,40234,List2B,black,man,,,,null,,,,,,,,,
13097.5,,,survey-text,281,1896590,0.0-17.0-3.8,40234,List2B,black,man,,,,,"{""Q0"":""Fred is looking at luke""}","<img src=""stim_listB/look5.gif""style=""height:400px;""></stim_listB>",is looking at,,,,,,
null,"<div style=""font-size:60px;"">+</div>",,html-keyboard-response,282,1897095,0.0-17.0-0.9,40234,List2B,black,man,,,,null,,,,,,,,,
null,"<img src=""stim_listB/shout3.gif""style=""height:400px;""></stim_listB>",,html-keyboard-response,283,1899104,0.0-17.0-1.9,40234,List2B,black,man,,,,null,,,,,,,,,
null,is shouting at,,html-keyboard-response,284,1901110,0.0-17.0-2.9,40234,List2B,black,man,,,,null,,,,,,,,,
13408,,,survey-text,285,1914574,0.0-17.0-3.9,40234,List2B,black,man,,,,,"{""Q0"":""Beth is shouting at fred""}","<img src=""stim_listB/shout3.gif""style=""height:400px;""></stim_listB>",is shouting at,,,,,,
null,"<div style=""font-size:60px;"">+</div>",,html-keyboard-response,286,1915080,0.0-17.0-0.10,40234,List2B,black,man,,,,null,,,,,,,,,
null,"<img src=""stim_listB/hug3.gif""style=""height:400px;""></stim_listB>",,html-keyboard-response,287,1917089,0.0-17.0-1.10,40234,List2B,black,man,,,,null,,,,,,,,,
null,is hugging,,html-keyboard-response,288,1919094,0.0-17.0-2.10,40234,List2B,black,man,,,,null,,,,,,,,,
11805.6,,,survey-text,289,1930960,0.0-17.0-3.10,40234,List2B,black,man,,,,,"{""Q0"":""Beth is hugging fred""}","<img src=""stim_listB/hug3.gif""style=""height:400px;""></stim_listB>",is hugging,,,,,,
null,"<div style=""font-size:60px;"">+</div>",,html-keyboard-response,290,1931465,0.0-17.0-0.11,40234,List2B,black,man,,,,null,,,,,,,,,
null,"<img src=""stim_listB/copy1.gif""style=""height:400px;""></stim_listB>",,html-keyboard-response,291,1933473,0.0-17.0-1.11,40234,List2B,black,man,,,,null,,,,,,,,,
null,is copying,,html-keyboard-response,292,1935483,0.0-17.0-2.11,40234,List2B,black,man,,,,null,,,,,,,,,
14650.2,,,survey-text,293,1950170,0.0-17.0-3.11,40234,List2B,black,man,,,,,"{""Q0"":""Ruth is copying dave""}","<img src=""stim_listB/copy1.gif""style=""height:400px;""></stim_listB>",is copying,,,,,,
null,"<div style=""font-size:60px;"">+</div>",,html-keyboard-response,294,1950676,0.0-17.0-0.12,40234,List2B,black,man,,,,null,,,,,,,,,
null,"<img src=""stim_listB/hug1.gif""style=""height:400px;""></stim_listB>",,html-keyboard-response,295,1952685,0.0-17.0-1.12,40234,List2B,black,man,,,,null,,,,,,,,,
null,is hugging,,html-keyboard-response,296,1954694,0.0-17.0-2.12,40234,List2B,black,man,,,,null,,,,,,,,,
25626.7,,,survey-text,297,1980369,0.0-17.0-3.12,40234,List2B,black,man,,,,,"{""Q0"":""Ruth is hugging dave""}","<img src=""stim_listB/hug1.gif""style=""height:400px;""></stim_listB>",is hugging,,,,,,
null,"<div style=""font-size:60px;"">+</div>",,html-keyboard-response,298,1980875,0.0-17.0-0.13,40234,List2B,black,man,,,,null,,,,,,,,,
null,"<img src=""stim_listB/look2.gif""style=""height:400px;""></stim_listB>",,html-keyboard-response,299,1982886,0.0-17.0-1.13,40234,List2B,black,man,,,,null,,,,,,,,,
null,is being looked at by,,html-keyboard-response,300,1984892,0.0-17.0-2.13,40234,List2B,black,man,,,,null,,,,,,,,,
18510.7,,,survey-text,301,2003423,0.0-17.0-3.13,40234,List2B,black,man,,,,,"{""Q0"":""Jane is being looked at by dave""}","<img src=""stim_listB/look2.gif""style=""height:400px;""></stim_listB>",is being looked at by,,,,,,
null,"<div style=""font-size:60px;"">+</div>",,html-keyboard-response,302,2003929,0.0-17.0-0.14,40234,List2B,black,man,,,,null,,,,,,,,,
null,"<img src=""stim_listB/challenge1.gif""style=""height:400px;""></stim_listB>",,html-keyboard-response,303,2005937,0.0-17.0-1.14,40234,List2B,black,man,,,,null,,,,,,,,,
null,is challenging,,html-keyboard-response,304,2007943,0.0-17.0-2.14,40234,List2B,black,man,,,,null,,,,,,,,,
16287.4,,,survey-text,305,2024250,0.0-17.0-3.14,40234,List2B,black,man,,,,,"{""Q0"":""Ruth is challenging dave""}","<img src=""stim_listB/challenge1.gif""style=""height:400px;""></stim_listB>",is challenging,,,,,,
null,"<div style=""font-size:60px;"">+</div>",,html-keyboard-response,306,2024755,0.0-17.0-0.15,40234,List2B,black,man,,,,null,,,,,,,,,
null,"<img src=""stim_listB/seduce3.gif""style=""height:400px;""></stim_listB>",,html-keyboard-response,307,2026762,0.0-17.0-1.15,40234,List2B,black,man,,,,null,,,,,,,,,
null,is seducing,,html-keyboard-response,308,2028768,0.0-17.0-2.15,40234,List2B,black,man,,,,null,,,,,,,,,
11942.9,,,survey-text,309,2040732,0.0-17.0-3.15,40234,List2B,black,man,,,,,"{""Q0"":""Kate is seducing fred""}","<img src=""stim_listB/seduce3.gif""style=""height:400px;""></stim_listB>",is seducing,,,,,,
null,"<div style=""font-size:60px;"">+</div>",,html-keyboard-response,310,2041238,0.0-17.0-0.16,40234,List2B,black,man,,,,null,,,,,,,,,
null,"<img src=""stim_listB/greet6.gif""style=""height:400px;""></stim_listB>",,html-keyboard-response,311,2043247,0.0-17.0-1.16,40234,List2B,black,man,,,,null,,,,,,,,,
null,is being greeted by,,html-keyboard-response,312,2045255,0.0-17.0-2.16,40234,List2B,black,man,,,,null,,,,,,,,,
18315,,,survey-text,313,2063623,0.0-17.0-3.16,40234,List2B,black,man,,,,,"{""Q0"":""Mike is being greeted by luke""}","<img src=""stim_listB/greet6.gif""style=""height:400px;""></stim_listB>",is being greeted by,,,,,,
null,"<div style=""font-size:60px;"">+</div>",,html-keyboard-response,314,2064132,0.0-17.0-0.17,40234,List2B,black,man,,,,null,,,,,,,,,
null,"<img src=""stim_listB/kiss8.gif""style=""height:400px;""></stim_listB>",,html-keyboard-response,315,2066140,0.0-17.0-1.17,40234,List2B,black,man,,,,null,,,,,,,,,
null,is being kissed by,,html-keyboard-response,316,2068146,0.0-17.0-2.17,40234,List2B,black,man,,,,null,,,,,,,,,
28701,,,survey-text,317,2096895,0.0-17.0-3.17,40234,List2B,black,man,,,,,"{""Q0"":""Jane is being kissed by kate""}","<img src=""stim_listB/kiss8.gif""style=""height:400px;""></stim_listB>",is being kissed by,,,,,,
null,"<div style=""font-size:60px;"">+</div>",,html-keyboard-response,318,2097400,0.0-17.0-0.18,40234,List2B,black,man,,,,null,,,,,,,,,
null,"<img src=""stim_listB/shout8.gif""style=""height:400px;""></stim_listB>",,html-keyboard-response,319,2099409,0.0-17.0-1.18,40234,List2B,black,man,,,,null,,,,,,,,,
null,is being shouted at by,,html-keyboard-response,320,2101416,0.0-17.0-2.18,40234,List2B,black,man,,,,null,,,,,,,,,
18381,,,survey-text,321,2119818,0.0-17.0-3.18,40234,List2B,black,man,,,,,"{""Q0"":""Jane is being shouted at by kate""}","<img src=""stim_listB/shout8.gif""style=""height:400px;""></stim_listB>",is being shouted at by,,,,,,
null,"<div style=""font-size:60px;"">+</div>",,html-keyboard-response,322,2120323,0.0-17.0-0.19,40234,List2B,black,man,,,,null,,,,,,,,,
null,"<img src=""stim_listB/copy7.gif""style=""height:400px;""></stim_listB>",,html-keyboard-response,323,2122333,0.0-17.0-1.19,40234,List2B,black,man,,,,null,,,,,,,,,
null,is copying,,html-keyboard-response,324,2124340,0.0-17.0-2.19,40234,List2B,black,man,,,,null,,,,,,,,,
17383.9,,,survey-text,325,2141770,0.0-17.0-3.19,40234,List2B,black,man,,,,,"{""Q0"":""Beth is copying jane""}","<img src=""stim_listB/copy7.gif""style=""height:400px;""></stim_listB>",is copying,,,,,,
10900.7,"<img src='img/portrait_matrix_list2.jpg' style='width:900px;height:500px;''></img><p>If you have memorised all the portraits and names and are ready to start, press Continue.</p><p><strong>Please note: Your memory of these faces will be tested 4 times during this experiment.</strong></p>",0,html-button-response,326,2152680,0.0-18.0-0.0,40234,List2B,black,man,,,,,,,,,,,,,
1892.4,"<img src=""portrait/WW2.jpg""style=""height:400px;""></img>",3,html-button-response,327,2155586,0.0-18.0-1.0,40234,List2B,black,man,,TRUE,3,,,,,,,,,,
null,CORRECT,,html-keyboard-response,328,2157102,0.0-18.0-2.0-0.0,40234,List2B,black,man,,,,null,,,,,,,,,
1897.8,"<img src=""portrait/WM1.jpg""style=""height:400px;""></img>",6,html-button-response,329,2159016,0.0-18.0-4.0,40234,List2B,black,man,,TRUE,6,,,,,,,,,,
null,CORRECT,,html-keyboard-response,330,2160521,0.0-18.0-5.0-0.0,40234,List2B,black,man,,,,null,,,,,,,,,
1597.6,"<img src=""portrait/BM2.jpg""style=""height:400px;""></img>",5,html-button-response,331,2162132,0.0-18.0-7.0,40234,List2B,black,man,,TRUE,5,,,,,,,,,,
null,CORRECT,,html-keyboard-response,332,2163638,0.0-18.0-8.0-0.0,40234,List2B,black,man,,,,null,,,,,,,,,
3284.9,"<img src=""portrait/WW1.jpg""style=""height:400px;""></img>",1,html-button-response,333,2166936,0.0-18.0-10.0,40234,List2B,black,man,,TRUE,1,,,,,,,,,,
null,CORRECT,,html-keyboard-response,334,2168443,0.0-18.0-11.0-0.0,40234,List2B,black,man,,,,null,,,,,,,,,
2770.7,"<img src=""portrait/BM1.jpg""style=""height:400px;""></img>",4,html-button-response,335,2171229,0.0-18.0-13.0,40234,List2B,black,man,,TRUE,4,,,,,,,,,,
null,CORRECT,,html-keyboard-response,336,2172735,0.0-18.0-14.0-0.0,40234,List2B,black,man,,,,null,,,,,,,,,
1739.4,"<img src=""portrait/BW1.jpg""style=""height:400px;""></img>",0,html-button-response,337,2174485,0.0-18.0-16.0,40234,List2B,black,man,,TRUE,0,,,,,,,,,,
null,CORRECT,,html-keyboard-response,338,2175992,0.0-18.0-17.0-0.0,40234,List2B,black,man,,,,null,,,,,,,,,
1475.7,"<img src=""portrait/BW2.jpg""style=""height:400px;""></img>",2,html-button-response,339,2177481,0.0-18.0-19.0,40234,List2B,black,man,,TRUE,2,,,,,,,,,,
null,CORRECT,,html-keyboard-response,340,2178987,0.0-18.0-20.0-0.0,40234,List2B,black,man,,,,null,,,,,,,,,
1448.1,"<img src=""portrait/WM2.jpg""style=""height:400px;""></img>",7,html-button-response,341,2180448,0.0-18.0-22.0,40234,List2B,black,man,,TRUE,7,,,,,,,,,,
null,CORRECT,,html-keyboard-response,342,2181965,0.0-18.0-23.0-0.0,40234,List2B,black,man,,,,null,,,,,,,,,
2101.6,<p>You got 8 out of 8 right first time. Press Continue.</p>,0,html-button-response,343,2184088,0.0-18.0-25.0,40234,List2B,black,man,,,,,,,,,,,,,
null,"<div style=""font-size:60px;"">+</div>",,html-keyboard-response,344,2185598,0.0-19.0-0.0,40234,List2B,black,man,,,,null,,,,,,,,,
null,"<img src=""stim_listB/greet7.gif""style=""height:400px;""></stim_listB>",,html-keyboard-response,345,2187608,0.0-19.0-1.0,40234,List2B,black,man,,,,null,,,,,,,,,
null,is greeting,,html-keyboard-response,346,2189613,0.0-19.0-2.0,40234,List2B,black,man,,,,null,,,,,,,,,
16756.4,,,survey-text,347,2206421,0.0-19.0-3.0,40234,List2B,black,man,,,,,"{""Q0"":""Beth is greeting jane""}","<img src=""stim_listB/greet7.gif""style=""height:400px;""></stim_listB>",is greeting,,,,,,
null,"<div style=""font-size:60px;"">+</div>",,html-keyboard-response,348,2206927,0.0-19.0-0.1,40234,List2B,black,man,,,,null,,,,,,,,,
null,"<img src=""stim_listB/kiss1.gif""style=""height:400px;""></stim_listB>",,html-keyboard-response,349,2208936,0.0-19.0-1.1,40234,List2B,black,man,,,,null,,,,,,,,,
null,is kissing,,html-keyboard-response,350,2210945,0.0-19.0-2.1,40234,List2B,black,man,,,,null,,,,,,,,,
12480.8,,,survey-text,351,2223486,0.0-19.0-3.1,40234,List2B,black,man,,,,,"{""Q0"":""Ruth is kissing luke""}","<img src=""stim_listB/kiss1.gif""style=""height:400px;""></stim_listB>",is kissing,,,,,,
null,"<div style=""font-size:60px;"">+</div>",,html-keyboard-response,352,2223991,0.0-19.0-0.2,40234,List2B,black,man,,,,null,,,,,,,,,
null,"<img src=""stim_listB/seduce5.gif""style=""height:400px;""></stim_listB>",,html-keyboard-response,353,2226003,0.0-19.0-1.2,40234,List2B,black,man,,,,null,,,,,,,,,
null,is seducing,,html-keyboard-response,354,2228009,0.0-19.0-2.2,40234,List2B,black,man,,,,null,,,,,,,,,
14788.7,,,survey-text,355,2242851,0.0-19.0-3.2,40234,List2B,black,man,,,,,"{""Q0"":""Mike is seducing luke""}","<img src=""stim_listB/seduce5.gif""style=""height:400px;""></stim_listB>",is seducing,,,,,,
null,"<div style=""font-size:60px;"">+</div>",,html-keyboard-response,356,2243357,0.0-19.0-0.3,40234,List2B,black,man,,,,null,,,,,,,,,
null,"<img src=""stim_listB/greet2.gif""style=""height:400px;""></stim_listB>",,html-keyboard-response,357,2245368,0.0-19.0-1.3,40234,List2B,black,man,,,,null,,,,,,,,,
null,is being greeted by,,html-keyboard-response,358,2247371,0.0-19.0-2.3,40234,List2B,black,man,,,,null,,,,,,,,,
15813.7,,,survey-text,359,2263231,0.0-19.0-3.3,40234,List2B,black,man,,,,,"{""Q0"":""Jane is being greeted by luke""}","<img src=""stim_listB/greet2.gif""style=""height:400px;""></stim_listB>",is being greeted by,,,,,,
null,"<div style=""font-size:60px;"">+</div>",,html-keyboard-response,360,2263736,0.0-19.0-0.4,40234,List2B,black,man,,,,null,,,,,,,,,
null,"<img src=""stim_listB/seduce7.gif""style=""height:400px;""></stim_listB>",,html-keyboard-response,361,2265744,0.0-19.0-1.4,40234,List2B,black,man,,,,null,,,,,,,,,
null,is seducing,,html-keyboard-response,362,2267749,0.0-19.0-2.4,40234,List2B,black,man,,,,null,,,,,,,,,
15202.2,,,survey-text,363,2283004,0.0-19.0-3.4,40234,List2B,black,man,,,,,"{""Q0"":""Kate is seducing ruth""}","<img src=""stim_listB/seduce7.gif""style=""height:400px;""></stim_listB>",is seducing,,,,,,
null,"<div style=""font-size:60px;"">+</div>",,html-keyboard-response,364,2283510,0.0-19.0-0.5,40234,List2B,black,man,,,,null,,,,,,,,,
null,"<img src=""stim_listB/touch5.gif""style=""height:400px;""></stim_listB>",,html-keyboard-response,365,2285521,0.0-19.0-1.5,40234,List2B,black,man,,,,null,,,,,,,,,
null,is touching,,html-keyboard-response,366,2287526,0.0-19.0-2.5,40234,List2B,black,man,,,,null,,,,,,,,,
11663.1,,,survey-text,367,2299242,0.0-19.0-3.5,40234,List2B,black,man,,,,,"{""Q0"":""Mike is touching dave""}","<img src=""stim_listB/touch5.gif""style=""height:400px;""></stim_listB>",is touching,,,,,,
null,"<div style=""font-size:60px;"">+</div>",,html-keyboard-response,368,2299748,0.0-19.0-0.6,40234,List2B,black,man,,,,null,,,,,,,,,
null,"<img src=""stim_listB/touch6.gif""style=""height:400px;""></stim_listB>",,html-keyboard-response,369,2301757,0.0-19.0-1.6,40234,List2B,black,man,,,,null,,,,,,,,,
null,is being touched by,,html-keyboard-response,370,2303761,0.0-19.0-2.6,40234,List2B,black,man,,,,null,,,,,,,,,
24394.2,,,survey-text,371,2328176,0.0-19.0-3.6,40234,List2B,black,man,,,,,"{""Q0"":""Fred is being touched by luke""}","<img src=""stim_listB/touch6.gif""style=""height:400px;""></stim_listB>",is being touched by,,,,,,
null,"<div style=""font-size:60px;"">+</div>",,html-keyboard-response,372,2328682,0.0-19.0-0.7,40234,List2B,black,man,,,,null,,,,,,,,,
null,"<img src=""stim_listB/greet3.gif""style=""height:400px;""></stim_listB>",,html-keyboard-response,373,2330691,0.0-19.0-1.7,40234,List2B,black,man,,,,null,,,,,,,,,
null,is greeting,,html-keyboard-response,374,2332696,0.0-19.0-2.7,40234,List2B,black,man,,,,null,,,,,,,,,
11369.6,,,survey-text,375,2344125,0.0-19.0-3.7,40234,List2B,black,man,,,,,"{""Q0"":""Beth is greeting mike""}","<img src=""stim_listB/greet3.gif""style=""height:400px;""></stim_listB>",is greeting,,,,,,
null,"<div style=""font-size:60px;"">+</div>",,html-keyboard-response,376,2344631,0.0-19.0-0.8,40234,List2B,black,man,,,,null,,,,,,,,,
null,"<img src=""stim_listB/kiss6.gif""style=""height:400px;""></stim_listB>",,html-keyboard-response,377,2346642,0.0-19.0-1.8,40234,List2B,black,man,,,,null,,,,,,,,,
null,is being kissed by,,html-keyboard-response,378,2348647,0.0-19.0-2.8,40234,List2B,black,man,,,,null,,,,,,,,,
14164.3,,,survey-text,379,2362869,0.0-19.0-3.8,40234,List2B,black,man,,,,,"{""Q0"":""Dave is being kissed by mike""}","<img src=""stim_listB/kiss6.gif""style=""height:400px;""></stim_listB>",is being kissed by,,,,,,
null,"<div style=""font-size:60px;"">+</div>",,html-keyboard-response,380,2363374,0.0-19.0-0.9,40234,List2B,black,man,,,,null,,,,,,,,,
null,"<img src=""stim_listB/touch2.gif""style=""height:400px;""></stim_listB>",,html-keyboard-response,381,2365386,0.0-19.0-1.9,40234,List2B,black,man,,,,null,,,,,,,,,
null,is being touched by,,html-keyboard-response,382,2367395,0.0-19.0-2.9,40234,List2B,black,man,,,,null,,,,,,,,,
19956.1,,,survey-text,383,2387401,0.0-19.0-3.9,40234,List2B,black,man,,,,,"{""Q0"":""Luke is being touched by ruth""}","<img src=""stim_listB/touch2.gif""style=""height:400px;""></stim_listB>",is being touched by,,,,,,
null,"<div style=""font-size:60px;"">+</div>",,html-keyboard-response,384,2387907,0.0-19.0-0.10,40234,List2B,black,man,,,,null,,,,,,,,,
null,"<img src=""stim_listB/seduce1.gif""style=""height:400px;""></stim_listB>",,html-keyboard-response,385,2389916,0.0-19.0-1.10,40234,List2B,black,man,,,,null,,,,,,,,,
null,is seducing,,html-keyboard-response,386,2391925,0.0-19.0-2.10,40234,List2B,black,man,,,,null,,,,,,,,,
15021.3,,,survey-text,387,2407028,0.0-19.0-3.10,40234,List2B,black,man,,,,,"{""Q0"":""Jane is seducing luke""}","<img src=""stim_listB/seduce1.gif""style=""height:400px;""></stim_listB>",is seducing,,,,,,
null,"<div style=""font-size:60px;"">+</div>",,html-keyboard-response,388,2407534,0.0-19.0-0.11,40234,List2B,black,man,,,,null,,,,,,,,,
null,"<img src=""stim_listB/greet4.gif""style=""height:400px;""></stim_listB>",,html-keyboard-response,389,2409546,0.0-19.0-1.11,40234,List2B,black,man,,,,null,,,,,,,,,
null,is being greeted by,,html-keyboard-response,390,2411553,0.0-19.0-2.11,40234,List2B,black,man,,,,null,,,,,,,,,
14624,,,survey-text,391,2426196,0.0-19.0-3.11,40234,List2B,black,man,,,,,"{""Q0"":""Kate is being greeted by fred""}","<img src=""stim_listB/greet4.gif""style=""height:400px;""></stim_listB>",is being greeted by,,,,,,
null,"<div style=""font-size:60px;"">+</div>",,html-keyboard-response,392,2426704,0.0-19.0-0.12,40234,List2B,black,man,,,,null,,,,,,,,,
null,"<img src=""stim_listB/challenge5.gif""style=""height:400px;""></stim_listB>",,html-keyboard-response,393,2428713,0.0-19.0-1.12,40234,List2B,black,man,,,,null,,,,,,,,,
null,is challenging,,html-keyboard-response,394,2430719,0.0-19.0-2.12,40234,List2B,black,man,,,,null,,,,,,,,,
12467.6,,,survey-text,395,2443199,0.0-19.0-3.12,40234,List2B,black,man,,,,,"{""Q0"":""Fred is challenging dave""}","<img src=""stim_listB/challenge5.gif""style=""height:400px;""></stim_listB>",is challenging,,,,,,
null,"<div style=""font-size:60px;"">+</div>",,html-keyboard-response,396,2443705,0.0-19.0-0.13,40234,List2B,black,man,,,,null,,,,,,,,,
null,"<img src=""stim_listB/oppose7.gif""style=""height:400px;""></stim_listB>",,html-keyboard-response,397,2445714,0.0-19.0-1.13,40234,List2B,black,man,,,,null,,,,,,,,,
null,is opposing,,html-keyboard-response,398,2447724,0.0-19.0-2.13,40234,List2B,black,man,,,,null,,,,,,,,,
11909.4,,,survey-text,399,2459683,0.0-19.0-3.13,40234,List2B,black,man,,,,,"{""Q0"":""Kate is opposing jane""}","<img src=""stim_listB/oppose7.gif""style=""height:400px;""></stim_listB>",is opposing,,,,,,
null,"<div style=""font-size:60px;"">+</div>",,html-keyboard-response,400,2460189,0.0-19.0-0.14,40234,List2B,black,man,,,,null,,,,,,,,,
null,"<img src=""stim_listB/hug8.gif""style=""height:400px;""></stim_listB>",,html-keyboard-response,401,2462200,0.0-19.0-1.14,40234,List2B,black,man,,,,null,,,,,,,,,
null,is being hugged by,,html-keyboard-response,402,2464205,0.0-19.0-2.14,40234,List2B,black,man,,,,null,,,,,,,,,
16582.3,,,survey-text,403,2480810,0.0-19.0-3.14,40234,List2B,black,man,,,,,"{""Q0"":""Jane is being hugged by kate""}","<img src=""stim_listB/hug8.gif""style=""height:400px;""></stim_listB>",is being hugged by,,,,,,
null,"<div style=""font-size:60px;"">+</div>",,html-keyboard-response,404,2481315,0.0-19.0-0.15,40234,List2B,black,man,,,,null,,,,,,,,,
null,"<img src=""stim_listB/hug7.gif""style=""height:400px;""></stim_listB>",,html-keyboard-response,405,2483325,0.0-19.0-1.15,40234,List2B,black,man,,,,null,,,,,,,,,
null,is hugging,,html-keyboard-response,406,2485330,0.0-19.0-2.15,40234,List2B,black,man,,,,null,,,,,,,,,
11263.8,,,survey-text,407,2496649,0.0-19.0-3.15,40234,List2B,black,man,,,,,"{""Q0"":""Beth is hugging ruth""}","<img src=""stim_listB/hug7.gif""style=""height:400px;""></stim_listB>",is hugging,,,,,,
null,"<div style=""font-size:60px;"">+</div>",,html-keyboard-response,408,2497155,0.0-19.0-0.16,40234,List2B,black,man,,,,null,,,,,,,,,
null,"<img src=""stim_listB/touch8.gif""style=""height:400px;""></stim_listB>",,html-keyboard-response,409,2499164,0.0-19.0-1.16,40234,List2B,black,man,,,,null,,,,,,,,,
null,is being touched by,,html-keyboard-response,410,2501169,0.0-19.0-2.16,40234,List2B,black,man,,,,null,,,,,,,,,
24430.7,,,survey-text,411,2525618,0.0-19.0-3.16,40234,List2B,black,man,,,,,"{""Q0"":""Ruth is being touched by beth""}","<img src=""stim_listB/touch8.gif""style=""height:400px;""></stim_listB>",is being touched by,,,,,,
null,"<div style=""font-size:60px;"">+</div>",,html-keyboard-response,412,2526124,0.0-19.0-0.17,40234,List2B,black,man,,,,null,,,,,,,,,
null,"<img src=""stim_listB/look8.gif""style=""height:400px;""></stim_listB>",,html-keyboard-response,413,2528133,0.0-19.0-1.17,40234,List2B,black,man,,,,null,,,,,,,,,
null,is being looked at by,,html-keyboard-response,414,2530143,0.0-19.0-2.17,40234,List2B,black,man,,,,null,,,,,,,,,
17552.9,,,survey-text,415,2547746,0.0-19.0-3.17,40234,List2B,black,man,,,,,"{""Q0"":""Jane is being looked at by kate""}","<img src=""stim_listB/look8.gif""style=""height:400px;""></stim_listB>",is being looked at by,,,,,,
null,"<div style=""font-size:60px;"">+</div>",,html-keyboard-response,416,2548252,0.0-19.0-0.18,40234,List2B,black,man,,,,null,,,,,,,,,
null,"<img src=""stim_listB/seduce2.gif""style=""height:400px;""></stim_listB>",,html-keyboard-response,417,2550264,0.0-19.0-1.18,40234,List2B,black,man,,,,null,,,,,,,,,
null,is being seduced by,,html-keyboard-response,418,2552270,0.0-19.0-2.18,40234,List2B,black,man,,,,null,,,,,,,,,
18993.3,,,survey-text,419,2571284,0.0-19.0-3.18,40234,List2B,black,man,,,,,"{""Q0"":""Dave is being seduced by ruth""}","<img src=""stim_listB/seduce2.gif""style=""height:400px;""></stim_listB>",is being seduced by,,,,,,
null,"<div style=""font-size:60px;"">+</div>",,html-keyboard-response,420,2571789,0.0-19.0-0.19,40234,List2B,black,man,,,,null,,,,,,,,,
null,"<img src=""stim_listB/copy3.gif""style=""height:400px;""></stim_listB>",,html-keyboard-response,421,2573798,0.0-19.0-1.19,40234,List2B,black,man,,,,null,,,,,,,,,
null,is copying,,html-keyboard-response,422,2575808,0.0-19.0-2.19,40234,List2B,black,man,,,,null,,,,,,,,,
10990.1,,,survey-text,423,2586846,0.0-19.0-3.19,40234,List2B,black,man,,,,,"{""Q0"":""Beth is copying mike""}","<img src=""stim_listB/copy3.gif""style=""height:400px;""></stim_listB>",is copying,,,,,,
15350.8,<p>Thank you for completing that task.</p><p>The final part of this session is a questionnaire that will take about 4 minutes.</p><p>Press Continue.</p>,0,html-button-response,424,2602205,0.0-20.0,40234,List2B,black,man,,,,,,,,,,,,,
94113.3,,,survey-text,425,2697370,0.0-21.0,40234,List2B,black,man,,,,,"{""Q0"":""34"",""Q1"":""English "",""Q2"":""English"",""Q3"":""United state"",""Q4"":""United state"",""Q5"":""Black American / African "",""Q6"":""Male""}",,,demographics,,,,,
4541.1,<p>Have you lived in the USA for the last 5 years or more?</p>,0,html-button-response,426,2701923,0.0-22.0,40234,List2B,black,man,,,,,,,,fiveyears,,,,,
6154.6,<p>Move the slider to show the extent to which you agree with the following statements.</p>,0,html-button-response,427,2709086,0.0-23.0,40234,List2B,black,man,,,,,,,,,,,,,
9568.2,,,html-slider-response,428,2719673,0.0-24.0-0.0-0.0,40234,List2B,black,man,,,,,,,,survey_gender,38,,,My friends have a lot in common with each other.,filler
5049.8,,,html-slider-response,429,2724737,0.0-24.0-0.0-0.1,40234,List2B,black,man,,,,,,,,survey_gender,62,,,I feel solidarity with my friends.,filler
5867.9,,,html-slider-response,430,2730617,0.0-24.0-0.0-0.2,40234,List2B,black,man,,,,,,,,survey_gender,88,,,I am glad to have the friends that I have.,filler
6774.9,,,html-slider-response,431,2737404,0.0-24.0-0.0-0.3,40234,List2B,black,man,,,,,,,,survey_gender,100,,,It is pleasant to be my gender.,pleasant
7141.7,,,html-slider-response,432,2744560,0.0-24.0-0.0-0.4,40234,List2B,black,man,,,,,,,,survey_gender,94,,,I often think about my actions.,filler
4729.3,,,html-slider-response,433,2749305,0.0-24.0-0.0-0.5,40234,List2B,black,man,,,,,,,,survey_gender,60,,,People of my gender are very similar to each other.,verysimilar
8810.2,,,html-slider-response,434,2758127,0.0-24.0-0.0-0.6,40234,List2B,black,man,,,,,,,,survey_gender,49,,,I often think about the fact that I am my gender.,often
8709.2,,,html-slider-response,435,2766849,0.0-24.0-0.0-0.7,40234,List2B,black,man,,,,,,,,survey_gender,10,,,Family is not more important to me than friendship.,filler
4453.6,,,html-slider-response,436,2771315,0.0-24.0-0.0-0.8,40234,List2B,black,man,,,,,,,,survey_gender,64,,,People of my gender have a lot in common with each other.,common
6408.9,,,html-slider-response,437,2777735,0.0-24.0-0.0-0.9,40234,List2B,black,man,,,,,,,,survey_gender,93,,,My friends understand me.,filler
3785.5,,,html-slider-response,438,2781532,0.0-24.0-0.0-0.10,40234,List2B,black,man,,,,,,,,survey_gender,73,,,I have a lot in common with my friends.,filler
6109.2,,,html-slider-response,439,2787653,0.0-24.0-0.0-0.11,40234,List2B,black,man,,,,,,,,survey_gender,43,,,Routine is not important to me.,filler
4257,,,html-slider-response,440,2791922,0.0-24.0-0.0-0.12,40234,List2B,black,man,,,,,,,,survey_gender,62,,,Most of the friends in my life are very similar to me.,filler
8631.9,,,html-slider-response,441,2800565,0.0-24.0-0.0-0.13,40234,List2B,black,man,,,,,,,,survey_gender,50,,,I consider myself a highly empathetic person.,filler
4288,,,html-slider-response,442,2804866,0.0-24.0-0.0-0.14,40234,List2B,black,man,,,,,,,,survey_gender,58,,,I am similar to the average person of my gender.,similar
3956.4,,,html-slider-response,443,2808834,0.0-24.0-0.0-0.15,40234,List2B,black,man,,,,,,,,survey_gender,88,,,Being my gender is an important part of how I see myself.,important
3872.9,,,html-slider-response,444,2812718,0.0-24.0-0.0-0.16,40234,List2B,black,man,,,,,,,,survey_gender,89,,,Being my gender gives me a good feeling.,feeling
5721,,,html-slider-response,445,2818449,0.0-24.0-0.0-0.17,40234,List2B,black,man,,,,,,,,survey_gender,31,,,I feel a bond with my gender.,bond
4486.3,,,html-slider-response,446,2822948,0.0-24.0-0.0-0.18,40234,List2B,black,man,,,,,,,,survey_gender,38,,,I would say I am an animal person.,filler
4000.6,,,html-slider-response,447,2826965,0.0-24.0-0.0-0.19,40234,List2B,black,man,,,,,,,,survey_gender,86,,,I think that my gender has a lot to be proud of.,proud
2875.7,,,html-slider-response,448,2829853,0.0-24.0-0.0-0.20,40234,List2B,black,man,,,,,,,,survey_gender,88,,,I am glad to be my gender.,glad
3461.5,,,html-slider-response,449,2833335,0.0-24.0-0.0-0.21,40234,List2B,black,man,,,,,,,,survey_gender,88,,,I feel solidarity with my gender.,solidarity
6442.4,,,html-slider-response,450,2839790,0.0-24.0-0.0-0.22,40234,List2B,black,man,,,,,,,,survey_gender,89,,,The fact that I am my gender is an important part of my identity.,identity
5326.2,,,html-slider-response,451,2845128,0.0-24.0-0.0-0.23,40234,List2B,black,man,,,,,,,,survey_gender,89,,,It is not always easy for people to know what I am thinking.,filler
4143,,,html-slider-response,452,2849281,0.0-24.0-0.0-0.24,40234,List2B,black,man,,,,,,,,survey_gender,47,,,I have a lot in common with the average person of my gender.,average
3464.6,,,html-slider-response,453,2852757,0.0-24.0-0.0-0.25,40234,List2B,black,man,,,,,,,,survey_gender,86,,,I feel a bond with my friends.,filler
4863.5,,,html-slider-response,454,2857633,0.0-24.0-0.0-0.26,40234,List2B,black,man,,,,,,,,survey_gender,44,,,I feel committed to my gender.,committed
3381.4,,,html-slider-response,455,2861030,0.0-24.0-0.0-0.27,40234,List2B,black,man,,,,,,,,survey_gender,88,,,Being around my friends gives me a good feeling.,filler
4378,,,html-slider-response,456,2865419,0.0-24.0-1.0-0.0,40234,List2B,black,man,,,,,,,,survey_race,70,,,People of my race have a lot in common with each other.,common
3014.7,,,html-slider-response,457,2868446,0.0-24.0-1.0-0.1,40234,List2B,black,man,,,,,,,,survey_race,82,,,I feel solidarity with my race.,solidarity
12853.6,,,html-slider-response,458,2881307,0.0-24.0-1.0-0.2,40234,List2B,black,man,,,,,,,,survey_race,78,,,My age is not an important part of who I am.,filler
4428,,,html-slider-response,459,2885749,0.0-24.0-1.0-0.3,40234,List2B,black,man,,,,,,,,survey_race,55,,,I feel solidarity with people the same age as me.,filler
4521,,,html-slider-response,460,2890282,0.0-24.0-1.0-0.4,40234,List2B,black,man,,,,,,,,survey_race,80,,,Being my age gives me a good feeling.,filler
4220.7,,,html-slider-response,461,2894516,0.0-24.0-1.0-0.5,40234,List2B,black,man,,,,,,,,survey_race,56,,,I have a lot in common with people of a similar age to me.,filler
3908.4,,,html-slider-response,462,2898436,0.0-24.0-1.0-0.6,40234,List2B,black,man,,,,,,,,survey_race,32,,,I consider myself an introvert.,filler
4446.5,,,html-slider-response,463,2902895,0.0-24.0-1.0-0.7,40234,List2B,black,man,,,,,,,,survey_race,47,,,I feel a bond with people the same age as me.,filler
4131.2,,,html-slider-response,464,2907038,0.0-24.0-1.0-0.8,40234,List2B,black,man,,,,,,,,survey_race,84,,,The fact that I am my race is an important part of my identity.,identity
4067.6,,,html-slider-response,465,2911117,0.0-24.0-1.0-0.9,40234,List2B,black,man,,,,,,,,survey_race,31,,,I enjoy being in large groups.,filler
6042.7,,,html-slider-response,466,2917171,0.0-24.0-1.0-0.10,40234,List2B,black,man,,,,,,,,survey_race,35,,,I often think about the fact that I am my race.,often
3408.6,,,html-slider-response,467,2920592,0.0-24.0-1.0-0.11,40234,List2B,black,man,,,,,,,,survey_race,73,,,I am glad to be the age I am.,filler
3592.9,,,html-slider-response,468,2924196,0.0-24.0-1.0-0.12,40234,List2B,black,man,,,,,,,,survey_race,66,,,I am glad to be my age.,filler
2895.4,,,html-slider-response,469,2927104,0.0-24.0-1.0-0.13,40234,List2B,black,man,,,,,,,,survey_race,86,,,It is pleasant to be my race.,pleasant
4422.6,,,html-slider-response,470,2931535,0.0-24.0-1.0-0.14,40234,List2B,black,man,,,,,,,,survey_race,78,,,"The older I get, the wiser I feel.",filler
2850.3,,,html-slider-response,471,2934398,0.0-24.0-1.0-0.15,40234,List2B,black,man,,,,,,,,survey_race,68,,,I am glad to be my race.,glad
4554.5,,,html-slider-response,472,2938961,0.0-24.0-1.0-0.16,40234,List2B,black,man,,,,,,,,survey_race,45,,,People my age have a lot in common with each other.,filler
2758.2,,,html-slider-response,473,2941731,0.0-24.0-1.0-0.17,40234,List2B,black,man,,,,,,,,survey_race,85,,,I feel a bond with my race.,bond
6882.7,,,html-slider-response,474,2948625,0.0-24.0-1.0-0.18,40234,List2B,black,man,,,,,,,,survey_race,44,,,I am similar to the average person of my race.,similar
5505.2,,,html-slider-response,475,2954143,0.0-24.0-1.0-0.19,40234,List2B,black,man,,,,,,,,survey_race,49,,,I have a lot in common with the average person of my race.,average
3639.7,,,html-slider-response,476,2957794,0.0-24.0-1.0-0.20,40234,List2B,black,man,,,,,,,,survey_race,81,,,Being my race gives me a good feeling.,feeling
3590.7,,,html-slider-response,477,2961399,0.0-24.0-1.0-0.21,40234,List2B,black,man,,,,,,,,survey_race,82,,,I think that my race has a lot to be proud of.,proud
2533.4,,,html-slider-response,478,2963948,0.0-24.0-1.0-0.22,40234,List2B,black,man,,,,,,,,survey_race,82,,,I feel committed to my race.,committed
3214.1,,,html-slider-response,479,2967170,0.0-24.0-1.0-0.23,40234,List2B,black,man,,,,,,,,survey_race,83,,,I consider myself an extrovert.,filler
4033.9,,,html-slider-response,480,2971213,0.0-24.0-1.0-0.24,40234,List2B,black,man,,,,,,,,survey_race,85,,,Getting older does not worry me.,filler
3786.1,,,html-slider-response,481,2975011,0.0-24.0-1.0-0.25,40234,List2B,black,man,,,,,,,,survey_race,38,,,I often think about the fact that I am my age.,filler
4625.6,,,html-slider-response,482,2979649,0.0-24.0-1.0-0.26,40234,List2B,black,man,,,,,,,,survey_race,50,,,People of my race are very similar to each other.,verysimilar
3237.3,,,html-slider-response,483,2982899,0.0-24.0-1.0-0.27,40234,List2B,black,man,,,,,,,,survey_race,88,,,Being my race is an important part of how I see myself.,important
12859.1,,,survey-text,484,2995779,0.0-25.0,40234,List2B,black,man,,,,,"{""Q0"":""ccc""}",,,worker_id,,,,,
48199.5,,,external-html,485,3046091,0.0-26.0,40234,List2B,black,man,debrief.html,,,,,,,,,,,,
