"rt","stimulus","button_pressed","trial_type","trial_index","time_elapsed","internal_node_id","subject","list","ppt_race","ppt_gender","url","first_guess","correct","key_press","responses","image_type","phrase_type","test_part","response","stimulus1","stimulus2","question_type","survey_item"
"2566.7999999821186","Welcome to the experiment. Press Continue to begin.","0","html-button-response","0","2574","0.0-0.0","40510","List2B","white","woman","","","","","","","","","","","","",""
"4598.300000011921","","","external-html","1","8299","0.0-1.0","40510","List2B","white","woman","consent.html","","","","","","","","","","","",""
"7313","<p>On the next page, you will see portraits of 8 people and their names.</p><p>Your first task is to take a few minutes to memorise the names of these people.</p><p>You will have to recall their names during the rest of the experiment, so it is</p><p>essential that you try to memorise these people and their names as best as you can.</p><br><p><strong>You will then be tested on your memory of these names and portraits.</strong></p><br><p>The experiment will start after you have completed this memory test.</p><br><p>Ready?</p>","0","html-button-response","2","15615","0.0-2.0","40510","List2B","white","woman","","","","","","","","","","","","",""
"16331","<img src='img/portrait_matrix_list2.jpg' style='width:900px;height:500px;''></img><p>If you have memorised all the portraits and names and are ready to start, press Continue.</p><p><strong>Please note: Your memory of these faces will be tested 4 times during this experiment.</strong></p>","0","html-button-response","3","32956","0.0-3.0-0.0","40510","List2B","white","woman","","","","","","","","","","","","",""
"5283.5","<img src=""portrait/BW1.jpg""style=""height:400px;""></img>","0","html-button-response","4","39245","0.0-3.0-1.0","40510","List2B","white","woman","","true","0","","","","","","","","","",""
"null","CORRECT","","html-keyboard-response","5","40774","0.0-3.0-2.0-0.0","40510","List2B","white","woman","","","","null","","","","","","","","",""
"5894.700000017881","<img src=""portrait/BM1.jpg""style=""height:400px;""></img>","4","html-button-response","6","46673","0.0-3.0-4.0","40510","List2B","white","woman","","true","4","","","","","","","","","",""
"null","CORRECT","","html-keyboard-response","7","48197","0.0-3.0-5.0-0.0","40510","List2B","white","woman","","","","null","","","","","","","","",""
"6824.4000000059605","<img src=""portrait/BM2.jpg""style=""height:400px;""></img>","5","html-button-response","8","55024","0.0-3.0-7.0","40510","List2B","white","woman","","true","5","","","","","","","","","",""
"null","CORRECT","","html-keyboard-response","9","56542","0.0-3.0-8.0-0.0","40510","List2B","white","woman","","","","null","","","","","","","","",""
"5855.300000011921","<img src=""portrait/WM1.jpg""style=""height:400px;""></img>","6","html-button-response","10","62400","0.0-3.0-10.0","40510","List2B","white","woman","","true","6","","","","","","","","","",""
"null","CORRECT","","html-keyboard-response","11","63925","0.0-3.0-11.0-0.0","40510","List2B","white","woman","","","","null","","","","","","","","",""
"6631.699999988079","<img src=""portrait/WW2.jpg""style=""height:400px;""></img>","3","html-button-response","12","70559","0.0-3.0-13.0","40510","List2B","white","woman","","true","3","","","","","","","","","",""
"null","CORRECT","","html-keyboard-response","13","72069","0.0-3.0-14.0-0.0","40510","List2B","white","woman","","","","null","","","","","","","","",""
"5488.199999988079","<img src=""portrait/WW1.jpg""style=""height:400px;""></img>","1","html-button-response","14","77559","0.0-3.0-16.0","40510","List2B","white","woman","","true","1","","","","","","","","","",""
"null","CORRECT","","html-keyboard-response","15","79080","0.0-3.0-17.0-0.0","40510","List2B","white","woman","","","","null","","","","","","","","",""
"4321.300000011921","<img src=""portrait/BW2.jpg""style=""height:400px;""></img>","2","html-button-response","16","83404","0.0-3.0-19.0","40510","List2B","white","woman","","true","2","","","","","","","","","",""
"null","CORRECT","","html-keyboard-response","17","84911","0.0-3.0-20.0-0.0","40510","List2B","white","woman","","","","null","","","","","","","","",""
"4939.399999976158","<img src=""portrait/WM2.jpg""style=""height:400px;""></img>","7","html-button-response","18","89854","0.0-3.0-22.0","40510","List2B","white","woman","","true","7","","","","","","","","","",""
"null","CORRECT","","html-keyboard-response","19","91371","0.0-3.0-23.0-0.0","40510","List2B","white","woman","","","","null","","","","","","","","",""
"1502","<p>You got 8 out of 8 right first time. Press Continue.</p>","0","html-button-response","20","92876","0.0-3.0-25.0","40510","List2B","white","woman","","","","","","","","","","","","",""
"85741.20000001788","<p>In this experiment, you will view photographs of the people from the memory game interacting.</p><p>By using the <strong>exact</strong> phrase given <i>after</i> the photograph appears and recalling the correct names of the people in the photographs, form a sentence describing the interaction. You do not need to capitalise names.</p><p>Type your answer in the space provided. Please complete every sentence before moving onto the next trial.</p><p>You will only have a few seconds to memorise each given photograph and phrase before you can respond, so try your best to focus.</p><p>An example is given below. Press 'Continue' when you are ready.</p><img src='img/speaking_example.jpg' style='width:800px;height:460px;''></img>","0","html-button-response","21","179623","0.0-4.0","40510","List2B","white","woman","","","","","","","","","","","","",""
"1757","<p>Before the experiment starts, you will watch two example trials. Press 'Continue'.</p>","0","html-button-response","22","182392","0.0-5.0","40510","List2B","white","woman","","","","","","","","","","","","",""
"null","<img src='img/play_eg.gif' style='height:400px;''></img>","","html-keyboard-response","23","185395","0.0-6.0","40510","List2B","white","woman","","","","null","","","","","","","","",""
"null","<p>is playing with</p>","","html-keyboard-response","24","187412","0.0-7.0","40510","List2B","white","woman","","","","null","","","","","","","","",""
"2998.0999999940395","<p><b>Answer:</b> jane is playing with ruth</p>","0","html-button-response","25","190412","0.0-8.0","40510","List2B","white","woman","","","","","","","","","","","","",""
"null","<img src='img/dance_eg.gif' style='height:400px;''></img>","","html-keyboard-response","26","193434","0.0-9.0","40510","List2B","white","woman","","","","null","","","","","","","","",""
"null","<p>is being entertained by</p>","","html-keyboard-response","27","195442","0.0-10.0","40510","List2B","white","woman","","","","null","","","","","","","","",""
"1206.9000000059605","<p><b>Answer:</b> fred is being entertained by mike</p>","0","html-button-response","28","196651","0.0-11.0","40510","List2B","white","woman","","","","","","","","","","","","",""
"4436.5999999940395","<p>Ready to start the experiment?</p><br><p><strong>Remember to describe the picture using a full sentence,</strong></p><p><strong>that combines the names of the people with the <i>exact</i> phrase given.</strong></p><p><strong>To receive full payment you must do this correctly.</strong></p><p><strong> You do not need to capitalise names or use punctuation.</strong></p><br><p>Press 'Continue' to begin.</p>","0","html-button-response","29","202096","0.0-12.0","40510","List2B","white","woman","","","","","","","","","","","","",""
"null","<div style=""font-size:60px;"">+</div>","","html-keyboard-response","30","203613","0.0-13.0-0.0","40510","List2B","white","woman","","","","null","","","","","","","","",""
"null","<img src=""stim_listB/copy1.gif""style=""height:400px;""></stim_listB>","","html-keyboard-response","31","205628","0.0-13.0-1.0","40510","List2B","white","woman","","","","null","","","","","","","","",""
"null","is copying","","html-keyboard-response","32","207633","0.0-13.0-2.0","40510","List2B","white","woman","","","","null","","","","","","","","",""
"37462.19999998808","","","survey-text","33","245104","0.0-13.0-3.0","40510","List2B","white","woman","","","","","{""Q0"":""ruth is copying dave""}","<img src=""stim_listB/copy1.gif""style=""height:400px;""></stim_listB>","is copying","","","","","",""
"null","<div style=""font-size:60px;"">+</div>","","html-keyboard-response","34","245612","0.0-13.0-0.1","40510","List2B","white","woman","","","","null","","","","","","","","",""
"null","<img src=""stim_listB/greet7.gif""style=""height:400px;""></stim_listB>","","html-keyboard-response","35","247625","0.0-13.0-1.1","40510","List2B","white","woman","","","","null","","","","","","","","",""
"null","is greeting","","html-keyboard-response","36","249627","0.0-13.0-2.1","40510","List2B","white","woman","","","","null","","","","","","","","",""
"9013.90000000596","","","survey-text","37","258647","0.0-13.0-3.1","40510","List2B","white","woman","","","","","{""Q0"":""beth is greeting jane""}","<img src=""stim_listB/greet7.gif""style=""height:400px;""></stim_listB>","is greeting","","","","","",""
"null","<div style=""font-size:60px;"">+</div>","","html-keyboard-response","38","259161","0.0-13.0-0.2","40510","List2B","white","woman","","","","null","","","","","","","","",""
"null","<img src=""stim_listB/kiss5.gif""style=""height:400px;""></stim_listB>","","html-keyboard-response","39","261173","0.0-13.0-1.2","40510","List2B","white","woman","","","","null","","","","","","","","",""
"null","is kissing","","html-keyboard-response","40","263175","0.0-13.0-2.2","40510","List2B","white","woman","","","","null","","","","","","","","",""
"8721.59999999404","","","survey-text","41","271902","0.0-13.0-3.2","40510","List2B","white","woman","","","","","{""Q0"":""fred is kissing luke""}","<img src=""stim_listB/kiss5.gif""style=""height:400px;""></stim_listB>","is kissing","","","","","",""
"null","<div style=""font-size:60px;"">+</div>","","html-keyboard-response","42","272407","0.0-13.0-0.3","40510","List2B","white","woman","","","","null","","","","","","","","",""
"null","<img src=""stim_listB/challenge8.gif""style=""height:400px;""></stim_listB>","","html-keyboard-response","43","274414","0.0-13.0-1.3","40510","List2B","white","woman","","","","null","","","","","","","","",""
"null","is being challenged by","","html-keyboard-response","44","276416","0.0-13.0-2.3","40510","List2B","white","woman","","","","null","","","","","","","","",""
"9096.700000017881","","","survey-text","45","285519","0.0-13.0-3.3","40510","List2B","white","woman","","","","","{""Q0"":""ruth is being challenged by kate""}","<img src=""stim_listB/challenge8.gif""style=""height:400px;""></stim_listB>","is being challenged by","","","","","",""
"null","<div style=""font-size:60px;"">+</div>","","html-keyboard-response","46","286028","0.0-13.0-0.4","40510","List2B","white","woman","","","","null","","","","","","","","",""
"null","<img src=""stim_listB/shout6.gif""style=""height:400px;""></stim_listB>","","html-keyboard-response","47","288034","0.0-13.0-1.4","40510","List2B","white","woman","","","","null","","","","","","","","",""
"null","is being shouted at by","","html-keyboard-response","48","290042","0.0-13.0-2.4","40510","List2B","white","woman","","","","null","","","","","","","","",""
"12552","","","survey-text","49","302600","0.0-13.0-3.4","40510","List2B","white","woman","","","","","{""Q0"":""dave is being shouted at by fred""}","<img src=""stim_listB/shout6.gif""style=""height:400px;""></stim_listB>","is being shouted at by","","","","","",""
"null","<div style=""font-size:60px;"">+</div>","","html-keyboard-response","50","303107","0.0-13.0-0.5","40510","List2B","white","woman","","","","null","","","","","","","","",""
"null","<img src=""stim_listB/kiss6.gif""style=""height:400px;""></stim_listB>","","html-keyboard-response","51","305111","0.0-13.0-1.5","40510","List2B","white","woman","","","","null","","","","","","","","",""
"null","is being kissed by","","html-keyboard-response","52","307113","0.0-13.0-2.5","40510","List2B","white","woman","","","","null","","","","","","","","",""
"12059.700000017881","","","survey-text","53","319181","0.0-13.0-3.5","40510","List2B","white","woman","","","","","{""Q0"":""dave is being kissed by mike""}","<img src=""stim_listB/kiss6.gif""style=""height:400px;""></stim_listB>","is being kissed by","","","","","",""
"null","<div style=""font-size:60px;"">+</div>","","html-keyboard-response","54","319688","0.0-13.0-0.6","40510","List2B","white","woman","","","","null","","","","","","","","",""
"null","<img src=""stim_listB/touch2.gif""style=""height:400px;""></stim_listB>","","html-keyboard-response","55","321697","0.0-13.0-1.6","40510","List2B","white","woman","","","","null","","","","","","","","",""
"null","is being touched by","","html-keyboard-response","56","323704","0.0-13.0-2.6","40510","List2B","white","woman","","","","null","","","","","","","","",""
"6607.300000011921","","","survey-text","57","330319","0.0-13.0-3.6","40510","List2B","white","woman","","","","","{""Q0"":""ruth is being touched by luke ""}","<img src=""stim_listB/touch2.gif""style=""height:400px;""></stim_listB>","is being touched by","","","","","",""
"null","<div style=""font-size:60px;"">+</div>","","html-keyboard-response","58","330821","0.0-13.0-0.7","40510","List2B","white","woman","","","","null","","","","","","","","",""
"null","<img src=""stim_listB/look3.gif""style=""height:400px;""></stim_listB>","","html-keyboard-response","59","332833","0.0-13.0-1.7","40510","List2B","white","woman","","","","null","","","","","","","","",""
"null","is looking at","","html-keyboard-response","60","334842","0.0-13.0-2.7","40510","List2B","white","woman","","","","null","","","","","","","","",""
"7254.199999988079","","","survey-text","61","342103","0.0-13.0-3.7","40510","List2B","white","woman","","","","","{""Q0"":""beth is looking at fred ""}","<img src=""stim_listB/look3.gif""style=""height:400px;""></stim_listB>","is looking at","","","","","",""
"null","<div style=""font-size:60px;"">+</div>","","html-keyboard-response","62","342609","0.0-13.0-0.8","40510","List2B","white","woman","","","","null","","","","","","","","",""
"null","<img src=""stim_listB/oppose6.gif""style=""height:400px;""></stim_listB>","","html-keyboard-response","63","344616","0.0-13.0-1.8","40510","List2B","white","woman","","","","null","","","","","","","","",""
"null","is being opposed by","","html-keyboard-response","64","346618","0.0-13.0-2.8","40510","List2B","white","woman","","","","null","","","","","","","","",""
"272139","","","survey-text","65","618764","0.0-13.0-3.8","40510","List2B","white","woman","","","","","{""Q0"":""luke is being opposed by fred""}","<img src=""stim_listB/oppose6.gif""style=""height:400px;""></stim_listB>","is being opposed by","","","","","",""
"null","<div style=""font-size:60px;"">+</div>","","html-keyboard-response","66","619284","0.0-13.0-0.9","40510","List2B","white","woman","","","","null","","","","","","","","",""
"null","<img src=""stim_listB/challenge6.gif""style=""height:400px;""></stim_listB>","","html-keyboard-response","67","621292","0.0-13.0-1.9","40510","List2B","white","woman","","","","null","","","","","","","","",""
"null","is being challenged by","","html-keyboard-response","68","623300","0.0-13.0-2.9","40510","List2B","white","woman","","","","null","","","","","","","","",""
"13184","","","survey-text","69","636491","0.0-13.0-3.9","40510","List2B","white","woman","","","","","{""Q0"":""luke is being challenged by fred""}","<img src=""stim_listB/challenge6.gif""style=""height:400px;""></stim_listB>","is being challenged by","","","","","",""
"null","<div style=""font-size:60px;"">+</div>","","html-keyboard-response","70","636993","0.0-13.0-0.10","40510","List2B","white","woman","","","","null","","","","","","","","",""
"null","<img src=""stim_listB/copy6.gif""style=""height:400px;""></stim_listB>","","html-keyboard-response","71","639011","0.0-13.0-1.10","40510","List2B","white","woman","","","","null","","","","","","","","",""
"null","is being copied by","","html-keyboard-response","72","641015","0.0-13.0-2.10","40510","List2B","white","woman","","","","null","","","","","","","","",""
"10197.59999999404","","","survey-text","73","651218","0.0-13.0-3.10","40510","List2B","white","woman","","","","","{""Q0"":""luke is being copied by mike""}","<img src=""stim_listB/copy6.gif""style=""height:400px;""></stim_listB>","is being copied by","","","","","",""
"null","<div style=""font-size:60px;"">+</div>","","html-keyboard-response","74","651722","0.0-13.0-0.11","40510","List2B","white","woman","","","","null","","","","","","","","",""
"null","<img src=""stim_listB/touch1.gif""style=""height:400px;""></stim_listB>","","html-keyboard-response","75","653729","0.0-13.0-1.11","40510","List2B","white","woman","","","","null","","","","","","","","",""
"null","is touching","","html-keyboard-response","76","655743","0.0-13.0-2.11","40510","List2B","white","woman","","","","null","","","","","","","","",""
"10333.699999988079","","","survey-text","77","666083","0.0-13.0-3.11","40510","List2B","white","woman","","","","","{""Q0"":""jane is touching dave""}","<img src=""stim_listB/touch1.gif""style=""height:400px;""></stim_listB>","is touching","","","","","",""
"null","<div style=""font-size:60px;"">+</div>","","html-keyboard-response","78","666589","0.0-13.0-0.12","40510","List2B","white","woman","","","","null","","","","","","","","",""
"null","<img src=""stim_listB/challenge3.gif""style=""height:400px;""></stim_listB>","","html-keyboard-response","79","668603","0.0-13.0-1.12","40510","List2B","white","woman","","","","null","","","","","","","","",""
"null","is challenging","","html-keyboard-response","80","670612","0.0-13.0-2.12","40510","List2B","white","woman","","","","null","","","","","","","","",""
"10244.199999988079","","","survey-text","81","680862","0.0-13.0-3.12","40510","List2B","white","woman","","","","","{""Q0"":""beth is challenging mike""}","<img src=""stim_listB/challenge3.gif""style=""height:400px;""></stim_listB>","is challenging","","","","","",""
"null","<div style=""font-size:60px;"">+</div>","","html-keyboard-response","82","681376","0.0-13.0-0.13","40510","List2B","white","woman","","","","null","","","","","","","","",""
"null","<img src=""stim_listB/oppose5.gif""style=""height:400px;""></stim_listB>","","html-keyboard-response","83","683382","0.0-13.0-1.13","40510","List2B","white","woman","","","","null","","","","","","","","",""
"null","is opposing","","html-keyboard-response","84","685389","0.0-13.0-2.13","40510","List2B","white","woman","","","","null","","","","","","","","",""
"8400.199999988079","","","survey-text","85","693794","0.0-13.0-3.13","40510","List2B","white","woman","","","","","{""Q0"":""mike is opposing dave""}","<img src=""stim_listB/oppose5.gif""style=""height:400px;""></stim_listB>","is opposing","","","","","",""
"null","<div style=""font-size:60px;"">+</div>","","html-keyboard-response","86","694299","0.0-13.0-0.14","40510","List2B","white","woman","","","","null","","","","","","","","",""
"null","<img src=""stim_listB/look4.gif""style=""height:400px;""></stim_listB>","","html-keyboard-response","87","696304","0.0-13.0-1.14","40510","List2B","white","woman","","","","null","","","","","","","","",""
"null","is being looked at by","","html-keyboard-response","88","698308","0.0-13.0-2.14","40510","List2B","white","woman","","","","null","","","","","","","","",""
"31181.20000001788","","","survey-text","89","729494","0.0-13.0-3.14","40510","List2B","white","woman","","","","","{""Q0"":""kate is being looked at by fred""}","<img src=""stim_listB/look4.gif""style=""height:400px;""></stim_listB>","is being looked at by","","","","","",""
"null","<div style=""font-size:60px;"">+</div>","","html-keyboard-response","90","730006","0.0-13.0-0.15","40510","List2B","white","woman","","","","null","","","","","","","","",""
"null","<img src=""stim_listB/look1.gif""style=""height:400px;""></stim_listB>","","html-keyboard-response","91","732016","0.0-13.0-1.15","40510","List2B","white","woman","","","","null","","","","","","","","",""
"null","is looking at","","html-keyboard-response","92","734027","0.0-13.0-2.15","40510","List2B","white","woman","","","","null","","","","","","","","",""
"9212","","","survey-text","93","743247","0.0-13.0-3.15","40510","List2B","white","woman","","","","","{""Q0"":""ruth is looking at ruth""}","<img src=""stim_listB/look1.gif""style=""height:400px;""></stim_listB>","is looking at","","","","","",""
"null","<div style=""font-size:60px;"">+</div>","","html-keyboard-response","94","743754","0.0-13.0-0.16","40510","List2B","white","woman","","","","null","","","","","","","","",""
"null","<img src=""stim_listB/challenge7.gif""style=""height:400px;""></stim_listB>","","html-keyboard-response","95","745762","0.0-13.0-1.16","40510","List2B","white","woman","","","","null","","","","","","","","",""
"null","is challenging","","html-keyboard-response","96","747764","0.0-13.0-2.16","40510","List2B","white","woman","","","","null","","","","","","","","",""
"10035.399999976158","","","survey-text","97","757805","0.0-13.0-3.16","40510","List2B","white","woman","","","","","{""Q0"":""beth is looking at jane""}","<img src=""stim_listB/challenge7.gif""style=""height:400px;""></stim_listB>","is challenging","","","","","",""
"null","<div style=""font-size:60px;"">+</div>","","html-keyboard-response","98","758323","0.0-13.0-0.17","40510","List2B","white","woman","","","","null","","","","","","","","",""
"null","<img src=""stim_listB/look6.gif""style=""height:400px;""></stim_listB>","","html-keyboard-response","99","760339","0.0-13.0-1.17","40510","List2B","white","woman","","","","null","","","","","","","","",""
"null","is being looked at by","","html-keyboard-response","100","762350","0.0-13.0-2.17","40510","List2B","white","woman","","","","null","","","","","","","","",""
"9105.700000017881","","","survey-text","101","771462","0.0-13.0-3.17","40510","List2B","white","woman","","","","","{""Q0"":""mike is being looked at by dave""}","<img src=""stim_listB/look6.gif""style=""height:400px;""></stim_listB>","is being looked at by","","","","","",""
"null","<div style=""font-size:60px;"">+</div>","","html-keyboard-response","102","771972","0.0-13.0-0.18","40510","List2B","white","woman","","","","null","","","","","","","","",""
"null","<img src=""stim_listB/hug5.gif""style=""height:400px;""></stim_listB>","","html-keyboard-response","103","773985","0.0-13.0-1.18","40510","List2B","white","woman","","","","null","","","","","","","","",""
"null","is hugging","","html-keyboard-response","104","776002","0.0-13.0-2.18","40510","List2B","white","woman","","","","null","","","","","","","","",""
"5047.700000017881","","","survey-text","105","781056","0.0-13.0-3.18","40510","List2B","white","woman","","","","","{""Q0"":""fred is hugging luke ""}","<img src=""stim_listB/hug5.gif""style=""height:400px;""></stim_listB>","is hugging","","","","","",""
"null","<div style=""font-size:60px;"">+</div>","","html-keyboard-response","106","781564","0.0-13.0-0.19","40510","List2B","white","woman","","","","null","","","","","","","","",""
"null","<img src=""stim_listB/copy3.gif""style=""height:400px;""></stim_listB>","","html-keyboard-response","107","783579","0.0-13.0-1.19","40510","List2B","white","woman","","","","null","","","","","","","","",""
"null","is copying","","html-keyboard-response","108","785595","0.0-13.0-2.19","40510","List2B","white","woman","","","","null","","","","","","","","",""
"4370.699999988079","","","survey-text","109","789971","0.0-13.0-3.19","40510","List2B","white","woman","","","","","{""Q0"":""beth is copying mike ""}","<img src=""stim_listB/copy3.gif""style=""height:400px;""></stim_listB>","is copying","","","","","",""
"13834.799999982119","<img src='img/portrait_matrix_list2.jpg' style='width:900px;height:500px;''></img><p>If you have memorised all the portraits and names and are ready to start, press Continue.</p><p><strong>Please note: Your memory of these faces will be tested 4 times during this experiment.</strong></p>","0","html-button-response","110","803809","0.0-14.0-0.0","40510","List2B","white","woman","","","","","","","","","","","","",""
"3664.5","<img src=""portrait/WM2.jpg""style=""height:400px;""></img>","7","html-button-response","111","808485","0.0-14.0-1.0","40510","List2B","white","woman","","true","7","","","","","","","","","",""
"null","CORRECT","","html-keyboard-response","112","809992","0.0-14.0-2.0-0.0","40510","List2B","white","woman","","","","null","","","","","","","","",""
"2883.399999976158","<img src=""portrait/BM2.jpg""style=""height:400px;""></img>","5","html-button-response","113","812878","0.0-14.0-4.0","40510","List2B","white","woman","","true","5","","","","","","","","","",""
"null","CORRECT","","html-keyboard-response","114","814398","0.0-14.0-5.0-0.0","40510","List2B","white","woman","","","","null","","","","","","","","",""
"2358.9000000059605","<img src=""portrait/WW2.jpg""style=""height:400px;""></img>","3","html-button-response","115","816760","0.0-14.0-7.0","40510","List2B","white","woman","","true","3","","","","","","","","","",""
"null","CORRECT","","html-keyboard-response","116","818277","0.0-14.0-8.0-0.0","40510","List2B","white","woman","","","","null","","","","","","","","",""
"2757.0999999940395","<img src=""portrait/BW2.jpg""style=""height:400px;""></img>","2","html-button-response","117","821037","0.0-14.0-10.0","40510","List2B","white","woman","","true","2","","","","","","","","","",""
"null","CORRECT","","html-keyboard-response","118","822560","0.0-14.0-11.0-0.0","40510","List2B","white","woman","","","","null","","","","","","","","",""
"3020","<img src=""portrait/WM1.jpg""style=""height:400px;""></img>","6","html-button-response","119","825583","0.0-14.0-13.0","40510","List2B","white","woman","","true","6","","","","","","","","","",""
"null","CORRECT","","html-keyboard-response","120","827097","0.0-14.0-14.0-0.0","40510","List2B","white","woman","","","","null","","","","","","","","",""
"4071.7999999821186","<img src=""portrait/WW1.jpg""style=""height:400px;""></img>","1","html-button-response","121","831171","0.0-14.0-16.0","40510","List2B","white","woman","","true","1","","","","","","","","","",""
"null","CORRECT","","html-keyboard-response","122","832700","0.0-14.0-17.0-0.0","40510","List2B","white","woman","","","","null","","","","","","","","",""
"6280.300000011921","<img src=""portrait/BW1.jpg""style=""height:400px;""></img>","0","html-button-response","123","838983","0.0-14.0-19.0","40510","List2B","white","woman","","true","0","","","","","","","","","",""
"null","CORRECT","","html-keyboard-response","124","840513","0.0-14.0-20.0-0.0","40510","List2B","white","woman","","","","null","","","","","","","","",""
"15130.399999976158","<img src=""portrait/BM1.jpg""style=""height:400px;""></img>","4","html-button-response","125","855647","0.0-14.0-22.0","40510","List2B","white","woman","","true","4","","","","","","","","","",""
"null","CORRECT","","html-keyboard-response","126","857166","0.0-14.0-23.0-0.0","40510","List2B","white","woman","","","","null","","","","","","","","",""
"43030.79999998212","<p>You got 8 out of 8 right first time. Press Continue.</p>","0","html-button-response","127","900207","0.0-14.0-25.0","40510","List2B","white","woman","","","","","","","","","","","","",""
"null","<div style=""font-size:60px;"">+</div>","","html-keyboard-response","128","901724","0.0-15.0-0.0","40510","List2B","white","woman","","","","null","","","","","","","","",""
"null","<img src=""stim_listB/oppose8.gif""style=""height:400px;""></stim_listB>","","html-keyboard-response","129","903737","0.0-15.0-1.0","40510","List2B","white","woman","","","","null","","","","","","","","",""
"null","is being opposed by","","html-keyboard-response","130","905746","0.0-15.0-2.0","40510","List2B","white","woman","","","","null","","","","","","","","",""
"96996.40000000596","","","survey-text","131","1002750","0.0-15.0-3.0","40510","List2B","white","woman","","","","","{""Q0"":""ruth is being opposed by beth""}","<img src=""stim_listB/oppose8.gif""style=""height:400px;""></stim_listB>","is being opposed by","","","","","",""
"null","<div style=""font-size:60px;"">+</div>","","html-keyboard-response","132","1003264","0.0-15.0-0.1","40510","List2B","white","woman","","","","null","","","","","","","","",""
"null","<img src=""stim_listB/challenge2.gif""style=""height:400px;""></stim_listB>","","html-keyboard-response","133","1005283","0.0-15.0-1.1","40510","List2B","white","woman","","","","null","","","","","","","","",""
"null","is being challenged by","","html-keyboard-response","134","1007285","0.0-15.0-2.1","40510","List2B","white","woman","","","","null","","","","","","","","",""
"10200.800000011921","","","survey-text","135","1017492","0.0-15.0-3.1","40510","List2B","white","woman","","","","","{""Q0"":""jane is being challenged by luke""}","<img src=""stim_listB/challenge2.gif""style=""height:400px;""></stim_listB>","is being challenged by","","","","","",""
"null","<div style=""font-size:60px;"">+</div>","","html-keyboard-response","136","1017994","0.0-15.0-0.2","40510","List2B","white","woman","","","","null","","","","","","","","",""
"null","<img src=""stim_listB/copy7.gif""style=""height:400px;""></stim_listB>","","html-keyboard-response","137","1019997","0.0-15.0-1.2","40510","List2B","white","woman","","","","null","","","","","","","","",""
"null","is copying","","html-keyboard-response","138","1022007","0.0-15.0-2.2","40510","List2B","white","woman","","","","null","","","","","","","","",""
"4834.100000023842","","","survey-text","139","1026847","0.0-15.0-3.2","40510","List2B","white","woman","","","","","{""Q0"":""beth is copying jane""}","<img src=""stim_listB/copy7.gif""style=""height:400px;""></stim_listB>","is copying","","","","","",""
"null","<div style=""font-size:60px;"">+</div>","","html-keyboard-response","140","1027350","0.0-15.0-0.3","40510","List2B","white","woman","","","","null","","","","","","","","",""
"null","<img src=""stim_listB/touch4.gif""style=""height:400px;""></stim_listB>","","html-keyboard-response","141","1029360","0.0-15.0-1.3","40510","List2B","white","woman","","","","null","","","","","","","","",""
"null","is being touched by","","html-keyboard-response","142","1031374","0.0-15.0-2.3","40510","List2B","white","woman","","","","null","","","","","","","","",""
"6957.5999999940395","","","survey-text","143","1038337","0.0-15.0-3.3","40510","List2B","white","woman","","","","","{""Q0"":""beth is being touched by fred ""}","<img src=""stim_listB/touch4.gif""style=""height:400px;""></stim_listB>","is being touched by","","","","","",""
"null","<div style=""font-size:60px;"">+</div>","","html-keyboard-response","144","1038843","0.0-15.0-0.4","40510","List2B","white","woman","","","","null","","","","","","","","",""
"null","<img src=""stim_listB/hug3.gif""style=""height:400px;""></stim_listB>","","html-keyboard-response","145","1040856","0.0-15.0-1.4","40510","List2B","white","woman","","","","null","","","","","","","","",""
"null","is hugging","","html-keyboard-response","146","1042863","0.0-15.0-2.4","40510","List2B","white","woman","","","","null","","","","","","","","",""
"7627.299999982119","","","survey-text","147","1050496","0.0-15.0-3.4","40510","List2B","white","woman","","","","","{""Q0"":""beth is hugging fred ""}","<img src=""stim_listB/hug3.gif""style=""height:400px;""></stim_listB>","is hugging","","","","","",""
"null","<div style=""font-size:60px;"">+</div>","","html-keyboard-response","148","1051004","0.0-15.0-0.5","40510","List2B","white","woman","","","","null","","","","","","","","",""
"null","<img src=""stim_listB/copy8.gif""style=""height:400px;""></stim_listB>","","html-keyboard-response","149","1053012","0.0-15.0-1.5","40510","List2B","white","woman","","","","null","","","","","","","","",""
"null","is being copied by","","html-keyboard-response","150","1055024","0.0-15.0-2.5","40510","List2B","white","woman","","","","null","","","","","","","","",""
"75647.40000000596","","","survey-text","151","1130677","0.0-15.0-3.5","40510","List2B","white","woman","","","","","{""Q0"":""ruth is being copied by kate""}","<img src=""stim_listB/copy8.gif""style=""height:400px;""></stim_listB>","is being copied by","","","","","",""
"null","<div style=""font-size:60px;"">+</div>","","html-keyboard-response","152","1131185","0.0-15.0-0.6","40510","List2B","white","woman","","","","null","","","","","","","","",""
"null","<img src=""stim_listB/hug7.gif""style=""height:400px;""></stim_listB>","","html-keyboard-response","153","1133205","0.0-15.0-1.6","40510","List2B","white","woman","","","","null","","","","","","","","",""
"null","is hugging","","html-keyboard-response","154","1135213","0.0-15.0-2.6","40510","List2B","white","woman","","","","null","","","","","","","","",""
"5537.5999999940395","","","survey-text","155","1140757","0.0-15.0-3.6","40510","List2B","white","woman","","","","","{""Q0"":""ruth is hugging beth""}","<img src=""stim_listB/hug7.gif""style=""height:400px;""></stim_listB>","is hugging","","","","","",""
"null","<div style=""font-size:60px;"">+</div>","","html-keyboard-response","156","1141261","0.0-15.0-0.7","40510","List2B","white","woman","","","","null","","","","","","","","",""
"null","<img src=""stim_listB/copy4.gif""style=""height:400px;""></stim_listB>","","html-keyboard-response","157","1143276","0.0-15.0-1.7","40510","List2B","white","woman","","","","null","","","","","","","","",""
"null","is being copied by","","html-keyboard-response","158","1145283","0.0-15.0-2.7","40510","List2B","white","woman","","","","null","","","","","","","","",""
"35063.89999997616","","","survey-text","159","1180353","0.0-15.0-3.7","40510","List2B","white","woman","","","","","{""Q0"":""kate is being copied by fred""}","<img src=""stim_listB/copy4.gif""style=""height:400px;""></stim_listB>","is being copied by","","","","","",""
"null","<div style=""font-size:60px;"">+</div>","","html-keyboard-response","160","1180857","0.0-15.0-0.8","40510","List2B","white","woman","","","","null","","","","","","","","",""
"null","<img src=""stim_listB/seduce8.gif""style=""height:400px;""></stim_listB>","","html-keyboard-response","161","1182863","0.0-15.0-1.8","40510","List2B","white","woman","","","","null","","","","","","","","",""
"null","is being seduced by","","html-keyboard-response","162","1184879","0.0-15.0-2.8","40510","List2B","white","woman","","","","null","","","","","","","","",""
"33352.69999998808","","","survey-text","163","1218238","0.0-15.0-3.8","40510","List2B","white","woman","","","","","{""Q0"":""beth is being seduced by jane""}","<img src=""stim_listB/seduce8.gif""style=""height:400px;""></stim_listB>","is being seduced by","","","","","",""
"null","<div style=""font-size:60px;"">+</div>","","html-keyboard-response","164","1218745","0.0-15.0-0.9","40510","List2B","white","woman","","","","null","","","","","","","","",""
"null","<img src=""stim_listB/touch8.gif""style=""height:400px;""></stim_listB>","","html-keyboard-response","165","1220754","0.0-15.0-1.9","40510","List2B","white","woman","","","","null","","","","","","","","",""
"null","is being touched by","","html-keyboard-response","166","1222766","0.0-15.0-2.9","40510","List2B","white","woman","","","","null","","","","","","","","",""
"56386.69999998808","","","survey-text","167","1279157","0.0-15.0-3.9","40510","List2B","white","woman","","","","","{""Q0"":""ruth is being touched by beth""}","<img src=""stim_listB/touch8.gif""style=""height:400px;""></stim_listB>","is being touched by","","","","","",""
"null","<div style=""font-size:60px;"">+</div>","","html-keyboard-response","168","1279664","0.0-15.0-0.10","40510","List2B","white","woman","","","","null","","","","","","","","",""
"null","<img src=""stim_listB/oppose1.gif""style=""height:400px;""></stim_listB>","","html-keyboard-response","169","1281675","0.0-15.0-1.10","40510","List2B","white","woman","","","","null","","","","","","","","",""
"null","is opposing","","html-keyboard-response","170","1283686","0.0-15.0-2.10","40510","List2B","white","woman","","","","null","","","","","","","","",""
"8263","","","survey-text","171","1291955","0.0-15.0-3.10","40510","List2B","white","woman","","","","","{""Q0"":""jane is opposing dave""}","<img src=""stim_listB/oppose1.gif""style=""height:400px;""></stim_listB>","is opposing","","","","","",""
"null","<div style=""font-size:60px;"">+</div>","","html-keyboard-response","172","1292463","0.0-15.0-0.11","40510","List2B","white","woman","","","","null","","","","","","","","",""
"null","<img src=""stim_listB/kiss2.gif""style=""height:400px;""></stim_listB>","","html-keyboard-response","173","1294493","0.0-15.0-1.11","40510","List2B","white","woman","","","","null","","","","","","","","",""
"null","is being kissed by","","html-keyboard-response","174","1296500","0.0-15.0-2.11","40510","List2B","white","woman","","","","null","","","","","","","","",""
"44318.69999998808","","","survey-text","175","1340825","0.0-15.0-3.11","40510","List2B","white","woman","","","","","{""Q0"":""jane is being kissed by dave""}","<img src=""stim_listB/kiss2.gif""style=""height:400px;""></stim_listB>","is being kissed by","","","","","",""
"null","<div style=""font-size:60px;"">+</div>","","html-keyboard-response","176","1341330","0.0-15.0-0.12","40510","List2B","white","woman","","","","null","","","","","","","","",""
"null","<img src=""stim_listB/touch7.gif""style=""height:400px;""></stim_listB>","","html-keyboard-response","177","1343338","0.0-15.0-1.12","40510","List2B","white","woman","","","","null","","","","","","","","",""
"null","is touching","","html-keyboard-response","178","1345345","0.0-15.0-2.12","40510","List2B","white","woman","","","","null","","","","","","","","",""
"9809.800000011921","","","survey-text","179","1355160","0.0-15.0-3.12","40510","List2B","white","woman","","","","","{""Q0"":""kate is touching jane""}","<img src=""stim_listB/touch7.gif""style=""height:400px;""></stim_listB>","is touching","","","","","",""
"null","<div style=""font-size:60px;"">+</div>","","html-keyboard-response","180","1355669","0.0-15.0-0.13","40510","List2B","white","woman","","","","null","","","","","","","","",""
"null","<img src=""stim_listB/look8.gif""style=""height:400px;""></stim_listB>","","html-keyboard-response","181","1357679","0.0-15.0-1.13","40510","List2B","white","woman","","","","null","","","","","","","","",""
"null","is being looked at by","","html-keyboard-response","182","1359689","0.0-15.0-2.13","40510","List2B","white","woman","","","","null","","","","","","","","",""
"6389.5","","","survey-text","183","1366084","0.0-15.0-3.13","40510","List2B","white","woman","","","","","{""Q0"":""jane is being looked at by kate""}","<img src=""stim_listB/look8.gif""style=""height:400px;""></stim_listB>","is being looked at by","","","","","",""
"null","<div style=""font-size:60px;"">+</div>","","html-keyboard-response","184","1366592","0.0-15.0-0.14","40510","List2B","white","woman","","","","null","","","","","","","","",""
"null","<img src=""stim_listB/oppose7.gif""style=""height:400px;""></stim_listB>","","html-keyboard-response","185","1368599","0.0-15.0-1.14","40510","List2B","white","woman","","","","null","","","","","","","","",""
"null","is opposing","","html-keyboard-response","186","1370605","0.0-15.0-2.14","40510","List2B","white","woman","","","","null","","","","","","","","",""
"6385.300000011921","","","survey-text","187","1376995","0.0-15.0-3.14","40510","List2B","white","woman","","","","","{""Q0"":""jane is opposing kate""}","<img src=""stim_listB/oppose7.gif""style=""height:400px;""></stim_listB>","is opposing","","","","","",""
"null","<div style=""font-size:60px;"">+</div>","","html-keyboard-response","188","1377503","0.0-15.0-0.15","40510","List2B","white","woman","","","","null","","","","","","","","",""
"null","<img src=""stim_listB/seduce5.gif""style=""height:400px;""></stim_listB>","","html-keyboard-response","189","1379514","0.0-15.0-1.15","40510","List2B","white","woman","","","","null","","","","","","","","",""
"null","is seducing","","html-keyboard-response","190","1381534","0.0-15.0-2.15","40510","List2B","white","woman","","","","null","","","","","","","","",""
"6160.700000047684","","","survey-text","191","1387700","0.0-15.0-3.15","40510","List2B","white","woman","","","","","{""Q0"":""luke is seducing mike""}","<img src=""stim_listB/seduce5.gif""style=""height:400px;""></stim_listB>","is seducing","","","","","",""
"null","<div style=""font-size:60px;"">+</div>","","html-keyboard-response","192","1388215","0.0-15.0-0.16","40510","List2B","white","woman","","","","null","","","","","","","","",""
"null","<img src=""stim_listB/hug1.gif""style=""height:400px;""></stim_listB>","","html-keyboard-response","193","1390225","0.0-15.0-1.16","40510","List2B","white","woman","","","","null","","","","","","","","",""
"null","is hugging","","html-keyboard-response","194","1392227","0.0-15.0-2.16","40510","List2B","white","woman","","","","null","","","","","","","","",""
"3609.300000011921","","","survey-text","195","1395842","0.0-15.0-3.16","40510","List2B","white","woman","","","","","{""Q0"":""luke is hugging ruth""}","<img src=""stim_listB/hug1.gif""style=""height:400px;""></stim_listB>","is hugging","","","","","",""
"null","<div style=""font-size:60px;"">+</div>","","html-keyboard-response","196","1396351","0.0-15.0-0.17","40510","List2B","white","woman","","","","null","","","","","","","","",""
"null","<img src=""stim_listB/challenge5.gif""style=""height:400px;""></stim_listB>","","html-keyboard-response","197","1398361","0.0-15.0-1.17","40510","List2B","white","woman","","","","null","","","","","","","","",""
"null","is challenging","","html-keyboard-response","198","1400365","0.0-15.0-2.17","40510","List2B","white","woman","","","","null","","","","","","","","",""
"9383.699999988079","","","survey-text","199","1409755","0.0-15.0-3.17","40510","List2B","white","woman","","","","","{""Q0"":""fred is challenging dave""}","<img src=""stim_listB/challenge5.gif""style=""height:400px;""></stim_listB>","is challenging","","","","","",""
"null","<div style=""font-size:60px;"">+</div>","","html-keyboard-response","200","1410258","0.0-15.0-0.18","40510","List2B","white","woman","","","","null","","","","","","","","",""
"null","<img src=""stim_listB/seduce6.gif""style=""height:400px;""></stim_listB>","","html-keyboard-response","201","1412270","0.0-15.0-1.18","40510","List2B","white","woman","","","","null","","","","","","","","",""
"null","is being seduced by","","html-keyboard-response","202","1414280","0.0-15.0-2.18","40510","List2B","white","woman","","","","null","","","","","","","","",""
"5869.800000011921","","","survey-text","203","1420156","0.0-15.0-3.18","40510","List2B","white","woman","","","","","{""Q0"":""fred is being seduced by dave""}","<img src=""stim_listB/seduce6.gif""style=""height:400px;""></stim_listB>","is being seduced by","","","","","",""
"null","<div style=""font-size:60px;"">+</div>","","html-keyboard-response","204","1420677","0.0-15.0-0.19","40510","List2B","white","woman","","","","null","","","","","","","","",""
"null","<img src=""stim_listB/greet5.gif""style=""height:400px;""></stim_listB>","","html-keyboard-response","205","1422691","0.0-15.0-1.19","40510","List2B","white","woman","","","","null","","","","","","","","",""
"null","is greeting","","html-keyboard-response","206","1424694","0.0-15.0-2.19","40510","List2B","white","woman","","","","null","","","","","","","","",""
"4282.699999988079","","","survey-text","207","1428982","0.0-15.0-3.19","40510","List2B","white","woman","","","","","{""Q0"":""fred is greeting dave""}","<img src=""stim_listB/greet5.gif""style=""height:400px;""></stim_listB>","is greeting","","","","","",""
"10966.399999976158","<img src='img/portrait_matrix_list2.jpg' style='width:900px;height:500px;''></img><p>If you have memorised all the portraits and names and are ready to start, press Continue.</p><p><strong>Please note: Your memory of these faces will be tested 4 times during this experiment.</strong></p>","0","html-button-response","208","1439951","0.0-16.0-0.0","40510","List2B","white","woman","","","","","","","","","","","","",""
"2288.5","<img src=""portrait/BW2.jpg""style=""height:400px;""></img>","2","html-button-response","209","1443248","0.0-16.0-1.0","40510","List2B","white","woman","","true","2","","","","","","","","","",""
"null","CORRECT","","html-keyboard-response","210","1444776","0.0-16.0-2.0-0.0","40510","List2B","white","woman","","","","null","","","","","","","","",""
"2179","<img src=""portrait/WM1.jpg""style=""height:400px;""></img>","6","html-button-response","211","1446957","0.0-16.0-4.0","40510","List2B","white","woman","","true","6","","","","","","","","","",""
"null","CORRECT","","html-keyboard-response","212","1448467","0.0-16.0-5.0-0.0","40510","List2B","white","woman","","","","null","","","","","","","","",""
"2467.5","<img src=""portrait/WW1.jpg""style=""height:400px;""></img>","1","html-button-response","213","1450936","0.0-16.0-7.0","40510","List2B","white","woman","","true","1","","","","","","","","","",""
"null","CORRECT","","html-keyboard-response","214","1452456","0.0-16.0-8.0-0.0","40510","List2B","white","woman","","","","null","","","","","","","","",""
"2019.6000000238419","<img src=""portrait/BM1.jpg""style=""height:400px;""></img>","4","html-button-response","215","1454478","0.0-16.0-10.0","40510","List2B","white","woman","","true","4","","","","","","","","","",""
"null","CORRECT","","html-keyboard-response","216","1456004","0.0-16.0-11.0-0.0","40510","List2B","white","woman","","","","null","","","","","","","","",""
"1712.5","<img src=""portrait/WW2.jpg""style=""height:400px;""></img>","3","html-button-response","217","1457718","0.0-16.0-13.0","40510","List2B","white","woman","","true","3","","","","","","","","","",""
"null","CORRECT","","html-keyboard-response","218","1459233","0.0-16.0-14.0-0.0","40510","List2B","white","woman","","","","null","","","","","","","","",""
"2501.900000035763","<img src=""portrait/BW1.jpg""style=""height:400px;""></img>","0","html-button-response","219","1461738","0.0-16.0-16.0","40510","List2B","white","woman","","true","0","","","","","","","","","",""
"null","CORRECT","","html-keyboard-response","220","1463256","0.0-16.0-17.0-0.0","40510","List2B","white","woman","","","","null","","","","","","","","",""
"3620.400000035763","<img src=""portrait/WM2.jpg""style=""height:400px;""></img>","7","html-button-response","221","1466879","0.0-16.0-19.0","40510","List2B","white","woman","","true","7","","","","","","","","","",""
"null","CORRECT","","html-keyboard-response","222","1468404","0.0-16.0-20.0-0.0","40510","List2B","white","woman","","","","null","","","","","","","","",""
"2183.900000035763","<img src=""portrait/BM2.jpg""style=""height:400px;""></img>","5","html-button-response","223","1470590","0.0-16.0-22.0","40510","List2B","white","woman","","true","5","","","","","","","","","",""
"null","CORRECT","","html-keyboard-response","224","1472111","0.0-16.0-23.0-0.0","40510","List2B","white","woman","","","","null","","","","","","","","",""
"1445.1000000238419","<p>You got 8 out of 8 right first time. Press Continue.</p>","0","html-button-response","225","1473559","0.0-16.0-25.0","40510","List2B","white","woman","","","","","","","","","","","","",""
"null","<div style=""font-size:60px;"">+</div>","","html-keyboard-response","226","1475072","0.0-17.0-0.0","40510","List2B","white","woman","","","","null","","","","","","","","",""
"null","<img src=""stim_listB/copy5.gif""style=""height:400px;""></stim_listB>","","html-keyboard-response","227","1477084","0.0-17.0-1.0","40510","List2B","white","woman","","","","null","","","","","","","","",""
"null","is copying","","html-keyboard-response","228","1479086","0.0-17.0-2.0","40510","List2B","white","woman","","","","null","","","","","","","","",""
"3659","","","survey-text","229","1482751","0.0-17.0-3.0","40510","List2B","white","woman","","","","","{""Q0"":""fred is copying dave""}","<img src=""stim_listB/copy5.gif""style=""height:400px;""></stim_listB>","is copying","","","","","",""
"null","<div style=""font-size:60px;"">+</div>","","html-keyboard-response","230","1483263","0.0-17.0-0.1","40510","List2B","white","woman","","","","null","","","","","","","","",""
"null","<img src=""stim_listB/seduce2.gif""style=""height:400px;""></stim_listB>","","html-keyboard-response","231","1485280","0.0-17.0-1.1","40510","List2B","white","woman","","","","null","","","","","","","","",""
"null","is being seduced by","","html-keyboard-response","232","1487285","0.0-17.0-2.1","40510","List2B","white","woman","","","","null","","","","","","","","",""
"4018.300000011921","","","survey-text","233","1491310","0.0-17.0-3.1","40510","List2B","white","woman","","","","","{""Q0"":""dave is being seduced by ruth""}","<img src=""stim_listB/seduce2.gif""style=""height:400px;""></stim_listB>","is being seduced by","","","","","",""
"null","<div style=""font-size:60px;"">+</div>","","html-keyboard-response","234","1491821","0.0-17.0-0.2","40510","List2B","white","woman","","","","null","","","","","","","","",""
"null","<img src=""stim_listB/greet8.gif""style=""height:400px;""></stim_listB>","","html-keyboard-response","235","1493836","0.0-17.0-1.2","40510","List2B","white","woman","","","","null","","","","","","","","",""
"null","is being greeted by","","html-keyboard-response","236","1495847","0.0-17.0-2.2","40510","List2B","white","woman","","","","null","","","","","","","","",""
"4756.199999988079","","","survey-text","237","1500610","0.0-17.0-3.2","40510","List2B","white","woman","","","","","{""Q0"":""ruth is being greeted by kate""}","<img src=""stim_listB/greet8.gif""style=""height:400px;""></stim_listB>","is being greeted by","","","","","",""
"null","<div style=""font-size:60px;"">+</div>","","html-keyboard-response","238","1501113","0.0-17.0-0.3","40510","List2B","white","woman","","","","null","","","","","","","","",""
"null","<img src=""stim_listB/oppose4.gif""style=""height:400px;""></stim_listB>","","html-keyboard-response","239","1503128","0.0-17.0-1.3","40510","List2B","white","woman","","","","null","","","","","","","","",""
"null","is being opposed by","","html-keyboard-response","240","1505151","0.0-17.0-2.3","40510","List2B","white","woman","","","","null","","","","","","","","",""
"6646.100000023842","","","survey-text","241","1511803","0.0-17.0-3.3","40510","List2B","white","woman","","","","","{""Q0"":""fred is being opposed by beth""}","<img src=""stim_listB/oppose4.gif""style=""height:400px;""></stim_listB>","is being opposed by","","","","","",""
"null","<div style=""font-size:60px;"">+</div>","","html-keyboard-response","242","1512313","0.0-17.0-0.4","40510","List2B","white","woman","","","","null","","","","","","","","",""
"null","<img src=""stim_listB/oppose3.gif""style=""height:400px;""></stim_listB>","","html-keyboard-response","243","1514321","0.0-17.0-1.4","40510","List2B","white","woman","","","","null","","","","","","","","",""
"null","is opposing","","html-keyboard-response","244","1516325","0.0-17.0-2.4","40510","List2B","white","woman","","","","null","","","","","","","","",""
"4525.199999988079","","","survey-text","245","1520856","0.0-17.0-3.4","40510","List2B","white","woman","","","","","{""Q0"":""kate is opposing mike""}","<img src=""stim_listB/oppose3.gif""style=""height:400px;""></stim_listB>","is opposing","","","","","",""
"null","<div style=""font-size:60px;"">+</div>","","html-keyboard-response","246","1521374","0.0-17.0-0.5","40510","List2B","white","woman","","","","null","","","","","","","","",""
"null","<img src=""stim_listB/greet3.gif""style=""height:400px;""></stim_listB>","","html-keyboard-response","247","1523374","0.0-17.0-1.5","40510","List2B","white","woman","","","","null","","","","","","","","",""
"null","is greeting","","html-keyboard-response","248","1525386","0.0-17.0-2.5","40510","List2B","white","woman","","","","null","","","","","","","","",""
"4583.199999988079","","","survey-text","249","1529975","0.0-17.0-3.5","40510","List2B","white","woman","","","","","{""Q0"":""beth is greeting mike""}","<img src=""stim_listB/greet3.gif""style=""height:400px;""></stim_listB>","is greeting","","","","","",""
"null","<div style=""font-size:60px;"">+</div>","","html-keyboard-response","250","1530484","0.0-17.0-0.6","40510","List2B","white","woman","","","","null","","","","","","","","",""
"null","<img src=""stim_listB/oppose2.gif""style=""height:400px;""></stim_listB>","","html-keyboard-response","251","1532489","0.0-17.0-1.6","40510","List2B","white","woman","","","","null","","","","","","","","",""
"null","is being opposed by","","html-keyboard-response","252","1534493","0.0-17.0-2.6","40510","List2B","white","woman","","","","null","","","","","","","","",""
"5065.400000035763","","","survey-text","253","1539563","0.0-17.0-3.6","40510","List2B","white","woman","","","","","{""Q0"":""ruth is being opposed by luke""}","<img src=""stim_listB/oppose2.gif""style=""height:400px;""></stim_listB>","is being opposed by","","","","","",""
"null","<div style=""font-size:60px;"">+</div>","","html-keyboard-response","254","1540076","0.0-17.0-0.7","40510","List2B","white","woman","","","","null","","","","","","","","",""
"null","<img src=""stim_listB/seduce4.gif""style=""height:400px;""></stim_listB>","","html-keyboard-response","255","1542093","0.0-17.0-1.7","40510","List2B","white","woman","","","","null","","","","","","","","",""
"null","is being seduced by","","html-keyboard-response","256","1544103","0.0-17.0-2.7","40510","List2B","white","woman","","","","null","","","","","","","","",""
"4728.5","","","survey-text","257","1548838","0.0-17.0-3.7","40510","List2B","white","woman","","","","","{""Q0"":""beth is being seduced by mike""}","<img src=""stim_listB/seduce4.gif""style=""height:400px;""></stim_listB>","is being seduced by","","","","","",""
"null","<div style=""font-size:60px;"">+</div>","","html-keyboard-response","258","1549343","0.0-17.0-0.8","40510","List2B","white","woman","","","","null","","","","","","","","",""
"null","<img src=""stim_listB/kiss1.gif""style=""height:400px;""></stim_listB>","","html-keyboard-response","259","1551350","0.0-17.0-1.8","40510","List2B","white","woman","","","","null","","","","","","","","",""
"null","is kissing","","html-keyboard-response","260","1553360","0.0-17.0-2.8","40510","List2B","white","woman","","","","null","","","","","","","","",""
"5992.899999976158","","","survey-text","261","1559359","0.0-17.0-3.8","40510","List2B","white","woman","","","","","{""Q0"":""ruth is kissing luke""}","<img src=""stim_listB/kiss1.gif""style=""height:400px;""></stim_listB>","is kissing","","","","","",""
"null","<div style=""font-size:60px;"">+</div>","","html-keyboard-response","262","1559874","0.0-17.0-0.9","40510","List2B","white","woman","","","","null","","","","","","","","",""
"null","<img src=""stim_listB/shout2.gif""style=""height:400px;""></stim_listB>","","html-keyboard-response","263","1561887","0.0-17.0-1.9","40510","List2B","white","woman","","","","null","","","","","","","","",""
"null","is being shouted at by","","html-keyboard-response","264","1563899","0.0-17.0-2.9","40510","List2B","white","woman","","","","null","","","","","","","","",""
"14737.5","","","survey-text","265","1578643","0.0-17.0-3.9","40510","List2B","white","woman","","","","","{""Q0"":""jane is being shouted at by dave""}","<img src=""stim_listB/shout2.gif""style=""height:400px;""></stim_listB>","is being shouted at by","","","","","",""
"null","<div style=""font-size:60px;"">+</div>","","html-keyboard-response","266","1579153","0.0-17.0-0.10","40510","List2B","white","woman","","","","null","","","","","","","","",""
"null","<img src=""stim_listB/greet6.gif""style=""height:400px;""></stim_listB>","","html-keyboard-response","267","1581170","0.0-17.0-1.10","40510","List2B","white","woman","","","","null","","","","","","","","",""
"null","is being greeted by","","html-keyboard-response","268","1583181","0.0-17.0-2.10","40510","List2B","white","woman","","","","null","","","","","","","","",""
"5997.5","","","survey-text","269","1589184","0.0-17.0-3.10","40510","List2B","white","woman","","","","","{""Q0"":""luke is being greeted by mike""}","<img src=""stim_listB/greet6.gif""style=""height:400px;""></stim_listB>","is being greeted by","","","","","",""
"null","<div style=""font-size:60px;"">+</div>","","html-keyboard-response","270","1589693","0.0-17.0-0.11","40510","List2B","white","woman","","","","null","","","","","","","","",""
"null","<img src=""stim_listB/touch6.gif""style=""height:400px;""></stim_listB>","","html-keyboard-response","271","1591707","0.0-17.0-1.11","40510","List2B","white","woman","","","","null","","","","","","","","",""
"null","is being touched by","","html-keyboard-response","272","1593717","0.0-17.0-2.11","40510","List2B","white","woman","","","","null","","","","","","","","",""
"7060.5","","","survey-text","273","1600783","0.0-17.0-3.11","40510","List2B","white","woman","","","","","{""Q0"":""luke is being touched by fred""}","<img src=""stim_listB/touch6.gif""style=""height:400px;""></stim_listB>","is being touched by","","","","","",""
"null","<div style=""font-size:60px;"">+</div>","","html-keyboard-response","274","1601286","0.0-17.0-0.12","40510","List2B","white","woman","","","","null","","","","","","","","",""
"null","<img src=""stim_listB/touch5.gif""style=""height:400px;""></stim_listB>","","html-keyboard-response","275","1603303","0.0-17.0-1.12","40510","List2B","white","woman","","","","null","","","","","","","","",""
"null","is touching","","html-keyboard-response","276","1605308","0.0-17.0-2.12","40510","List2B","white","woman","","","","null","","","","","","","","",""
"3387.099999964237","","","survey-text","277","1608701","0.0-17.0-3.12","40510","List2B","white","woman","","","","","{""Q0"":""mike is touching dave""}","<img src=""stim_listB/touch5.gif""style=""height:400px;""></stim_listB>","is touching","","","","","",""
"null","<div style=""font-size:60px;"">+</div>","","html-keyboard-response","278","1609217","0.0-17.0-0.13","40510","List2B","white","woman","","","","null","","","","","","","","",""
"null","<img src=""stim_listB/hug6.gif""style=""height:400px;""></stim_listB>","","html-keyboard-response","279","1611224","0.0-17.0-1.13","40510","List2B","white","woman","","","","null","","","","","","","","",""
"null","is being hugged by","","html-keyboard-response","280","1613234","0.0-17.0-2.13","40510","List2B","white","woman","","","","null","","","","","","","","",""
"6980.199999988079","","","survey-text","281","1620221","0.0-17.0-3.13","40510","List2B","white","woman","","","","","{""Q0"":""dave is being hugged by mike""}","<img src=""stim_listB/hug6.gif""style=""height:400px;""></stim_listB>","is being hugged by","","","","","",""
"null","<div style=""font-size:60px;"">+</div>","","html-keyboard-response","282","1620734","0.0-17.0-0.14","40510","List2B","white","woman","","","","null","","","","","","","","",""
"null","<img src=""stim_listB/kiss8.gif""style=""height:400px;""></stim_listB>","","html-keyboard-response","283","1622739","0.0-17.0-1.14","40510","List2B","white","woman","","","","null","","","","","","","","",""
"null","is being kissed by","","html-keyboard-response","284","1624742","0.0-17.0-2.14","40510","List2B","white","woman","","","","null","","","","","","","","",""
"5544.699999988079","","","survey-text","285","1630292","0.0-17.0-3.14","40510","List2B","white","woman","","","","","{""Q0"":""jane is being kissed by kate""}","<img src=""stim_listB/kiss8.gif""style=""height:400px;""></stim_listB>","is being kissed by","","","","","",""
"null","<div style=""font-size:60px;"">+</div>","","html-keyboard-response","286","1630803","0.0-17.0-0.15","40510","List2B","white","woman","","","","null","","","","","","","","",""
"null","<img src=""stim_listB/shout1.gif""style=""height:400px;""></stim_listB>","","html-keyboard-response","287","1632812","0.0-17.0-1.15","40510","List2B","white","woman","","","","null","","","","","","","","",""
"null","is shouting at","","html-keyboard-response","288","1634817","0.0-17.0-2.15","40510","List2B","white","woman","","","","null","","","","","","","","",""
"4353.300000011921","","","survey-text","289","1639177","0.0-17.0-3.15","40510","List2B","white","woman","","","","","{""Q0"":""ruth is shouting at luke""}","<img src=""stim_listB/shout1.gif""style=""height:400px;""></stim_listB>","is shouting at","","","","","",""
"null","<div style=""font-size:60px;"">+</div>","","html-keyboard-response","290","1639693","0.0-17.0-0.16","40510","List2B","white","woman","","","","null","","","","","","","","",""
"null","<img src=""stim_listB/shout3.gif""style=""height:400px;""></stim_listB>","","html-keyboard-response","291","1641706","0.0-17.0-1.16","40510","List2B","white","woman","","","","null","","","","","","","","",""
"null","is shouting at","","html-keyboard-response","292","1643722","0.0-17.0-2.16","40510","List2B","white","woman","","","","null","","","","","","","","",""
"4462.200000047684","","","survey-text","293","1648190","0.0-17.0-3.16","40510","List2B","white","woman","","","","","{""Q0"":""beth is shouting at fred""}","<img src=""stim_listB/shout3.gif""style=""height:400px;""></stim_listB>","is shouting at","","","","","",""
"null","<div style=""font-size:60px;"">+</div>","","html-keyboard-response","294","1648706","0.0-17.0-0.17","40510","List2B","white","woman","","","","null","","","","","","","","",""
"null","<img src=""stim_listB/look5.gif""style=""height:400px;""></stim_listB>","","html-keyboard-response","295","1650714","0.0-17.0-1.17","40510","List2B","white","woman","","","","null","","","","","","","","",""
"null","is looking at","","html-keyboard-response","296","1652727","0.0-17.0-2.17","40510","List2B","white","woman","","","","null","","","","","","","","",""
"4477","","","survey-text","297","1657210","0.0-17.0-3.17","40510","List2B","white","woman","","","","","{""Q0"":""fred is looking at luke""}","<img src=""stim_listB/look5.gif""style=""height:400px;""></stim_listB>","is looking at","","","","","",""
"null","<div style=""font-size:60px;"">+</div>","","html-keyboard-response","298","1657724","0.0-17.0-0.18","40510","List2B","white","woman","","","","null","","","","","","","","",""
"null","<img src=""stim_listB/challenge1.gif""style=""height:400px;""></stim_listB>","","html-keyboard-response","299","1659734","0.0-17.0-1.18","40510","List2B","white","woman","","","","null","","","","","","","","",""
"null","is challenging","","html-keyboard-response","300","1661750","0.0-17.0-2.18","40510","List2B","white","woman","","","","null","","","","","","","","",""
"17053.69999998808","","","survey-text","301","1678812","0.0-17.0-3.18","40510","List2B","white","woman","","","","","{""Q0"":""ruth is challenging dave""}","<img src=""stim_listB/challenge1.gif""style=""height:400px;""></stim_listB>","is challenging","","","","","",""
"null","<div style=""font-size:60px;"">+</div>","","html-keyboard-response","302","1679321","0.0-17.0-0.19","40510","List2B","white","woman","","","","null","","","","","","","","",""
"null","<img src=""stim_listB/hug8.gif""style=""height:400px;""></stim_listB>","","html-keyboard-response","303","1681332","0.0-17.0-1.19","40510","List2B","white","woman","","","","null","","","","","","","","",""
"null","is being hugged by","","html-keyboard-response","304","1683338","0.0-17.0-2.19","40510","List2B","white","woman","","","","null","","","","","","","","",""
"5164.099999964237","","","survey-text","305","1688508","0.0-17.0-3.19","40510","List2B","white","woman","","","","","{""Q0"":""kate is being hugged by jane""}","<img src=""stim_listB/hug8.gif""style=""height:400px;""></stim_listB>","is being hugged by","","","","","",""
"2343.899999976158","<img src='img/portrait_matrix_list2.jpg' style='width:900px;height:500px;''></img><p>If you have memorised all the portraits and names and are ready to start, press Continue.</p><p><strong>Please note: Your memory of these faces will be tested 4 times during this experiment.</strong></p>","0","html-button-response","306","1690855","0.0-18.0-0.0","40510","List2B","white","woman","","","","","","","","","","","","",""
"2944.800000011921","<img src=""portrait/BW2.jpg""style=""height:400px;""></img>","2","html-button-response","307","1694812","0.0-18.0-1.0","40510","List2B","white","woman","","true","2","","","","","","","","","",""
"null","CORRECT","","html-keyboard-response","308","1696325","0.0-18.0-2.0-0.0","40510","List2B","white","woman","","","","null","","","","","","","","",""
"2713.7000000476837","<img src=""portrait/BW1.jpg""style=""height:400px;""></img>","0","html-button-response","309","1699041","0.0-18.0-4.0","40510","List2B","white","woman","","true","0","","","","","","","","","",""
"null","CORRECT","","html-keyboard-response","310","1700562","0.0-18.0-5.0-0.0","40510","List2B","white","woman","","","","null","","","","","","","","",""
"1792.8999999761581","<img src=""portrait/WM1.jpg""style=""height:400px;""></img>","6","html-button-response","311","1702358","0.0-18.0-7.0","40510","List2B","white","woman","","true","6","","","","","","","","","",""
"null","CORRECT","","html-keyboard-response","312","1703874","0.0-18.0-8.0-0.0","40510","List2B","white","woman","","","","null","","","","","","","","",""
"2065.199999988079","<img src=""portrait/BM1.jpg""style=""height:400px;""></img>","4","html-button-response","313","1705942","0.0-18.0-10.0","40510","List2B","white","woman","","true","4","","","","","","","","","",""
"null","CORRECT","","html-keyboard-response","314","1707461","0.0-18.0-11.0-0.0","40510","List2B","white","woman","","","","null","","","","","","","","",""
"1926.3999999761581","<img src=""portrait/BM2.jpg""style=""height:400px;""></img>","5","html-button-response","315","1709391","0.0-18.0-13.0","40510","List2B","white","woman","","true","5","","","","","","","","","",""
"null","CORRECT","","html-keyboard-response","316","1710908","0.0-18.0-14.0-0.0","40510","List2B","white","woman","","","","null","","","","","","","","",""
"2289.800000011921","<img src=""portrait/WM2.jpg""style=""height:400px;""></img>","7","html-button-response","317","1713201","0.0-18.0-16.0","40510","List2B","white","woman","","true","7","","","","","","","","","",""
"null","CORRECT","","html-keyboard-response","318","1714736","0.0-18.0-17.0-0.0","40510","List2B","white","woman","","","","null","","","","","","","","",""
"2266.699999988079","<img src=""portrait/WW1.jpg""style=""height:400px;""></img>","1","html-button-response","319","1717005","0.0-18.0-19.0","40510","List2B","white","woman","","true","1","","","","","","","","","",""
"null","CORRECT","","html-keyboard-response","320","1718522","0.0-18.0-20.0-0.0","40510","List2B","white","woman","","","","null","","","","","","","","",""
"1995.6000000238419","<img src=""portrait/WW2.jpg""style=""height:400px;""></img>","3","html-button-response","321","1720521","0.0-18.0-22.0","40510","List2B","white","woman","","true","3","","","","","","","","","",""
"null","CORRECT","","html-keyboard-response","322","1722048","0.0-18.0-23.0-0.0","40510","List2B","white","woman","","","","null","","","","","","","","",""
"1222.699999988079","<p>You got 8 out of 8 right first time. Press Continue.</p>","0","html-button-response","323","1723273","0.0-18.0-25.0","40510","List2B","white","woman","","","","","","","","","","","","",""
"null","<div style=""font-size:60px;"">+</div>","","html-keyboard-response","324","1724804","0.0-19.0-0.0","40510","List2B","white","woman","","","","null","","","","","","","","",""
"null","<img src=""stim_listB/seduce7.gif""style=""height:400px;""></stim_listB>","","html-keyboard-response","325","1726819","0.0-19.0-1.0","40510","List2B","white","woman","","","","null","","","","","","","","",""
"null","is seducing","","html-keyboard-response","326","1728821","0.0-19.0-2.0","40510","List2B","white","woman","","","","null","","","","","","","","",""
"9275.800000011921","","","survey-text","327","1738102","0.0-19.0-3.0","40510","List2B","white","woman","","","","","{""Q0"":""kate is seducing ruth""}","<img src=""stim_listB/seduce7.gif""style=""height:400px;""></stim_listB>","is seducing","","","","","",""
"null","<div style=""font-size:60px;"">+</div>","","html-keyboard-response","328","1738611","0.0-19.0-0.1","40510","List2B","white","woman","","","","null","","","","","","","","",""
"null","<img src=""stim_listB/look7.gif""style=""height:400px;""></stim_listB>","","html-keyboard-response","329","1740631","0.0-19.0-1.1","40510","List2B","white","woman","","","","null","","","","","","","","",""
"null","is looking at","","html-keyboard-response","330","1742642","0.0-19.0-2.1","40510","List2B","white","woman","","","","null","","","","","","","","",""
"3529.199999988079","","","survey-text","331","1746177","0.0-19.0-3.1","40510","List2B","white","woman","","","","","{""Q0"":""beth is looking at ruth""}","<img src=""stim_listB/look7.gif""style=""height:400px;""></stim_listB>","is looking at","","","","","",""
"null","<div style=""font-size:60px;"">+</div>","","html-keyboard-response","332","1746689","0.0-19.0-0.2","40510","List2B","white","woman","","","","null","","","","","","","","",""
"null","<img src=""stim_listB/shout7.gif""style=""height:400px;""></stim_listB>","","html-keyboard-response","333","1748702","0.0-19.0-1.2","40510","List2B","white","woman","","","","null","","","","","","","","",""
"null","is shouting at","","html-keyboard-response","334","1750708","0.0-19.0-2.2","40510","List2B","white","woman","","","","null","","","","","","","","",""
"6732.800000011921","","","survey-text","335","1757445","0.0-19.0-3.2","40510","List2B","white","woman","","","","","{""Q0"":""beth is shouting at ruth""}","<img src=""stim_listB/shout7.gif""style=""height:400px;""></stim_listB>","is shouting at","","","","","",""
"null","<div style=""font-size:60px;"">+</div>","","html-keyboard-response","336","1757956","0.0-19.0-0.3","40510","List2B","white","woman","","","","null","","","","","","","","",""
"null","<img src=""stim_listB/seduce1.gif""style=""height:400px;""></stim_listB>","","html-keyboard-response","337","1759973","0.0-19.0-1.3","40510","List2B","white","woman","","","","null","","","","","","","","",""
"null","is seducing","","html-keyboard-response","338","1761980","0.0-19.0-2.3","40510","List2B","white","woman","","","","null","","","","","","","","",""
"9673.600000023842","","","survey-text","339","1771660","0.0-19.0-3.3","40510","List2B","white","woman","","","","","{""Q0"":""jane is seducing luke""}","<img src=""stim_listB/seduce1.gif""style=""height:400px;""></stim_listB>","is seducing","","","","","",""
"null","<div style=""font-size:60px;"">+</div>","","html-keyboard-response","340","1772173","0.0-19.0-0.4","40510","List2B","white","woman","","","","null","","","","","","","","",""
"null","<img src=""stim_listB/touch3.gif""style=""height:400px;""></stim_listB>","","html-keyboard-response","341","1774177","0.0-19.0-1.4","40510","List2B","white","woman","","","","null","","","","","","","","",""
"null","is touching","","html-keyboard-response","342","1776185","0.0-19.0-2.4","40510","List2B","white","woman","","","","null","","","","","","","","",""
"2902.399999976158","","","survey-text","343","1779093","0.0-19.0-3.4","40510","List2B","white","woman","","","","","{""Q0"":""kate is touching mike""}","<img src=""stim_listB/touch3.gif""style=""height:400px;""></stim_listB>","is touching","","","","","",""
"null","<div style=""font-size:60px;"">+</div>","","html-keyboard-response","344","1779600","0.0-19.0-0.5","40510","List2B","white","woman","","","","null","","","","","","","","",""
"null","<img src=""stim_listB/greet1.gif""style=""height:400px;""></stim_listB>","","html-keyboard-response","345","1781607","0.0-19.0-1.5","40510","List2B","white","woman","","","","null","","","","","","","","",""
"null","is greeting","","html-keyboard-response","346","1783622","0.0-19.0-2.5","40510","List2B","white","woman","","","","null","","","","","","","","",""
"3089.5","","","survey-text","347","1786717","0.0-19.0-3.5","40510","List2B","white","woman","","","","","{""Q0"":""ruth is greeting dave""}","<img src=""stim_listB/greet1.gif""style=""height:400px;""></stim_listB>","is greeting","","","","","",""
"null","<div style=""font-size:60px;"">+</div>","","html-keyboard-response","348","1787237","0.0-19.0-0.6","40510","List2B","white","woman","","","","null","","","","","","","","",""
"null","<img src=""stim_listB/shout8.gif""style=""height:400px;""></stim_listB>","","html-keyboard-response","349","1789254","0.0-19.0-1.6","40510","List2B","white","woman","","","","null","","","","","","","","",""
"null","is being shouted at by","","html-keyboard-response","350","1791265","0.0-19.0-2.6","40510","List2B","white","woman","","","","null","","","","","","","","",""
"5219.700000047684","","","survey-text","351","1796490","0.0-19.0-3.6","40510","List2B","white","woman","","","","","{""Q0"":""jane is being shouted at by kate""}","<img src=""stim_listB/shout8.gif""style=""height:400px;""></stim_listB>","is being shouted at by","","","","","",""
"null","<div style=""font-size:60px;"">+</div>","","html-keyboard-response","352","1797005","0.0-19.0-0.7","40510","List2B","white","woman","","","","null","","","","","","","","",""
"null","<img src=""stim_listB/copy2.gif""style=""height:400px;""></stim_listB>","","html-keyboard-response","353","1799013","0.0-19.0-1.7","40510","List2B","white","woman","","","","null","","","","","","","","",""
"null","is being copied by","","html-keyboard-response","354","1801016","0.0-19.0-2.7","40510","List2B","white","woman","","","","null","","","","","","","","",""
"5519","","","survey-text","355","1806542","0.0-19.0-3.7","40510","List2B","white","woman","","","","","{""Q0"":""jane is being copied by luke ""}","<img src=""stim_listB/copy2.gif""style=""height:400px;""></stim_listB>","is being copied by","","","","","",""
"null","<div style=""font-size:60px;"">+</div>","","html-keyboard-response","356","1807044","0.0-19.0-0.8","40510","List2B","white","woman","","","","null","","","","","","","","",""
"null","<img src=""stim_listB/look2.gif""style=""height:400px;""></stim_listB>","","html-keyboard-response","357","1809049","0.0-19.0-1.8","40510","List2B","white","woman","","","","null","","","","","","","","",""
"null","is being looked at by","","html-keyboard-response","358","1811065","0.0-19.0-2.8","40510","List2B","white","woman","","","","null","","","","","","","","",""
"6731","","","survey-text","359","1817802","0.0-19.0-3.8","40510","List2B","white","woman","","","","","{""Q0"":""jane is being looked at by dave""}","<img src=""stim_listB/look2.gif""style=""height:400px;""></stim_listB>","is being looked at by","","","","","",""
"null","<div style=""font-size:60px;"">+</div>","","html-keyboard-response","360","1818317","0.0-19.0-0.9","40510","List2B","white","woman","","","","null","","","","","","","","",""
"null","<img src=""stim_listB/kiss7.gif""style=""height:400px;""></stim_listB>","","html-keyboard-response","361","1820329","0.0-19.0-1.9","40510","List2B","white","woman","","","","null","","","","","","","","",""
"null","is kissing","","html-keyboard-response","362","1822337","0.0-19.0-2.9","40510","List2B","white","woman","","","","null","","","","","","","","",""
"2943.399999976158","","","survey-text","363","1825286","0.0-19.0-3.9","40510","List2B","white","woman","","","","","{""Q0"":""beth is kissing ruth""}","<img src=""stim_listB/kiss7.gif""style=""height:400px;""></stim_listB>","is kissing","","","","","",""
"null","<div style=""font-size:60px;"">+</div>","","html-keyboard-response","364","1825793","0.0-19.0-0.10","40510","List2B","white","woman","","","","null","","","","","","","","",""
"null","<img src=""stim_listB/hug4.gif""style=""height:400px;""></stim_listB>","","html-keyboard-response","365","1827800","0.0-19.0-1.10","40510","List2B","white","woman","","","","null","","","","","","","","",""
"null","is being hugged by","","html-keyboard-response","366","1829811","0.0-19.0-2.10","40510","List2B","white","woman","","","","null","","","","","","","","",""
"4542.700000047684","","","survey-text","367","1834360","0.0-19.0-3.10","40510","List2B","white","woman","","","","","{""Q0"":""mike is being hugged by kate""}","<img src=""stim_listB/hug4.gif""style=""height:400px;""></stim_listB>","is being hugged by","","","","","",""
"null","<div style=""font-size:60px;"">+</div>","","html-keyboard-response","368","1834867","0.0-19.0-0.11","40510","List2B","white","woman","","","","null","","","","","","","","",""
"null","<img src=""stim_listB/challenge4.gif""style=""height:400px;""></stim_listB>","","html-keyboard-response","369","1836878","0.0-19.0-1.11","40510","List2B","white","woman","","","","null","","","","","","","","",""
"null","is being challenged by","","html-keyboard-response","370","1838885","0.0-19.0-2.11","40510","List2B","white","woman","","","","null","","","","","","","","",""
"5427.800000011921","","","survey-text","371","1844318","0.0-19.0-3.11","40510","List2B","white","woman","","","","","{""Q0"":""kate is being challenged by fred""}","<img src=""stim_listB/challenge4.gif""style=""height:400px;""></stim_listB>","is being challenged by","","","","","",""
"null","<div style=""font-size:60px;"">+</div>","","html-keyboard-response","372","1844827","0.0-19.0-0.12","40510","List2B","white","woman","","","","null","","","","","","","","",""
"null","<img src=""stim_listB/kiss4.gif""style=""height:400px;""></stim_listB>","","html-keyboard-response","373","1846832","0.0-19.0-1.12","40510","List2B","white","woman","","","","null","","","","","","","","",""
"null","is being kissed by","","html-keyboard-response","374","1848841","0.0-19.0-2.12","40510","List2B","white","woman","","","","null","","","","","","","","",""
"6217.199999988079","","","survey-text","375","1855064","0.0-19.0-3.12","40510","List2B","white","woman","","","","","{""Q0"":""mike is being kissed by kate""}","<img src=""stim_listB/kiss4.gif""style=""height:400px;""></stim_listB>","is being kissed by","","","","","",""
"null","<div style=""font-size:60px;"">+</div>","","html-keyboard-response","376","1855574","0.0-19.0-0.13","40510","List2B","white","woman","","","","null","","","","","","","","",""
"null","<img src=""stim_listB/shout4.gif""style=""height:400px;""></stim_listB>","","html-keyboard-response","377","1857597","0.0-19.0-1.13","40510","List2B","white","woman","","","","null","","","","","","","","",""
"null","is being shouted at by","","html-keyboard-response","378","1859600","0.0-19.0-2.13","40510","List2B","white","woman","","","","null","","","","","","","","",""
"4986.5","","","survey-text","379","1864597","0.0-19.0-3.13","40510","List2B","white","woman","","","","","{""Q0"":""mike is being shouted at by kate""}","<img src=""stim_listB/shout4.gif""style=""height:400px;""></stim_listB>","is being shouted at by","","","","","",""
"null","<div style=""font-size:60px;"">+</div>","","html-keyboard-response","380","1865104","0.0-19.0-0.14","40510","List2B","white","woman","","","","null","","","","","","","","",""
"null","<img src=""stim_listB/seduce3.gif""style=""height:400px;""></stim_listB>","","html-keyboard-response","381","1867109","0.0-19.0-1.14","40510","List2B","white","woman","","","","null","","","","","","","","",""
"null","is seducing","","html-keyboard-response","382","1869112","0.0-19.0-2.14","40510","List2B","white","woman","","","","null","","","","","","","","",""
"13656.300000011921","","","survey-text","383","1882775","0.0-19.0-3.14","40510","List2B","white","woman","","","","","{""Q0"":""kate is seducing fred""}","<img src=""stim_listB/seduce3.gif""style=""height:400px;""></stim_listB>","is seducing","","","","","",""
"null","<div style=""font-size:60px;"">+</div>","","html-keyboard-response","384","1883279","0.0-19.0-0.15","40510","List2B","white","woman","","","","null","","","","","","","","",""
"null","<img src=""stim_listB/kiss3.gif""style=""height:400px;""></stim_listB>","","html-keyboard-response","385","1885288","0.0-19.0-1.15","40510","List2B","white","woman","","","","null","","","","","","","","",""
"null","is kissing","","html-keyboard-response","386","1887297","0.0-19.0-2.15","40510","List2B","white","woman","","","","null","","","","","","","","",""
"22397.200000047684","","","survey-text","387","1909698","0.0-19.0-3.15","40510","List2B","white","woman","","","","","{""Q0"":""fred is kissing beth""}","<img src=""stim_listB/kiss3.gif""style=""height:400px;""></stim_listB>","is kissing","","","","","",""
"null","<div style=""font-size:60px;"">+</div>","","html-keyboard-response","388","1910205","0.0-19.0-0.16","40510","List2B","white","woman","","","","null","","","","","","","","",""
"null","<img src=""stim_listB/greet4.gif""style=""height:400px;""></stim_listB>","","html-keyboard-response","389","1912212","0.0-19.0-1.16","40510","List2B","white","woman","","","","null","","","","","","","","",""
"null","is being greeted by","","html-keyboard-response","390","1914222","0.0-19.0-2.16","40510","List2B","white","woman","","","","null","","","","","","","","",""
"6109.800000011921","","","survey-text","391","1920338","0.0-19.0-3.16","40510","List2B","white","woman","","","","","{""Q0"":""fred is being greeted by kate""}","<img src=""stim_listB/greet4.gif""style=""height:400px;""></stim_listB>","is being greeted by","","","","","",""
"null","<div style=""font-size:60px;"">+</div>","","html-keyboard-response","392","1920852","0.0-19.0-0.17","40510","List2B","white","woman","","","","null","","","","","","","","",""
"null","<img src=""stim_listB/hug2.gif""style=""height:400px;""></stim_listB>","","html-keyboard-response","393","1922859","0.0-19.0-1.17","40510","List2B","white","woman","","","","null","","","","","","","","",""
"null","is being hugged by","","html-keyboard-response","394","1924863","0.0-19.0-2.17","40510","List2B","white","woman","","","","null","","","","","","","","",""
"6488.800000011921","","","survey-text","395","1931356","0.0-19.0-3.17","40510","List2B","white","woman","","","","","{""Q0"":""jane is being hugged by dave""}","<img src=""stim_listB/hug2.gif""style=""height:400px;""></stim_listB>","is being hugged by","","","","","",""
"null","<div style=""font-size:60px;"">+</div>","","html-keyboard-response","396","1931864","0.0-19.0-0.18","40510","List2B","white","woman","","","","null","","","","","","","","",""
"null","<img src=""stim_listB/greet2.gif""style=""height:400px;""></stim_listB>","","html-keyboard-response","397","1933875","0.0-19.0-1.18","40510","List2B","white","woman","","","","null","","","","","","","","",""
"null","is being greeted by","","html-keyboard-response","398","1935879","0.0-19.0-2.18","40510","List2B","white","woman","","","","null","","","","","","","","",""
"27659.5","","","survey-text","399","1963546","0.0-19.0-3.18","40510","List2B","white","woman","","","","","{""Q0"":""luke is being greeted by jane""}","<img src=""stim_listB/greet2.gif""style=""height:400px;""></stim_listB>","is being greeted by","","","","","",""
"null","<div style=""font-size:60px;"">+</div>","","html-keyboard-response","400","1964067","0.0-19.0-0.19","40510","List2B","white","woman","","","","null","","","","","","","","",""
"null","<img src=""stim_listB/shout5.gif""style=""height:400px;""></stim_listB>","","html-keyboard-response","401","1966092","0.0-19.0-1.19","40510","List2B","white","woman","","","","null","","","","","","","","",""
"null","is shouting at","","html-keyboard-response","402","1968116","0.0-19.0-2.19","40510","List2B","white","woman","","","","null","","","","","","","","",""
"8109.399999976158","","","survey-text","403","1976228","0.0-19.0-3.19","40510","List2B","white","woman","","","","","{""Q0"":""fred is shouting at luke""}","<img src=""stim_listB/shout5.gif""style=""height:400px;""></stim_listB>","is shouting at","","","","","",""
"1678.6000000238419","<p>Thank you for completing that task.</p><p>The final part of this session is a questionnaire that will take about 4 minutes.</p><p>Press Continue.</p>","0","html-button-response","404","1977908","0.0-20.0","40510","List2B","white","woman","","","","","","","","","","","","",""
"16724.400000035763","","","survey-text","405","1995659","0.0-21.0","40510","List2B","white","woman","","","","","{""Q0"":""21"",""Q1"":""english"",""Q2"":""english"",""Q3"":""USA"",""Q4"":""serbian"",""Q5"":""white"",""Q6"":""female ""}","","","demographics","","","","",""
"1423.5","<p>Have you lived in the USA for the last 5 years or more?</p>","0","html-button-response","406","1997085","0.0-22.0","40510","List2B","white","woman","","","","","","","","fiveyears","","","","",""
"2726.600000023842","<p>Move the slider to show the extent to which you agree with the following statements.</p>","0","html-button-response","407","2000826","0.0-23.0","40510","List2B","white","woman","","","","","","","","","","","","",""
"4868.699999988079","","","html-slider-response","408","2006713","0.0-24.0-0.0-0.0","40510","List2B","white","woman","","","","","","","","survey_gender","31","","","I often think about the fact that I am my gender.","often"
"1909.6000000238419","","","html-slider-response","409","2008626","0.0-24.0-0.0-0.1","40510","List2B","white","woman","","","","","","","","survey_gender","68","","","I would say I am an animal person.","filler"
"2203.600000023842","","","html-slider-response","410","2010832","0.0-24.0-0.0-0.2","40510","List2B","white","woman","","","","","","","","survey_gender","76","","","The fact that I am my gender is an important part of my identity.","identity"
"2435.600000023842","","","html-slider-response","411","2013270","0.0-24.0-0.0-0.3","40510","List2B","white","woman","","","","","","","","survey_gender","25","","","It is not always easy for people to know what I am thinking.","filler"
"1423.4000000357628","","","html-slider-response","412","2014695","0.0-24.0-0.0-0.4","40510","List2B","white","woman","","","","","","","","survey_gender","71","","","Being my gender gives me a good feeling.","feeling"
"2028.1000000238419","","","html-slider-response","413","2016726","0.0-24.0-0.0-0.5","40510","List2B","white","woman","","","","","","","","survey_gender","81","","","I feel a bond with my gender.","bond"
"2005.4000000357628","","","html-slider-response","414","2018734","0.0-24.0-0.0-0.6","40510","List2B","white","woman","","","","","","","","survey_gender","74","","","People of my gender have a lot in common with each other.","common"
"1823.2000000476837","","","html-slider-response","415","2020560","0.0-24.0-0.0-0.7","40510","List2B","white","woman","","","","","","","","survey_gender","90","","","I think that my gender has a lot to be proud of.","proud"
"1369","","","html-slider-response","416","2021931","0.0-24.0-0.0-0.8","40510","List2B","white","woman","","","","","","","","survey_gender","83","","","I feel committed to my gender.","committed"
"1646.300000011921","","","html-slider-response","417","2023580","0.0-24.0-0.0-0.9","40510","List2B","white","woman","","","","","","","","survey_gender","90","","","Being around my friends gives me a good feeling.","filler"
"3455.699999988079","","","html-slider-response","418","2027037","0.0-24.0-0.0-0.10","40510","List2B","white","woman","","","","","","","","survey_gender","53","","","Family is not more important to me than friendship.","filler"
"1867.699999988079","","","html-slider-response","419","2028907","0.0-24.0-0.0-0.11","40510","List2B","white","woman","","","","","","","","survey_gender","91","","","Being my gender is an important part of how I see myself.","important"
"1925.699999988079","","","html-slider-response","420","2030835","0.0-24.0-0.0-0.12","40510","List2B","white","woman","","","","","","","","survey_gender","95","","","My friends understand me.","filler"
"1357.9000000357628","","","html-slider-response","421","2032195","0.0-24.0-0.0-0.13","40510","List2B","white","woman","","","","","","","","survey_gender","96","","","I feel solidarity with my friends.","filler"
"1762.5","","","html-slider-response","422","2033960","0.0-24.0-0.0-0.14","40510","List2B","white","woman","","","","","","","","survey_gender","79","","","I feel solidarity with my gender.","solidarity"
"1754.3999999761581","","","html-slider-response","423","2035716","0.0-24.0-0.0-0.15","40510","List2B","white","woman","","","","","","","","survey_gender","92","","","I am glad to be my gender.","glad"
"1406.5","","","html-slider-response","424","2037125","0.0-24.0-0.0-0.16","40510","List2B","white","woman","","","","","","","","survey_gender","96","","","I am glad to have the friends that I have.","filler"
"2153.599999964237","","","html-slider-response","425","2039281","0.0-24.0-0.0-0.17","40510","List2B","white","woman","","","","","","","","survey_gender","87","","","Most of the friends in my life are very similar to me.","filler"
"1911.3999999761581","","","html-slider-response","426","2041195","0.0-24.0-0.0-0.18","40510","List2B","white","woman","","","","","","","","survey_gender","78","","","I often think about my actions.","filler"
"2108","","","html-slider-response","427","2043305","0.0-24.0-0.0-0.19","40510","List2B","white","woman","","","","","","","","survey_gender","83","","","I consider myself a highly empathetic person.","filler"
"1983.4000000357628","","","html-slider-response","428","2045290","0.0-24.0-0.0-0.20","40510","List2B","white","woman","","","","","","","","survey_gender","45","","","I am similar to the average person of my gender.","similar"
"1246.199999988079","","","html-slider-response","429","2046539","0.0-24.0-0.0-0.21","40510","List2B","white","woman","","","","","","","","survey_gender","80","","","I feel a bond with my friends.","filler"
"1447.699999988079","","","html-slider-response","430","2047989","0.0-24.0-0.0-0.22","40510","List2B","white","woman","","","","","","","","survey_gender","78","","","My friends have a lot in common with each other.","filler"
"2159.899999976158","","","html-slider-response","431","2050151","0.0-24.0-0.0-0.23","40510","List2B","white","woman","","","","","","","","survey_gender","42","","","People of my gender are very similar to each other.","verysimilar"
"2363.199999988079","","","html-slider-response","432","2052517","0.0-24.0-0.0-0.24","40510","List2B","white","woman","","","","","","","","survey_gender","30","","","Routine is not important to me.","filler"
"1744.300000011921","","","html-slider-response","433","2054263","0.0-24.0-0.0-0.25","40510","List2B","white","woman","","","","","","","","survey_gender","64","","","I have a lot in common with the average person of my gender.","average"
"1530.300000011921","","","html-slider-response","434","2055796","0.0-24.0-0.0-0.26","40510","List2B","white","woman","","","","","","","","survey_gender","89","","","It is pleasant to be my gender.","pleasant"
"1417.5","","","html-slider-response","435","2057215","0.0-24.0-0.0-0.27","40510","List2B","white","woman","","","","","","","","survey_gender","86","","","I have a lot in common with my friends.","filler"
"1616.5","","","html-slider-response","436","2058834","0.0-24.0-1.0-0.0","40510","List2B","white","woman","","","","","","","","survey_race","75","","","I have a lot in common with people of a similar age to me.","filler"
"1304.300000011921","","","html-slider-response","437","2060141","0.0-24.0-1.0-0.1","40510","List2B","white","woman","","","","","","","","survey_race","75","","","People of my race have a lot in common with each other.","common"
"1329.800000011921","","","html-slider-response","438","2061473","0.0-24.0-1.0-0.2","40510","List2B","white","woman","","","","","","","","survey_race","79","","","I am glad to be my age.","filler"
"2041.300000011921","","","html-slider-response","439","2063517","0.0-24.0-1.0-0.3","40510","List2B","white","woman","","","","","","","","survey_race","58","","","I often think about the fact that I am my age.","filler"
"1973","","","html-slider-response","440","2065492","0.0-24.0-1.0-0.4","40510","List2B","white","woman","","","","","","","","survey_race","53","","","I feel a bond with my race.","bond"
"1658.5","","","html-slider-response","441","2067153","0.0-24.0-1.0-0.5","40510","List2B","white","woman","","","","","","","","survey_race","81","","","I feel a bond with people the same age as me.","filler"
"1635.5","","","html-slider-response","442","2068790","0.0-24.0-1.0-0.6","40510","List2B","white","woman","","","","","","","","survey_race","40","","","I often think about the fact that I am my race.","often"
"1469.8999999761581","","","html-slider-response","443","2070263","0.0-24.0-1.0-0.7","40510","List2B","white","woman","","","","","","","","survey_race","78","","","Being my race gives me a good feeling.","feeling"
"1378.300000011921","","","html-slider-response","444","2071643","0.0-24.0-1.0-0.8","40510","List2B","white","woman","","","","","","","","survey_race","78","","","The fact that I am my race is an important part of my identity.","identity"
"2028.300000011921","","","html-slider-response","445","2073674","0.0-24.0-1.0-0.9","40510","List2B","white","woman","","","","","","","","survey_race","75","","","The older I get, the wiser I feel.","filler"
"1782.3999999761581","","","html-slider-response","446","2075458","0.0-24.0-1.0-0.10","40510","List2B","white","woman","","","","","","","","survey_race","78","","","I think that my race has a lot to be proud of.","proud"
"2407.100000023842","","","html-slider-response","447","2077867","0.0-24.0-1.0-0.11","40510","List2B","white","woman","","","","","","","","survey_race","34","","","Getting older does not worry me.","filler"
"1419","","","html-slider-response","448","2079289","0.0-24.0-1.0-0.12","40510","List2B","white","woman","","","","","","","","survey_race","70","","","People of my race are very similar to each other.","verysimilar"
"1775.5","","","html-slider-response","449","2081066","0.0-24.0-1.0-0.13","40510","List2B","white","woman","","","","","","","","survey_race","12","","","I consider myself an extrovert.","filler"
"1646.8999999761581","","","html-slider-response","450","2082715","0.0-24.0-1.0-0.14","40510","List2B","white","woman","","","","","","","","survey_race","91","","","I am glad to be the age I am.","filler"
"1294.6000000238419","","","html-slider-response","451","2084012","0.0-24.0-1.0-0.15","40510","List2B","white","woman","","","","","","","","survey_race","84","","","I have a lot in common with the average person of my race.","average"
"1243.5999999642372","","","html-slider-response","452","2085258","0.0-24.0-1.0-0.16","40510","List2B","white","woman","","","","","","","","survey_race","80","","","Being my race is an important part of how I see myself.","important"
"2048.399999976158","","","html-slider-response","453","2087308","0.0-24.0-1.0-0.17","40510","List2B","white","woman","","","","","","","","survey_race","76","","","I am similar to the average person of my race.","similar"
"1208.3999999761581","","","html-slider-response","454","2088519","0.0-24.0-1.0-0.18","40510","List2B","white","woman","","","","","","","","survey_race","85","","","It is pleasant to be my race.","pleasant"
"1535.1000000238419","","","html-slider-response","455","2090056","0.0-24.0-1.0-0.19","40510","List2B","white","woman","","","","","","","","survey_race","76","","","People my age have a lot in common with each other.","filler"
"2862.399999976158","","","html-slider-response","456","2092921","0.0-24.0-1.0-0.20","40510","List2B","white","woman","","","","","","","","survey_race","87","","","I feel committed to my race.","committed"
"2213.5","","","html-slider-response","457","2095137","0.0-24.0-1.0-0.21","40510","List2B","white","woman","","","","","","","","survey_race","42","","","My age is not an important part of who I am.","filler"
"1830.300000011921","","","html-slider-response","458","2096970","0.0-24.0-1.0-0.22","40510","List2B","white","woman","","","","","","","","survey_race","81","","","I feel solidarity with people the same age as me.","filler"
"1060.8999999761581","","","html-slider-response","459","2098033","0.0-24.0-1.0-0.23","40510","List2B","white","woman","","","","","","","","survey_race","80","","","I feel solidarity with my race.","solidarity"
"1161.2999999523163","","","html-slider-response","460","2099197","0.0-24.0-1.0-0.24","40510","List2B","white","woman","","","","","","","","survey_race","80","","","Being my age gives me a good feeling.","filler"
"955.1000000238419","","","html-slider-response","461","2100154","0.0-24.0-1.0-0.25","40510","List2B","white","woman","","","","","","","","survey_race","80","","","I am glad to be my race.","glad"
"1657.699999988079","","","html-slider-response","462","2101814","0.0-24.0-1.0-0.26","40510","List2B","white","woman","","","","","","","","survey_race","94","","","I consider myself an introvert.","filler"
"2158.5","","","html-slider-response","463","2103975","0.0-24.0-1.0-0.27","40510","List2B","white","woman","","","","","","","","survey_race","19","","","I enjoy being in large groups.","filler"
"9307.699999988079","","","survey-text","464","2113292","0.0-25.0","40510","List2B","white","woman","","","","","{""Q0"":""6117fe76d5ad40d16013994b""}","","","worker_id","","","","",""
"15847.199999988079","","","external-html","465","2154164","0.0-26.0","40510","List2B","white","woman","debrief.html","","","","","","","","","","","",""
