rt,stimulus,button_pressed,trial_type,trial_index,time_elapsed,internal_node_id,subject,list,ppt_race,ppt_gender,url,first_guess,correct,key_press,responses,image_type,phrase_type,test_part,response,stimulus1,stimulus2,question_type,survey_item
1716.5,Welcome to the experiment. Press Continue to begin.,0,html-button-response,0,1718,0.0-0.0,40873,List1B,black,woman,,,,,,,,,,,,,
26602.9,,,external-html,1,29442,0.0-1.0,40873,List1B,black,woman,consent.html,,,,,,,,,,,,
11219,"<p>On the next page, you will see portraits of 8 people and their names.</p><p>Your first task is to take a few minutes to memorise the names of these people.</p><p>You will have to recall their names during the rest of the experiment, so it is</p><p>essential that you try to memorise these people and their names as best as you can.</p><br><p><strong>You will then be tested on your memory of these names and portraits.</strong></p><br><p>The experiment will start after you have completed this memory test.</p><br><p>Ready?</p>",0,html-button-response,2,40662,0.0-2.0,40873,List1B,black,woman,,,,,,,,,,,,,
49271,"<img src='img/portrait_matrix_list1.jpg' style='width:900px;height:500px;''></img><p>If you have memorised all the portraits and names and are ready to start, press Continue.</p><p><strong>Please note: Your memory of these faces will be tested 4 times during this experiment.</strong></p>",0,html-button-response,3,90946,0.0-3.0-0.0,40873,List1B,black,woman,,,,,,,,,,,,,
3865.7,"<img src=""portrait/WM2.jpg""style=""height:400px;""></img>",7,html-button-response,4,95825,0.0-3.0-1.0,40873,List1B,black,woman,,TRUE,7,,,,,,,,,,
null,CORRECT,,html-keyboard-response,5,97351,0.0-3.0-2.0-0.0,40873,List1B,black,woman,,,,null,,,,,,,,,
4416.3,"<img src=""portrait/BM2.jpg""style=""height:400px;""></img>",5,html-button-response,6,101769,0.0-3.0-4.0,40873,List1B,black,woman,,TRUE,5,,,,,,,,,,
null,CORRECT,,html-keyboard-response,7,103298,0.0-3.0-5.0-0.0,40873,List1B,black,woman,,,,null,,,,,,,,,
2532.7,"<img src=""portrait/WW2.jpg""style=""height:400px;""></img>",3,html-button-response,8,105831,0.0-3.0-7.0,40873,List1B,black,woman,,TRUE,3,,,,,,,,,,
null,CORRECT,,html-keyboard-response,9,107343,0.0-3.0-8.0-0.0,40873,List1B,black,woman,,,,null,,,,,,,,,
2799.3,"<img src=""portrait/WM1.jpg""style=""height:400px;""></img>",6,html-button-response,10,110143,0.0-3.0-10.0,40873,List1B,black,woman,,TRUE,6,,,,,,,,,,
null,CORRECT,,html-keyboard-response,11,111655,0.0-3.0-11.0-0.0,40873,List1B,black,woman,,,,null,,,,,,,,,
7712.4,"<img src=""portrait/BW1.jpg""style=""height:400px;""></img>",0,html-button-response,12,119368,0.0-3.0-13.0,40873,List1B,black,woman,,TRUE,0,,,,,,,,,,
null,CORRECT,,html-keyboard-response,13,120896,0.0-3.0-14.0-0.0,40873,List1B,black,woman,,,,null,,,,,,,,,
2333.4,"<img src=""portrait/BW2.jpg""style=""height:400px;""></img>",2,html-button-response,14,123231,0.0-3.0-16.0,40873,List1B,black,woman,,TRUE,2,,,,,,,,,,
null,CORRECT,,html-keyboard-response,15,124744,0.0-3.0-17.0-0.0,40873,List1B,black,woman,,,,null,,,,,,,,,
3247.9,"<img src=""portrait/WW1.jpg""style=""height:400px;""></img>",3,html-button-response,16,127993,0.0-3.0-19.0,40873,List1B,black,woman,,TRUE,1,,,,,,,,,,
3965.2,"<img src=""portrait/WW1.jpg""style=""height:400px;""></img>",1,html-button-response,17,132971,0.0-3.0-21.0-0.0,40873,List1B,black,woman,,FALSE,1,,,,,,,,,,
null,CORRECT,,html-keyboard-response,18,134499,0.0-3.0-21.0-1.0-0.0,40873,List1B,black,woman,,,,null,,,,,,,,,
3566.2,"<img src=""portrait/BM1.jpg""style=""height:400px;""></img>",4,html-button-response,19,138066,0.0-3.0-22.0,40873,List1B,black,woman,,TRUE,4,,,,,,,,,,
null,CORRECT,,html-keyboard-response,20,139580,0.0-3.0-23.0-0.0,40873,List1B,black,woman,,,,null,,,,,,,,,
1447.7,<p>You got 7 out of 8 right first time. Press Continue.</p>,0,html-button-response,21,141029,0.0-3.0-25.0,40873,List1B,black,woman,,,,,,,,,,,,,
2118.2,"As you did not score 100%, the memory game will repeat. Press Continue.",0,html-button-response,22,144161,0.0-3.0-26.0-0.0,40873,List1B,black,woman,,,,,,,,,,,,,
2116.7,"<img src='img/portrait_matrix_list1.jpg' style='width:900px;height:500px;''></img><p>If you have memorised all the portraits and names and are ready to start, press Continue.</p><p><strong>Please note: Your memory of these faces will be tested 4 times during this experiment.</strong></p>",0,html-button-response,23,147291,0.0-3.1-0.1,40873,List1B,black,woman,,,,,,,,,,,,,
1753.1,"<img src=""portrait/WM2.jpg""style=""height:400px;""></img>",7,html-button-response,24,150054,0.0-3.1-1.1,40873,List1B,black,woman,,TRUE,7,,,,,,,,,,
null,CORRECT,,html-keyboard-response,25,151582,0.0-3.1-2.1-0.1,40873,List1B,black,woman,,,,null,,,,,,,,,
2766.1,"<img src=""portrait/BM2.jpg""style=""height:400px;""></img>",5,html-button-response,26,154350,0.0-3.1-4.1,40873,List1B,black,woman,,TRUE,5,,,,,,,,,,
null,CORRECT,,html-keyboard-response,27,155862,0.0-3.1-5.1-0.1,40873,List1B,black,woman,,,,null,,,,,,,,,
3249.7,"<img src=""portrait/WW2.jpg""style=""height:400px;""></img>",3,html-button-response,28,159113,0.0-3.1-7.1,40873,List1B,black,woman,,TRUE,3,,,,,,,,,,
null,CORRECT,,html-keyboard-response,29,160640,0.0-3.1-8.1-0.1,40873,List1B,black,woman,,,,null,,,,,,,,,
4881,"<img src=""portrait/WM1.jpg""style=""height:400px;""></img>",6,html-button-response,30,165522,0.0-3.1-10.1,40873,List1B,black,woman,,TRUE,6,,,,,,,,,,
null,CORRECT,,html-keyboard-response,31,167034,0.0-3.1-11.1-0.1,40873,List1B,black,woman,,,,null,,,,,,,,,
2799.7,"<img src=""portrait/BW1.jpg""style=""height:400px;""></img>",0,html-button-response,32,169836,0.0-3.1-13.1,40873,List1B,black,woman,,TRUE,0,,,,,,,,,,
null,CORRECT,,html-keyboard-response,33,171343,0.0-3.1-14.1-0.1,40873,List1B,black,woman,,,,null,,,,,,,,,
1665.6,"<img src=""portrait/BW2.jpg""style=""height:400px;""></img>",2,html-button-response,34,173010,0.0-3.1-16.1,40873,List1B,black,woman,,TRUE,2,,,,,,,,,,
null,CORRECT,,html-keyboard-response,35,174526,0.0-3.1-17.1-0.1,40873,List1B,black,woman,,,,null,,,,,,,,,
1535.3,"<img src=""portrait/WW1.jpg""style=""height:400px;""></img>",1,html-button-response,36,176062,0.0-3.1-19.1,40873,List1B,black,woman,,TRUE,1,,,,,,,,,,
null,CORRECT,,html-keyboard-response,37,177591,0.0-3.1-20.1-0.1,40873,List1B,black,woman,,,,null,,,,,,,,,
1750.2,"<img src=""portrait/BM1.jpg""style=""height:400px;""></img>",4,html-button-response,38,179343,0.0-3.1-22.1,40873,List1B,black,woman,,TRUE,4,,,,,,,,,,
null,CORRECT,,html-keyboard-response,39,180856,0.0-3.1-23.1-0.1,40873,List1B,black,woman,,,,null,,,,,,,,,
1249.6,<p>You got 8 out of 8 right first time. Press Continue.</p>,0,html-button-response,40,182106,0.0-3.1-25.1,40873,List1B,black,woman,,,,,,,,,,,,,
20749.6,"<p>In this experiment, you will view photographs of the people from the memory game interacting.</p><p>By using the <strong>exact</strong> phrase given <i>after</i> the photograph appears and recalling the correct names of the people in the photographs, form a sentence describing the interaction. You do not need to capitalise names.</p><p>Type your answer in the space provided. Please complete every sentence before moving onto the next trial.</p><p>You will only have a few seconds to memorise each given photograph and phrase before you can respond, so try your best to focus.</p><p>An example is given below. Press 'Continue' when you are ready.</p><img src='img/speaking_example.jpg' style='width:800px;height:460px;''></img>",0,html-button-response,41,203871,0.0-4.0,40873,List1B,black,woman,,,,,,,,,,,,,
1850,"<p>Before the experiment starts, you will watch two example trials. Press 'Continue'.</p>",0,html-button-response,42,206732,0.0-5.0,40873,List1B,black,woman,,,,,,,,,,,,,
null,<img src='img/play_eg.gif' style='height:400px;''></img>,,html-keyboard-response,43,209744,0.0-6.0,40873,List1B,black,woman,,,,null,,,,,,,,,
null,<p>is playing with</p>,,html-keyboard-response,44,211761,0.0-7.0,40873,List1B,black,woman,,,,null,,,,,,,,,
1664.5,<p><b>Answer:</b> kate is playing with beth</p>,0,html-button-response,45,213426,0.0-8.0,40873,List1B,black,woman,,,,,,,,,,,,,
null,<img src='img/dance_eg.gif' style='height:400px;''></img>,,html-keyboard-response,46,216436,0.0-9.0,40873,List1B,black,woman,,,,null,,,,,,,,,
null,<p>is being entertained by</p>,,html-keyboard-response,47,218443,0.0-10.0,40873,List1B,black,woman,,,,null,,,,,,,,,
1841.5,<p><b>Answer:</b> luke is being entertained by dave</p>,0,html-button-response,48,220286,0.0-11.0,40873,List1B,black,woman,,,,,,,,,,,,,
25158.4,"<p>Ready to start the experiment?</p><br><p><strong>Remember to describe the picture using a full sentence,</strong></p><p><strong>that combines the names of the people with the <i>exact</i> phrase given.</strong></p><p><strong>To receive full payment you must do this correctly.</strong></p><p><strong> You do not need to capitalise names or use punctuation.</strong></p><br><p>Press 'Continue' to begin.</p>",0,html-button-response,49,246461,0.0-12.0,40873,List1B,black,woman,,,,,,,,,,,,,
null,"<div style=""font-size:60px;"">+</div>",,html-keyboard-response,50,247973,0.0-13.0-0.0,40873,List1B,black,woman,,,,null,,,,,,,,,
null,"<img src=""stim_listB/seduce3.gif""style=""height:400px;""></stim_listB>",,html-keyboard-response,51,249986,0.0-13.0-1.0,40873,List1B,black,woman,,,,null,,,,,,,,,
null,is seducing,,html-keyboard-response,52,252002,0.0-13.0-2.0,40873,List1B,black,woman,,,,null,,,,,,,,,
25010.1,,,survey-text,53,277015,0.0-13.0-3.0,40873,List1B,black,woman,,,,,"{""Q0"":""jane is seducing luke""}","<img src=""stim_listB/seduce3.gif""style=""height:400px;""></stim_listB>",is seducing,,,,,,
null,"<div style=""font-size:60px;"">+</div>",,html-keyboard-response,54,277525,0.0-13.0-0.1,40873,List1B,black,woman,,,,null,,,,,,,,,
null,"<img src=""stim_listB/challenge6.gif""style=""height:400px;""></stim_listB>",,html-keyboard-response,55,279541,0.0-13.0-1.1,40873,List1B,black,woman,,,,null,,,,,,,,,
null,is being challenged by,,html-keyboard-response,56,281557,0.0-13.0-2.1,40873,List1B,black,woman,,,,null,,,,,,,,,
8919.4,,,survey-text,57,290478,0.0-13.0-3.1,40873,List1B,black,woman,,,,,"{""Q0"":""fred is being challenged by dave""}","<img src=""stim_listB/challenge6.gif""style=""height:400px;""></stim_listB>",is being challenged by,,,,,,
null,"<div style=""font-size:60px;"">+</div>",,html-keyboard-response,58,290980,0.0-13.0-0.2,40873,List1B,black,woman,,,,null,,,,,,,,,
null,"<img src=""stim_listB/kiss1.gif""style=""height:400px;""></stim_listB>",,html-keyboard-response,59,292994,0.0-13.0-1.2,40873,List1B,black,woman,,,,null,,,,,,,,,
null,is kissing,,html-keyboard-response,60,295009,0.0-13.0-2.2,40873,List1B,black,woman,,,,null,,,,,,,,,
4503.4,,,survey-text,61,299515,0.0-13.0-3.2,40873,List1B,black,woman,,,,,"{""Q0"":""fred is kissing beth""}","<img src=""stim_listB/kiss1.gif""style=""height:400px;""></stim_listB>",is kissing,,,,,,
null,"<div style=""font-size:60px;"">+</div>",,html-keyboard-response,62,300021,0.0-13.0-0.3,40873,List1B,black,woman,,,,null,,,,,,,,,
null,"<img src=""stim_listB/seduce1.gif""style=""height:400px;""></stim_listB>",,html-keyboard-response,63,302037,0.0-13.0-1.3,40873,List1B,black,woman,,,,null,,,,,,,,,
null,is seducing,,html-keyboard-response,64,304051,0.0-13.0-2.3,40873,List1B,black,woman,,,,null,,,,,,,,,
4948.7,,,survey-text,65,309003,0.0-13.0-3.3,40873,List1B,black,woman,,,,,"{""Q0"":""kate is seducing fred""}","<img src=""stim_listB/seduce1.gif""style=""height:400px;""></stim_listB>",is seducing,,,,,,
null,"<div style=""font-size:60px;"">+</div>",,html-keyboard-response,66,309514,0.0-13.0-0.4,40873,List1B,black,woman,,,,null,,,,,,,,,
null,"<img src=""stim_listB/oppose8.gif""style=""height:400px;""></stim_listB>",,html-keyboard-response,67,311528,0.0-13.0-1.4,40873,List1B,black,woman,,,,null,,,,,,,,,
null,is being opposed by,,html-keyboard-response,68,313541,0.0-13.0-2.4,40873,List1B,black,woman,,,,null,,,,,,,,,
7280.9,,,survey-text,69,320824,0.0-13.0-3.4,40873,List1B,black,woman,,,,,"{""Q0"":""ruth is being opposed by beth""}","<img src=""stim_listB/oppose8.gif""style=""height:400px;""></stim_listB>",is being opposed by,,,,,,
null,"<div style=""font-size:60px;"">+</div>",,html-keyboard-response,70,321333,0.0-13.0-0.5,40873,List1B,black,woman,,,,null,,,,,,,,,
null,"<img src=""stim_listB/challenge5.gif""style=""height:400px;""></stim_listB>",,html-keyboard-response,71,323347,0.0-13.0-1.5,40873,List1B,black,woman,,,,null,,,,,,,,,
null,is challenging,,html-keyboard-response,72,325355,0.0-13.0-2.5,40873,List1B,black,woman,,,,null,,,,,,,,,
4486.8,,,survey-text,73,329844,0.0-13.0-3.5,40873,List1B,black,woman,,,,,"{""Q0"":""luke is challenging mike""}","<img src=""stim_listB/challenge5.gif""style=""height:400px;""></stim_listB>",is challenging,,,,,,
null,"<div style=""font-size:60px;"">+</div>",,html-keyboard-response,74,330357,0.0-13.0-0.6,40873,List1B,black,woman,,,,null,,,,,,,,,
null,"<img src=""stim_listB/look2.gif""style=""height:400px;""></stim_listB>",,html-keyboard-response,75,332371,0.0-13.0-1.6,40873,List1B,black,woman,,,,null,,,,,,,,,
null,is being looked at by,,html-keyboard-response,76,334387,0.0-13.0-2.6,40873,List1B,black,woman,,,,null,,,,,,,,,
5940.7,,,survey-text,77,340329,0.0-13.0-3.6,40873,List1B,black,woman,,,,,"{""Q0"":""mike is being looked at by kate""}","<img src=""stim_listB/look2.gif""style=""height:400px;""></stim_listB>",is being looked at by,,,,,,
null,"<div style=""font-size:60px;"">+</div>",,html-keyboard-response,78,340831,0.0-13.0-0.7,40873,List1B,black,woman,,,,null,,,,,,,,,
null,"<img src=""stim_listB/hug4.gif""style=""height:400px;""></stim_listB>",,html-keyboard-response,79,342844,0.0-13.0-1.7,40873,List1B,black,woman,,,,null,,,,,,,,,
null,is being hugged by,,html-keyboard-response,80,344860,0.0-13.0-2.7,40873,List1B,black,woman,,,,null,,,,,,,,,
5152,,,survey-text,81,350014,0.0-13.0-3.7,40873,List1B,black,woman,,,,,"{""Q0"":""jane is being hugged by dave""}","<img src=""stim_listB/hug4.gif""style=""height:400px;""></stim_listB>",is being hugged by,,,,,,
null,"<div style=""font-size:60px;"">+</div>",,html-keyboard-response,82,350520,0.0-13.0-0.8,40873,List1B,black,woman,,,,null,,,,,,,,,
null,"<img src=""stim_listB/kiss7.gif""style=""height:400px;""></stim_listB>",,html-keyboard-response,83,352536,0.0-13.0-1.8,40873,List1B,black,woman,,,,null,,,,,,,,,
null,is kissing,,html-keyboard-response,84,354551,0.0-13.0-2.8,40873,List1B,black,woman,,,,null,,,,,,,,,
4328.6,,,survey-text,85,358881,0.0-13.0-3.8,40873,List1B,black,woman,,,,,"{""Q0"":""ruth is kissing beth""}","<img src=""stim_listB/kiss7.gif""style=""height:400px;""></stim_listB>",is kissing,,,,,,
null,"<div style=""font-size:60px;"">+</div>",,html-keyboard-response,86,359396,0.0-13.0-0.9,40873,List1B,black,woman,,,,null,,,,,,,,,
null,"<img src=""stim_listB/touch1.gif""style=""height:400px;""></stim_listB>",,html-keyboard-response,87,361412,0.0-13.0-1.9,40873,List1B,black,woman,,,,null,,,,,,,,,
null,is touching,,html-keyboard-response,88,363426,0.0-13.0-2.9,40873,List1B,black,woman,,,,null,,,,,,,,,
11197.7,,,survey-text,89,374627,0.0-13.0-3.9,40873,List1B,black,woman,,,,,"{""Q0"":""kate is touching mike""}","<img src=""stim_listB/touch1.gif""style=""height:400px;""></stim_listB>",is touching,,,,,,
null,"<div style=""font-size:60px;"">+</div>",,html-keyboard-response,90,375133,0.0-13.0-0.10,40873,List1B,black,woman,,,,null,,,,,,,,,
null,"<img src=""stim_listB/seduce5.gif""style=""height:400px;""></stim_listB>",,html-keyboard-response,91,377145,0.0-13.0-1.10,40873,List1B,black,woman,,,,null,,,,,,,,,
null,is seducing,,html-keyboard-response,92,379161,0.0-13.0-2.10,40873,List1B,black,woman,,,,null,,,,,,,,,
5625.3,,,survey-text,93,384789,0.0-13.0-3.10,40873,List1B,black,woman,,,,,"{""Q0"":""fred is seducing dave""}","<img src=""stim_listB/seduce5.gif""style=""height:400px;""></stim_listB>",is seducing,,,,,,
null,"<div style=""font-size:60px;"">+</div>",,html-keyboard-response,94,385304,0.0-13.0-0.11,40873,List1B,black,woman,,,,null,,,,,,,,,
null,"<img src=""stim_listB/greet4.gif""style=""height:400px;""></stim_listB>",,html-keyboard-response,95,387318,0.0-13.0-1.11,40873,List1B,black,woman,,,,null,,,,,,,,,
null,is being greeted by,,html-keyboard-response,96,389334,0.0-13.0-2.11,40873,List1B,black,woman,,,,null,,,,,,,,,
9795.5,,,survey-text,97,399131,0.0-13.0-3.11,40873,List1B,black,woman,,,,,"{""Q0"":""jane is greeted by luke""}","<img src=""stim_listB/greet4.gif""style=""height:400px;""></stim_listB>",is being greeted by,,,,,,
null,"<div style=""font-size:60px;"">+</div>",,html-keyboard-response,98,399638,0.0-13.0-0.12,40873,List1B,black,woman,,,,null,,,,,,,,,
null,"<img src=""stim_listB/oppose5.gif""style=""height:400px;""></stim_listB>",,html-keyboard-response,99,401654,0.0-13.0-1.12,40873,List1B,black,woman,,,,null,,,,,,,,,
null,is opposing,,html-keyboard-response,100,403670,0.0-13.0-2.12,40873,List1B,black,woman,,,,null,,,,,,,,,
6315.6,,,survey-text,101,409987,0.0-13.0-3.12,40873,List1B,black,woman,,,,,"{""Q0"":""dave is opposing mike""}","<img src=""stim_listB/oppose5.gif""style=""height:400px;""></stim_listB>",is opposing,,,,,,
null,"<div style=""font-size:60px;"">+</div>",,html-keyboard-response,102,410494,0.0-13.0-0.13,40873,List1B,black,woman,,,,null,,,,,,,,,
null,"<img src=""stim_listB/oppose2.gif""style=""height:400px;""></stim_listB>",,html-keyboard-response,103,412510,0.0-13.0-1.13,40873,List1B,black,woman,,,,null,,,,,,,,,
null,is being opposed by,,html-keyboard-response,104,414523,0.0-13.0-2.13,40873,List1B,black,woman,,,,null,,,,,,,,,
6526.7,,,survey-text,105,421051,0.0-13.0-3.13,40873,List1B,black,woman,,,,,"{""Q0"":""fred is being opposed by beth""}","<img src=""stim_listB/oppose2.gif""style=""height:400px;""></stim_listB>",is being opposed by,,,,,,
null,"<div style=""font-size:60px;"">+</div>",,html-keyboard-response,106,421552,0.0-13.0-0.14,40873,List1B,black,woman,,,,null,,,,,,,,,
null,"<img src=""stim_listB/shout4.gif""style=""height:400px;""></stim_listB>",,html-keyboard-response,107,423567,0.0-13.0-1.14,40873,List1B,black,woman,,,,null,,,,,,,,,
null,is being shouted at by,,html-keyboard-response,108,425582,0.0-13.0-2.14,40873,List1B,black,woman,,,,null,,,,,,,,,
5942.1,,,survey-text,109,431526,0.0-13.0-3.14,40873,List1B,black,woman,,,,,"{""Q0"":""jane is being shouted at by dave""}","<img src=""stim_listB/shout4.gif""style=""height:400px;""></stim_listB>",is being shouted at by,,,,,,
null,"<div style=""font-size:60px;"">+</div>",,html-keyboard-response,110,432041,0.0-13.0-0.15,40873,List1B,black,woman,,,,null,,,,,,,,,
null,"<img src=""stim_listB/copy4.gif""style=""height:400px;""></stim_listB>",,html-keyboard-response,111,434055,0.0-13.0-1.15,40873,List1B,black,woman,,,,null,,,,,,,,,
null,is being copied by,,html-keyboard-response,112,436071,0.0-13.0-2.15,40873,List1B,black,woman,,,,null,,,,,,,,,
6212.4,,,survey-text,113,442285,0.0-13.0-3.15,40873,List1B,black,woman,,,,,"{""Q0"":""jane is being copied by luke""}","<img src=""stim_listB/copy4.gif""style=""height:400px;""></stim_listB>",is being copied by,,,,,,
null,"<div style=""font-size:60px;"">+</div>",,html-keyboard-response,114,442797,0.0-13.0-0.16,40873,List1B,black,woman,,,,null,,,,,,,,,
null,"<img src=""stim_listB/greet7.gif""style=""height:400px;""></stim_listB>",,html-keyboard-response,115,444812,0.0-13.0-1.16,40873,List1B,black,woman,,,,null,,,,,,,,,
null,is greeting,,html-keyboard-response,116,446828,0.0-13.0-2.16,40873,List1B,black,woman,,,,null,,,,,,,,,
7782.5,,,survey-text,117,454612,0.0-13.0-3.16,40873,List1B,black,woman,,,,,"{""Q0"":""kate is greeting ruth ""}","<img src=""stim_listB/greet7.gif""style=""height:400px;""></stim_listB>",is greeting,,,,,,
null,"<div style=""font-size:60px;"">+</div>",,html-keyboard-response,118,455119,0.0-13.0-0.17,40873,List1B,black,woman,,,,null,,,,,,,,,
null,"<img src=""stim_listB/copy3.gif""style=""height:400px;""></stim_listB>",,html-keyboard-response,119,457134,0.0-13.0-1.17,40873,List1B,black,woman,,,,null,,,,,,,,,
null,is copying,,html-keyboard-response,120,459141,0.0-13.0-2.17,40873,List1B,black,woman,,,,null,,,,,,,,,
4517.4,,,survey-text,121,463660,0.0-13.0-3.17,40873,List1B,black,woman,,,,,"{""Q0"":""ruth is copying dave""}","<img src=""stim_listB/copy3.gif""style=""height:400px;""></stim_listB>",is copying,,,,,,
null,"<div style=""font-size:60px;"">+</div>",,html-keyboard-response,122,464161,0.0-13.0-0.18,40873,List1B,black,woman,,,,null,,,,,,,,,
null,"<img src=""stim_listB/greet1.gif""style=""height:400px;""></stim_listB>",,html-keyboard-response,123,466174,0.0-13.0-1.18,40873,List1B,black,woman,,,,null,,,,,,,,,
null,is greeting,,html-keyboard-response,124,468175,0.0-13.0-2.18,40873,List1B,black,woman,,,,null,,,,,,,,,
6728.4,,,survey-text,125,474905,0.0-13.0-3.18,40873,List1B,black,woman,,,,,"{""Q0"":""mike is greeted by beth""}","<img src=""stim_listB/greet1.gif""style=""height:400px;""></stim_listB>",is greeting,,,,,,
null,"<div style=""font-size:60px;"">+</div>",,html-keyboard-response,126,475415,0.0-13.0-0.19,40873,List1B,black,woman,,,,null,,,,,,,,,
null,"<img src=""stim_listB/touch7.gif""style=""height:400px;""></stim_listB>",,html-keyboard-response,127,477430,0.0-13.0-1.19,40873,List1B,black,woman,,,,null,,,,,,,,,
null,is touching,,html-keyboard-response,128,479431,0.0-13.0-2.19,40873,List1B,black,woman,,,,null,,,,,,,,,
5993.9,,,survey-text,129,485426,0.0-13.0-3.19,40873,List1B,black,woman,,,,,"{""Q0"":""kate is touching ruth""}","<img src=""stim_listB/touch7.gif""style=""height:400px;""></stim_listB>",is touching,,,,,,
7692.6,"<img src='img/portrait_matrix_list1.jpg' style='width:900px;height:500px;''></img><p>If you have memorised all the portraits and names and are ready to start, press Continue.</p><p><strong>Please note: Your memory of these faces will be tested 4 times during this experiment.</strong></p>",0,html-button-response,130,493119,0.0-14.0-0.0,40873,List1B,black,woman,,,,,,,,,,,,,
4248.5,"<img src=""portrait/BW1.jpg""style=""height:400px;""></img>",0,html-button-response,131,498380,0.0-14.0-1.0,40873,List1B,black,woman,,TRUE,0,,,,,,,,,,
null,CORRECT,,html-keyboard-response,132,499894,0.0-14.0-2.0-0.0,40873,List1B,black,woman,,,,null,,,,,,,,,
2099.7,"<img src=""portrait/WW2.jpg""style=""height:400px;""></img>",3,html-button-response,133,501994,0.0-14.0-4.0,40873,List1B,black,woman,,TRUE,3,,,,,,,,,,
null,CORRECT,,html-keyboard-response,134,503506,0.0-14.0-5.0-0.0,40873,List1B,black,woman,,,,null,,,,,,,,,
2931.3,"<img src=""portrait/WW1.jpg""style=""height:400px;""></img>",1,html-button-response,135,506438,0.0-14.0-7.0,40873,List1B,black,woman,,TRUE,1,,,,,,,,,,
null,CORRECT,,html-keyboard-response,136,507951,0.0-14.0-8.0-0.0,40873,List1B,black,woman,,,,null,,,,,,,,,
4381.1,"<img src=""portrait/BW2.jpg""style=""height:400px;""></img>",2,html-button-response,137,512333,0.0-14.0-10.0,40873,List1B,black,woman,,TRUE,2,,,,,,,,,,
null,CORRECT,,html-keyboard-response,138,513846,0.0-14.0-11.0-0.0,40873,List1B,black,woman,,,,null,,,,,,,,,
4488.8,"<img src=""portrait/BM1.jpg""style=""height:400px;""></img>",4,html-button-response,139,518336,0.0-14.0-13.0,40873,List1B,black,woman,,TRUE,4,,,,,,,,,,
null,CORRECT,,html-keyboard-response,140,519840,0.0-14.0-14.0-0.0,40873,List1B,black,woman,,,,null,,,,,,,,,
3555.3,"<img src=""portrait/BM2.jpg""style=""height:400px;""></img>",5,html-button-response,141,523397,0.0-14.0-16.0,40873,List1B,black,woman,,TRUE,5,,,,,,,,,,
null,CORRECT,,html-keyboard-response,142,524917,0.0-14.0-17.0-0.0,40873,List1B,black,woman,,,,null,,,,,,,,,
5014.8,"<img src=""portrait/WM1.jpg""style=""height:400px;""></img>",6,html-button-response,143,529933,0.0-14.0-19.0,40873,List1B,black,woman,,TRUE,6,,,,,,,,,,
null,CORRECT,,html-keyboard-response,144,531445,0.0-14.0-20.0-0.0,40873,List1B,black,woman,,,,null,,,,,,,,,
1948.3,"<img src=""portrait/WM2.jpg""style=""height:400px;""></img>",7,html-button-response,145,533395,0.0-14.0-22.0,40873,List1B,black,woman,,TRUE,7,,,,,,,,,,
null,CORRECT,,html-keyboard-response,146,534924,0.0-14.0-23.0-0.0,40873,List1B,black,woman,,,,null,,,,,,,,,
1549.3,<p>You got 8 out of 8 right first time. Press Continue.</p>,0,html-button-response,147,536474,0.0-14.0-25.0,40873,List1B,black,woman,,,,,,,,,,,,,
null,"<div style=""font-size:60px;"">+</div>",,html-keyboard-response,148,538004,0.0-15.0-0.0,40873,List1B,black,woman,,,,null,,,,,,,,,
null,"<img src=""stim_listB/hug1.gif""style=""height:400px;""></stim_listB>",,html-keyboard-response,149,540019,0.0-15.0-1.0,40873,List1B,black,woman,,,,null,,,,,,,,,
null,is hugging,,html-keyboard-response,150,542020,0.0-15.0-2.0,40873,List1B,black,woman,,,,null,,,,,,,,,
4642.3,,,survey-text,151,546664,0.0-15.0-3.0,40873,List1B,black,woman,,,,,"{""Q0"":""fred is hugging beth""}","<img src=""stim_listB/hug1.gif""style=""height:400px;""></stim_listB>",is hugging,,,,,,
null,"<div style=""font-size:60px;"">+</div>",,html-keyboard-response,152,547179,0.0-15.0-0.1,40873,List1B,black,woman,,,,null,,,,,,,,,
null,"<img src=""stim_listB/look8.gif""style=""height:400px;""></stim_listB>",,html-keyboard-response,153,549193,0.0-15.0-1.1,40873,List1B,black,woman,,,,null,,,,,,,,,
null,is being looked at by,,html-keyboard-response,154,551224,0.0-15.0-2.1,40873,List1B,black,woman,,,,null,,,,,,,,,
5402.3,,,survey-text,155,556628,0.0-15.0-3.1,40873,List1B,black,woman,,,,,"{""Q0"":""jane is being looked at by kate""}","<img src=""stim_listB/look8.gif""style=""height:400px;""></stim_listB>",is being looked at by,,,,,,
null,"<div style=""font-size:60px;"">+</div>",,html-keyboard-response,156,557134,0.0-15.0-0.2,40873,List1B,black,woman,,,,null,,,,,,,,,
null,"<img src=""stim_listB/greet8.gif""style=""height:400px;""></stim_listB>",,html-keyboard-response,157,559150,0.0-15.0-1.2,40873,List1B,black,woman,,,,null,,,,,,,,,
null,is being greeted by,,html-keyboard-response,158,561182,0.0-15.0-2.2,40873,List1B,black,woman,,,,null,,,,,,,,,
5502.3,,,survey-text,159,566686,0.0-15.0-3.2,40873,List1B,black,woman,,,,,"{""Q0"":""beth is being greeted by jane""}","<img src=""stim_listB/greet8.gif""style=""height:400px;""></stim_listB>",is being greeted by,,,,,,
null,"<div style=""font-size:60px;"">+</div>",,html-keyboard-response,160,567192,0.0-15.0-0.3,40873,List1B,black,woman,,,,null,,,,,,,,,
null,"<img src=""stim_listB/touch6.gif""style=""height:400px;""></stim_listB>",,html-keyboard-response,161,569207,0.0-15.0-1.3,40873,List1B,black,woman,,,,null,,,,,,,,,
null,is being touched by,,html-keyboard-response,162,571222,0.0-15.0-2.3,40873,List1B,black,woman,,,,null,,,,,,,,,
5051.7,,,survey-text,163,576275,0.0-15.0-3.3,40873,List1B,black,woman,,,,,"{""Q0"":""fred is being touched by luke""}","<img src=""stim_listB/touch6.gif""style=""height:400px;""></stim_listB>",is being touched by,,,,,,
null,"<div style=""font-size:60px;"">+</div>",,html-keyboard-response,164,576781,0.0-15.0-0.4,40873,List1B,black,woman,,,,null,,,,,,,,,
null,"<img src=""stim_listB/hug8.gif""style=""height:400px;""></stim_listB>",,html-keyboard-response,165,578797,0.0-15.0-1.4,40873,List1B,black,woman,,,,null,,,,,,,,,
null,is being hugged by,,html-keyboard-response,166,580814,0.0-15.0-2.4,40873,List1B,black,woman,,,,null,,,,,,,,,
4741.2,,,survey-text,167,585556,0.0-15.0-3.4,40873,List1B,black,woman,,,,,"{""Q0"":""jane is being hugged by kate""}","<img src=""stim_listB/hug8.gif""style=""height:400px;""></stim_listB>",is being hugged by,,,,,,
null,"<div style=""font-size:60px;"">+</div>",,html-keyboard-response,168,586057,0.0-15.0-0.5,40873,List1B,black,woman,,,,null,,,,,,,,,
null,"<img src=""stim_listB/challenge4.gif""style=""height:400px;""></stim_listB>",,html-keyboard-response,169,588072,0.0-15.0-1.5,40873,List1B,black,woman,,,,null,,,,,,,,,
null,is being challenged by,,html-keyboard-response,170,590088,0.0-15.0-2.5,40873,List1B,black,woman,,,,null,,,,,,,,,
9703,,,survey-text,171,599792,0.0-15.0-3.5,40873,List1B,black,woman,,,,,"{""Q0"":""luke is being challenged by jane""}","<img src=""stim_listB/challenge4.gif""style=""height:400px;""></stim_listB>",is being challenged by,,,,,,
null,"<div style=""font-size:60px;"">+</div>",,html-keyboard-response,172,600294,0.0-15.0-0.6,40873,List1B,black,woman,,,,null,,,,,,,,,
null,"<img src=""stim_listB/shout1.gif""style=""height:400px;""></stim_listB>",,html-keyboard-response,173,602309,0.0-15.0-1.6,40873,List1B,black,woman,,,,null,,,,,,,,,
null,is shouting at,,html-keyboard-response,174,604324,0.0-15.0-2.6,40873,List1B,black,woman,,,,null,,,,,,,,,
4251.9,,,survey-text,175,608577,0.0-15.0-3.6,40873,List1B,black,woman,,,,,"{""Q0"":""fred is shouting at beth""}","<img src=""stim_listB/shout1.gif""style=""height:400px;""></stim_listB>",is shouting at,,,,,,
null,"<div style=""font-size:60px;"">+</div>",,html-keyboard-response,176,609084,0.0-15.0-0.7,40873,List1B,black,woman,,,,null,,,,,,,,,
null,"<img src=""stim_listB/copy8.gif""style=""height:400px;""></stim_listB>",,html-keyboard-response,177,611099,0.0-15.0-1.7,40873,List1B,black,woman,,,,null,,,,,,,,,
null,is being copied by,,html-keyboard-response,178,613116,0.0-15.0-2.7,40873,List1B,black,woman,,,,null,,,,,,,,,
9064.3,,,survey-text,179,622182,0.0-15.0-3.7,40873,List1B,black,woman,,,,,"{""Q0"":""beth is being copied by jane""}","<img src=""stim_listB/copy8.gif""style=""height:400px;""></stim_listB>",is being copied by,,,,,,
null,"<div style=""font-size:60px;"">+</div>",,html-keyboard-response,180,622687,0.0-15.0-0.8,40873,List1B,black,woman,,,,null,,,,,,,,,
null,"<img src=""stim_listB/greet3.gif""style=""height:400px;""></stim_listB>",,html-keyboard-response,181,624688,0.0-15.0-1.8,40873,List1B,black,woman,,,,null,,,,,,,,,
null,is greeting,,html-keyboard-response,182,626700,0.0-15.0-2.8,40873,List1B,black,woman,,,,null,,,,,,,,,
3963.2,,,survey-text,183,630665,0.0-15.0-3.8,40873,List1B,black,woman,,,,,"{""Q0"":""dave is greeting ruth""}","<img src=""stim_listB/greet3.gif""style=""height:400px;""></stim_listB>",is greeting,,,,,,
null,"<div style=""font-size:60px;"">+</div>",,html-keyboard-response,184,631180,0.0-15.0-0.9,40873,List1B,black,woman,,,,null,,,,,,,,,
null,"<img src=""stim_listB/shout8.gif""style=""height:400px;""></stim_listB>",,html-keyboard-response,185,633195,0.0-15.0-1.9,40873,List1B,black,woman,,,,null,,,,,,,,,
null,is being shouted at by,,html-keyboard-response,186,635210,0.0-15.0-2.9,40873,List1B,black,woman,,,,null,,,,,,,,,
5049.1,,,survey-text,187,640260,0.0-15.0-3.9,40873,List1B,black,woman,,,,,"{""Q0"":""jane is being shouted at by kate""}","<img src=""stim_listB/shout8.gif""style=""height:400px;""></stim_listB>",is being shouted at by,,,,,,
null,"<div style=""font-size:60px;"">+</div>",,html-keyboard-response,188,640770,0.0-15.0-0.10,40873,List1B,black,woman,,,,null,,,,,,,,,
null,"<img src=""stim_listB/kiss8.gif""style=""height:400px;""></stim_listB>",,html-keyboard-response,189,642785,0.0-15.0-1.10,40873,List1B,black,woman,,,,null,,,,,,,,,
null,is being kissed by,,html-keyboard-response,190,644801,0.0-15.0-2.10,40873,List1B,black,woman,,,,null,,,,,,,,,
9184.5,,,survey-text,191,653987,0.0-15.0-3.10,40873,List1B,black,woman,,,,,"{""Q0"":""jane is being kissed by kate""}","<img src=""stim_listB/kiss8.gif""style=""height:400px;""></stim_listB>",is being kissed by,,,,,,
null,"<div style=""font-size:60px;"">+</div>",,html-keyboard-response,192,654492,0.0-15.0-0.11,40873,List1B,black,woman,,,,null,,,,,,,,,
null,"<img src=""stim_listB/copy5.gif""style=""height:400px;""></stim_listB>",,html-keyboard-response,193,656505,0.0-15.0-1.11,40873,List1B,black,woman,,,,null,,,,,,,,,
null,is copying,,html-keyboard-response,194,658506,0.0-15.0-2.11,40873,List1B,black,woman,,,,null,,,,,,,,,
4227.1,,,survey-text,195,662735,0.0-15.0-3.11,40873,List1B,black,woman,,,,,"{""Q0"":""mike is copying luke""}","<img src=""stim_listB/copy5.gif""style=""height:400px;""></stim_listB>",is copying,,,,,,
null,"<div style=""font-size:60px;"">+</div>",,html-keyboard-response,196,663249,0.0-15.0-0.12,40873,List1B,black,woman,,,,null,,,,,,,,,
null,"<img src=""stim_listB/kiss3.gif""style=""height:400px;""></stim_listB>",,html-keyboard-response,197,665263,0.0-15.0-1.12,40873,List1B,black,woman,,,,null,,,,,,,,,
null,is kissing,,html-keyboard-response,198,667265,0.0-15.0-2.12,40873,List1B,black,woman,,,,null,,,,,,,,,
4659.7,,,survey-text,199,671926,0.0-15.0-3.12,40873,List1B,black,woman,,,,,"{""Q0"":""ruth is kissing luke ""}","<img src=""stim_listB/kiss3.gif""style=""height:400px;""></stim_listB>",is kissing,,,,,,
null,"<div style=""font-size:60px;"">+</div>",,html-keyboard-response,200,672440,0.0-15.0-0.13,40873,List1B,black,woman,,,,null,,,,,,,,,
null,"<img src=""stim_listB/hug6.gif""style=""height:400px;""></stim_listB>",,html-keyboard-response,201,674454,0.0-15.0-1.13,40873,List1B,black,woman,,,,null,,,,,,,,,
null,is being hugged by,,html-keyboard-response,202,676470,0.0-15.0-2.13,40873,List1B,black,woman,,,,null,,,,,,,,,
5473.5,,,survey-text,203,681945,0.0-15.0-3.13,40873,List1B,black,woman,,,,,"{""Q0"":""mike is being hugged by dave""}","<img src=""stim_listB/hug6.gif""style=""height:400px;""></stim_listB>",is being hugged by,,,,,,
null,"<div style=""font-size:60px;"">+</div>",,html-keyboard-response,204,682447,0.0-15.0-0.14,40873,List1B,black,woman,,,,null,,,,,,,,,
null,"<img src=""stim_listB/kiss6.gif""style=""height:400px;""></stim_listB>",,html-keyboard-response,205,684462,0.0-15.0-1.14,40873,List1B,black,woman,,,,null,,,,,,,,,
null,is being kissed by,,html-keyboard-response,206,686469,0.0-15.0-2.14,40873,List1B,black,woman,,,,null,,,,,,,,,
6019.1,,,survey-text,207,692489,0.0-15.0-3.14,40873,List1B,black,woman,,,,,"{""Q0"":""dave is being kissed by mike""}","<img src=""stim_listB/kiss6.gif""style=""height:400px;""></stim_listB>",is being kissed by,,,,,,
null,"<div style=""font-size:60px;"">+</div>",,html-keyboard-response,208,693001,0.0-15.0-0.15,40873,List1B,black,woman,,,,null,,,,,,,,,
null,"<img src=""stim_listB/greet5.gif""style=""height:400px;""></stim_listB>",,html-keyboard-response,209,695018,0.0-15.0-1.15,40873,List1B,black,woman,,,,null,,,,,,,,,
null,is greeting,,html-keyboard-response,210,697033,0.0-15.0-2.15,40873,List1B,black,woman,,,,null,,,,,,,,,
4124.3,,,survey-text,211,701159,0.0-15.0-3.15,40873,List1B,black,woman,,,,,"{""Q0"":""luke is greeting mike""}","<img src=""stim_listB/greet5.gif""style=""height:400px;""></stim_listB>",is greeting,,,,,,
null,"<div style=""font-size:60px;"">+</div>",,html-keyboard-response,212,701661,0.0-15.0-0.16,40873,List1B,black,woman,,,,null,,,,,,,,,
null,"<img src=""stim_listB/look7.gif""style=""height:400px;""></stim_listB>",,html-keyboard-response,213,703675,0.0-15.0-1.16,40873,List1B,black,woman,,,,null,,,,,,,,,
null,is looking at,,html-keyboard-response,214,705690,0.0-15.0-2.16,40873,List1B,black,woman,,,,null,,,,,,,,,
4968,,,survey-text,215,710660,0.0-15.0-3.16,40873,List1B,black,woman,,,,,"{""Q0"":""ruth is looking at beth""}","<img src=""stim_listB/look7.gif""style=""height:400px;""></stim_listB>",is looking at,,,,,,
null,"<div style=""font-size:60px;"">+</div>",,html-keyboard-response,216,711168,0.0-15.0-0.17,40873,List1B,black,woman,,,,null,,,,,,,,,
null,"<img src=""stim_listB/touch3.gif""style=""height:400px;""></stim_listB>",,html-keyboard-response,217,713171,0.0-15.0-1.17,40873,List1B,black,woman,,,,null,,,,,,,,,
null,is touching,,html-keyboard-response,218,715182,0.0-15.0-2.17,40873,List1B,black,woman,,,,null,,,,,,,,,
4029.2,,,survey-text,219,719212,0.0-15.0-3.17,40873,List1B,black,woman,,,,,"{""Q0"":""jane is touching dave""}","<img src=""stim_listB/touch3.gif""style=""height:400px;""></stim_listB>",is touching,,,,,,
null,"<div style=""font-size:60px;"">+</div>",,html-keyboard-response,220,719726,0.0-15.0-0.18,40873,List1B,black,woman,,,,null,,,,,,,,,
null,"<img src=""stim_listB/hug5.gif""style=""height:400px;""></stim_listB>",,html-keyboard-response,221,721740,0.0-15.0-1.18,40873,List1B,black,woman,,,,null,,,,,,,,,
null,is hugging,,html-keyboard-response,222,723756,0.0-15.0-2.18,40873,List1B,black,woman,,,,null,,,,,,,,,
5964.6,,,survey-text,223,729722,0.0-15.0-3.18,40873,List1B,black,woman,,,,,"{""Q0"":""fred is hugging luke""}","<img src=""stim_listB/hug5.gif""style=""height:400px;""></stim_listB>",is hugging,,,,,,
null,"<div style=""font-size:60px;"">+</div>",,html-keyboard-response,224,730231,0.0-15.0-0.19,40873,List1B,black,woman,,,,null,,,,,,,,,
null,"<img src=""stim_listB/oppose4.gif""style=""height:400px;""></stim_listB>",,html-keyboard-response,225,732246,0.0-15.0-1.19,40873,List1B,black,woman,,,,null,,,,,,,,,
null,is being opposed by,,html-keyboard-response,226,734247,0.0-15.0-2.19,40873,List1B,black,woman,,,,null,,,,,,,,,
5907.9,,,survey-text,227,740157,0.0-15.0-3.19,40873,List1B,black,woman,,,,,"{""Q0"":""ruth is being opposed by luke""}","<img src=""stim_listB/oppose4.gif""style=""height:400px;""></stim_listB>",is being opposed by,,,,,,
2982.2,"<img src='img/portrait_matrix_list1.jpg' style='width:900px;height:500px;''></img><p>If you have memorised all the portraits and names and are ready to start, press Continue.</p><p><strong>Please note: Your memory of these faces will be tested 4 times during this experiment.</strong></p>",0,html-button-response,228,743141,0.0-16.0-0.0,40873,List1B,black,woman,,,,,,,,,,,,,
2548,"<img src=""portrait/WM2.jpg""style=""height:400px;""></img>",7,html-button-response,229,746702,0.0-16.0-1.0,40873,List1B,black,woman,,TRUE,7,,,,,,,,,,
null,CORRECT,,html-keyboard-response,230,748215,0.0-16.0-2.0-0.0,40873,List1B,black,woman,,,,null,,,,,,,,,
1566.7,"<img src=""portrait/BM1.jpg""style=""height:400px;""></img>",4,html-button-response,231,749783,0.0-16.0-4.0,40873,List1B,black,woman,,TRUE,4,,,,,,,,,,
null,CORRECT,,html-keyboard-response,232,751312,0.0-16.0-5.0-0.0,40873,List1B,black,woman,,,,null,,,,,,,,,
2000.5,"<img src=""portrait/BM2.jpg""style=""height:400px;""></img>",5,html-button-response,233,753314,0.0-16.0-7.0,40873,List1B,black,woman,,TRUE,5,,,,,,,,,,
null,CORRECT,,html-keyboard-response,234,754826,0.0-16.0-8.0-0.0,40873,List1B,black,woman,,,,null,,,,,,,,,
1766.1,"<img src=""portrait/WW1.jpg""style=""height:400px;""></img>",1,html-button-response,235,756594,0.0-16.0-10.0,40873,List1B,black,woman,,TRUE,1,,,,,,,,,,
null,CORRECT,,html-keyboard-response,236,758113,0.0-16.0-11.0-0.0,40873,List1B,black,woman,,,,null,,,,,,,,,
1891.9,"<img src=""portrait/BW2.jpg""style=""height:400px;""></img>",2,html-button-response,237,760007,0.0-16.0-13.0,40873,List1B,black,woman,,TRUE,2,,,,,,,,,,
null,CORRECT,,html-keyboard-response,238,761534,0.0-16.0-14.0-0.0,40873,List1B,black,woman,,,,null,,,,,,,,,
1435.9,"<img src=""portrait/WW2.jpg""style=""height:400px;""></img>",3,html-button-response,239,762971,0.0-16.0-16.0,40873,List1B,black,woman,,TRUE,3,,,,,,,,,,
null,CORRECT,,html-keyboard-response,240,764498,0.0-16.0-17.0-0.0,40873,List1B,black,woman,,,,null,,,,,,,,,
1950.1,"<img src=""portrait/WM1.jpg""style=""height:400px;""></img>",6,html-button-response,241,766450,0.0-16.0-19.0,40873,List1B,black,woman,,TRUE,6,,,,,,,,,,
null,CORRECT,,html-keyboard-response,242,767979,0.0-16.0-20.0-0.0,40873,List1B,black,woman,,,,null,,,,,,,,,
40777.5,"<img src=""portrait/BW1.jpg""style=""height:400px;""></img>",0,html-button-response,243,808758,0.0-16.0-22.0,40873,List1B,black,woman,,TRUE,0,,,,,,,,,,
null,CORRECT,,html-keyboard-response,244,810288,0.0-16.0-23.0-0.0,40873,List1B,black,woman,,,,null,,,,,,,,,
1435.4,<p>You got 8 out of 8 right first time. Press Continue.</p>,0,html-button-response,245,811724,0.0-16.0-25.0,40873,List1B,black,woman,,,,,,,,,,,,,
null,"<div style=""font-size:60px;"">+</div>",,html-keyboard-response,246,813251,0.0-17.0-0.0,40873,List1B,black,woman,,,,null,,,,,,,,,
null,"<img src=""stim_listB/look5.gif""style=""height:400px;""></stim_listB>",,html-keyboard-response,247,815267,0.0-17.0-1.0,40873,List1B,black,woman,,,,null,,,,,,,,,
null,is looking at,,html-keyboard-response,248,817281,0.0-17.0-2.0,40873,List1B,black,woman,,,,null,,,,,,,,,
3669.9,,,survey-text,249,820953,0.0-17.0-3.0,40873,List1B,black,woman,,,,,"{""Q0"":""luke is looking at fred""}","<img src=""stim_listB/look5.gif""style=""height:400px;""></stim_listB>",is looking at,,,,,,
null,"<div style=""font-size:60px;"">+</div>",,html-keyboard-response,250,821459,0.0-17.0-0.1,40873,List1B,black,woman,,,,null,,,,,,,,,
null,"<img src=""stim_listB/kiss4.gif""style=""height:400px;""></stim_listB>",,html-keyboard-response,251,823474,0.0-17.0-1.1,40873,List1B,black,woman,,,,null,,,,,,,,,
null,is being kissed by,,html-keyboard-response,252,825489,0.0-17.0-2.1,40873,List1B,black,woman,,,,null,,,,,,,,,
4896,,,survey-text,253,830386,0.0-17.0-3.1,40873,List1B,black,woman,,,,,"{""Q0"":""jane is being kissed by dave""}","<img src=""stim_listB/kiss4.gif""style=""height:400px;""></stim_listB>",is being kissed by,,,,,,
null,"<div style=""font-size:60px;"">+</div>",,html-keyboard-response,254,830901,0.0-17.0-0.2,40873,List1B,black,woman,,,,null,,,,,,,,,
null,"<img src=""stim_listB/look4.gif""style=""height:400px;""></stim_listB>",,html-keyboard-response,255,832916,0.0-17.0-1.2,40873,List1B,black,woman,,,,null,,,,,,,,,
null,is being looked at by,,html-keyboard-response,256,834930,0.0-17.0-2.2,40873,List1B,black,woman,,,,null,,,,,,,,,
4932.8,,,survey-text,257,839864,0.0-17.0-3.2,40873,List1B,black,woman,,,,,"{""Q0"":""jane is being looked at by dave""}","<img src=""stim_listB/look4.gif""style=""height:400px;""></stim_listB>",is being looked at by,,,,,,
null,"<div style=""font-size:60px;"">+</div>",,html-keyboard-response,258,840372,0.0-17.0-0.3,40873,List1B,black,woman,,,,null,,,,,,,,,
null,"<img src=""stim_listB/challenge2.gif""style=""height:400px;""></stim_listB>",,html-keyboard-response,259,842374,0.0-17.0-1.3,40873,List1B,black,woman,,,,null,,,,,,,,,
null,is being challenged by,,html-keyboard-response,260,844387,0.0-17.0-2.3,40873,List1B,black,woman,,,,null,,,,,,,,,
7326.9,,,survey-text,261,851715,0.0-17.0-3.3,40873,List1B,black,woman,,,,,"{""Q0"":""fred is being challenged by kate""}","<img src=""stim_listB/challenge2.gif""style=""height:400px;""></stim_listB>",is being challenged by,,,,,,
null,"<div style=""font-size:60px;"">+</div>",,html-keyboard-response,262,852229,0.0-17.0-0.4,40873,List1B,black,woman,,,,null,,,,,,,,,
null,"<img src=""stim_listB/greet6.gif""style=""height:400px;""></stim_listB>",,html-keyboard-response,263,854245,0.0-17.0-1.4,40873,List1B,black,woman,,,,null,,,,,,,,,
null,is being greeted by,,html-keyboard-response,264,856259,0.0-17.0-2.4,40873,List1B,black,woman,,,,null,,,,,,,,,
5442.1,,,survey-text,265,861703,0.0-17.0-3.4,40873,List1B,black,woman,,,,,"{""Q0"":""fred is being greeted by dave ""}","<img src=""stim_listB/greet6.gif""style=""height:400px;""></stim_listB>",is being greeted by,,,,,,
null,"<div style=""font-size:60px;"">+</div>",,html-keyboard-response,266,862204,0.0-17.0-0.5,40873,List1B,black,woman,,,,null,,,,,,,,,
null,"<img src=""stim_listB/challenge7.gif""style=""height:400px;""></stim_listB>",,html-keyboard-response,267,864219,0.0-17.0-1.5,40873,List1B,black,woman,,,,null,,,,,,,,,
null,is challenging,,html-keyboard-response,268,866233,0.0-17.0-2.5,40873,List1B,black,woman,,,,null,,,,,,,,,
5091.2,,,survey-text,269,871326,0.0-17.0-3.5,40873,List1B,black,woman,,,,,"{""Q0"":""ruth is challenging kate""}","<img src=""stim_listB/challenge7.gif""style=""height:400px;""></stim_listB>",is challenging,,,,,,
null,"<div style=""font-size:60px;"">+</div>",,html-keyboard-response,270,871828,0.0-17.0-0.6,40873,List1B,black,woman,,,,null,,,,,,,,,
null,"<img src=""stim_listB/hug3.gif""style=""height:400px;""></stim_listB>",,html-keyboard-response,271,873843,0.0-17.0-1.6,40873,List1B,black,woman,,,,null,,,,,,,,,
null,is hugging,,html-keyboard-response,272,875857,0.0-17.0-2.6,40873,List1B,black,woman,,,,null,,,,,,,,,
6044,,,survey-text,273,881904,0.0-17.0-3.6,40873,List1B,black,woman,,,,,"{""Q0"":""ruth is hugging luke""}","<img src=""stim_listB/hug3.gif""style=""height:400px;""></stim_listB>",is hugging,,,,,,
null,"<div style=""font-size:60px;"">+</div>",,html-keyboard-response,274,882418,0.0-17.0-0.7,40873,List1B,black,woman,,,,null,,,,,,,,,
null,"<img src=""stim_listB/greet2.gif""style=""height:400px;""></stim_listB>",,html-keyboard-response,275,884432,0.0-17.0-1.7,40873,List1B,black,woman,,,,null,,,,,,,,,
null,is being greeted by,,html-keyboard-response,276,886448,0.0-17.0-2.7,40873,List1B,black,woman,,,,null,,,,,,,,,
5828,,,survey-text,277,892277,0.0-17.0-3.7,40873,List1B,black,woman,,,,,"{""Q0"":""fred is being greeted by kate ""}","<img src=""stim_listB/greet2.gif""style=""height:400px;""></stim_listB>",is being greeted by,,,,,,
null,"<div style=""font-size:60px;"">+</div>",,html-keyboard-response,278,892790,0.0-17.0-0.8,40873,List1B,black,woman,,,,null,,,,,,,,,
null,"<img src=""stim_listB/hug2.gif""style=""height:400px;""></stim_listB>",,html-keyboard-response,279,894804,0.0-17.0-1.8,40873,List1B,black,woman,,,,null,,,,,,,,,
null,is being hugged by,,html-keyboard-response,280,896805,0.0-17.0-2.8,40873,List1B,black,woman,,,,null,,,,,,,,,
5485.4,,,survey-text,281,902292,0.0-17.0-3.8,40873,List1B,black,woman,,,,,"{""Q0"":""kate is being hugged by mike""}","<img src=""stim_listB/hug2.gif""style=""height:400px;""></stim_listB>",is being hugged by,,,,,,
null,"<div style=""font-size:60px;"">+</div>",,html-keyboard-response,282,902798,0.0-17.0-0.9,40873,List1B,black,woman,,,,null,,,,,,,,,
null,"<img src=""stim_listB/copy2.gif""style=""height:400px;""></stim_listB>",,html-keyboard-response,283,904812,0.0-17.0-1.9,40873,List1B,black,woman,,,,null,,,,,,,,,
null,is being copied by,,html-keyboard-response,284,906827,0.0-17.0-2.9,40873,List1B,black,woman,,,,null,,,,,,,,,
5535.7,,,survey-text,285,912365,0.0-17.0-3.9,40873,List1B,black,woman,,,,,"{""Q0"":""fred is being copied by kate""}","<img src=""stim_listB/copy2.gif""style=""height:400px;""></stim_listB>",is being copied by,,,,,,
null,"<div style=""font-size:60px;"">+</div>",,html-keyboard-response,286,912872,0.0-17.0-0.10,40873,List1B,black,woman,,,,null,,,,,,,,,
null,"<img src=""stim_listB/copy1.gif""style=""height:400px;""></stim_listB>",,html-keyboard-response,287,914885,0.0-17.0-1.10,40873,List1B,black,woman,,,,null,,,,,,,,,
null,is copying,,html-keyboard-response,288,916901,0.0-17.0-2.10,40873,List1B,black,woman,,,,null,,,,,,,,,
4753.3,,,survey-text,289,921656,0.0-17.0-3.10,40873,List1B,black,woman,,,,,"{""Q0"":""mike is copying beth""}","<img src=""stim_listB/copy1.gif""style=""height:400px;""></stim_listB>",is copying,,,,,,
null,"<div style=""font-size:60px;"">+</div>",,html-keyboard-response,290,922161,0.0-17.0-0.11,40873,List1B,black,woman,,,,null,,,,,,,,,
null,"<img src=""stim_listB/shout3.gif""style=""height:400px;""></stim_listB>",,html-keyboard-response,291,924176,0.0-17.0-1.11,40873,List1B,black,woman,,,,null,,,,,,,,,
null,is shouting at,,html-keyboard-response,292,926191,0.0-17.0-2.11,40873,List1B,black,woman,,,,null,,,,,,,,,
3838,,,survey-text,293,930031,0.0-17.0-3.11,40873,List1B,black,woman,,,,,"{""Q0"":""luke is shouting at ruth""}","<img src=""stim_listB/shout3.gif""style=""height:400px;""></stim_listB>",is shouting at,,,,,,
null,"<div style=""font-size:60px;"">+</div>",,html-keyboard-response,294,930537,0.0-17.0-0.12,40873,List1B,black,woman,,,,null,,,,,,,,,
null,"<img src=""stim_listB/look6.gif""style=""height:400px;""></stim_listB>",,html-keyboard-response,295,932552,0.0-17.0-1.12,40873,List1B,black,woman,,,,null,,,,,,,,,
null,is being looked at by,,html-keyboard-response,296,934567,0.0-17.0-2.12,40873,List1B,black,woman,,,,null,,,,,,,,,
7103.9,,,survey-text,297,941672,0.0-17.0-3.12,40873,List1B,black,woman,,,,,"{""Q0"":""dave is being looked at by mike""}","<img src=""stim_listB/look6.gif""style=""height:400px;""></stim_listB>",is being looked at by,,,,,,
null,"<div style=""font-size:60px;"">+</div>",,html-keyboard-response,298,942175,0.0-17.0-0.13,40873,List1B,black,woman,,,,null,,,,,,,,,
null,"<img src=""stim_listB/challenge1.gif""style=""height:400px;""></stim_listB>",,html-keyboard-response,299,944189,0.0-17.0-1.13,40873,List1B,black,woman,,,,null,,,,,,,,,
null,is challenging,,html-keyboard-response,300,946190,0.0-17.0-2.13,40873,List1B,black,woman,,,,null,,,,,,,,,
4553.3,,,survey-text,301,950745,0.0-17.0-3.13,40873,List1B,black,woman,,,,,"{""Q0"":""beth is challenging mike ""}","<img src=""stim_listB/challenge1.gif""style=""height:400px;""></stim_listB>",is challenging,,,,,,
null,"<div style=""font-size:60px;"">+</div>",,html-keyboard-response,302,951250,0.0-17.0-0.14,40873,List1B,black,woman,,,,null,,,,,,,,,
null,"<img src=""stim_listB/seduce8.gif""style=""height:400px;""></stim_listB>",,html-keyboard-response,303,953254,0.0-17.0-1.14,40873,List1B,black,woman,,,,null,,,,,,,,,
null,is being seduced by,,html-keyboard-response,304,955263,0.0-17.0-2.14,40873,List1B,black,woman,,,,null,,,,,,,,,
5799.6,,,survey-text,305,961064,0.0-17.0-3.14,40873,List1B,black,woman,,,,,"{""Q0"":""ruth is being seduced by kate""}","<img src=""stim_listB/seduce8.gif""style=""height:400px;""></stim_listB>",is being seduced by,,,,,,
null,"<div style=""font-size:60px;"">+</div>",,html-keyboard-response,306,961570,0.0-17.0-0.15,40873,List1B,black,woman,,,,null,,,,,,,,,
null,"<img src=""stim_listB/shout5.gif""style=""height:400px;""></stim_listB>",,html-keyboard-response,307,963572,0.0-17.0-1.15,40873,List1B,black,woman,,,,null,,,,,,,,,
null,is shouting at,,html-keyboard-response,308,965587,0.0-17.0-2.15,40873,List1B,black,woman,,,,null,,,,,,,,,
4719.1,,,survey-text,309,970307,0.0-17.0-3.15,40873,List1B,black,woman,,,,,"{""Q0"":""luke is shouting at fred""}","<img src=""stim_listB/shout5.gif""style=""height:400px;""></stim_listB>",is shouting at,,,,,,
null,"<div style=""font-size:60px;"">+</div>",,html-keyboard-response,310,970812,0.0-17.0-0.16,40873,List1B,black,woman,,,,null,,,,,,,,,
null,"<img src=""stim_listB/touch2.gif""style=""height:400px;""></stim_listB>",,html-keyboard-response,311,972829,0.0-17.0-1.16,40873,List1B,black,woman,,,,null,,,,,,,,,
null,is being touched by,,html-keyboard-response,312,974844,0.0-17.0-2.16,40873,List1B,black,woman,,,,null,,,,,,,,,
4992.8,,,survey-text,313,979838,0.0-17.0-3.16,40873,List1B,black,woman,,,,,"{""Q0"":""beth is being touched by fred""}","<img src=""stim_listB/touch2.gif""style=""height:400px;""></stim_listB>",is being touched by,,,,,,
null,"<div style=""font-size:60px;"">+</div>",,html-keyboard-response,314,980354,0.0-17.0-0.17,40873,List1B,black,woman,,,,null,,,,,,,,,
null,"<img src=""stim_listB/oppose3.gif""style=""height:400px;""></stim_listB>",,html-keyboard-response,315,982368,0.0-17.0-1.17,40873,List1B,black,woman,,,,null,,,,,,,,,
null,is opposing,,html-keyboard-response,316,984380,0.0-17.0-2.17,40873,List1B,black,woman,,,,null,,,,,,,,,
3878.5,,,survey-text,317,988261,0.0-17.0-3.17,40873,List1B,black,woman,,,,,"{""Q0"":""dave is opposing jane""}","<img src=""stim_listB/oppose3.gif""style=""height:400px;""></stim_listB>",is opposing,,,,,,
null,"<div style=""font-size:60px;"">+</div>",,html-keyboard-response,318,988763,0.0-17.0-0.18,40873,List1B,black,woman,,,,null,,,,,,,,,
null,"<img src=""stim_listB/hug7.gif""style=""height:400px;""></stim_listB>",,html-keyboard-response,319,990777,0.0-17.0-1.18,40873,List1B,black,woman,,,,null,,,,,,,,,
null,is hugging,,html-keyboard-response,320,992790,0.0-17.0-2.18,40873,List1B,black,woman,,,,null,,,,,,,,,
5635.4,,,survey-text,321,998427,0.0-17.0-3.18,40873,List1B,black,woman,,,,,"{""Q0"":""beth is hugging ruth""}","<img src=""stim_listB/hug7.gif""style=""height:400px;""></stim_listB>",is hugging,,,,,,
null,"<div style=""font-size:60px;"">+</div>",,html-keyboard-response,322,998934,0.0-17.0-0.19,40873,List1B,black,woman,,,,null,,,,,,,,,
null,"<img src=""stim_listB/seduce4.gif""style=""height:400px;""></stim_listB>",,html-keyboard-response,323,1000936,0.0-17.0-1.19,40873,List1B,black,woman,,,,null,,,,,,,,,
null,is being seduced by,,html-keyboard-response,324,1002950,0.0-17.0-2.19,40873,List1B,black,woman,,,,null,,,,,,,,,
5527.4,,,survey-text,325,1008479,0.0-17.0-3.19,40873,List1B,black,woman,,,,,"{""Q0"":""ruth is being seduced by dave""}","<img src=""stim_listB/seduce4.gif""style=""height:400px;""></stim_listB>",is being seduced by,,,,,,
2430.2,"<img src='img/portrait_matrix_list1.jpg' style='width:900px;height:500px;''></img><p>If you have memorised all the portraits and names and are ready to start, press Continue.</p><p><strong>Please note: Your memory of these faces will be tested 4 times during this experiment.</strong></p>",0,html-button-response,326,1010911,0.0-18.0-0.0,40873,List1B,black,woman,,,,,,,,,,,,,
2021.4,"<img src=""portrait/WM2.jpg""style=""height:400px;""></img>",7,html-button-response,327,1013941,0.0-18.0-1.0,40873,List1B,black,woman,,TRUE,7,,,,,,,,,,
null,CORRECT,,html-keyboard-response,328,1015469,0.0-18.0-2.0-0.0,40873,List1B,black,woman,,,,null,,,,,,,,,
2033.3,"<img src=""portrait/BM2.jpg""style=""height:400px;""></img>",5,html-button-response,329,1017505,0.0-18.0-4.0,40873,List1B,black,woman,,TRUE,5,,,,,,,,,,
null,CORRECT,,html-keyboard-response,330,1019033,0.0-18.0-5.0-0.0,40873,List1B,black,woman,,,,null,,,,,,,,,
12890.5,"<img src=""portrait/BW1.jpg""style=""height:400px;""></img>",0,html-button-response,331,1031924,0.0-18.0-7.0,40873,List1B,black,woman,,TRUE,0,,,,,,,,,,
null,CORRECT,,html-keyboard-response,332,1033451,0.0-18.0-8.0-0.0,40873,List1B,black,woman,,,,null,,,,,,,,,
2258.3,"<img src=""portrait/BW2.jpg""style=""height:400px;""></img>",2,html-button-response,333,1035710,0.0-18.0-10.0,40873,List1B,black,woman,,TRUE,2,,,,,,,,,,
null,CORRECT,,html-keyboard-response,334,1037232,0.0-18.0-11.0-0.0,40873,List1B,black,woman,,,,null,,,,,,,,,
17401.5,"<img src=""portrait/WW1.jpg""style=""height:400px;""></img>",1,html-button-response,335,1054635,0.0-18.0-13.0,40873,List1B,black,woman,,TRUE,1,,,,,,,,,,
null,CORRECT,,html-keyboard-response,336,1056162,0.0-18.0-14.0-0.0,40873,List1B,black,woman,,,,null,,,,,,,,,
2417,"<img src=""portrait/WW2.jpg""style=""height:400px;""></img>",3,html-button-response,337,1058581,0.0-18.0-16.0,40873,List1B,black,woman,,TRUE,3,,,,,,,,,,
null,CORRECT,,html-keyboard-response,338,1060109,0.0-18.0-17.0-0.0,40873,List1B,black,woman,,,,null,,,,,,,,,
2981.1,"<img src=""portrait/WM1.jpg""style=""height:400px;""></img>",6,html-button-response,339,1063092,0.0-18.0-19.0,40873,List1B,black,woman,,TRUE,6,,,,,,,,,,
null,CORRECT,,html-keyboard-response,340,1064621,0.0-18.0-20.0-0.0,40873,List1B,black,woman,,,,null,,,,,,,,,
2249.2,"<img src=""portrait/BM1.jpg""style=""height:400px;""></img>",4,html-button-response,341,1066872,0.0-18.0-22.0,40873,List1B,black,woman,,TRUE,4,,,,,,,,,,
null,CORRECT,,html-keyboard-response,342,1068401,0.0-18.0-23.0-0.0,40873,List1B,black,woman,,,,null,,,,,,,,,
1384.4,<p>You got 8 out of 8 right first time. Press Continue.</p>,0,html-button-response,343,1069787,0.0-18.0-25.0,40873,List1B,black,woman,,,,,,,,,,,,,
null,"<div style=""font-size:60px;"">+</div>",,html-keyboard-response,344,1071315,0.0-19.0-0.0,40873,List1B,black,woman,,,,null,,,,,,,,,
null,"<img src=""stim_listB/kiss2.gif""style=""height:400px;""></stim_listB>",,html-keyboard-response,345,1073326,0.0-19.0-1.0,40873,List1B,black,woman,,,,null,,,,,,,,,
null,is being kissed by,,html-keyboard-response,346,1075329,0.0-19.0-2.0,40873,List1B,black,woman,,,,null,,,,,,,,,
7323.6,,,survey-text,347,1082654,0.0-19.0-3.0,40873,List1B,black,woman,,,,,"{""Q0"":""kate is being kissed by mike""}","<img src=""stim_listB/kiss2.gif""style=""height:400px;""></stim_listB>",is being kissed by,,,,,,
null,"<div style=""font-size:60px;"">+</div>",,html-keyboard-response,348,1083170,0.0-19.0-0.1,40873,List1B,black,woman,,,,null,,,,,,,,,
null,"<img src=""stim_listB/seduce6.gif""style=""height:400px;""></stim_listB>",,html-keyboard-response,349,1085186,0.0-19.0-1.1,40873,List1B,black,woman,,,,null,,,,,,,,,
null,is being seduced by,,html-keyboard-response,350,1087200,0.0-19.0-2.1,40873,List1B,black,woman,,,,null,,,,,,,,,
8870.7,,,survey-text,351,1096072,0.0-19.0-3.1,40873,List1B,black,woman,,,,,"{""Q0"":""luke is being seduced by mike ""}","<img src=""stim_listB/seduce6.gif""style=""height:400px;""></stim_listB>",is being seduced by,,,,,,
null,"<div style=""font-size:60px;"">+</div>",,html-keyboard-response,352,1096574,0.0-19.0-0.2,40873,List1B,black,woman,,,,null,,,,,,,,,
null,"<img src=""stim_listB/look1.gif""style=""height:400px;""></stim_listB>",,html-keyboard-response,353,1098588,0.0-19.0-1.2,40873,List1B,black,woman,,,,null,,,,,,,,,
null,is looking at,,html-keyboard-response,354,1100602,0.0-19.0-2.2,40873,List1B,black,woman,,,,null,,,,,,,,,
3875.6,,,survey-text,355,1104480,0.0-19.0-3.2,40873,List1B,black,woman,,,,,"{""Q0"":""beth is looking at fred""}","<img src=""stim_listB/look1.gif""style=""height:400px;""></stim_listB>",is looking at,,,,,,
null,"<div style=""font-size:60px;"">+</div>",,html-keyboard-response,356,1104984,0.0-19.0-0.3,40873,List1B,black,woman,,,,null,,,,,,,,,
null,"<img src=""stim_listB/oppose7.gif""style=""height:400px;""></stim_listB>",,html-keyboard-response,357,1106998,0.0-19.0-1.3,40873,List1B,black,woman,,,,null,,,,,,,,,
null,is opposing,,html-keyboard-response,358,1109012,0.0-19.0-2.3,40873,List1B,black,woman,,,,null,,,,,,,,,
6196.6,,,survey-text,359,1115211,0.0-19.0-3.3,40873,List1B,black,woman,,,,,"{""Q0"":""jane is opposing kate""}","<img src=""stim_listB/oppose7.gif""style=""height:400px;""></stim_listB>",is opposing,,,,,,
null,"<div style=""font-size:60px;"">+</div>",,html-keyboard-response,360,1115722,0.0-19.0-0.4,40873,List1B,black,woman,,,,null,,,,,,,,,
null,"<img src=""stim_listB/shout7.gif""style=""height:400px;""></stim_listB>",,html-keyboard-response,361,1117736,0.0-19.0-1.4,40873,List1B,black,woman,,,,null,,,,,,,,,
null,is shouting at,,html-keyboard-response,362,1119743,0.0-19.0-2.4,40873,List1B,black,woman,,,,null,,,,,,,,,
4717.7,,,survey-text,363,1124462,0.0-19.0-3.4,40873,List1B,black,woman,,,,,"{""Q0"":""ruth is shouting at beth ""}","<img src=""stim_listB/shout7.gif""style=""height:400px;""></stim_listB>",is shouting at,,,,,,
null,"<div style=""font-size:60px;"">+</div>",,html-keyboard-response,364,1124964,0.0-19.0-0.5,40873,List1B,black,woman,,,,null,,,,,,,,,
null,"<img src=""stim_listB/touch8.gif""style=""height:400px;""></stim_listB>",,html-keyboard-response,365,1126978,0.0-19.0-1.5,40873,List1B,black,woman,,,,null,,,,,,,,,
null,is being touched by,,html-keyboard-response,366,1128992,0.0-19.0-2.5,40873,List1B,black,woman,,,,null,,,,,,,,,
4755.1,,,survey-text,367,1133748,0.0-19.0-3.5,40873,List1B,black,woman,,,,,"{""Q0"":""ruth is being touched by beth""}","<img src=""stim_listB/touch8.gif""style=""height:400px;""></stim_listB>",is being touched by,,,,,,
null,"<div style=""font-size:60px;"">+</div>",,html-keyboard-response,368,1134253,0.0-19.0-0.6,40873,List1B,black,woman,,,,null,,,,,,,,,
null,"<img src=""stim_listB/shout2.gif""style=""height:400px;""></stim_listB>",,html-keyboard-response,369,1136270,0.0-19.0-1.6,40873,List1B,black,woman,,,,null,,,,,,,,,
null,is being shouted at by,,html-keyboard-response,370,1138284,0.0-19.0-2.6,40873,List1B,black,woman,,,,null,,,,,,,,,
6477.2,,,survey-text,371,1144763,0.0-19.0-3.6,40873,List1B,black,woman,,,,,"{""Q0"":""mike is being shouted at by kate ""}","<img src=""stim_listB/shout2.gif""style=""height:400px;""></stim_listB>",is being shouted at by,,,,,,
null,"<div style=""font-size:60px;"">+</div>",,html-keyboard-response,372,1145276,0.0-19.0-0.7,40873,List1B,black,woman,,,,null,,,,,,,,,
null,"<img src=""stim_listB/oppose1.gif""style=""height:400px;""></stim_listB>",,html-keyboard-response,373,1147306,0.0-19.0-1.7,40873,List1B,black,woman,,,,null,,,,,,,,,
null,is opposing,,html-keyboard-response,374,1149307,0.0-19.0-2.7,40873,List1B,black,woman,,,,null,,,,,,,,,
3775.6,,,survey-text,375,1153085,0.0-19.0-3.7,40873,List1B,black,woman,,,,,"{""Q0"":""kate is opposing mike""}","<img src=""stim_listB/oppose1.gif""style=""height:400px;""></stim_listB>",is opposing,,,,,,
null,"<div style=""font-size:60px;"">+</div>",,html-keyboard-response,376,1153586,0.0-19.0-0.8,40873,List1B,black,woman,,,,null,,,,,,,,,
null,"<img src=""stim_listB/touch5.gif""style=""height:400px;""></stim_listB>",,html-keyboard-response,377,1155600,0.0-19.0-1.8,40873,List1B,black,woman,,,,null,,,,,,,,,
null,is touching,,html-keyboard-response,378,1157615,0.0-19.0-2.8,40873,List1B,black,woman,,,,null,,,,,,,,,
3206.7,,,survey-text,379,1160823,0.0-19.0-3.8,40873,List1B,black,woman,,,,,"{""Q0"":""dave is touching mike""}","<img src=""stim_listB/touch5.gif""style=""height:400px;""></stim_listB>",is touching,,,,,,
null,"<div style=""font-size:60px;"">+</div>",,html-keyboard-response,380,1161329,0.0-19.0-0.9,40873,List1B,black,woman,,,,null,,,,,,,,,
null,"<img src=""stim_listB/seduce2.gif""style=""height:400px;""></stim_listB>",,html-keyboard-response,381,1163342,0.0-19.0-1.9,40873,List1B,black,woman,,,,null,,,,,,,,,
null,is being seduced by,,html-keyboard-response,382,1165344,0.0-19.0-2.9,40873,List1B,black,woman,,,,null,,,,,,,,,
5135.5,,,survey-text,383,1170481,0.0-19.0-3.9,40873,List1B,black,woman,,,,,"{""Q0"":""beth is being seduced by mike""}","<img src=""stim_listB/seduce2.gif""style=""height:400px;""></stim_listB>",is being seduced by,,,,,,
null,"<div style=""font-size:60px;"">+</div>",,html-keyboard-response,384,1170985,0.0-19.0-0.10,40873,List1B,black,woman,,,,null,,,,,,,,,
null,"<img src=""stim_listB/oppose6.gif""style=""height:400px;""></stim_listB>",,html-keyboard-response,385,1173000,0.0-19.0-1.10,40873,List1B,black,woman,,,,null,,,,,,,,,
null,is being opposed by,,html-keyboard-response,386,1175015,0.0-19.0-2.10,40873,List1B,black,woman,,,,null,,,,,,,,,
5066.8,,,survey-text,387,1180084,0.0-19.0-3.10,40873,List1B,black,woman,,,,,"{""Q0"":""luke is being opposed by fred""}","<img src=""stim_listB/oppose6.gif""style=""height:400px;""></stim_listB>",is being opposed by,,,,,,
null,"<div style=""font-size:60px;"">+</div>",,html-keyboard-response,388,1180590,0.0-19.0-0.11,40873,List1B,black,woman,,,,null,,,,,,,,,
null,"<img src=""stim_listB/seduce7.gif""style=""height:400px;""></stim_listB>",,html-keyboard-response,389,1182591,0.0-19.0-1.11,40873,List1B,black,woman,,,,null,,,,,,,,,
null,is seducing,,html-keyboard-response,390,1184606,0.0-19.0-2.11,40873,List1B,black,woman,,,,null,,,,,,,,,
3545,,,survey-text,391,1188153,0.0-19.0-3.11,40873,List1B,black,woman,,,,,"{""Q0"":""jane is seducing beth""}","<img src=""stim_listB/seduce7.gif""style=""height:400px;""></stim_listB>",is seducing,,,,,,
null,"<div style=""font-size:60px;"">+</div>",,html-keyboard-response,392,1188667,0.0-19.0-0.12,40873,List1B,black,woman,,,,null,,,,,,,,,
null,"<img src=""stim_listB/shout6.gif""style=""height:400px;""></stim_listB>",,html-keyboard-response,393,1190682,0.0-19.0-1.12,40873,List1B,black,woman,,,,null,,,,,,,,,
null,is being shouted at by,,html-keyboard-response,394,1192696,0.0-19.0-2.12,40873,List1B,black,woman,,,,null,,,,,,,,,
5517.5,,,survey-text,395,1198215,0.0-19.0-3.12,40873,List1B,black,woman,,,,,"{""Q0"":""dave is being shouted at by mike ""}","<img src=""stim_listB/shout6.gif""style=""height:400px;""></stim_listB>",is being shouted at by,,,,,,
null,"<div style=""font-size:60px;"">+</div>",,html-keyboard-response,396,1198724,0.0-19.0-0.13,40873,List1B,black,woman,,,,null,,,,,,,,,
null,"<img src=""stim_listB/copy7.gif""style=""height:400px;""></stim_listB>",,html-keyboard-response,397,1200740,0.0-19.0-1.13,40873,List1B,black,woman,,,,null,,,,,,,,,
null,is copying,,html-keyboard-response,398,1202754,0.0-19.0-2.13,40873,List1B,black,woman,,,,null,,,,,,,,,
14628.6,,,survey-text,399,1217385,0.0-19.0-3.13,40873,List1B,black,woman,,,,,"{""Q0"":""ruth is copying kate ""}","<img src=""stim_listB/copy7.gif""style=""height:400px;""></stim_listB>",is copying,,,,,,
null,"<div style=""font-size:60px;"">+</div>",,html-keyboard-response,400,1217889,0.0-19.0-0.14,40873,List1B,black,woman,,,,null,,,,,,,,,
null,"<img src=""stim_listB/touch4.gif""style=""height:400px;""></stim_listB>",,html-keyboard-response,401,1219904,0.0-19.0-1.14,40873,List1B,black,woman,,,,null,,,,,,,,,
null,is being touched by,,html-keyboard-response,402,1221910,0.0-19.0-2.14,40873,List1B,black,woman,,,,null,,,,,,,,,
4816,,,survey-text,403,1226727,0.0-19.0-3.14,40873,List1B,black,woman,,,,,"{""Q0"":""luke is being touched by ruth""}","<img src=""stim_listB/touch4.gif""style=""height:400px;""></stim_listB>",is being touched by,,,,,,
null,"<div style=""font-size:60px;"">+</div>",,html-keyboard-response,404,1227230,0.0-19.0-0.15,40873,List1B,black,woman,,,,null,,,,,,,,,
null,"<img src=""stim_listB/copy6.gif""style=""height:400px;""></stim_listB>",,html-keyboard-response,405,1229243,0.0-19.0-1.15,40873,List1B,black,woman,,,,null,,,,,,,,,
null,is being copied by,,html-keyboard-response,406,1231258,0.0-19.0-2.15,40873,List1B,black,woman,,,,null,,,,,,,,,
7830.5,,,survey-text,407,1239090,0.0-19.0-3.15,40873,List1B,black,woman,,,,,"{""Q0"":""fred is being copied by dave""}","<img src=""stim_listB/copy6.gif""style=""height:400px;""></stim_listB>",is being copied by,,,,,,
null,"<div style=""font-size:60px;"">+</div>",,html-keyboard-response,408,1239600,0.0-19.0-0.16,40873,List1B,black,woman,,,,null,,,,,,,,,
null,"<img src=""stim_listB/kiss5.gif""style=""height:400px;""></stim_listB>",,html-keyboard-response,409,1241616,0.0-19.0-1.16,40873,List1B,black,woman,,,,null,,,,,,,,,
null,is kissing,,html-keyboard-response,410,1243631,0.0-19.0-2.16,40873,List1B,black,woman,,,,null,,,,,,,,,
4407,,,survey-text,411,1248039,0.0-19.0-3.16,40873,List1B,black,woman,,,,,"{""Q0"":""fred is kissing luke""}","<img src=""stim_listB/kiss5.gif""style=""height:400px;""></stim_listB>",is kissing,,,,,,
null,"<div style=""font-size:60px;"">+</div>",,html-keyboard-response,412,1248542,0.0-19.0-0.17,40873,List1B,black,woman,,,,null,,,,,,,,,
null,"<img src=""stim_listB/challenge8.gif""style=""height:400px;""></stim_listB>",,html-keyboard-response,413,1250557,0.0-19.0-1.17,40873,List1B,black,woman,,,,null,,,,,,,,,
null,is being challenged by,,html-keyboard-response,414,1252572,0.0-19.0-2.17,40873,List1B,black,woman,,,,null,,,,,,,,,
7836.8,,,survey-text,415,1260410,0.0-19.0-3.17,40873,List1B,black,woman,,,,,"{""Q0"":""beth is being challenged by jane""}","<img src=""stim_listB/challenge8.gif""style=""height:400px;""></stim_listB>",is being challenged by,,,,,,
null,"<div style=""font-size:60px;"">+</div>",,html-keyboard-response,416,1260913,0.0-19.0-0.18,40873,List1B,black,woman,,,,null,,,,,,,,,
null,"<img src=""stim_listB/challenge3.gif""style=""height:400px;""></stim_listB>",,html-keyboard-response,417,1262928,0.0-19.0-1.18,40873,List1B,black,woman,,,,null,,,,,,,,,
null,is challenging,,html-keyboard-response,418,1264942,0.0-19.0-2.18,40873,List1B,black,woman,,,,null,,,,,,,,,
3556.3,,,survey-text,419,1268500,0.0-19.0-3.18,40873,List1B,black,woman,,,,,"{""Q0"":""ruth is challenging dave""}","<img src=""stim_listB/challenge3.gif""style=""height:400px;""></stim_listB>",is challenging,,,,,,
null,"<div style=""font-size:60px;"">+</div>",,html-keyboard-response,420,1269005,0.0-19.0-0.19,40873,List1B,black,woman,,,,null,,,,,,,,,
null,"<img src=""stim_listB/look3.gif""style=""height:400px;""></stim_listB>",,html-keyboard-response,421,1271018,0.0-19.0-1.19,40873,List1B,black,woman,,,,null,,,,,,,,,
null,is looking at,,html-keyboard-response,422,1273020,0.0-19.0-2.19,40873,List1B,black,woman,,,,null,,,,,,,,,
5566.4,,,survey-text,423,1278587,0.0-19.0-3.19,40873,List1B,black,woman,,,,,"{""Q0"":""ruth is lookimg at ruth""}","<img src=""stim_listB/look3.gif""style=""height:400px;""></stim_listB>",is looking at,,,,,,
2141.9,<p>Thank you for completing that task.</p><p>The final part of this session is a questionnaire that will take about 4 minutes.</p><p>Press Continue.</p>,0,html-button-response,424,1280730,0.0-20.0,40873,List1B,black,woman,,,,,,,,,,,,,
30457.8,,,survey-text,425,1312218,0.0-21.0,40873,List1B,black,woman,,,,,"{""Q0"":""20"",""Q1"":""english"",""Q2"":""english"",""Q3"":""USA"",""Q4"":""American"",""Q5"":""Black"",""Q6"":""Female""}",,,demographics,,,,,
1660.2,<p>Have you lived in the USA for the last 5 years or more?</p>,0,html-button-response,426,1313880,0.0-22.0,40873,List1B,black,woman,,,,,,,,fiveyears,,,,,
1585.5,<p>Move the slider to show the extent to which you agree with the following statements.</p>,0,html-button-response,427,1316478,0.0-23.0,40873,List1B,black,woman,,,,,,,,,,,,,
5742.1,,,html-slider-response,428,1323234,0.0-24.0-0.0-0.0,40873,List1B,black,woman,,,,,,,,survey_race,100,,,Being my race is an important part of how I see myself.,important
4016.9,,,html-slider-response,429,1327252,0.0-24.0-0.0-0.1,40873,List1B,black,woman,,,,,,,,survey_race,88,,,People of my race are very similar to each other.,verysimilar
2157,,,html-slider-response,430,1329410,0.0-24.0-0.0-0.2,40873,List1B,black,woman,,,,,,,,survey_race,45,,,I consider myself an introvert.,filler
2547.9,,,html-slider-response,431,1331959,0.0-24.0-0.0-0.3,40873,List1B,black,woman,,,,,,,,survey_race,100,,,It is pleasant to be my race.,pleasant
2016.9,,,html-slider-response,432,1333977,0.0-24.0-0.0-0.4,40873,List1B,black,woman,,,,,,,,survey_race,100,,,People of my race have a lot in common with each other.,common
2282.5,,,html-slider-response,433,1336260,0.0-24.0-0.0-0.5,40873,List1B,black,woman,,,,,,,,survey_race,100,,,I feel solidarity with people the same age as me.,filler
1622.1,,,html-slider-response,434,1337883,0.0-24.0-0.0-0.6,40873,List1B,black,woman,,,,,,,,survey_race,76,,,I have a lot in common with people of a similar age to me.,filler
2681.2,,,html-slider-response,435,1340565,0.0-24.0-0.0-0.7,40873,List1B,black,woman,,,,,,,,survey_race,100,,,Being my race gives me a good feeling.,feeling
2691.9,,,html-slider-response,436,1343259,0.0-24.0-0.0-0.8,40873,List1B,black,woman,,,,,,,,survey_race,81,,,I am similar to the average person of my race.,similar
2326.8,,,html-slider-response,437,1345586,0.0-24.0-0.0-0.9,40873,List1B,black,woman,,,,,,,,survey_race,100,,,I feel committed to my race.,committed
2542.9,,,html-slider-response,438,1348130,0.0-24.0-0.0-0.10,40873,List1B,black,woman,,,,,,,,survey_race,37,,,I enjoy being in large groups.,filler
3857,,,html-slider-response,439,1351988,0.0-24.0-0.0-0.11,40873,List1B,black,woman,,,,,,,,survey_race,100,,,I have a lot in common with the average person of my race.,average
1320.8,,,html-slider-response,440,1353310,0.0-24.0-0.0-0.12,40873,List1B,black,woman,,,,,,,,survey_race,71,,,Being my age gives me a good feeling.,filler
2015.7,,,html-slider-response,441,1355327,0.0-24.0-0.0-0.13,40873,List1B,black,woman,,,,,,,,survey_race,100,,,I think that my race has a lot to be proud of.,proud
2570.6,,,html-slider-response,442,1357898,0.0-24.0-0.0-0.14,40873,List1B,black,woman,,,,,,,,survey_race,89,,,"The older I get, the wiser I feel.",filler
1490.6,,,html-slider-response,443,1359390,0.0-24.0-0.0-0.15,40873,List1B,black,woman,,,,,,,,survey_race,100,,,I am glad to be my race.,glad
2464.5,,,html-slider-response,444,1361855,0.0-24.0-0.0-0.16,40873,List1B,black,woman,,,,,,,,survey_race,100,,,I feel solidarity with my race.,solidarity
2533.4,,,html-slider-response,445,1364390,0.0-24.0-0.0-0.17,40873,List1B,black,woman,,,,,,,,survey_race,84,,,I often think about the fact that I am my race.,often
3577,,,html-slider-response,446,1367968,0.0-24.0-0.0-0.18,40873,List1B,black,woman,,,,,,,,survey_race,26,,,Getting older does not worry me.,filler
3085.6,,,html-slider-response,447,1371055,0.0-24.0-0.0-0.19,40873,List1B,black,woman,,,,,,,,survey_race,71,,,People my age have a lot in common with each other.,filler
1893.2,,,html-slider-response,448,1372949,0.0-24.0-0.0-0.20,40873,List1B,black,woman,,,,,,,,survey_race,100,,,I feel a bond with my race.,bond
2283.3,,,html-slider-response,449,1375233,0.0-24.0-0.0-0.21,40873,List1B,black,woman,,,,,,,,survey_race,67,,,I feel a bond with people the same age as me.,filler
2187.4,,,html-slider-response,450,1377421,0.0-24.0-0.0-0.22,40873,List1B,black,woman,,,,,,,,survey_race,29,,,I consider myself an extrovert.,filler
3388.8,,,html-slider-response,451,1380810,0.0-24.0-0.0-0.23,40873,List1B,black,woman,,,,,,,,survey_race,54,,,My age is not an important part of who I am.,filler
1758.1,,,html-slider-response,452,1382569,0.0-24.0-0.0-0.24,40873,List1B,black,woman,,,,,,,,survey_race,68,,,I am glad to be my age.,filler
2582.2,,,html-slider-response,453,1385152,0.0-24.0-0.0-0.25,40873,List1B,black,woman,,,,,,,,survey_race,84,,,I am glad to be the age I am.,filler
2580.9,,,html-slider-response,454,1387734,0.0-24.0-0.0-0.26,40873,List1B,black,woman,,,,,,,,survey_race,73,,,I often think about the fact that I am my age.,filler
2283.5,,,html-slider-response,455,1390018,0.0-24.0-0.0-0.27,40873,List1B,black,woman,,,,,,,,survey_race,100,,,The fact that I am my race is an important part of my identity.,identity
3965.6,,,html-slider-response,456,1393985,0.0-24.0-1.0-0.0,40873,List1B,black,woman,,,,,,,,survey_gender,100,,,Being my gender gives me a good feeling.,feeling
74953.9,,,html-slider-response,457,1468939,0.0-24.0-1.0-0.1,40873,List1B,black,woman,,,,,,,,survey_gender,69,,,It is not always easy for people to know what I am thinking.,filler
2949.5,,,html-slider-response,458,1471890,0.0-24.0-1.0-0.2,40873,List1B,black,woman,,,,,,,,survey_gender,41,,,Routine is not important to me.,filler
2993.1,,,html-slider-response,459,1474884,0.0-24.0-1.0-0.3,40873,List1B,black,woman,,,,,,,,survey_gender,0,,,Family is not more important to me than friendship.,filler
2224.4,,,html-slider-response,460,1477109,0.0-24.0-1.0-0.4,40873,List1B,black,woman,,,,,,,,survey_gender,100,,,I am glad to have the friends that I have.,filler
1546.2,,,html-slider-response,461,1478656,0.0-24.0-1.0-0.5,40873,List1B,black,woman,,,,,,,,survey_gender,100,,,I feel a bond with my friends.,filler
1458.1,,,html-slider-response,462,1480115,0.0-24.0-1.0-0.6,40873,List1B,black,woman,,,,,,,,survey_gender,100,,,I have a lot in common with my friends.,filler
2010.3,,,html-slider-response,463,1482126,0.0-24.0-1.0-0.7,40873,List1B,black,woman,,,,,,,,survey_gender,100,,,I feel solidarity with my friends.,filler
1766.3,,,html-slider-response,464,1483893,0.0-24.0-1.0-0.8,40873,List1B,black,woman,,,,,,,,survey_gender,100,,,The fact that I am my gender is an important part of my identity.,identity
2273.8,,,html-slider-response,465,1486168,0.0-24.0-1.0-0.9,40873,List1B,black,woman,,,,,,,,survey_gender,70,,,I often think about my actions.,filler
2862,,,html-slider-response,466,1489030,0.0-24.0-1.0-0.10,40873,List1B,black,woman,,,,,,,,survey_gender,72,,,I feel solidarity with my gender.,solidarity
1475.1,,,html-slider-response,467,1490506,0.0-24.0-1.0-0.11,40873,List1B,black,woman,,,,,,,,survey_gender,83,,,Being my gender is an important part of how I see myself.,important
1711.8,,,html-slider-response,468,1492219,0.0-24.0-1.0-0.12,40873,List1B,black,woman,,,,,,,,survey_gender,100,,,Most of the friends in my life are very similar to me.,filler
3006.4,,,html-slider-response,469,1495226,0.0-24.0-1.0-0.13,40873,List1B,black,woman,,,,,,,,survey_gender,100,,,My friends understand me.,filler
1833,,,html-slider-response,470,1497060,0.0-24.0-1.0-0.14,40873,List1B,black,woman,,,,,,,,survey_gender,100,,,Being around my friends gives me a good feeling.,filler
4088.1,,,html-slider-response,471,1501149,0.0-24.0-1.0-0.15,40873,List1B,black,woman,,,,,,,,survey_gender,38,,,I often think about the fact that I am my gender.,often
32092.4,,,html-slider-response,472,1533228,0.0-24.0-1.0-0.16,40873,List1B,black,woman,,,,,,,,survey_gender,100,,,I think that my gender has a lot to be proud of.,proud
2437.1,,,html-slider-response,473,1535667,0.0-24.0-1.0-0.17,40873,List1B,black,woman,,,,,,,,survey_gender,71,,,It is pleasant to be my gender.,pleasant
2112.6,,,html-slider-response,474,1537780,0.0-24.0-1.0-0.18,40873,List1B,black,woman,,,,,,,,survey_gender,80,,,I feel a bond with my gender.,bond
2245.2,,,html-slider-response,475,1540026,0.0-24.0-1.0-0.19,40873,List1B,black,woman,,,,,,,,survey_gender,100,,,I would say I am an animal person.,filler
1708.3,,,html-slider-response,476,1541735,0.0-24.0-1.0-0.20,40873,List1B,black,woman,,,,,,,,survey_gender,85,,,I am similar to the average person of my gender.,similar
2124.9,,,html-slider-response,477,1543861,0.0-24.0-1.0-0.21,40873,List1B,black,woman,,,,,,,,survey_gender,89,,,People of my gender are very similar to each other.,verysimilar
1444,,,html-slider-response,478,1545306,0.0-24.0-1.0-0.22,40873,List1B,black,woman,,,,,,,,survey_gender,100,,,I am glad to be my gender.,glad
3456.4,,,html-slider-response,479,1548763,0.0-24.0-1.0-0.23,40873,List1B,black,woman,,,,,,,,survey_gender,100,,,My friends have a lot in common with each other.,filler
1938.8,,,html-slider-response,480,1550703,0.0-24.0-1.0-0.24,40873,List1B,black,woman,,,,,,,,survey_gender,86,,,I have a lot in common with the average person of my gender.,average
1980.7,,,html-slider-response,481,1552684,0.0-24.0-1.0-0.25,40873,List1B,black,woman,,,,,,,,survey_gender,83,,,I consider myself a highly empathetic person.,filler
1753.9,,,html-slider-response,482,1554439,0.0-24.0-1.0-0.26,40873,List1B,black,woman,,,,,,,,survey_gender,90,,,I feel committed to my gender.,committed
1258.3,,,html-slider-response,483,1555698,0.0-24.0-1.0-0.27,40873,List1B,black,woman,,,,,,,,survey_gender,86,,,People of my gender have a lot in common with each other.,common
74889.3,,,survey-text,484,1630610,0.0-25.0,40873,List1B,black,woman,,,,,"{""Q0"":""ccc""}",,,worker_id,,,,,
12274.8,,,external-html,485,1643182,0.0-26.0,40873,List1B,black,woman,debrief.html,,,,,,,,,,,,
