rt,stimulus,button_pressed,trial_type,trial_index,time_elapsed,internal_node_id,subject,list,ppt_race,ppt_gender,url,first_guess,correct,key_press,responses,image_type,phrase_type,test_part,response,stimulus1,stimulus2,question_type,survey_item
1863.8,Welcome to the experiment. Press Continue to begin.,0,html-button-response,0,1865,0.0-0.0,41277,List2A,white,woman,,,,,,,,,,,,,
18290,,,external-html,1,21278,0.0-1.0,41277,List2A,white,woman,consent.html,,,,,,,,,,,,
9954.1,"<p>On the next page, you will see portraits of 8 people and their names.</p><p>Your first task is to take a few minutes to memorise the names of these people.</p><p>You will have to recall their names during the rest of the experiment, so it is</p><p>essential that you try to memorise these people and their names as best as you can.</p><br><p><strong>You will then be tested on your memory of these names and portraits.</strong></p><br><p>The experiment will start after you have completed this memory test.</p><br><p>Ready?</p>",0,html-button-response,2,31233,0.0-2.0,41277,List2A,white,woman,,,,,,,,,,,,,
73041.9,"<img src='img/portrait_matrix_list2.jpg' style='width:900px;height:500px;''></img><p>If you have memorised all the portraits and names and are ready to start, press Continue.</p><p><strong>Please note: Your memory of these faces will be tested 4 times during this experiment.</strong></p>",0,html-button-response,3,105279,0.0-3.0-0.0,41277,List2A,white,woman,,,,,,,,,,,,,
6271.5,"<img src=""portrait/BM1.jpg""style=""height:400px;""></img>",4,html-button-response,4,112557,0.0-3.0-1.0,41277,List2A,white,woman,,TRUE,4,,,,,,,,,,
null,CORRECT,,html-keyboard-response,5,114065,0.0-3.0-2.0-0.0,41277,List2A,white,woman,,,,null,,,,,,,,,
5023.8,"<img src=""portrait/WM2.jpg""style=""height:400px;""></img>",7,html-button-response,6,119090,0.0-3.0-4.0,41277,List2A,white,woman,,TRUE,7,,,,,,,,,,
null,CORRECT,,html-keyboard-response,7,120594,0.0-3.0-5.0-0.0,41277,List2A,white,woman,,,,null,,,,,,,,,
5515.3,"<img src=""portrait/WW2.jpg""style=""height:400px;""></img>",3,html-button-response,8,126110,0.0-3.0-7.0,41277,List2A,white,woman,,TRUE,3,,,,,,,,,,
null,CORRECT,,html-keyboard-response,9,127616,0.0-3.0-8.0-0.0,41277,List2A,white,woman,,,,null,,,,,,,,,
4266.4,"<img src=""portrait/BW2.jpg""style=""height:400px;""></img>",2,html-button-response,10,131884,0.0-3.0-10.0,41277,List2A,white,woman,,TRUE,2,,,,,,,,,,
null,CORRECT,,html-keyboard-response,11,133393,0.0-3.0-11.0-0.0,41277,List2A,white,woman,,,,null,,,,,,,,,
3673.7,"<img src=""portrait/BM2.jpg""style=""height:400px;""></img>",5,html-button-response,12,137068,0.0-3.0-13.0,41277,List2A,white,woman,,TRUE,5,,,,,,,,,,
null,CORRECT,,html-keyboard-response,13,138571,0.0-3.0-14.0-0.0,41277,List2A,white,woman,,,,null,,,,,,,,,
4607.9,"<img src=""portrait/BW1.jpg""style=""height:400px;""></img>",0,html-button-response,14,143180,0.0-3.0-16.0,41277,List2A,white,woman,,TRUE,0,,,,,,,,,,
null,CORRECT,,html-keyboard-response,15,144682,0.0-3.0-17.0-0.0,41277,List2A,white,woman,,,,null,,,,,,,,,
4700.4,"<img src=""portrait/WM1.jpg""style=""height:400px;""></img>",6,html-button-response,16,149384,0.0-3.0-19.0,41277,List2A,white,woman,,TRUE,6,,,,,,,,,,
null,CORRECT,,html-keyboard-response,17,150890,0.0-3.0-20.0-0.0,41277,List2A,white,woman,,,,null,,,,,,,,,
5515.9,"<img src=""portrait/WW1.jpg""style=""height:400px;""></img>",1,html-button-response,18,156407,0.0-3.0-22.0,41277,List2A,white,woman,,TRUE,1,,,,,,,,,,
null,CORRECT,,html-keyboard-response,19,157914,0.0-3.0-23.0-0.0,41277,List2A,white,woman,,,,null,,,,,,,,,
1839.1,<p>You got 8 out of 8 right first time. Press Continue.</p>,0,html-button-response,20,159755,0.0-3.0-25.0,41277,List2A,white,woman,,,,,,,,,,,,,
18244.7,"<p>In this experiment, you will view photographs of the people from the memory game interacting.</p><p>By using the <strong>exact</strong> phrase given <i>after</i> the photograph appears and recalling the correct names of the people in the photographs, form a sentence describing the interaction. You do not need to capitalise names.</p><p>Type your answer in the space provided. Please complete every sentence before moving onto the next trial.</p><p>You will only have a few seconds to memorise each given photograph and phrase before you can respond, so try your best to focus.</p><p>An example is given below. Press 'Continue' when you are ready.</p><img src='img/speaking_example.jpg' style='width:800px;height:460px;''></img>",0,html-button-response,21,179003,0.0-4.0,41277,List2A,white,woman,,,,,,,,,,,,,
2931.6,"<p>Before the experiment starts, you will watch two example trials. Press 'Continue'.</p>",0,html-button-response,22,182936,0.0-5.0,41277,List2A,white,woman,,,,,,,,,,,,,
null,<img src='img/play_eg.gif' style='height:400px;''></img>,,html-keyboard-response,23,185945,0.0-6.0,41277,List2A,white,woman,,,,null,,,,,,,,,
null,<p>is playing with</p>,,html-keyboard-response,24,187951,0.0-7.0,41277,List2A,white,woman,,,,null,,,,,,,,,
7578.9,<p><b>Answer:</b> jane is playing with ruth</p>,0,html-button-response,25,195530,0.0-8.0,41277,List2A,white,woman,,,,,,,,,,,,,
null,<img src='img/dance_eg.gif' style='height:400px;''></img>,,html-keyboard-response,26,198537,0.0-9.0,41277,List2A,white,woman,,,,null,,,,,,,,,
null,<p>is being entertained by</p>,,html-keyboard-response,27,200542,0.0-10.0,41277,List2A,white,woman,,,,null,,,,,,,,,
3516.7,<p><b>Answer:</b> fred is being entertained by mike</p>,0,html-button-response,28,204060,0.0-11.0,41277,List2A,white,woman,,,,,,,,,,,,,
7812.3,"<p>Ready to start the experiment?</p><br><p><strong>Remember to describe the picture using a full sentence,</strong></p><p><strong>that combines the names of the people with the <i>exact</i> phrase given.</strong></p><p><strong>To receive full payment you must do this correctly.</strong></p><p><strong> You do not need to capitalise names or use punctuation.</strong></p><br><p>Press 'Continue' to begin.</p>",0,html-button-response,29,212878,0.0-12.0,41277,List2A,white,woman,,,,,,,,,,,,,
null,"<div style=""font-size:60px;"">+</div>",,html-keyboard-response,30,214382,0.0-13.0-0.0,41277,List2A,white,woman,,,,null,,,,,,,,,
null,"<img src=""stim_listA/kiss2.gif""style=""height:400px;""></stim_listA>",,html-keyboard-response,31,216387,0.0-13.0-1.0,41277,List2A,white,woman,,,,null,,,,,,,,,
null,is being kissed by,,html-keyboard-response,32,218388,0.0-13.0-2.0,41277,List2A,white,woman,,,,null,,,,,,,,,
10967.3,,,survey-text,33,229360,0.0-13.0-3.0,41277,List2A,white,woman,,,,,"{""Q0"":""jane is being kissed by dave""}","<img src=""stim_listA/kiss2.gif""style=""height:400px;""></stim_listA>",is being kissed by,,,,,,
null,"<div style=""font-size:60px;"">+</div>",,html-keyboard-response,34,229861,0.0-13.0-0.1,41277,List2A,white,woman,,,,null,,,,,,,,,
null,"<img src=""stim_listA/kiss8.gif""style=""height:400px;""></stim_listA>",,html-keyboard-response,35,231864,0.0-13.0-1.1,41277,List2A,white,woman,,,,null,,,,,,,,,
null,is being kissed by,,html-keyboard-response,36,233869,0.0-13.0-2.1,41277,List2A,white,woman,,,,null,,,,,,,,,
6927.5,,,survey-text,37,240800,0.0-13.0-3.1,41277,List2A,white,woman,,,,,"{""Q0"":""jane is being kissed by kate""}","<img src=""stim_listA/kiss8.gif""style=""height:400px;""></stim_listA>",is being kissed by,,,,,,
null,"<div style=""font-size:60px;"">+</div>",,html-keyboard-response,38,241304,0.0-13.0-0.2,41277,List2A,white,woman,,,,null,,,,,,,,,
null,"<img src=""stim_listA/challenge6.gif""style=""height:400px;""></stim_listA>",,html-keyboard-response,39,243309,0.0-13.0-1.2,41277,List2A,white,woman,,,,null,,,,,,,,,
null,is being challenged by,,html-keyboard-response,40,245314,0.0-13.0-2.2,41277,List2A,white,woman,,,,null,,,,,,,,,
12083.3,,,survey-text,41,257400,0.0-13.0-3.2,41277,List2A,white,woman,,,,,"{""Q0"":""luke is being challenged by mike""}","<img src=""stim_listA/challenge6.gif""style=""height:400px;""></stim_listA>",is being challenged by,,,,,,
null,"<div style=""font-size:60px;"">+</div>",,html-keyboard-response,42,257901,0.0-13.0-0.3,41277,List2A,white,woman,,,,null,,,,,,,,,
null,"<img src=""stim_listA/shout5.gif""style=""height:400px;""></stim_listA>",,html-keyboard-response,43,259906,0.0-13.0-1.3,41277,List2A,white,woman,,,,null,,,,,,,,,
null,is shouting at,,html-keyboard-response,44,261907,0.0-13.0-2.3,41277,List2A,white,woman,,,,null,,,,,,,,,
14400.5,,,survey-text,45,276310,0.0-13.0-3.3,41277,List2A,white,woman,,,,,"{""Q0"":""fred is shouting at luke""}","<img src=""stim_listA/shout5.gif""style=""height:400px;""></stim_listA>",is shouting at,,,,,,
null,"<div style=""font-size:60px;"">+</div>",,html-keyboard-response,46,276812,0.0-13.0-0.4,41277,List2A,white,woman,,,,null,,,,,,,,,
null,"<img src=""stim_listA/look3.gif""style=""height:400px;""></stim_listA>",,html-keyboard-response,47,278818,0.0-13.0-1.4,41277,List2A,white,woman,,,,null,,,,,,,,,
null,is looking at,,html-keyboard-response,48,280820,0.0-13.0-2.4,41277,List2A,white,woman,,,,null,,,,,,,,,
9184,,,survey-text,49,290007,0.0-13.0-3.4,41277,List2A,white,woman,,,,,"{""Q0"":""Beth is looking at fred""}","<img src=""stim_listA/look3.gif""style=""height:400px;""></stim_listA>",is looking at,,,,,,
null,"<div style=""font-size:60px;"">+</div>",,html-keyboard-response,50,290508,0.0-13.0-0.5,41277,List2A,white,woman,,,,null,,,,,,,,,
null,"<img src=""stim_listA/oppose3.gif""style=""height:400px;""></stim_listA>",,html-keyboard-response,51,292513,0.0-13.0-1.5,41277,List2A,white,woman,,,,null,,,,,,,,,
null,is opposing,,html-keyboard-response,52,294518,0.0-13.0-2.5,41277,List2A,white,woman,,,,null,,,,,,,,,
16867.7,,,survey-text,53,311389,0.0-13.0-3.5,41277,List2A,white,woman,,,,,"{""Q0"":""ruth is opposing mike""}","<img src=""stim_listA/oppose3.gif""style=""height:400px;""></stim_listA>",is opposing,,,,,,
null,"<div style=""font-size:60px;"">+</div>",,html-keyboard-response,54,311890,0.0-13.0-0.6,41277,List2A,white,woman,,,,null,,,,,,,,,
null,"<img src=""stim_listA/hug7.gif""style=""height:400px;""></stim_listA>",,html-keyboard-response,55,313894,0.0-13.0-1.6,41277,List2A,white,woman,,,,null,,,,,,,,,
null,is hugging,,html-keyboard-response,56,315895,0.0-13.0-2.6,41277,List2A,white,woman,,,,null,,,,,,,,,
3761.7,,,survey-text,57,319660,0.0-13.0-3.6,41277,List2A,white,woman,,,,,"{""Q0"":""ruth is hugging beth""}","<img src=""stim_listA/hug7.gif""style=""height:400px;""></stim_listA>",is hugging,,,,,,
null,"<div style=""font-size:60px;"">+</div>",,html-keyboard-response,58,320160,0.0-13.0-0.7,41277,List2A,white,woman,,,,null,,,,,,,,,
null,"<img src=""stim_listA/challenge4.gif""style=""height:400px;""></stim_listA>",,html-keyboard-response,59,322166,0.0-13.0-1.7,41277,List2A,white,woman,,,,null,,,,,,,,,
null,is being challenged by,,html-keyboard-response,60,324171,0.0-13.0-2.7,41277,List2A,white,woman,,,,null,,,,,,,,,
17715.6,,,survey-text,61,341889,0.0-13.0-3.7,41277,List2A,white,woman,,,,,"{""Q0"":""beth is being challenged by kate""}","<img src=""stim_listA/challenge4.gif""style=""height:400px;""></stim_listA>",is being challenged by,,,,,,
null,"<div style=""font-size:60px;"">+</div>",,html-keyboard-response,62,342390,0.0-13.0-0.8,41277,List2A,white,woman,,,,null,,,,,,,,,
null,"<img src=""stim_listA/touch5.gif""style=""height:400px;""></stim_listA>",,html-keyboard-response,63,344394,0.0-13.0-1.8,41277,List2A,white,woman,,,,null,,,,,,,,,
null,is touching,,html-keyboard-response,64,346396,0.0-13.0-2.8,41277,List2A,white,woman,,,,null,,,,,,,,,
17334.1,,,survey-text,65,363732,0.0-13.0-3.8,41277,List2A,white,woman,,,,,"{""Q0"":""mike is ?? dave""}","<img src=""stim_listA/touch5.gif""style=""height:400px;""></stim_listA>",is touching,,,,,,
null,"<div style=""font-size:60px;"">+</div>",,html-keyboard-response,66,364234,0.0-13.0-0.9,41277,List2A,white,woman,,,,null,,,,,,,,,
null,"<img src=""stim_listA/greet3.gif""style=""height:400px;""></stim_listA>",,html-keyboard-response,67,366239,0.0-13.0-1.9,41277,List2A,white,woman,,,,null,,,,,,,,,
null,is greeting,,html-keyboard-response,68,368242,0.0-13.0-2.9,41277,List2A,white,woman,,,,null,,,,,,,,,
7205.9,,,survey-text,69,375451,0.0-13.0-3.9,41277,List2A,white,woman,,,,,"{""Q0"":""beth is greeting mike""}","<img src=""stim_listA/greet3.gif""style=""height:400px;""></stim_listA>",is greeting,,,,,,
null,"<div style=""font-size:60px;"">+</div>",,html-keyboard-response,70,375955,0.0-13.0-0.10,41277,List2A,white,woman,,,,null,,,,,,,,,
null,"<img src=""stim_listA/seduce1.gif""style=""height:400px;""></stim_listA>",,html-keyboard-response,71,377961,0.0-13.0-1.10,41277,List2A,white,woman,,,,null,,,,,,,,,
null,is seducing,,html-keyboard-response,72,379967,0.0-13.0-2.10,41277,List2A,white,woman,,,,null,,,,,,,,,
6213.6,,,survey-text,73,386183,0.0-13.0-3.10,41277,List2A,white,woman,,,,,"{""Q0"":""luke is seducing jane""}","<img src=""stim_listA/seduce1.gif""style=""height:400px;""></stim_listA>",is seducing,,,,,,
null,"<div style=""font-size:60px;"">+</div>",,html-keyboard-response,74,386687,0.0-13.0-0.11,41277,List2A,white,woman,,,,null,,,,,,,,,
null,"<img src=""stim_listA/oppose4.gif""style=""height:400px;""></stim_listA>",,html-keyboard-response,75,388692,0.0-13.0-1.11,41277,List2A,white,woman,,,,null,,,,,,,,,
null,is being opposed by,,html-keyboard-response,76,390697,0.0-13.0-2.11,41277,List2A,white,woman,,,,null,,,,,,,,,
8486.4,,,survey-text,77,399186,0.0-13.0-3.11,41277,List2A,white,woman,,,,,"{""Q0"":""beth is being opposed by fred""}","<img src=""stim_listA/oppose4.gif""style=""height:400px;""></stim_listA>",is being opposed by,,,,,,
null,"<div style=""font-size:60px;"">+</div>",,html-keyboard-response,78,399689,0.0-13.0-0.12,41277,List2A,white,woman,,,,null,,,,,,,,,
null,"<img src=""stim_listA/copy7.gif""style=""height:400px;""></stim_listA>",,html-keyboard-response,79,401694,0.0-13.0-1.12,41277,List2A,white,woman,,,,null,,,,,,,,,
null,is copying,,html-keyboard-response,80,403700,0.0-13.0-2.12,41277,List2A,white,woman,,,,null,,,,,,,,,
4969.9,,,survey-text,81,408672,0.0-13.0-3.12,41277,List2A,white,woman,,,,,"{""Q0"":""jane is copying beth""}","<img src=""stim_listA/copy7.gif""style=""height:400px;""></stim_listA>",is copying,,,,,,
null,"<div style=""font-size:60px;"">+</div>",,html-keyboard-response,82,409177,0.0-13.0-0.13,41277,List2A,white,woman,,,,null,,,,,,,,,
null,"<img src=""stim_listA/look6.gif""style=""height:400px;""></stim_listA>",,html-keyboard-response,83,411182,0.0-13.0-1.13,41277,List2A,white,woman,,,,null,,,,,,,,,
null,is being looked at by,,html-keyboard-response,84,413187,0.0-13.0-2.13,41277,List2A,white,woman,,,,null,,,,,,,,,
8816,,,survey-text,85,422006,0.0-13.0-3.13,41277,List2A,white,woman,,,,,"{""Q0"":""mike is being looked at by dave""}","<img src=""stim_listA/look6.gif""style=""height:400px;""></stim_listA>",is being looked at by,,,,,,
null,"<div style=""font-size:60px;"">+</div>",,html-keyboard-response,86,422510,0.0-13.0-0.14,41277,List2A,white,woman,,,,null,,,,,,,,,
null,"<img src=""stim_listA/shout4.gif""style=""height:400px;""></stim_listA>",,html-keyboard-response,87,424514,0.0-13.0-1.14,41277,List2A,white,woman,,,,null,,,,,,,,,
null,is being shouted at by,,html-keyboard-response,88,426515,0.0-13.0-2.14,41277,List2A,white,woman,,,,null,,,,,,,,,
9924.5,,,survey-text,89,436442,0.0-13.0-3.14,41277,List2A,white,woman,,,,,"{""Q0"":""kate is being shouted at by mike""}","<img src=""stim_listA/shout4.gif""style=""height:400px;""></stim_listA>",is being shouted at by,,,,,,
null,"<div style=""font-size:60px;"">+</div>",,html-keyboard-response,90,436947,0.0-13.0-0.15,41277,List2A,white,woman,,,,null,,,,,,,,,
null,"<img src=""stim_listA/seduce2.gif""style=""height:400px;""></stim_listA>",,html-keyboard-response,91,438952,0.0-13.0-1.15,41277,List2A,white,woman,,,,null,,,,,,,,,
null,is being seduced by,,html-keyboard-response,92,440953,0.0-13.0-2.15,41277,List2A,white,woman,,,,null,,,,,,,,,
9754.9,,,survey-text,93,450711,0.0-13.0-3.15,41277,List2A,white,woman,,,,,"{""Q0"":""ruth is being seduced by dave""}","<img src=""stim_listA/seduce2.gif""style=""height:400px;""></stim_listA>",is being seduced by,,,,,,
null,"<div style=""font-size:60px;"">+</div>",,html-keyboard-response,94,451213,0.0-13.0-0.16,41277,List2A,white,woman,,,,null,,,,,,,,,
null,"<img src=""stim_listA/oppose8.gif""style=""height:400px;""></stim_listA>",,html-keyboard-response,95,453218,0.0-13.0-1.16,41277,List2A,white,woman,,,,null,,,,,,,,,
null,is being opposed by,,html-keyboard-response,96,455220,0.0-13.0-2.16,41277,List2A,white,woman,,,,null,,,,,,,,,
8386.8,,,survey-text,97,463609,0.0-13.0-3.16,41277,List2A,white,woman,,,,,"{""Q0"":""ruth is opposing beth""}","<img src=""stim_listA/oppose8.gif""style=""height:400px;""></stim_listA>",is being opposed by,,,,,,
null,"<div style=""font-size:60px;"">+</div>",,html-keyboard-response,98,464114,0.0-13.0-0.17,41277,List2A,white,woman,,,,null,,,,,,,,,
null,"<img src=""stim_listA/touch2.gif""style=""height:400px;""></stim_listA>",,html-keyboard-response,99,466119,0.0-13.0-1.17,41277,List2A,white,woman,,,,null,,,,,,,,,
null,is being touched by,,html-keyboard-response,100,468124,0.0-13.0-2.17,41277,List2A,white,woman,,,,null,,,,,,,,,
7964.3,,,survey-text,101,476092,0.0-13.0-3.17,41277,List2A,white,woman,,,,,"{""Q0"":""ruth is being touched by luke""}","<img src=""stim_listA/touch2.gif""style=""height:400px;""></stim_listA>",is being touched by,,,,,,
null,"<div style=""font-size:60px;"">+</div>",,html-keyboard-response,102,476594,0.0-13.0-0.18,41277,List2A,white,woman,,,,null,,,,,,,,,
null,"<img src=""stim_listA/copy3.gif""style=""height:400px;""></stim_listA>",,html-keyboard-response,103,478599,0.0-13.0-1.18,41277,List2A,white,woman,,,,null,,,,,,,,,
null,is copying,,html-keyboard-response,104,480604,0.0-13.0-2.18,41277,List2A,white,woman,,,,null,,,,,,,,,
13645,,,survey-text,105,494252,0.0-13.0-3.18,41277,List2A,white,woman,,,,,"{""Q0"":""beth is ? by mike""}","<img src=""stim_listA/copy3.gif""style=""height:400px;""></stim_listA>",is copying,,,,,,
null,"<div style=""font-size:60px;"">+</div>",,html-keyboard-response,106,494753,0.0-13.0-0.19,41277,List2A,white,woman,,,,null,,,,,,,,,
null,"<img src=""stim_listA/shout1.gif""style=""height:400px;""></stim_listA>",,html-keyboard-response,107,496758,0.0-13.0-1.19,41277,List2A,white,woman,,,,null,,,,,,,,,
null,is shouting at,,html-keyboard-response,108,498761,0.0-13.0-2.19,41277,List2A,white,woman,,,,null,,,,,,,,,
6406.1,,,survey-text,109,505170,0.0-13.0-3.19,41277,List2A,white,woman,,,,,"{""Q0"":""ruth is shouting at luke""}","<img src=""stim_listA/shout1.gif""style=""height:400px;""></stim_listA>",is shouting at,,,,,,
6246.6,"<img src='img/portrait_matrix_list2.jpg' style='width:900px;height:500px;''></img><p>If you have memorised all the portraits and names and are ready to start, press Continue.</p><p><strong>Please note: Your memory of these faces will be tested 4 times during this experiment.</strong></p>",0,html-button-response,110,511418,0.0-14.0-0.0,41277,List2A,white,woman,,,,,,,,,,,,,
3868.3,"<img src=""portrait/WM1.jpg""style=""height:400px;""></img>",6,html-button-response,111,516292,0.0-14.0-1.0,41277,List2A,white,woman,,TRUE,6,,,,,,,,,,
null,CORRECT,,html-keyboard-response,112,517798,0.0-14.0-2.0-0.0,41277,List2A,white,woman,,,,null,,,,,,,,,
4958.4,"<img src=""portrait/WM2.jpg""style=""height:400px;""></img>",7,html-button-response,113,522757,0.0-14.0-4.0,41277,List2A,white,woman,,TRUE,7,,,,,,,,,,
null,CORRECT,,html-keyboard-response,114,524261,0.0-14.0-5.0-0.0,41277,List2A,white,woman,,,,null,,,,,,,,,
3544.4,"<img src=""portrait/BW2.jpg""style=""height:400px;""></img>",2,html-button-response,115,527806,0.0-14.0-7.0,41277,List2A,white,woman,,TRUE,2,,,,,,,,,,
null,CORRECT,,html-keyboard-response,116,529311,0.0-14.0-8.0-0.0,41277,List2A,white,woman,,,,null,,,,,,,,,
2768.3,"<img src=""portrait/BM1.jpg""style=""height:400px;""></img>",4,html-button-response,117,532081,0.0-14.0-10.0,41277,List2A,white,woman,,TRUE,4,,,,,,,,,,
null,CORRECT,,html-keyboard-response,118,533584,0.0-14.0-11.0-0.0,41277,List2A,white,woman,,,,null,,,,,,,,,
5251.6,"<img src=""portrait/BW1.jpg""style=""height:400px;""></img>",0,html-button-response,119,538837,0.0-14.0-13.0,41277,List2A,white,woman,,TRUE,0,,,,,,,,,,
null,CORRECT,,html-keyboard-response,120,540341,0.0-14.0-14.0-0.0,41277,List2A,white,woman,,,,null,,,,,,,,,
3402.6,"<img src=""portrait/BM2.jpg""style=""height:400px;""></img>",5,html-button-response,121,543745,0.0-14.0-16.0,41277,List2A,white,woman,,TRUE,5,,,,,,,,,,
null,CORRECT,,html-keyboard-response,122,545254,0.0-14.0-17.0-0.0,41277,List2A,white,woman,,,,null,,,,,,,,,
2573.4,"<img src=""portrait/WW2.jpg""style=""height:400px;""></img>",3,html-button-response,123,547829,0.0-14.0-19.0,41277,List2A,white,woman,,TRUE,3,,,,,,,,,,
null,CORRECT,,html-keyboard-response,124,549333,0.0-14.0-20.0-0.0,41277,List2A,white,woman,,,,null,,,,,,,,,
3406.3,"<img src=""portrait/WW1.jpg""style=""height:400px;""></img>",1,html-button-response,125,552741,0.0-14.0-22.0,41277,List2A,white,woman,,TRUE,1,,,,,,,,,,
null,CORRECT,,html-keyboard-response,126,554245,0.0-14.0-23.0-0.0,41277,List2A,white,woman,,,,null,,,,,,,,,
1670,<p>You got 8 out of 8 right first time. Press Continue.</p>,0,html-button-response,127,555916,0.0-14.0-25.0,41277,List2A,white,woman,,,,,,,,,,,,,
null,"<div style=""font-size:60px;"">+</div>",,html-keyboard-response,128,557421,0.0-15.0-0.0,41277,List2A,white,woman,,,,null,,,,,,,,,
null,"<img src=""stim_listA/kiss7.gif""style=""height:400px;""></stim_listA>",,html-keyboard-response,129,559424,0.0-15.0-1.0,41277,List2A,white,woman,,,,null,,,,,,,,,
null,is kissing,,html-keyboard-response,130,561429,0.0-15.0-2.0,41277,List2A,white,woman,,,,null,,,,,,,,,
4155.8,,,survey-text,131,565587,0.0-15.0-3.0,41277,List2A,white,woman,,,,,"{""Q0"":""beth is kissing ruth""}","<img src=""stim_listA/kiss7.gif""style=""height:400px;""></stim_listA>",is kissing,,,,,,
null,"<div style=""font-size:60px;"">+</div>",,html-keyboard-response,132,566090,0.0-15.0-0.1,41277,List2A,white,woman,,,,null,,,,,,,,,
null,"<img src=""stim_listA/shout3.gif""style=""height:400px;""></stim_listA>",,html-keyboard-response,133,568095,0.0-15.0-1.1,41277,List2A,white,woman,,,,null,,,,,,,,,
null,is shouting at,,html-keyboard-response,134,570100,0.0-15.0-2.1,41277,List2A,white,woman,,,,null,,,,,,,,,
10518.4,,,survey-text,135,580621,0.0-15.0-3.1,41277,List2A,white,woman,,,,,"{""Q0"":"" beth is shouting at fred""}","<img src=""stim_listA/shout3.gif""style=""height:400px;""></stim_listA>",is shouting at,,,,,,
null,"<div style=""font-size:60px;"">+</div>",,html-keyboard-response,136,581124,0.0-15.0-0.2,41277,List2A,white,woman,,,,null,,,,,,,,,
null,"<img src=""stim_listA/look2.gif""style=""height:400px;""></stim_listA>",,html-keyboard-response,137,583129,0.0-15.0-1.2,41277,List2A,white,woman,,,,null,,,,,,,,,
null,is being looked at by,,html-keyboard-response,138,585131,0.0-15.0-2.2,41277,List2A,white,woman,,,,null,,,,,,,,,
6876.6,,,survey-text,139,592010,0.0-15.0-3.2,41277,List2A,white,woman,,,,,"{""Q0"":""jane is being looked at by dave""}","<img src=""stim_listA/look2.gif""style=""height:400px;""></stim_listA>",is being looked at by,,,,,,
null,"<div style=""font-size:60px;"">+</div>",,html-keyboard-response,140,592512,0.0-15.0-0.3,41277,List2A,white,woman,,,,null,,,,,,,,,
null,"<img src=""stim_listA/look1.gif""style=""height:400px;""></stim_listA>",,html-keyboard-response,141,594516,0.0-15.0-1.3,41277,List2A,white,woman,,,,null,,,,,,,,,
null,is looking at,,html-keyboard-response,142,596521,0.0-15.0-2.3,41277,List2A,white,woman,,,,null,,,,,,,,,
7281.8,,,survey-text,143,603805,0.0-15.0-3.3,41277,List2A,white,woman,,,,,"{""Q0"":""ruth is looking at luke""}","<img src=""stim_listA/look1.gif""style=""height:400px;""></stim_listA>",is looking at,,,,,,
null,"<div style=""font-size:60px;"">+</div>",,html-keyboard-response,144,604309,0.0-15.0-0.4,41277,List2A,white,woman,,,,null,,,,,,,,,
null,"<img src=""stim_listA/touch4.gif""style=""height:400px;""></stim_listA>",,html-keyboard-response,145,606313,0.0-15.0-1.4,41277,List2A,white,woman,,,,null,,,,,,,,,
null,is being touched by,,html-keyboard-response,146,608318,0.0-15.0-2.4,41277,List2A,white,woman,,,,null,,,,,,,,,
9643.7,,,survey-text,147,617964,0.0-15.0-3.4,41277,List2A,white,woman,,,,,"{""Q0"":""beth is being touched by fred""}","<img src=""stim_listA/touch4.gif""style=""height:400px;""></stim_listA>",is being touched by,,,,,,
null,"<div style=""font-size:60px;"">+</div>",,html-keyboard-response,148,618467,0.0-15.0-0.5,41277,List2A,white,woman,,,,null,,,,,,,,,
null,"<img src=""stim_listA/greet7.gif""style=""height:400px;""></stim_listA>",,html-keyboard-response,149,620472,0.0-15.0-1.5,41277,List2A,white,woman,,,,null,,,,,,,,,
null,is greeting,,html-keyboard-response,150,622474,0.0-15.0-2.5,41277,List2A,white,woman,,,,null,,,,,,,,,
6998.2,,,survey-text,151,629475,0.0-15.0-3.5,41277,List2A,white,woman,,,,,"{""Q0"":""beth is greeting ruth""}","<img src=""stim_listA/greet7.gif""style=""height:400px;""></stim_listA>",is greeting,,,,,,
null,"<div style=""font-size:60px;"">+</div>",,html-keyboard-response,152,629976,0.0-15.0-0.6,41277,List2A,white,woman,,,,null,,,,,,,,,
null,"<img src=""stim_listA/seduce7.gif""style=""height:400px;""></stim_listA>",,html-keyboard-response,153,631981,0.0-15.0-1.6,41277,List2A,white,woman,,,,null,,,,,,,,,
null,is seducing,,html-keyboard-response,154,633987,0.0-15.0-2.6,41277,List2A,white,woman,,,,null,,,,,,,,,
6292,,,survey-text,155,640282,0.0-15.0-3.6,41277,List2A,white,woman,,,,,"{""Q0"":""kate is seducing ruth""}","<img src=""stim_listA/seduce7.gif""style=""height:400px;""></stim_listA>",is seducing,,,,,,
null,"<div style=""font-size:60px;"">+</div>",,html-keyboard-response,156,640786,0.0-15.0-0.7,41277,List2A,white,woman,,,,null,,,,,,,,,
null,"<img src=""stim_listA/challenge1.gif""style=""height:400px;""></stim_listA>",,html-keyboard-response,157,642792,0.0-15.0-1.7,41277,List2A,white,woman,,,,null,,,,,,,,,
null,is challenging,,html-keyboard-response,158,644796,0.0-15.0-2.7,41277,List2A,white,woman,,,,null,,,,,,,,,
9067.8,,,survey-text,159,653866,0.0-15.0-3.7,41277,List2A,white,woman,,,,,"{""Q0"":""dave is challenging ruth""}","<img src=""stim_listA/challenge1.gif""style=""height:400px;""></stim_listA>",is challenging,,,,,,
null,"<div style=""font-size:60px;"">+</div>",,html-keyboard-response,160,654370,0.0-15.0-0.8,41277,List2A,white,woman,,,,null,,,,,,,,,
null,"<img src=""stim_listA/challenge5.gif""style=""height:400px;""></stim_listA>",,html-keyboard-response,161,656375,0.0-15.0-1.8,41277,List2A,white,woman,,,,null,,,,,,,,,
null,is challenging,,html-keyboard-response,162,658378,0.0-15.0-2.8,41277,List2A,white,woman,,,,null,,,,,,,,,
10630.5,,,survey-text,163,669012,0.0-15.0-3.8,41277,List2A,white,woman,,,,,"{""Q0"":""dave is challenging fred""}","<img src=""stim_listA/challenge5.gif""style=""height:400px;""></stim_listA>",is challenging,,,,,,
null,"<div style=""font-size:60px;"">+</div>",,html-keyboard-response,164,669516,0.0-15.0-0.9,41277,List2A,white,woman,,,,null,,,,,,,,,
null,"<img src=""stim_listA/hug8.gif""style=""height:400px;""></stim_listA>",,html-keyboard-response,165,671521,0.0-15.0-1.9,41277,List2A,white,woman,,,,null,,,,,,,,,
null,is being hugged by,,html-keyboard-response,166,673522,0.0-15.0-2.9,41277,List2A,white,woman,,,,null,,,,,,,,,
9148.8,,,survey-text,167,682674,0.0-15.0-3.9,41277,List2A,white,woman,,,,,"{""Q0"":""kate is being hugged by jane""}","<img src=""stim_listA/hug8.gif""style=""height:400px;""></stim_listA>",is being hugged by,,,,,,
null,"<div style=""font-size:60px;"">+</div>",,html-keyboard-response,168,683175,0.0-15.0-0.10,41277,List2A,white,woman,,,,null,,,,,,,,,
null,"<img src=""stim_listA/kiss6.gif""style=""height:400px;""></stim_listA>",,html-keyboard-response,169,685179,0.0-15.0-1.10,41277,List2A,white,woman,,,,null,,,,,,,,,
null,is being kissed by,,html-keyboard-response,170,687185,0.0-15.0-2.10,41277,List2A,white,woman,,,,null,,,,,,,,,
8679.4,,,survey-text,171,695867,0.0-15.0-3.10,41277,List2A,white,woman,,,,,"{""Q0"":""mike is being kissed by dave""}","<img src=""stim_listA/kiss6.gif""style=""height:400px;""></stim_listA>",is being kissed by,,,,,,
null,"<div style=""font-size:60px;"">+</div>",,html-keyboard-response,172,696369,0.0-15.0-0.11,41277,List2A,white,woman,,,,null,,,,,,,,,
null,"<img src=""stim_listA/copy2.gif""style=""height:400px;""></stim_listA>",,html-keyboard-response,173,698374,0.0-15.0-1.11,41277,List2A,white,woman,,,,null,,,,,,,,,
null,is being copied by,,html-keyboard-response,174,700375,0.0-15.0-2.11,41277,List2A,white,woman,,,,null,,,,,,,,,
8820.6,,,survey-text,175,709198,0.0-15.0-3.11,41277,List2A,white,woman,,,,,"{""Q0"":""jane is being copied by luke""}","<img src=""stim_listA/copy2.gif""style=""height:400px;""></stim_listA>",is being copied by,,,,,,
null,"<div style=""font-size:60px;"">+</div>",,html-keyboard-response,176,709702,0.0-15.0-0.12,41277,List2A,white,woman,,,,null,,,,,,,,,
null,"<img src=""stim_listA/shout2.gif""style=""height:400px;""></stim_listA>",,html-keyboard-response,177,711707,0.0-15.0-1.12,41277,List2A,white,woman,,,,null,,,,,,,,,
null,is being shouted at by,,html-keyboard-response,178,713712,0.0-15.0-2.12,41277,List2A,white,woman,,,,null,,,,,,,,,
10030.5,,,survey-text,179,723745,0.0-15.0-3.12,41277,List2A,white,woman,,,,,"{""Q0"":""jane is being shouted at by dave""}","<img src=""stim_listA/shout2.gif""style=""height:400px;""></stim_listA>",is being shouted at by,,,,,,
null,"<div style=""font-size:60px;"">+</div>",,html-keyboard-response,180,724246,0.0-15.0-0.13,41277,List2A,white,woman,,,,null,,,,,,,,,
null,"<img src=""stim_listA/seduce4.gif""style=""height:400px;""></stim_listA>",,html-keyboard-response,181,726251,0.0-15.0-1.13,41277,List2A,white,woman,,,,null,,,,,,,,,
null,is being seduced by,,html-keyboard-response,182,728252,0.0-15.0-2.13,41277,List2A,white,woman,,,,null,,,,,,,,,
12171.7,,,survey-text,183,740426,0.0-15.0-3.13,41277,List2A,white,woman,,,,,"{""Q0"":""mike is being seduced by kate""}","<img src=""stim_listA/seduce4.gif""style=""height:400px;""></stim_listA>",is being seduced by,,,,,,
null,"<div style=""font-size:60px;"">+</div>",,html-keyboard-response,184,740928,0.0-15.0-0.14,41277,List2A,white,woman,,,,null,,,,,,,,,
null,"<img src=""stim_listA/shout7.gif""style=""height:400px;""></stim_listA>",,html-keyboard-response,185,742933,0.0-15.0-1.14,41277,List2A,white,woman,,,,null,,,,,,,,,
null,is shouting at,,html-keyboard-response,186,744938,0.0-15.0-2.14,41277,List2A,white,woman,,,,null,,,,,,,,,
8653.4,,,survey-text,187,753594,0.0-15.0-3.14,41277,List2A,white,woman,,,,,"{""Q0"":""ruth is shouting at beth""}","<img src=""stim_listA/shout7.gif""style=""height:400px;""></stim_listA>",is shouting at,,,,,,
null,"<div style=""font-size:60px;"">+</div>",,html-keyboard-response,188,754095,0.0-15.0-0.15,41277,List2A,white,woman,,,,null,,,,,,,,,
null,"<img src=""stim_listA/touch3.gif""style=""height:400px;""></stim_listA>",,html-keyboard-response,189,756100,0.0-15.0-1.15,41277,List2A,white,woman,,,,null,,,,,,,,,
null,is touching,,html-keyboard-response,190,758103,0.0-15.0-2.15,41277,List2A,white,woman,,,,null,,,,,,,,,
5869.4,,,survey-text,191,763975,0.0-15.0-3.15,41277,List2A,white,woman,,,,,"{""Q0"":""kate is touching mike""}","<img src=""stim_listA/touch3.gif""style=""height:400px;""></stim_listA>",is touching,,,,,,
null,"<div style=""font-size:60px;"">+</div>",,html-keyboard-response,192,764479,0.0-15.0-0.16,41277,List2A,white,woman,,,,null,,,,,,,,,
null,"<img src=""stim_listA/kiss4.gif""style=""height:400px;""></stim_listA>",,html-keyboard-response,193,766484,0.0-15.0-1.16,41277,List2A,white,woman,,,,null,,,,,,,,,
null,is being kissed by,,html-keyboard-response,194,768489,0.0-15.0-2.16,41277,List2A,white,woman,,,,null,,,,,,,,,
7211.1,,,survey-text,195,775703,0.0-15.0-3.16,41277,List2A,white,woman,,,,,"{""Q0"":""mike is being kissed by kate""}","<img src=""stim_listA/kiss4.gif""style=""height:400px;""></stim_listA>",is being kissed by,,,,,,
null,"<div style=""font-size:60px;"">+</div>",,html-keyboard-response,196,776207,0.0-15.0-0.17,41277,List2A,white,woman,,,,null,,,,,,,,,
null,"<img src=""stim_listA/oppose6.gif""style=""height:400px;""></stim_listA>",,html-keyboard-response,197,778212,0.0-15.0-1.17,41277,List2A,white,woman,,,,null,,,,,,,,,
null,is being opposed by,,html-keyboard-response,198,780217,0.0-15.0-2.17,41277,List2A,white,woman,,,,null,,,,,,,,,
10087.2,,,survey-text,199,790307,0.0-15.0-3.17,41277,List2A,white,woman,,,,,"{""Q0"":""luke is being opposed by mike""}","<img src=""stim_listA/oppose6.gif""style=""height:400px;""></stim_listA>",is being opposed by,,,,,,
null,"<div style=""font-size:60px;"">+</div>",,html-keyboard-response,200,790808,0.0-15.0-0.18,41277,List2A,white,woman,,,,null,,,,,,,,,
null,"<img src=""stim_listA/look7.gif""style=""height:400px;""></stim_listA>",,html-keyboard-response,201,792814,0.0-15.0-1.18,41277,List2A,white,woman,,,,null,,,,,,,,,
null,is looking at,,html-keyboard-response,202,794815,0.0-15.0-2.18,41277,List2A,white,woman,,,,null,,,,,,,,,
7871.2,,,survey-text,203,802690,0.0-15.0-3.18,41277,List2A,white,woman,,,,,"{""Q0"":""beth is looking at ruth""}","<img src=""stim_listA/look7.gif""style=""height:400px;""></stim_listA>",is looking at,,,,,,
null,"<div style=""font-size:60px;"">+</div>",,html-keyboard-response,204,803192,0.0-15.0-0.19,41277,List2A,white,woman,,,,null,,,,,,,,,
null,"<img src=""stim_listA/greet4.gif""style=""height:400px;""></stim_listA>",,html-keyboard-response,205,805198,0.0-15.0-1.19,41277,List2A,white,woman,,,,null,,,,,,,,,
null,is being greeted by,,html-keyboard-response,206,807203,0.0-15.0-2.19,41277,List2A,white,woman,,,,null,,,,,,,,,
10747.8,,,survey-text,207,817954,0.0-15.0-3.19,41277,List2A,white,woman,,,,,"{""Q0"":""kate. is being greeted by fred""}","<img src=""stim_listA/greet4.gif""style=""height:400px;""></stim_listA>",is being greeted by,,,,,,
6135,"<img src='img/portrait_matrix_list2.jpg' style='width:900px;height:500px;''></img><p>If you have memorised all the portraits and names and are ready to start, press Continue.</p><p><strong>Please note: Your memory of these faces will be tested 4 times during this experiment.</strong></p>",0,html-button-response,208,824090,0.0-16.0-0.0,41277,List2A,white,woman,,,,,,,,,,,,,
3397.2,"<img src=""portrait/BW2.jpg""style=""height:400px;""></img>",2,html-button-response,209,828489,0.0-16.0-1.0,41277,List2A,white,woman,,TRUE,2,,,,,,,,,,
null,CORRECT,,html-keyboard-response,210,829991,0.0-16.0-2.0-0.0,41277,List2A,white,woman,,,,null,,,,,,,,,
3429.9,"<img src=""portrait/BM1.jpg""style=""height:400px;""></img>",4,html-button-response,211,833423,0.0-16.0-4.0,41277,List2A,white,woman,,TRUE,4,,,,,,,,,,
null,CORRECT,,html-keyboard-response,212,834925,0.0-16.0-5.0-0.0,41277,List2A,white,woman,,,,null,,,,,,,,,
6164.2,"<img src=""portrait/BM2.jpg""style=""height:400px;""></img>",5,html-button-response,213,841091,0.0-16.0-7.0,41277,List2A,white,woman,,TRUE,5,,,,,,,,,,
null,CORRECT,,html-keyboard-response,214,842594,0.0-16.0-8.0-0.0,41277,List2A,white,woman,,,,null,,,,,,,,,
3300.6,"<img src=""portrait/WW2.jpg""style=""height:400px;""></img>",3,html-button-response,215,845897,0.0-16.0-10.0,41277,List2A,white,woman,,TRUE,3,,,,,,,,,,
null,CORRECT,,html-keyboard-response,216,847399,0.0-16.0-11.0-0.0,41277,List2A,white,woman,,,,null,,,,,,,,,
4420.1,"<img src=""portrait/BW1.jpg""style=""height:400px;""></img>",0,html-button-response,217,851821,0.0-16.0-13.0,41277,List2A,white,woman,,TRUE,0,,,,,,,,,,
null,CORRECT,,html-keyboard-response,218,853324,0.0-16.0-14.0-0.0,41277,List2A,white,woman,,,,null,,,,,,,,,
7540.5,"<img src=""portrait/WM1.jpg""style=""height:400px;""></img>",6,html-button-response,219,860866,0.0-16.0-16.0,41277,List2A,white,woman,,TRUE,6,,,,,,,,,,
null,CORRECT,,html-keyboard-response,220,862370,0.0-16.0-17.0-0.0,41277,List2A,white,woman,,,,null,,,,,,,,,
3465.4,"<img src=""portrait/WW1.jpg""style=""height:400px;""></img>",1,html-button-response,221,865836,0.0-16.0-19.0,41277,List2A,white,woman,,TRUE,1,,,,,,,,,,
null,CORRECT,,html-keyboard-response,222,867340,0.0-16.0-20.0-0.0,41277,List2A,white,woman,,,,null,,,,,,,,,
4454.5,"<img src=""portrait/WM2.jpg""style=""height:400px;""></img>",7,html-button-response,223,871796,0.0-16.0-22.0,41277,List2A,white,woman,,TRUE,7,,,,,,,,,,
null,CORRECT,,html-keyboard-response,224,873303,0.0-16.0-23.0-0.0,41277,List2A,white,woman,,,,null,,,,,,,,,
1551.6,<p>You got 8 out of 8 right first time. Press Continue.</p>,0,html-button-response,225,874855,0.0-16.0-25.0,41277,List2A,white,woman,,,,,,,,,,,,,
null,"<div style=""font-size:60px;"">+</div>",,html-keyboard-response,226,876359,0.0-17.0-0.0,41277,List2A,white,woman,,,,null,,,,,,,,,
null,"<img src=""stim_listA/touch6.gif""style=""height:400px;""></stim_listA>",,html-keyboard-response,227,878362,0.0-17.0-1.0,41277,List2A,white,woman,,,,null,,,,,,,,,
null,is being touched by,,html-keyboard-response,228,880364,0.0-17.0-2.0,41277,List2A,white,woman,,,,null,,,,,,,,,
8444,,,survey-text,229,888811,0.0-17.0-3.0,41277,List2A,white,woman,,,,,"{""Q0"":""fred is being touched by luke""}","<img src=""stim_listA/touch6.gif""style=""height:400px;""></stim_listA>",is being touched by,,,,,,
null,"<div style=""font-size:60px;"">+</div>",,html-keyboard-response,230,889313,0.0-17.0-0.1,41277,List2A,white,woman,,,,null,,,,,,,,,
null,"<img src=""stim_listA/oppose2.gif""style=""height:400px;""></stim_listA>",,html-keyboard-response,231,891318,0.0-17.0-1.1,41277,List2A,white,woman,,,,null,,,,,,,,,
null,is being opposed by,,html-keyboard-response,232,893323,0.0-17.0-2.1,41277,List2A,white,woman,,,,null,,,,,,,,,
7078.9,,,survey-text,233,900405,0.0-17.0-3.1,41277,List2A,white,woman,,,,,"{""Q0"":""ruth is being opposed by luke""}","<img src=""stim_listA/oppose2.gif""style=""height:400px;""></stim_listA>",is being opposed by,,,,,,
null,"<div style=""font-size:60px;"">+</div>",,html-keyboard-response,234,900907,0.0-17.0-0.2,41277,List2A,white,woman,,,,null,,,,,,,,,
null,"<img src=""stim_listA/hug5.gif""style=""height:400px;""></stim_listA>",,html-keyboard-response,235,902912,0.0-17.0-1.2,41277,List2A,white,woman,,,,null,,,,,,,,,
null,is hugging,,html-keyboard-response,236,904918,0.0-17.0-2.2,41277,List2A,white,woman,,,,null,,,,,,,,,
8588.1,,,survey-text,237,913508,0.0-17.0-3.2,41277,List2A,white,woman,,,,,"{""Q0"":""fred is hugging luke""}","<img src=""stim_listA/hug5.gif""style=""height:400px;""></stim_listA>",is hugging,,,,,,
null,"<div style=""font-size:60px;"">+</div>",,html-keyboard-response,238,914011,0.0-17.0-0.3,41277,List2A,white,woman,,,,null,,,,,,,,,
null,"<img src=""stim_listA/greet2.gif""style=""height:400px;""></stim_listA>",,html-keyboard-response,239,916016,0.0-17.0-1.3,41277,List2A,white,woman,,,,null,,,,,,,,,
null,is being greeted by,,html-keyboard-response,240,918017,0.0-17.0-2.3,41277,List2A,white,woman,,,,null,,,,,,,,,
5049.3,,,survey-text,241,923070,0.0-17.0-3.3,41277,List2A,white,woman,,,,,"{""Q0"":""jane is being greeted by luke""}","<img src=""stim_listA/greet2.gif""style=""height:400px;""></stim_listA>",is being greeted by,,,,,,
null,"<div style=""font-size:60px;"">+</div>",,html-keyboard-response,242,923573,0.0-17.0-0.4,41277,List2A,white,woman,,,,null,,,,,,,,,
null,"<img src=""stim_listA/kiss1.gif""style=""height:400px;""></stim_listA>",,html-keyboard-response,243,925579,0.0-17.0-1.4,41277,List2A,white,woman,,,,null,,,,,,,,,
null,is kissing,,html-keyboard-response,244,927584,0.0-17.0-2.4,41277,List2A,white,woman,,,,null,,,,,,,,,
18761.3,,,survey-text,245,946348,0.0-17.0-3.4,41277,List2A,white,woman,,,,,"{""Q0"":""luke is kissing ruth""}","<img src=""stim_listA/kiss1.gif""style=""height:400px;""></stim_listA>",is kissing,,,,,,
null,"<div style=""font-size:60px;"">+</div>",,html-keyboard-response,246,946853,0.0-17.0-0.5,41277,List2A,white,woman,,,,null,,,,,,,,,
null,"<img src=""stim_listA/copy1.gif""style=""height:400px;""></stim_listA>",,html-keyboard-response,247,948858,0.0-17.0-1.5,41277,List2A,white,woman,,,,null,,,,,,,,,
null,is copying,,html-keyboard-response,248,950859,0.0-17.0-2.5,41277,List2A,white,woman,,,,null,,,,,,,,,
5948.3,,,survey-text,249,956810,0.0-17.0-3.5,41277,List2A,white,woman,,,,,"{""Q0"":""ruth is copying dave""}","<img src=""stim_listA/copy1.gif""style=""height:400px;""></stim_listA>",is copying,,,,,,
null,"<div style=""font-size:60px;"">+</div>",,html-keyboard-response,250,957311,0.0-17.0-0.6,41277,List2A,white,woman,,,,null,,,,,,,,,
null,"<img src=""stim_listA/hug1.gif""style=""height:400px;""></stim_listA>",,html-keyboard-response,251,959316,0.0-17.0-1.6,41277,List2A,white,woman,,,,null,,,,,,,,,
null,is hugging,,html-keyboard-response,252,961322,0.0-17.0-2.6,41277,List2A,white,woman,,,,null,,,,,,,,,
5612.9,,,survey-text,253,966938,0.0-17.0-3.6,41277,List2A,white,woman,,,,,"{""Q0"":""ruth is hugging luke""}","<img src=""stim_listA/hug1.gif""style=""height:400px;""></stim_listA>",is hugging,,,,,,
null,"<div style=""font-size:60px;"">+</div>",,html-keyboard-response,254,967439,0.0-17.0-0.7,41277,List2A,white,woman,,,,null,,,,,,,,,
null,"<img src=""stim_listA/shout8.gif""style=""height:400px;""></stim_listA>",,html-keyboard-response,255,969444,0.0-17.0-1.7,41277,List2A,white,woman,,,,null,,,,,,,,,
null,is being shouted at by,,html-keyboard-response,256,971449,0.0-17.0-2.7,41277,List2A,white,woman,,,,null,,,,,,,,,
6239.9,,,survey-text,257,977692,0.0-17.0-3.7,41277,List2A,white,woman,,,,,"{""Q0"":""jane is being shouted at by beth""}","<img src=""stim_listA/shout8.gif""style=""height:400px;""></stim_listA>",is being shouted at by,,,,,,
null,"<div style=""font-size:60px;"">+</div>",,html-keyboard-response,258,978196,0.0-17.0-0.8,41277,List2A,white,woman,,,,null,,,,,,,,,
null,"<img src=""stim_listA/challenge3.gif""style=""height:400px;""></stim_listA>",,html-keyboard-response,259,980201,0.0-17.0-1.8,41277,List2A,white,woman,,,,null,,,,,,,,,
null,is challenging,,html-keyboard-response,260,982206,0.0-17.0-2.8,41277,List2A,white,woman,,,,null,,,,,,,,,
7234.9,,,survey-text,261,989444,0.0-17.0-3.8,41277,List2A,white,woman,,,,,"{""Q0"":""beth is challenging mike""}","<img src=""stim_listA/challenge3.gif""style=""height:400px;""></stim_listA>",is challenging,,,,,,
null,"<div style=""font-size:60px;"">+</div>",,html-keyboard-response,262,989946,0.0-17.0-0.9,41277,List2A,white,woman,,,,null,,,,,,,,,
null,"<img src=""stim_listA/copy6.gif""style=""height:400px;""></stim_listA>",,html-keyboard-response,263,991950,0.0-17.0-1.9,41277,List2A,white,woman,,,,null,,,,,,,,,
null,is being copied by,,html-keyboard-response,264,993955,0.0-17.0-2.9,41277,List2A,white,woman,,,,null,,,,,,,,,
5692.3,,,survey-text,265,999651,0.0-17.0-3.9,41277,List2A,white,woman,,,,,"{""Q0"":""mike is being copied by luke""}","<img src=""stim_listA/copy6.gif""style=""height:400px;""></stim_listA>",is being copied by,,,,,,
null,"<div style=""font-size:60px;"">+</div>",,html-keyboard-response,266,1000153,0.0-17.0-0.10,41277,List2A,white,woman,,,,null,,,,,,,,,
null,"<img src=""stim_listA/shout6.gif""style=""height:400px;""></stim_listA>",,html-keyboard-response,267,1002158,0.0-17.0-1.10,41277,List2A,white,woman,,,,null,,,,,,,,,
null,is being shouted at by,,html-keyboard-response,268,1004163,0.0-17.0-2.10,41277,List2A,white,woman,,,,null,,,,,,,,,
5604,,,survey-text,269,1009770,0.0-17.0-3.10,41277,List2A,white,woman,,,,,"{""Q0"":""mike is being shouted at by dave""}","<img src=""stim_listA/shout6.gif""style=""height:400px;""></stim_listA>",is being shouted at by,,,,,,
null,"<div style=""font-size:60px;"">+</div>",,html-keyboard-response,270,1010275,0.0-17.0-0.11,41277,List2A,white,woman,,,,null,,,,,,,,,
null,"<img src=""stim_listA/look5.gif""style=""height:400px;""></stim_listA>",,html-keyboard-response,271,1012282,0.0-17.0-1.11,41277,List2A,white,woman,,,,null,,,,,,,,,
null,is looking at,,html-keyboard-response,272,1014286,0.0-17.0-2.11,41277,List2A,white,woman,,,,null,,,,,,,,,
5169.5,,,survey-text,273,1019458,0.0-17.0-3.11,41277,List2A,white,woman,,,,,"{""Q0"":""mike is looking at fred""}","<img src=""stim_listA/look5.gif""style=""height:400px;""></stim_listA>",is looking at,,,,,,
null,"<div style=""font-size:60px;"">+</div>",,html-keyboard-response,274,1019960,0.0-17.0-0.12,41277,List2A,white,woman,,,,null,,,,,,,,,
null,"<img src=""stim_listA/hug6.gif""style=""height:400px;""></stim_listA>",,html-keyboard-response,275,1021965,0.0-17.0-1.12,41277,List2A,white,woman,,,,null,,,,,,,,,
null,is being hugged by,,html-keyboard-response,276,1023971,0.0-17.0-2.12,41277,List2A,white,woman,,,,null,,,,,,,,,
6722.5,,,survey-text,277,1030696,0.0-17.0-3.12,41277,List2A,white,woman,,,,,"{""Q0"":""dave is being hugged by mike""}","<img src=""stim_listA/hug6.gif""style=""height:400px;""></stim_listA>",is being hugged by,,,,,,
null,"<div style=""font-size:60px;"">+</div>",,html-keyboard-response,278,1031197,0.0-17.0-0.13,41277,List2A,white,woman,,,,null,,,,,,,,,
null,"<img src=""stim_listA/oppose5.gif""style=""height:400px;""></stim_listA>",,html-keyboard-response,279,1033202,0.0-17.0-1.13,41277,List2A,white,woman,,,,null,,,,,,,,,
null,is opposing,,html-keyboard-response,280,1035207,0.0-17.0-2.13,41277,List2A,white,woman,,,,null,,,,,,,,,
6795.8,,,survey-text,281,1042006,0.0-17.0-3.13,41277,List2A,white,woman,,,,,"{""Q0"":""dave is opposing mike""}","<img src=""stim_listA/oppose5.gif""style=""height:400px;""></stim_listA>",is opposing,,,,,,
null,"<div style=""font-size:60px;"">+</div>",,html-keyboard-response,282,1042509,0.0-17.0-0.14,41277,List2A,white,woman,,,,null,,,,,,,,,
null,"<img src=""stim_listA/greet5.gif""style=""height:400px;""></stim_listA>",,html-keyboard-response,283,1044514,0.0-17.0-1.14,41277,List2A,white,woman,,,,null,,,,,,,,,
null,is greeting,,html-keyboard-response,284,1046519,0.0-17.0-2.14,41277,List2A,white,woman,,,,null,,,,,,,,,
5387.1,,,survey-text,285,1051909,0.0-17.0-3.14,41277,List2A,white,woman,,,,,"{""Q0"":""dave is greeting fred""}","<img src=""stim_listA/greet5.gif""style=""height:400px;""></stim_listA>",is greeting,,,,,,
null,"<div style=""font-size:60px;"">+</div>",,html-keyboard-response,286,1052412,0.0-17.0-0.15,41277,List2A,white,woman,,,,null,,,,,,,,,
null,"<img src=""stim_listA/greet8.gif""style=""height:400px;""></stim_listA>",,html-keyboard-response,287,1054418,0.0-17.0-1.15,41277,List2A,white,woman,,,,null,,,,,,,,,
null,is being greeted by,,html-keyboard-response,288,1056423,0.0-17.0-2.15,41277,List2A,white,woman,,,,null,,,,,,,,,
4934.2,,,survey-text,289,1061360,0.0-17.0-3.15,41277,List2A,white,woman,,,,,"{""Q0"":""ruth is being greeted by kate""}","<img src=""stim_listA/greet8.gif""style=""height:400px;""></stim_listA>",is being greeted by,,,,,,
null,"<div style=""font-size:60px;"">+</div>",,html-keyboard-response,290,1061863,0.0-17.0-0.16,41277,List2A,white,woman,,,,null,,,,,,,,,
null,"<img src=""stim_listA/touch8.gif""style=""height:400px;""></stim_listA>",,html-keyboard-response,291,1063868,0.0-17.0-1.16,41277,List2A,white,woman,,,,null,,,,,,,,,
null,is being touched by,,html-keyboard-response,292,1065873,0.0-17.0-2.16,41277,List2A,white,woman,,,,null,,,,,,,,,
4702.3,,,survey-text,293,1070577,0.0-17.0-3.16,41277,List2A,white,woman,,,,,"{""Q0"":""ruth is being touched by beth""}","<img src=""stim_listA/touch8.gif""style=""height:400px;""></stim_listA>",is being touched by,,,,,,
null,"<div style=""font-size:60px;"">+</div>",,html-keyboard-response,294,1071078,0.0-17.0-0.17,41277,List2A,white,woman,,,,null,,,,,,,,,
null,"<img src=""stim_listA/hug3.gif""style=""height:400px;""></stim_listA>",,html-keyboard-response,295,1073083,0.0-17.0-1.17,41277,List2A,white,woman,,,,null,,,,,,,,,
null,is hugging,,html-keyboard-response,296,1075086,0.0-17.0-2.17,41277,List2A,white,woman,,,,null,,,,,,,,,
8248.9,,,survey-text,297,1083338,0.0-17.0-3.17,41277,List2A,white,woman,,,,,"{""Q0"":""beth is hugging fred""}","<img src=""stim_listA/hug3.gif""style=""height:400px;""></stim_listA>",is hugging,,,,,,
null,"<div style=""font-size:60px;"">+</div>",,html-keyboard-response,298,1083841,0.0-17.0-0.18,41277,List2A,white,woman,,,,null,,,,,,,,,
null,"<img src=""stim_listA/greet6.gif""style=""height:400px;""></stim_listA>",,html-keyboard-response,299,1085846,0.0-17.0-1.18,41277,List2A,white,woman,,,,null,,,,,,,,,
null,is being greeted by,,html-keyboard-response,300,1087851,0.0-17.0-2.18,41277,List2A,white,woman,,,,null,,,,,,,,,
7325.9,,,survey-text,301,1095180,0.0-17.0-3.18,41277,List2A,white,woman,,,,,"{""Q0"":""luke is being greeted by mike""}","<img src=""stim_listA/greet6.gif""style=""height:400px;""></stim_listA>",is being greeted by,,,,,,
null,"<div style=""font-size:60px;"">+</div>",,html-keyboard-response,302,1095681,0.0-17.0-0.19,41277,List2A,white,woman,,,,null,,,,,,,,,
null,"<img src=""stim_listA/challenge8.gif""style=""height:400px;""></stim_listA>",,html-keyboard-response,303,1097685,0.0-17.0-1.19,41277,List2A,white,woman,,,,null,,,,,,,,,
null,is being challenged by,,html-keyboard-response,304,1099691,0.0-17.0-2.19,41277,List2A,white,woman,,,,null,,,,,,,,,
11771.2,,,survey-text,305,1111465,0.0-17.0-3.19,41277,List2A,white,woman,,,,,"{""Q0"":""kate is being challenged by ruth""}","<img src=""stim_listA/challenge8.gif""style=""height:400px;""></stim_listA>",is being challenged by,,,,,,
2486.7,"<img src='img/portrait_matrix_list2.jpg' style='width:900px;height:500px;''></img><p>If you have memorised all the portraits and names and are ready to start, press Continue.</p><p><strong>Please note: Your memory of these faces will be tested 4 times during this experiment.</strong></p>",0,html-button-response,306,1113953,0.0-18.0-0.0,41277,List2A,white,woman,,,,,,,,,,,,,
5099.2,"<img src=""portrait/WM1.jpg""style=""height:400px;""></img>",6,html-button-response,307,1120055,0.0-18.0-1.0,41277,List2A,white,woman,,TRUE,6,,,,,,,,,,
null,CORRECT,,html-keyboard-response,308,1121559,0.0-18.0-2.0-0.0,41277,List2A,white,woman,,,,null,,,,,,,,,
2188.2,"<img src=""portrait/BM2.jpg""style=""height:400px;""></img>",5,html-button-response,309,1123749,0.0-18.0-4.0,41277,List2A,white,woman,,TRUE,5,,,,,,,,,,
null,CORRECT,,html-keyboard-response,310,1125253,0.0-18.0-5.0-0.0,41277,List2A,white,woman,,,,null,,,,,,,,,
5100.2,"<img src=""portrait/BW2.jpg""style=""height:400px;""></img>",2,html-button-response,311,1130355,0.0-18.0-7.0,41277,List2A,white,woman,,TRUE,2,,,,,,,,,,
null,CORRECT,,html-keyboard-response,312,1131861,0.0-18.0-8.0-0.0,41277,List2A,white,woman,,,,null,,,,,,,,,
2772.3,"<img src=""portrait/WW1.jpg""style=""height:400px;""></img>",1,html-button-response,313,1134635,0.0-18.0-10.0,41277,List2A,white,woman,,TRUE,1,,,,,,,,,,
null,CORRECT,,html-keyboard-response,314,1136138,0.0-18.0-11.0-0.0,41277,List2A,white,woman,,,,null,,,,,,,,,
2565,"<img src=""portrait/WM2.jpg""style=""height:400px;""></img>",4,html-button-response,315,1138705,0.0-18.0-13.0,41277,List2A,white,woman,,TRUE,7,,,,,,,,,,
3938.8,"<img src=""portrait/WM2.jpg""style=""height:400px;""></img>",7,html-button-response,316,1143646,0.0-18.0-15.0-0.0,41277,List2A,white,woman,,FALSE,7,,,,,,,,,,
null,CORRECT,,html-keyboard-response,317,1145151,0.0-18.0-15.0-1.0-0.0,41277,List2A,white,woman,,,,null,,,,,,,,,
2377.4,"<img src=""portrait/BM1.jpg""style=""height:400px;""></img>",4,html-button-response,318,1147530,0.0-18.0-16.0,41277,List2A,white,woman,,TRUE,4,,,,,,,,,,
null,CORRECT,,html-keyboard-response,319,1149034,0.0-18.0-17.0-0.0,41277,List2A,white,woman,,,,null,,,,,,,,,
4946.5,"<img src=""portrait/BW1.jpg""style=""height:400px;""></img>",0,html-button-response,320,1153982,0.0-18.0-19.0,41277,List2A,white,woman,,TRUE,0,,,,,,,,,,
null,CORRECT,,html-keyboard-response,321,1155487,0.0-18.0-20.0-0.0,41277,List2A,white,woman,,,,null,,,,,,,,,
1413.4,"<img src=""portrait/WW2.jpg""style=""height:400px;""></img>",3,html-button-response,322,1156902,0.0-18.0-22.0,41277,List2A,white,woman,,TRUE,3,,,,,,,,,,
null,CORRECT,,html-keyboard-response,323,1158404,0.0-18.0-23.0-0.0,41277,List2A,white,woman,,,,null,,,,,,,,,
1672,<p>You got 7 out of 8 right first time. Press Continue.</p>,0,html-button-response,324,1160078,0.0-18.0-25.0,41277,List2A,white,woman,,,,,,,,,,,,,
3549.3,"As you did not score 100%, the memory game will repeat. Press Continue.",0,html-button-response,325,1164632,0.0-18.0-26.0-0.0,41277,List2A,white,woman,,,,,,,,,,,,,
1894,"<img src='img/portrait_matrix_list2.jpg' style='width:900px;height:500px;''></img><p>If you have memorised all the portraits and names and are ready to start, press Continue.</p><p><strong>Please note: Your memory of these faces will be tested 4 times during this experiment.</strong></p>",0,html-button-response,326,1167531,0.0-18.1-0.1,41277,List2A,white,woman,,,,,,,,,,,,,
4800,"<img src=""portrait/WM1.jpg""style=""height:400px;""></img>",6,html-button-response,327,1173336,0.0-18.1-1.1,41277,List2A,white,woman,,TRUE,6,,,,,,,,,,
null,CORRECT,,html-keyboard-response,328,1174841,0.0-18.1-2.1-0.1,41277,List2A,white,woman,,,,null,,,,,,,,,
4067.7,"<img src=""portrait/BM2.jpg""style=""height:400px;""></img>",5,html-button-response,329,1178910,0.0-18.1-4.1,41277,List2A,white,woman,,TRUE,5,,,,,,,,,,
null,CORRECT,,html-keyboard-response,330,1180414,0.0-18.1-5.1-0.1,41277,List2A,white,woman,,,,null,,,,,,,,,
4761.5,"<img src=""portrait/BW2.jpg""style=""height:400px;""></img>",2,html-button-response,331,1185177,0.0-18.1-7.1,41277,List2A,white,woman,,TRUE,2,,,,,,,,,,
null,CORRECT,,html-keyboard-response,332,1186681,0.0-18.1-8.1-0.1,41277,List2A,white,woman,,,,null,,,,,,,,,
3759.1,"<img src=""portrait/WW1.jpg""style=""height:400px;""></img>",1,html-button-response,333,1190441,0.0-18.1-10.1,41277,List2A,white,woman,,TRUE,1,,,,,,,,,,
null,CORRECT,,html-keyboard-response,334,1191945,0.0-18.1-11.1-0.1,41277,List2A,white,woman,,,,null,,,,,,,,,
4845.3,"<img src=""portrait/WM2.jpg""style=""height:400px;""></img>",7,html-button-response,335,1196791,0.0-18.1-13.1,41277,List2A,white,woman,,TRUE,7,,,,,,,,,,
null,CORRECT,,html-keyboard-response,336,1198296,0.0-18.1-14.1-0.1,41277,List2A,white,woman,,,,null,,,,,,,,,
2285.1,"<img src=""portrait/BM1.jpg""style=""height:400px;""></img>",4,html-button-response,337,1200583,0.0-18.1-16.1,41277,List2A,white,woman,,TRUE,4,,,,,,,,,,
null,CORRECT,,html-keyboard-response,338,1202088,0.0-18.1-17.1-0.1,41277,List2A,white,woman,,,,null,,,,,,,,,
3918.9,"<img src=""portrait/BW1.jpg""style=""height:400px;""></img>",0,html-button-response,339,1206008,0.0-18.1-19.1,41277,List2A,white,woman,,TRUE,0,,,,,,,,,,
null,CORRECT,,html-keyboard-response,340,1207517,0.0-18.1-20.1-0.1,41277,List2A,white,woman,,,,null,,,,,,,,,
1604.1,"<img src=""portrait/WW2.jpg""style=""height:400px;""></img>",3,html-button-response,341,1209123,0.0-18.1-22.1,41277,List2A,white,woman,,TRUE,3,,,,,,,,,,
null,CORRECT,,html-keyboard-response,342,1210627,0.0-18.1-23.1-0.1,41277,List2A,white,woman,,,,null,,,,,,,,,
1328.2,<p>You got 8 out of 8 right first time. Press Continue.</p>,0,html-button-response,343,1211956,0.0-18.1-25.1,41277,List2A,white,woman,,,,,,,,,,,,,
null,"<div style=""font-size:60px;"">+</div>",,html-keyboard-response,344,1213459,0.0-19.0-0.0,41277,List2A,white,woman,,,,null,,,,,,,,,
null,"<img src=""stim_listA/challenge7.gif""style=""height:400px;""></stim_listA>",,html-keyboard-response,345,1215464,0.0-19.0-1.0,41277,List2A,white,woman,,,,null,,,,,,,,,
null,is challenging,,html-keyboard-response,346,1217469,0.0-19.0-2.0,41277,List2A,white,woman,,,,null,,,,,,,,,
4019.5,,,survey-text,347,1221492,0.0-19.0-3.0,41277,List2A,white,woman,,,,,"{""Q0"":""jane is challenging beth""}","<img src=""stim_listA/challenge7.gif""style=""height:400px;""></stim_listA>",is challenging,,,,,,
null,"<div style=""font-size:60px;"">+</div>",,html-keyboard-response,348,1221993,0.0-19.0-0.1,41277,List2A,white,woman,,,,null,,,,,,,,,
null,"<img src=""stim_listA/challenge2.gif""style=""height:400px;""></stim_listA>",,html-keyboard-response,349,1223997,0.0-19.0-1.1,41277,List2A,white,woman,,,,null,,,,,,,,,
null,is being challenged by,,html-keyboard-response,350,1226002,0.0-19.0-2.1,41277,List2A,white,woman,,,,null,,,,,,,,,
10098.8,,,survey-text,351,1236104,0.0-19.0-3.1,41277,List2A,white,woman,,,,,"{""Q0"":""jane is being challenged by luke""}","<img src=""stim_listA/challenge2.gif""style=""height:400px;""></stim_listA>",is being challenged by,,,,,,
null,"<div style=""font-size:60px;"">+</div>",,html-keyboard-response,352,1236610,0.0-19.0-0.2,41277,List2A,white,woman,,,,null,,,,,,,,,
null,"<img src=""stim_listA/copy8.gif""style=""height:400px;""></stim_listA>",,html-keyboard-response,353,1238615,0.0-19.0-1.2,41277,List2A,white,woman,,,,null,,,,,,,,,
null,is being copied by,,html-keyboard-response,354,1240617,0.0-19.0-2.2,41277,List2A,white,woman,,,,null,,,,,,,,,
7192.2,,,survey-text,355,1247812,0.0-19.0-3.2,41277,List2A,white,woman,,,,,"{""Q0"":""kate is being copied by ruth""}","<img src=""stim_listA/copy8.gif""style=""height:400px;""></stim_listA>",is being copied by,,,,,,
null,"<div style=""font-size:60px;"">+</div>",,html-keyboard-response,356,1248316,0.0-19.0-0.3,41277,List2A,white,woman,,,,null,,,,,,,,,
null,"<img src=""stim_listA/seduce3.gif""style=""height:400px;""></stim_listA>",,html-keyboard-response,357,1250322,0.0-19.0-1.3,41277,List2A,white,woman,,,,null,,,,,,,,,
null,is seducing,,html-keyboard-response,358,1252327,0.0-19.0-2.3,41277,List2A,white,woman,,,,null,,,,,,,,,
5915.9,,,survey-text,359,1258246,0.0-19.0-3.3,41277,List2A,white,woman,,,,,"{""Q0"":""fred is seducing kate""}","<img src=""stim_listA/seduce3.gif""style=""height:400px;""></stim_listA>",is seducing,,,,,,
null,"<div style=""font-size:60px;"">+</div>",,html-keyboard-response,360,1258748,0.0-19.0-0.4,41277,List2A,white,woman,,,,null,,,,,,,,,
null,"<img src=""stim_listA/seduce8.gif""style=""height:400px;""></stim_listA>",,html-keyboard-response,361,1260753,0.0-19.0-1.4,41277,List2A,white,woman,,,,null,,,,,,,,,
null,is being seduced by,,html-keyboard-response,362,1262759,0.0-19.0-2.4,41277,List2A,white,woman,,,,null,,,,,,,,,
8510.3,,,survey-text,363,1271272,0.0-19.0-3.4,41277,List2A,white,woman,,,,,"{""Q0"":""jane is being seduced by beth""}","<img src=""stim_listA/seduce8.gif""style=""height:400px;""></stim_listA>",is being seduced by,,,,,,
null,"<div style=""font-size:60px;"">+</div>",,html-keyboard-response,364,1271773,0.0-19.0-0.5,41277,List2A,white,woman,,,,null,,,,,,,,,
null,"<img src=""stim_listA/greet1.gif""style=""height:400px;""></stim_listA>",,html-keyboard-response,365,1273777,0.0-19.0-1.5,41277,List2A,white,woman,,,,null,,,,,,,,,
null,is greeting,,html-keyboard-response,366,1275782,0.0-19.0-2.5,41277,List2A,white,woman,,,,null,,,,,,,,,
5779.2,,,survey-text,367,1281565,0.0-19.0-3.5,41277,List2A,white,woman,,,,,"{""Q0"":""ruth is greeting dave""}","<img src=""stim_listA/greet1.gif""style=""height:400px;""></stim_listA>",is greeting,,,,,,
null,"<div style=""font-size:60px;"">+</div>",,html-keyboard-response,368,1282066,0.0-19.0-0.6,41277,List2A,white,woman,,,,null,,,,,,,,,
null,"<img src=""stim_listA/look8.gif""style=""height:400px;""></stim_listA>",,html-keyboard-response,369,1284070,0.0-19.0-1.6,41277,List2A,white,woman,,,,null,,,,,,,,,
null,is being looked at by,,html-keyboard-response,370,1286075,0.0-19.0-2.6,41277,List2A,white,woman,,,,null,,,,,,,,,
6496.6,,,survey-text,371,1292575,0.0-19.0-3.6,41277,List2A,white,woman,,,,,"{""Q0"":""kate is being looked at by dave""}","<img src=""stim_listA/look8.gif""style=""height:400px;""></stim_listA>",is being looked at by,,,,,,
null,"<div style=""font-size:60px;"">+</div>",,html-keyboard-response,372,1293078,0.0-19.0-0.7,41277,List2A,white,woman,,,,null,,,,,,,,,
null,"<img src=""stim_listA/look4.gif""style=""height:400px;""></stim_listA>",,html-keyboard-response,373,1295083,0.0-19.0-1.7,41277,List2A,white,woman,,,,null,,,,,,,,,
null,is being looked at by,,html-keyboard-response,374,1297088,0.0-19.0-2.7,41277,List2A,white,woman,,,,null,,,,,,,,,
9094.9,,,survey-text,375,1306186,0.0-19.0-3.7,41277,List2A,white,woman,,,,,"{""Q0"":""kate is being looked at by mike""}","<img src=""stim_listA/look4.gif""style=""height:400px;""></stim_listA>",is being looked at by,,,,,,
null,"<div style=""font-size:60px;"">+</div>",,html-keyboard-response,376,1306688,0.0-19.0-0.8,41277,List2A,white,woman,,,,null,,,,,,,,,
null,"<img src=""stim_listA/oppose1.gif""style=""height:400px;""></stim_listA>",,html-keyboard-response,377,1308694,0.0-19.0-1.8,41277,List2A,white,woman,,,,null,,,,,,,,,
null,is opposing,,html-keyboard-response,378,1310695,0.0-19.0-2.8,41277,List2A,white,woman,,,,null,,,,,,,,,
6572,,,survey-text,379,1317270,0.0-19.0-3.8,41277,List2A,white,woman,,,,,"{""Q0"":""jane is opposing dave""}","<img src=""stim_listA/oppose1.gif""style=""height:400px;""></stim_listA>",is opposing,,,,,,
null,"<div style=""font-size:60px;"">+</div>",,html-keyboard-response,380,1317771,0.0-19.0-0.9,41277,List2A,white,woman,,,,null,,,,,,,,,
null,"<img src=""stim_listA/copy5.gif""style=""height:400px;""></stim_listA>",,html-keyboard-response,381,1319776,0.0-19.0-1.9,41277,List2A,white,woman,,,,null,,,,,,,,,
null,is copying,,html-keyboard-response,382,1321781,0.0-19.0-2.9,41277,List2A,white,woman,,,,null,,,,,,,,,
4075.8,,,survey-text,383,1325860,0.0-19.0-3.9,41277,List2A,white,woman,,,,,"{""Q0"":""dave is copying fred""}","<img src=""stim_listA/copy5.gif""style=""height:400px;""></stim_listA>",is copying,,,,,,
null,"<div style=""font-size:60px;"">+</div>",,html-keyboard-response,384,1326362,0.0-19.0-0.10,41277,List2A,white,woman,,,,null,,,,,,,,,
null,"<img src=""stim_listA/kiss3.gif""style=""height:400px;""></stim_listA>",,html-keyboard-response,385,1328367,0.0-19.0-1.10,41277,List2A,white,woman,,,,null,,,,,,,,,
null,is kissing,,html-keyboard-response,386,1330373,0.0-19.0-2.10,41277,List2A,white,woman,,,,null,,,,,,,,,
4520.3,,,survey-text,387,1334897,0.0-19.0-3.10,41277,List2A,white,woman,,,,,"{""Q0"":""fred is kissing beth""}","<img src=""stim_listA/kiss3.gif""style=""height:400px;""></stim_listA>",is kissing,,,,,,
null,"<div style=""font-size:60px;"">+</div>",,html-keyboard-response,388,1335398,0.0-19.0-0.11,41277,List2A,white,woman,,,,null,,,,,,,,,
null,"<img src=""stim_listA/copy4.gif""style=""height:400px;""></stim_listA>",,html-keyboard-response,389,1337400,0.0-19.0-1.11,41277,List2A,white,woman,,,,null,,,,,,,,,
null,is being copied by,,html-keyboard-response,390,1339402,0.0-19.0-2.11,41277,List2A,white,woman,,,,null,,,,,,,,,
4931.7,,,survey-text,391,1344337,0.0-19.0-3.11,41277,List2A,white,woman,,,,,"{""Q0"":""fred is being copied by kate""}","<img src=""stim_listA/copy4.gif""style=""height:400px;""></stim_listA>",is being copied by,,,,,,
null,"<div style=""font-size:60px;"">+</div>",,html-keyboard-response,392,1344840,0.0-19.0-0.12,41277,List2A,white,woman,,,,null,,,,,,,,,
null,"<img src=""stim_listA/touch7.gif""style=""height:400px;""></stim_listA>",,html-keyboard-response,393,1346847,0.0-19.0-1.12,41277,List2A,white,woman,,,,null,,,,,,,,,
null,is touching,,html-keyboard-response,394,1348852,0.0-19.0-2.12,41277,List2A,white,woman,,,,null,,,,,,,,,
4448.8,,,survey-text,395,1353304,0.0-19.0-3.12,41277,List2A,white,woman,,,,,"{""Q0"":""kate is touching jane""}","<img src=""stim_listA/touch7.gif""style=""height:400px;""></stim_listA>",is touching,,,,,,
null,"<div style=""font-size:60px;"">+</div>",,html-keyboard-response,396,1353807,0.0-19.0-0.13,41277,List2A,white,woman,,,,null,,,,,,,,,
null,"<img src=""stim_listA/seduce6.gif""style=""height:400px;""></stim_listA>",,html-keyboard-response,397,1355812,0.0-19.0-1.13,41277,List2A,white,woman,,,,null,,,,,,,,,
null,is being seduced by,,html-keyboard-response,398,1357817,0.0-19.0-2.13,41277,List2A,white,woman,,,,null,,,,,,,,,
10384.3,,,survey-text,399,1368204,0.0-19.0-3.13,41277,List2A,white,woman,,,,,"{""Q0"":""dave is being seduced by fred""}","<img src=""stim_listA/seduce6.gif""style=""height:400px;""></stim_listA>",is being seduced by,,,,,,
null,"<div style=""font-size:60px;"">+</div>",,html-keyboard-response,400,1368708,0.0-19.0-0.14,41277,List2A,white,woman,,,,null,,,,,,,,,
null,"<img src=""stim_listA/kiss5.gif""style=""height:400px;""></stim_listA>",,html-keyboard-response,401,1370713,0.0-19.0-1.14,41277,List2A,white,woman,,,,null,,,,,,,,,
null,is kissing,,html-keyboard-response,402,1372714,0.0-19.0-2.14,41277,List2A,white,woman,,,,null,,,,,,,,,
5888.2,,,survey-text,403,1378605,0.0-19.0-3.14,41277,List2A,white,woman,,,,,"{""Q0"":""fred is kissing luke""}","<img src=""stim_listA/kiss5.gif""style=""height:400px;""></stim_listA>",is kissing,,,,,,
null,"<div style=""font-size:60px;"">+</div>",,html-keyboard-response,404,1379107,0.0-19.0-0.15,41277,List2A,white,woman,,,,null,,,,,,,,,
null,"<img src=""stim_listA/hug2.gif""style=""height:400px;""></stim_listA>",,html-keyboard-response,405,1381113,0.0-19.0-1.15,41277,List2A,white,woman,,,,null,,,,,,,,,
null,is being hugged by,,html-keyboard-response,406,1383118,0.0-19.0-2.15,41277,List2A,white,woman,,,,null,,,,,,,,,
7028.4,,,survey-text,407,1390149,0.0-19.0-3.15,41277,List2A,white,woman,,,,,"{""Q0"":""jane is being hugged by dave""}","<img src=""stim_listA/hug2.gif""style=""height:400px;""></stim_listA>",is being hugged by,,,,,,
null,"<div style=""font-size:60px;"">+</div>",,html-keyboard-response,408,1390654,0.0-19.0-0.16,41277,List2A,white,woman,,,,null,,,,,,,,,
null,"<img src=""stim_listA/hug4.gif""style=""height:400px;""></stim_listA>",,html-keyboard-response,409,1392659,0.0-19.0-1.16,41277,List2A,white,woman,,,,null,,,,,,,,,
null,is being hugged by,,html-keyboard-response,410,1394664,0.0-19.0-2.16,41277,List2A,white,woman,,,,null,,,,,,,,,
11176.9,,,survey-text,411,1405844,0.0-19.0-3.16,41277,List2A,white,woman,,,,,"{""Q0"":""mike is being hugged by kate""}","<img src=""stim_listA/hug4.gif""style=""height:400px;""></stim_listA>",is being hugged by,,,,,,
null,"<div style=""font-size:60px;"">+</div>",,html-keyboard-response,412,1406345,0.0-19.0-0.17,41277,List2A,white,woman,,,,null,,,,,,,,,
null,"<img src=""stim_listA/seduce5.gif""style=""height:400px;""></stim_listA>",,html-keyboard-response,413,1408349,0.0-19.0-1.17,41277,List2A,white,woman,,,,null,,,,,,,,,
null,is seducing,,html-keyboard-response,414,1410350,0.0-19.0-2.17,41277,List2A,white,woman,,,,null,,,,,,,,,
4562.5,,,survey-text,415,1414916,0.0-19.0-3.17,41277,List2A,white,woman,,,,,"{""Q0"":""mike is seducing luke""}","<img src=""stim_listA/seduce5.gif""style=""height:400px;""></stim_listA>",is seducing,,,,,,
null,"<div style=""font-size:60px;"">+</div>",,html-keyboard-response,416,1415417,0.0-19.0-0.18,41277,List2A,white,woman,,,,null,,,,,,,,,
null,"<img src=""stim_listA/touch1.gif""style=""height:400px;""></stim_listA>",,html-keyboard-response,417,1417421,0.0-19.0-1.18,41277,List2A,white,woman,,,,null,,,,,,,,,
null,is touching,,html-keyboard-response,418,1419426,0.0-19.0-2.18,41277,List2A,white,woman,,,,null,,,,,,,,,
7334.2,,,survey-text,419,1426763,0.0-19.0-3.18,41277,List2A,white,woman,,,,,"{""Q0"":""jane is touching dave""}","<img src=""stim_listA/touch1.gif""style=""height:400px;""></stim_listA>",is touching,,,,,,
null,"<div style=""font-size:60px;"">+</div>",,html-keyboard-response,420,1427265,0.0-19.0-0.19,41277,List2A,white,woman,,,,null,,,,,,,,,
null,"<img src=""stim_listA/oppose7.gif""style=""height:400px;""></stim_listA>",,html-keyboard-response,421,1429271,0.0-19.0-1.19,41277,List2A,white,woman,,,,null,,,,,,,,,
null,is opposing,,html-keyboard-response,422,1431277,0.0-19.0-2.19,41277,List2A,white,woman,,,,null,,,,,,,,,
4104.3,,,survey-text,423,1435384,0.0-19.0-3.19,41277,List2A,white,woman,,,,,"{""Q0"":""jane is opposing kate""}","<img src=""stim_listA/oppose7.gif""style=""height:400px;""></stim_listA>",is opposing,,,,,,
3823.3,<p>Thank you for completing that task.</p><p>The final part of this session is a questionnaire that will take about 4 minutes.</p><p>Press Continue.</p>,0,html-button-response,424,1439208,0.0-20.0,41277,List2A,white,woman,,,,,,,,,,,,,
22205.1,,,survey-text,425,1462425,0.0-21.0,41277,List2A,white,woman,,,,,"{""Q0"":""47"",""Q1"":""english"",""Q2"":""english"",""Q3"":""United States"",""Q4"":""American"",""Q5"":""White"",""Q6"":""Female""}",,,demographics,,,,,
1696.2,<p>Have you lived in the USA for the last 5 years or more?</p>,0,html-button-response,426,1464123,0.0-22.0,41277,List2A,white,woman,,,,,,,,fiveyears,,,,,
2108.1,<p>Move the slider to show the extent to which you agree with the following statements.</p>,0,html-button-response,427,1467235,0.0-23.0,41277,List2A,white,woman,,,,,,,,,,,,,
4860.7,,,html-slider-response,428,1473103,0.0-24.0-0.0-0.0,41277,List2A,white,woman,,,,,,,,survey_gender,77,,,I feel solidarity with my gender.,solidarity
6666.2,,,html-slider-response,429,1479771,0.0-24.0-0.0-0.1,41277,List2A,white,woman,,,,,,,,survey_gender,22,,,Family is not more important to me than friendship.,filler
4249.9,,,html-slider-response,430,1484023,0.0-24.0-0.0-0.2,41277,List2A,white,woman,,,,,,,,survey_gender,78,,,I am similar to the average person of my gender.,similar
3265.6,,,html-slider-response,431,1487290,0.0-24.0-0.0-0.3,41277,List2A,white,woman,,,,,,,,survey_gender,89,,,I am glad to be my gender.,glad
3363.4,,,html-slider-response,432,1490655,0.0-24.0-0.0-0.4,41277,List2A,white,woman,,,,,,,,survey_gender,79,,,I have a lot in common with my friends.,filler
5154.4,,,html-slider-response,433,1495811,0.0-24.0-0.0-0.5,41277,List2A,white,woman,,,,,,,,survey_gender,63,,,The fact that I am my gender is an important part of my identity.,identity
4362.2,,,html-slider-response,434,1500174,0.0-24.0-0.0-0.6,41277,List2A,white,woman,,,,,,,,survey_gender,88,,,My friends have a lot in common with each other.,filler
3494.1,,,html-slider-response,435,1503670,0.0-24.0-0.0-0.7,41277,List2A,white,woman,,,,,,,,survey_gender,78,,,It is pleasant to be my gender.,pleasant
5512.2,,,html-slider-response,436,1509184,0.0-24.0-0.0-0.8,41277,List2A,white,woman,,,,,,,,survey_gender,22,,,I often think about the fact that I am my gender.,often
4856,,,html-slider-response,437,1514042,0.0-24.0-0.0-0.9,41277,List2A,white,woman,,,,,,,,survey_gender,90,,,I often think about my actions.,filler
5066.4,,,html-slider-response,438,1519110,0.0-24.0-0.0-0.10,41277,List2A,white,woman,,,,,,,,survey_gender,59,,,People of my gender have a lot in common with each other.,common
3594.3,,,html-slider-response,439,1522706,0.0-24.0-0.0-0.11,41277,List2A,white,woman,,,,,,,,survey_gender,29,,,People of my gender are very similar to each other.,verysimilar
2952.4,,,html-slider-response,440,1525660,0.0-24.0-0.0-0.12,41277,List2A,white,woman,,,,,,,,survey_gender,22,,,Routine is not important to me.,filler
2960.8,,,html-slider-response,441,1528622,0.0-24.0-0.0-0.13,41277,List2A,white,woman,,,,,,,,survey_gender,70,,,I think that my gender has a lot to be proud of.,proud
2700.4,,,html-slider-response,442,1531324,0.0-24.0-0.0-0.14,41277,List2A,white,woman,,,,,,,,survey_gender,87,,,I am glad to have the friends that I have.,filler
3893.7,,,html-slider-response,443,1535219,0.0-24.0-0.0-0.15,41277,List2A,white,woman,,,,,,,,survey_gender,58,,,Being my gender is an important part of how I see myself.,important
5597.3,,,html-slider-response,444,1540817,0.0-24.0-0.0-0.16,41277,List2A,white,woman,,,,,,,,survey_gender,71,,,Most of the friends in my life are very similar to me.,filler
3538.2,,,html-slider-response,445,1544357,0.0-24.0-0.0-0.17,41277,List2A,white,woman,,,,,,,,survey_gender,66,,,It is not always easy for people to know what I am thinking.,filler
3334.7,,,html-slider-response,446,1547693,0.0-24.0-0.0-0.18,41277,List2A,white,woman,,,,,,,,survey_gender,89,,,Being around my friends gives me a good feeling.,filler
5806.3,,,html-slider-response,447,1553501,0.0-24.0-0.0-0.19,41277,List2A,white,woman,,,,,,,,survey_gender,71,,,I feel committed to my gender.,committed
2998.1,,,html-slider-response,448,1556501,0.0-24.0-0.0-0.20,41277,List2A,white,woman,,,,,,,,survey_gender,91,,,I feel a bond with my friends.,filler
3002.9,,,html-slider-response,449,1559505,0.0-24.0-0.0-0.21,41277,List2A,white,woman,,,,,,,,survey_gender,94,,,I consider myself a highly empathetic person.,filler
3168.5,,,html-slider-response,450,1562675,0.0-24.0-0.0-0.22,41277,List2A,white,woman,,,,,,,,survey_gender,66,,,I have a lot in common with the average person of my gender.,average
2590.4,,,html-slider-response,451,1565267,0.0-24.0-0.0-0.23,41277,List2A,white,woman,,,,,,,,survey_gender,69,,,My friends understand me.,filler
2394.4,,,html-slider-response,452,1567662,0.0-24.0-0.0-0.24,41277,List2A,white,woman,,,,,,,,survey_gender,53,,,I feel a bond with my gender.,bond
4706.8,,,html-slider-response,453,1572370,0.0-24.0-0.0-0.25,41277,List2A,white,woman,,,,,,,,survey_gender,88,,,I would say I am an animal person.,filler
3710.4,,,html-slider-response,454,1576082,0.0-24.0-0.0-0.26,41277,List2A,white,woman,,,,,,,,survey_gender,58,,,Being my gender gives me a good feeling.,feeling
3124.1,,,html-slider-response,455,1579208,0.0-24.0-0.0-0.27,41277,List2A,white,woman,,,,,,,,survey_gender,88,,,I feel solidarity with my friends.,filler
4604.7,,,html-slider-response,456,1583814,0.0-24.0-1.0-0.0,41277,List2A,white,woman,,,,,,,,survey_race,59,,,I feel solidarity with my race.,solidarity
2946.2,,,html-slider-response,457,1586762,0.0-24.0-1.0-0.1,41277,List2A,white,woman,,,,,,,,survey_race,30,,,I consider myself an extrovert.,filler
4156.4,,,html-slider-response,458,1590920,0.0-24.0-1.0-0.2,41277,List2A,white,woman,,,,,,,,survey_race,38,,,People my age have a lot in common with each other.,filler
3720.3,,,html-slider-response,459,1594642,0.0-24.0-1.0-0.3,41277,List2A,white,woman,,,,,,,,survey_race,36,,,I feel committed to my race.,committed
3670,,,html-slider-response,460,1598314,0.0-24.0-1.0-0.4,41277,List2A,white,woman,,,,,,,,survey_race,64,,,It is pleasant to be my race.,pleasant
3466.9,,,html-slider-response,461,1601782,0.0-24.0-1.0-0.5,41277,List2A,white,woman,,,,,,,,survey_race,31,,,People of my race have a lot in common with each other.,common
2510.3,,,html-slider-response,462,1604294,0.0-24.0-1.0-0.6,41277,List2A,white,woman,,,,,,,,survey_race,62,,,I am glad to be the age I am.,filler
3758.2,,,html-slider-response,463,1608053,0.0-24.0-1.0-0.7,41277,List2A,white,woman,,,,,,,,survey_race,38,,,My age is not an important part of who I am.,filler
3246.3,,,html-slider-response,464,1611301,0.0-24.0-1.0-0.8,41277,List2A,white,woman,,,,,,,,survey_race,34,,,I think that my race has a lot to be proud of.,proud
5870.7,,,html-slider-response,465,1617173,0.0-24.0-1.0-0.9,41277,List2A,white,woman,,,,,,,,survey_race,43,,,Getting older does not worry me.,filler
2836.4,,,html-slider-response,466,1620011,0.0-24.0-1.0-0.10,41277,List2A,white,woman,,,,,,,,survey_race,36,,,I feel a bond with my race.,bond
4534,,,html-slider-response,467,1624546,0.0-24.0-1.0-0.11,41277,List2A,white,woman,,,,,,,,survey_race,21,,,People of my race are very similar to each other.,verysimilar
5874,,,html-slider-response,468,1630421,0.0-24.0-1.0-0.12,41277,List2A,white,woman,,,,,,,,survey_race,58,,,I have a lot in common with the average person of my race.,average
3940.4,,,html-slider-response,469,1634363,0.0-24.0-1.0-0.13,41277,List2A,white,woman,,,,,,,,survey_race,58,,,I have a lot in common with people of a similar age to me.,filler
4490.2,,,html-slider-response,470,1638855,0.0-24.0-1.0-0.14,41277,List2A,white,woman,,,,,,,,survey_race,39,,,Being my race is an important part of how I see myself.,important
3570.3,,,html-slider-response,471,1642427,0.0-24.0-1.0-0.15,41277,List2A,white,woman,,,,,,,,survey_race,61,,,I feel solidarity with people the same age as me.,filler
3134.7,,,html-slider-response,472,1645562,0.0-24.0-1.0-0.16,41277,List2A,white,woman,,,,,,,,survey_race,60,,,I feel a bond with people the same age as me.,filler
3000.2,,,html-slider-response,473,1648564,0.0-24.0-1.0-0.17,41277,List2A,white,woman,,,,,,,,survey_race,38,,,I often think about the fact that I am my age.,filler
3006.8,,,html-slider-response,474,1651572,0.0-24.0-1.0-0.18,41277,List2A,white,woman,,,,,,,,survey_race,57,,,Being my age gives me a good feeling.,filler
2882.8,,,html-slider-response,475,1654456,0.0-24.0-1.0-0.19,41277,List2A,white,woman,,,,,,,,survey_race,36,,,I enjoy being in large groups.,filler
2308.5,,,html-slider-response,476,1656766,0.0-24.0-1.0-0.20,41277,List2A,white,woman,,,,,,,,survey_race,45,,,I am glad to be my age.,filler
3380.7,,,html-slider-response,477,1660148,0.0-24.0-1.0-0.21,41277,List2A,white,woman,,,,,,,,survey_race,28,,,The fact that I am my race is an important part of my identity.,identity
2567.1,,,html-slider-response,478,1662716,0.0-24.0-1.0-0.22,41277,List2A,white,woman,,,,,,,,survey_race,61,,,"The older I get, the wiser I feel.",filler
3360.4,,,html-slider-response,479,1666078,0.0-24.0-1.0-0.23,41277,List2A,white,woman,,,,,,,,survey_race,41,,,I am similar to the average person of my race.,similar
4086.6,,,html-slider-response,480,1670166,0.0-24.0-1.0-0.24,41277,List2A,white,woman,,,,,,,,survey_race,62,,,I am glad to be my race.,glad
4668.1,,,html-slider-response,481,1674835,0.0-24.0-1.0-0.25,41277,List2A,white,woman,,,,,,,,survey_race,23,,,I often think about the fact that I am my race.,often
3302.4,,,html-slider-response,482,1678140,0.0-24.0-1.0-0.26,41277,List2A,white,woman,,,,,,,,survey_race,59,,,Being my race gives me a good feeling.,feeling
3094.8,,,html-slider-response,483,1681235,0.0-24.0-1.0-0.27,41277,List2A,white,woman,,,,,,,,survey_race,63,,,I consider myself an introvert.,filler
5964.8,,,survey-text,484,1687203,0.0-25.0,41277,List2A,white,woman,,,,,"{""Q0"":""ccc""}",,,worker_id,,,,,
46241.3,,,external-html,485,1733800,0.0-26.0,41277,List2A,white,woman,debrief.html,,,,,,,,,,,,
