rt,stimulus,button_pressed,trial_type,trial_index,time_elapsed,internal_node_id,subject,list,ppt_race,ppt_gender,url,first_guess,correct,key_press,responses,image_type,phrase_type,test_part,response,stimulus1,stimulus2,question_type,survey_item
4763.9,Welcome to the experiment. Press Continue to begin.,0,html-button-response,0,4766,0.0-0.0,41552,List1A,white,man,,,,,,,,,,,,,
7808.9,,,external-html,1,13690,0.0-1.0,41552,List1A,white,man,consent.html,,,,,,,,,,,,
15713.8,"<p>On the next page, you will see portraits of 8 people and their names.</p><p>Your first task is to take a few minutes to memorise the names of these people.</p><p>You will have to recall their names during the rest of the experiment, so it is</p><p>essential that you try to memorise these people and their names as best as you can.</p><br><p><strong>You will then be tested on your memory of these names and portraits.</strong></p><br><p>The experiment will start after you have completed this memory test.</p><br><p>Ready?</p>",0,html-button-response,2,29405,0.0-2.0,41552,List1A,white,man,,,,,,,,,,,,,
33129.2,"<img src='img/portrait_matrix_list1.jpg' style='width:900px;height:500px;''></img><p>If you have memorised all the portraits and names and are ready to start, press Continue.</p><p><strong>Please note: Your memory of these faces will be tested 4 times during this experiment.</strong></p>",0,html-button-response,3,63541,0.0-3.0-0.0,41552,List1A,white,man,,,,,,,,,,,,,
8357.9,"<img src=""portrait/BM2.jpg""style=""height:400px;""></img>",5,html-button-response,4,72904,0.0-3.0-1.0,41552,List1A,white,man,,TRUE,5,,,,,,,,,,
null,CORRECT,,html-keyboard-response,5,74415,0.0-3.0-2.0-0.0,41552,List1A,white,man,,,,null,,,,,,,,,
3721.3,"<img src=""portrait/BM1.jpg""style=""height:400px;""></img>",4,html-button-response,6,78138,0.0-3.0-4.0,41552,List1A,white,man,,TRUE,4,,,,,,,,,,
null,CORRECT,,html-keyboard-response,7,79657,0.0-3.0-5.0-0.0,41552,List1A,white,man,,,,null,,,,,,,,,
5155.1,"<img src=""portrait/WW2.jpg""style=""height:400px;""></img>",3,html-button-response,8,84813,0.0-3.0-7.0,41552,List1A,white,man,,TRUE,3,,,,,,,,,,
null,CORRECT,,html-keyboard-response,9,86322,0.0-3.0-8.0-0.0,41552,List1A,white,man,,,,null,,,,,,,,,
4032.2,"<img src=""portrait/BW2.jpg""style=""height:400px;""></img>",1,html-button-response,10,90356,0.0-3.0-10.0,41552,List1A,white,man,,TRUE,2,,,,,,,,,,
2768.2,"<img src=""portrait/BW2.jpg""style=""height:400px;""></img>",2,html-button-response,11,94139,0.0-3.0-12.0-0.0,41552,List1A,white,man,,FALSE,2,,,,,,,,,,
null,CORRECT,,html-keyboard-response,12,95660,0.0-3.0-12.0-1.0-0.0,41552,List1A,white,man,,,,null,,,,,,,,,
5664.2,"<img src=""portrait/BW1.jpg""style=""height:400px;""></img>",0,html-button-response,13,101325,0.0-3.0-13.0,41552,List1A,white,man,,TRUE,0,,,,,,,,,,
null,CORRECT,,html-keyboard-response,14,102842,0.0-3.0-14.0-0.0,41552,List1A,white,man,,,,null,,,,,,,,,
2004.8,"<img src=""portrait/WM2.jpg""style=""height:400px;""></img>",7,html-button-response,15,104848,0.0-3.0-16.0,41552,List1A,white,man,,TRUE,7,,,,,,,,,,
null,CORRECT,,html-keyboard-response,16,106368,0.0-3.0-17.0-0.0,41552,List1A,white,man,,,,null,,,,,,,,,
1919.1,"<img src=""portrait/WM1.jpg""style=""height:400px;""></img>",6,html-button-response,17,108288,0.0-3.0-19.0,41552,List1A,white,man,,TRUE,6,,,,,,,,,,
null,CORRECT,,html-keyboard-response,18,109798,0.0-3.0-20.0-0.0,41552,List1A,white,man,,,,null,,,,,,,,,
2907.6,"<img src=""portrait/WW1.jpg""style=""height:400px;""></img>",1,html-button-response,19,112706,0.0-3.0-22.0,41552,List1A,white,man,,TRUE,1,,,,,,,,,,
null,CORRECT,,html-keyboard-response,20,114227,0.0-3.0-23.0-0.0,41552,List1A,white,man,,,,null,,,,,,,,,
1704.9,<p>You got 7 out of 8 right first time. Press Continue.</p>,0,html-button-response,21,115932,0.0-3.0-25.0,41552,List1A,white,man,,,,,,,,,,,,,
3697.4,"As you did not score 100%, the memory game will repeat. Press Continue.",0,html-button-response,22,120635,0.0-3.0-26.0-0.0,41552,List1A,white,man,,,,,,,,,,,,,
8327.8,"<img src='img/portrait_matrix_list1.jpg' style='width:900px;height:500px;''></img><p>If you have memorised all the portraits and names and are ready to start, press Continue.</p><p><strong>Please note: Your memory of these faces will be tested 4 times during this experiment.</strong></p>",0,html-button-response,23,129976,0.0-3.1-0.1,41552,List1A,white,man,,,,,,,,,,,,,
1983.2,"<img src=""portrait/BM2.jpg""style=""height:400px;""></img>",5,html-button-response,24,132961,0.0-3.1-1.1,41552,List1A,white,man,,TRUE,5,,,,,,,,,,
null,CORRECT,,html-keyboard-response,25,134482,0.0-3.1-2.1-0.1,41552,List1A,white,man,,,,null,,,,,,,,,
2087.3,"<img src=""portrait/BM1.jpg""style=""height:400px;""></img>",4,html-button-response,26,136573,0.0-3.1-4.1,41552,List1A,white,man,,TRUE,4,,,,,,,,,,
null,CORRECT,,html-keyboard-response,27,138085,0.0-3.1-5.1-0.1,41552,List1A,white,man,,,,null,,,,,,,,,
8956.2,"<img src=""portrait/WW2.jpg""style=""height:400px;""></img>",3,html-button-response,28,147043,0.0-3.1-7.1,41552,List1A,white,man,,TRUE,3,,,,,,,,,,
null,CORRECT,,html-keyboard-response,29,148553,0.0-3.1-8.1-0.1,41552,List1A,white,man,,,,null,,,,,,,,,
2252.1,"<img src=""portrait/BW2.jpg""style=""height:400px;""></img>",2,html-button-response,30,150806,0.0-3.1-10.1,41552,List1A,white,man,,TRUE,2,,,,,,,,,,
null,CORRECT,,html-keyboard-response,31,152325,0.0-3.1-11.1-0.1,41552,List1A,white,man,,,,null,,,,,,,,,
2600.5,"<img src=""portrait/BW1.jpg""style=""height:400px;""></img>",0,html-button-response,32,154926,0.0-3.1-13.1,41552,List1A,white,man,,TRUE,0,,,,,,,,,,
null,CORRECT,,html-keyboard-response,33,156439,0.0-3.1-14.1-0.1,41552,List1A,white,man,,,,null,,,,,,,,,
3801.4,"<img src=""portrait/WM2.jpg""style=""height:400px;""></img>",7,html-button-response,34,160241,0.0-3.1-16.1,41552,List1A,white,man,,TRUE,7,,,,,,,,,,
null,CORRECT,,html-keyboard-response,35,161760,0.0-3.1-17.1-0.1,41552,List1A,white,man,,,,null,,,,,,,,,
1114.1,"<img src=""portrait/WM1.jpg""style=""height:400px;""></img>",6,html-button-response,36,162874,0.0-3.1-19.1,41552,List1A,white,man,,TRUE,6,,,,,,,,,,
null,CORRECT,,html-keyboard-response,37,164390,0.0-3.1-20.1-0.1,41552,List1A,white,man,,,,null,,,,,,,,,
2398.9,"<img src=""portrait/WW1.jpg""style=""height:400px;""></img>",1,html-button-response,38,166790,0.0-3.1-22.1,41552,List1A,white,man,,TRUE,1,,,,,,,,,,
null,CORRECT,,html-keyboard-response,39,168310,0.0-3.1-23.1-0.1,41552,List1A,white,man,,,,null,,,,,,,,,
1786.6,<p>You got 8 out of 8 right first time. Press Continue.</p>,0,html-button-response,40,170098,0.0-3.1-25.1,41552,List1A,white,man,,,,,,,,,,,,,
34102.4,"<p>In this experiment, you will view photographs of the people from the memory game interacting.</p><p>By using the <strong>exact</strong> phrase given <i>after</i> the photograph appears and recalling the correct names of the people in the photographs, form a sentence describing the interaction. You do not need to capitalise names.</p><p>Type your answer in the space provided. Please complete every sentence before moving onto the next trial.</p><p>You will only have a few seconds to memorise each given photograph and phrase before you can respond, so try your best to focus.</p><p>An example is given below. Press 'Continue' when you are ready.</p><img src='img/speaking_example.jpg' style='width:800px;height:460px;''></img>",0,html-button-response,41,205215,0.0-4.0,41552,List1A,white,man,,,,,,,,,,,,,
3146.7,"<p>Before the experiment starts, you will watch two example trials. Press 'Continue'.</p>",0,html-button-response,42,209364,0.0-5.0,41552,List1A,white,man,,,,,,,,,,,,,
null,<img src='img/play_eg.gif' style='height:400px;''></img>,,html-keyboard-response,43,212368,0.0-6.0,41552,List1A,white,man,,,,null,,,,,,,,,
null,<p>is playing with</p>,,html-keyboard-response,44,214372,0.0-7.0,41552,List1A,white,man,,,,null,,,,,,,,,
2146.2,<p><b>Answer:</b> kate is playing with beth</p>,0,html-button-response,45,216519,0.0-8.0,41552,List1A,white,man,,,,,,,,,,,,,
null,<img src='img/dance_eg.gif' style='height:400px;''></img>,,html-keyboard-response,46,219527,0.0-9.0,41552,List1A,white,man,,,,null,,,,,,,,,
null,<p>is being entertained by</p>,,html-keyboard-response,47,221537,0.0-10.0,41552,List1A,white,man,,,,null,,,,,,,,,
1417.5,<p><b>Answer:</b> luke is being entertained by dave</p>,0,html-button-response,48,222956,0.0-11.0,41552,List1A,white,man,,,,,,,,,,,,,
7664.8,"<p>Ready to start the experiment?</p><br><p><strong>Remember to describe the picture using a full sentence,</strong></p><p><strong>that combines the names of the people with the <i>exact</i> phrase given.</strong></p><p><strong>To receive full payment you must do this correctly.</strong></p><p><strong> You do not need to capitalise names or use punctuation.</strong></p><br><p>Press 'Continue' to begin.</p>",0,html-button-response,49,231623,0.0-12.0,41552,List1A,white,man,,,,,,,,,,,,,
null,"<div style=""font-size:60px;"">+</div>",,html-keyboard-response,50,233132,0.0-13.0-0.0,41552,List1A,white,man,,,,null,,,,,,,,,
null,"<img src=""stim_listA/copy5.gif""style=""height:400px;""></stim_listA>",,html-keyboard-response,51,235133,0.0-13.0-1.0,41552,List1A,white,man,,,,null,,,,,,,,,
null,is copying,,html-keyboard-response,52,237135,0.0-13.0-2.0,41552,List1A,white,man,,,,null,,,,,,,,,
6214.6,,,survey-text,53,243352,0.0-13.0-3.0,41552,List1A,white,man,,,,,"{""Q0"":""is copying""}","<img src=""stim_listA/copy5.gif""style=""height:400px;""></stim_listA>",is copying,,,,,,
null,"<div style=""font-size:60px;"">+</div>",,html-keyboard-response,54,243864,0.0-13.0-0.1,41552,List1A,white,man,,,,null,,,,,,,,,
null,"<img src=""stim_listA/kiss2.gif""style=""height:400px;""></stim_listA>",,html-keyboard-response,55,245865,0.0-13.0-1.1,41552,List1A,white,man,,,,null,,,,,,,,,
null,is being kissed by,,html-keyboard-response,56,247867,0.0-13.0-2.1,41552,List1A,white,man,,,,null,,,,,,,,,
5296.5,,,survey-text,57,253165,0.0-13.0-3.1,41552,List1A,white,man,,,,,"{""Q0"":""is being kissed by""}","<img src=""stim_listA/kiss2.gif""style=""height:400px;""></stim_listA>",is being kissed by,,,,,,
null,"<div style=""font-size:60px;"">+</div>",,html-keyboard-response,58,253677,0.0-13.0-0.2,41552,List1A,white,man,,,,null,,,,,,,,,
null,"<img src=""stim_listA/seduce2.gif""style=""height:400px;""></stim_listA>",,html-keyboard-response,59,255679,0.0-13.0-1.2,41552,List1A,white,man,,,,null,,,,,,,,,
null,is being seduced by,,html-keyboard-response,60,257689,0.0-13.0-2.2,41552,List1A,white,man,,,,null,,,,,,,,,
4768.5,,,survey-text,61,262460,0.0-13.0-3.2,41552,List1A,white,man,,,,,"{""Q0"":""is being seduced by""}","<img src=""stim_listA/seduce2.gif""style=""height:400px;""></stim_listA>",is being seduced by,,,,,,
null,"<div style=""font-size:60px;"">+</div>",,html-keyboard-response,62,262967,0.0-13.0-0.3,41552,List1A,white,man,,,,null,,,,,,,,,
null,"<img src=""stim_listA/kiss1.gif""style=""height:400px;""></stim_listA>",,html-keyboard-response,63,264981,0.0-13.0-1.3,41552,List1A,white,man,,,,null,,,,,,,,,
null,is kissing,,html-keyboard-response,64,266985,0.0-13.0-2.3,41552,List1A,white,man,,,,null,,,,,,,,,
12846.2,,,survey-text,65,279833,0.0-13.0-3.3,41552,List1A,white,man,,,,,"{""Q0"":""beth is being kissed by fred""}","<img src=""stim_listA/kiss1.gif""style=""height:400px;""></stim_listA>",is kissing,,,,,,
null,"<div style=""font-size:60px;"">+</div>",,html-keyboard-response,66,280344,0.0-13.0-0.4,41552,List1A,white,man,,,,null,,,,,,,,,
null,"<img src=""stim_listA/shout2.gif""style=""height:400px;""></stim_listA>",,html-keyboard-response,67,282356,0.0-13.0-1.4,41552,List1A,white,man,,,,null,,,,,,,,,
null,is being shouted at by,,html-keyboard-response,68,284368,0.0-13.0-2.4,41552,List1A,white,man,,,,null,,,,,,,,,
13379.8,,,survey-text,69,297749,0.0-13.0-3.4,41552,List1A,white,man,,,,,"{""Q0"":""kate is being shouted at by mike""}","<img src=""stim_listA/shout2.gif""style=""height:400px;""></stim_listA>",is being shouted at by,,,,,,
null,"<div style=""font-size:60px;"">+</div>",,html-keyboard-response,70,298256,0.0-13.0-0.5,41552,List1A,white,man,,,,null,,,,,,,,,
null,"<img src=""stim_listA/greet8.gif""style=""height:400px;""></stim_listA>",,html-keyboard-response,71,300258,0.0-13.0-1.5,41552,List1A,white,man,,,,null,,,,,,,,,
null,is being greeted by,,html-keyboard-response,72,302261,0.0-13.0-2.5,41552,List1A,white,man,,,,null,,,,,,,,,
6221.2,,,survey-text,73,308484,0.0-13.0-3.5,41552,List1A,white,man,,,,,"{""Q0"":""beth is being greeted by jane""}","<img src=""stim_listA/greet8.gif""style=""height:400px;""></stim_listA>",is being greeted by,,,,,,
null,"<div style=""font-size:60px;"">+</div>",,html-keyboard-response,74,308988,0.0-13.0-0.6,41552,List1A,white,man,,,,null,,,,,,,,,
null,"<img src=""stim_listA/touch3.gif""style=""height:400px;""></stim_listA>",,html-keyboard-response,75,310990,0.0-13.0-1.6,41552,List1A,white,man,,,,null,,,,,,,,,
null,is touching,,html-keyboard-response,76,313006,0.0-13.0-2.6,41552,List1A,white,man,,,,null,,,,,,,,,
3177.1,,,survey-text,77,316185,0.0-13.0-3.6,41552,List1A,white,man,,,,,"{""Q0"":""is touching""}","<img src=""stim_listA/touch3.gif""style=""height:400px;""></stim_listA>",is touching,,,,,,
null,"<div style=""font-size:60px;"">+</div>",,html-keyboard-response,78,316698,0.0-13.0-0.7,41552,List1A,white,man,,,,null,,,,,,,,,
null,"<img src=""stim_listA/touch1.gif""style=""height:400px;""></stim_listA>",,html-keyboard-response,79,318706,0.0-13.0-1.7,41552,List1A,white,man,,,,null,,,,,,,,,
null,is touching,,html-keyboard-response,80,320716,0.0-13.0-2.7,41552,List1A,white,man,,,,null,,,,,,,,,
6366.4,,,survey-text,81,327084,0.0-13.0-3.7,41552,List1A,white,man,,,,,"{""Q0"":""kate is touching mike""}","<img src=""stim_listA/touch1.gif""style=""height:400px;""></stim_listA>",is touching,,,,,,
null,"<div style=""font-size:60px;"">+</div>",,html-keyboard-response,82,327597,0.0-13.0-0.8,41552,List1A,white,man,,,,null,,,,,,,,,
null,"<img src=""stim_listA/copy7.gif""style=""height:400px;""></stim_listA>",,html-keyboard-response,83,329611,0.0-13.0-1.8,41552,List1A,white,man,,,,null,,,,,,,,,
null,is copying,,html-keyboard-response,84,331619,0.0-13.0-2.8,41552,List1A,white,man,,,,null,,,,,,,,,
4133.5,,,survey-text,85,335754,0.0-13.0-3.8,41552,List1A,white,man,,,,,"{""Q0"":""kate is copying beth""}","<img src=""stim_listA/copy7.gif""style=""height:400px;""></stim_listA>",is copying,,,,,,
null,"<div style=""font-size:60px;"">+</div>",,html-keyboard-response,86,336255,0.0-13.0-0.9,41552,List1A,white,man,,,,null,,,,,,,,,
null,"<img src=""stim_listA/touch6.gif""style=""height:400px;""></stim_listA>",,html-keyboard-response,87,338256,0.0-13.0-1.9,41552,List1A,white,man,,,,null,,,,,,,,,
null,is being touched by,,html-keyboard-response,88,340266,0.0-13.0-2.9,41552,List1A,white,man,,,,null,,,,,,,,,
9905,,,survey-text,89,350173,0.0-13.0-3.9,41552,List1A,white,man,,,,,"{""Q0"":""fred is being touched by luke""}","<img src=""stim_listA/touch6.gif""style=""height:400px;""></stim_listA>",is being touched by,,,,,,
null,"<div style=""font-size:60px;"">+</div>",,html-keyboard-response,90,350677,0.0-13.0-0.10,41552,List1A,white,man,,,,null,,,,,,,,,
null,"<img src=""stim_listA/copy1.gif""style=""height:400px;""></stim_listA>",,html-keyboard-response,91,352689,0.0-13.0-1.10,41552,List1A,white,man,,,,null,,,,,,,,,
null,is copying,,html-keyboard-response,92,354704,0.0-13.0-2.10,41552,List1A,white,man,,,,null,,,,,,,,,
4089.2,,,survey-text,93,358795,0.0-13.0-3.10,41552,List1A,white,man,,,,,"{""Q0"":""beth is copying mike""}","<img src=""stim_listA/copy1.gif""style=""height:400px;""></stim_listA>",is copying,,,,,,
null,"<div style=""font-size:60px;"">+</div>",,html-keyboard-response,94,359296,0.0-13.0-0.11,41552,List1A,white,man,,,,null,,,,,,,,,
null,"<img src=""stim_listA/greet4.gif""style=""height:400px;""></stim_listA>",,html-keyboard-response,95,361298,0.0-13.0-1.11,41552,List1A,white,man,,,,null,,,,,,,,,
null,is being greeted by,,html-keyboard-response,96,363307,0.0-13.0-2.11,41552,List1A,white,man,,,,null,,,,,,,,,
4675.7,,,survey-text,97,367985,0.0-13.0-3.11,41552,List1A,white,man,,,,,"{""Q0"":""luke is being greeted by jane""}","<img src=""stim_listA/greet4.gif""style=""height:400px;""></stim_listA>",is being greeted by,,,,,,
null,"<div style=""font-size:60px;"">+</div>",,html-keyboard-response,98,368497,0.0-13.0-0.12,41552,List1A,white,man,,,,null,,,,,,,,,
null,"<img src=""stim_listA/look3.gif""style=""height:400px;""></stim_listA>",,html-keyboard-response,99,370510,0.0-13.0-1.12,41552,List1A,white,man,,,,null,,,,,,,,,
null,is looking at,,html-keyboard-response,100,372525,0.0-13.0-2.12,41552,List1A,white,man,,,,null,,,,,,,,,
4749.1,,,survey-text,101,377276,0.0-13.0-3.12,41552,List1A,white,man,,,,,"{""Q0"":""ruth is looking at luke""}","<img src=""stim_listA/look3.gif""style=""height:400px;""></stim_listA>",is looking at,,,,,,
null,"<div style=""font-size:60px;"">+</div>",,html-keyboard-response,102,377791,0.0-13.0-0.13,41552,List1A,white,man,,,,null,,,,,,,,,
null,"<img src=""stim_listA/look5.gif""style=""height:400px;""></stim_listA>",,html-keyboard-response,103,379794,0.0-13.0-1.13,41552,List1A,white,man,,,,null,,,,,,,,,
null,is looking at,,html-keyboard-response,104,381804,0.0-13.0-2.13,41552,List1A,white,man,,,,null,,,,,,,,,
6139,,,survey-text,105,387945,0.0-13.0-3.13,41552,List1A,white,man,,,,,"{""Q0"":""fred is looking at luke""}","<img src=""stim_listA/look5.gif""style=""height:400px;""></stim_listA>",is looking at,,,,,,
null,"<div style=""font-size:60px;"">+</div>",,html-keyboard-response,106,388446,0.0-13.0-0.14,41552,List1A,white,man,,,,null,,,,,,,,,
null,"<img src=""stim_listA/challenge8.gif""style=""height:400px;""></stim_listA>",,html-keyboard-response,107,390448,0.0-13.0-1.14,41552,List1A,white,man,,,,null,,,,,,,,,
null,is being challenged by,,html-keyboard-response,108,392462,0.0-13.0-2.14,41552,List1A,white,man,,,,null,,,,,,,,,
9470.8,,,survey-text,109,401935,0.0-13.0-3.14,41552,List1A,white,man,,,,,"{""Q0"":""beth is being challenged by jane""}","<img src=""stim_listA/challenge8.gif""style=""height:400px;""></stim_listA>",is being challenged by,,,,,,
null,"<div style=""font-size:60px;"">+</div>",,html-keyboard-response,110,402436,0.0-13.0-0.15,41552,List1A,white,man,,,,null,,,,,,,,,
null,"<img src=""stim_listA/hug8.gif""style=""height:400px;""></stim_listA>",,html-keyboard-response,111,404439,0.0-13.0-1.15,41552,List1A,white,man,,,,null,,,,,,,,,
null,is being hugged by,,html-keyboard-response,112,406441,0.0-13.0-2.15,41552,List1A,white,man,,,,null,,,,,,,,,
5652.6,,,survey-text,113,412095,0.0-13.0-3.15,41552,List1A,white,man,,,,,"{""Q0"":""jane is being hugged by jane""}","<img src=""stim_listA/hug8.gif""style=""height:400px;""></stim_listA>",is being hugged by,,,,,,
null,"<div style=""font-size:60px;"">+</div>",,html-keyboard-response,114,412609,0.0-13.0-0.16,41552,List1A,white,man,,,,null,,,,,,,,,
null,"<img src=""stim_listA/look8.gif""style=""height:400px;""></stim_listA>",,html-keyboard-response,115,414619,0.0-13.0-1.16,41552,List1A,white,man,,,,null,,,,,,,,,
null,is being looked at by,,html-keyboard-response,116,416632,0.0-13.0-2.16,41552,List1A,white,man,,,,null,,,,,,,,,
12010.7,,,survey-text,117,428645,0.0-13.0-3.16,41552,List1A,white,man,,,,,"{""Q0"":""kate is being looked at by jane""}","<img src=""stim_listA/look8.gif""style=""height:400px;""></stim_listA>",is being looked at by,,,,,,
null,"<div style=""font-size:60px;"">+</div>",,html-keyboard-response,118,429152,0.0-13.0-0.17,41552,List1A,white,man,,,,null,,,,,,,,,
null,"<img src=""stim_listA/challenge7.gif""style=""height:400px;""></stim_listA>",,html-keyboard-response,119,431168,0.0-13.0-1.17,41552,List1A,white,man,,,,null,,,,,,,,,
null,is challenging,,html-keyboard-response,120,433177,0.0-13.0-2.17,41552,List1A,white,man,,,,null,,,,,,,,,
6626.8,,,survey-text,121,439806,0.0-13.0-3.17,41552,List1A,white,man,,,,,"{""Q0"":""ruth is challenging kate""}","<img src=""stim_listA/challenge7.gif""style=""height:400px;""></stim_listA>",is challenging,,,,,,
null,"<div style=""font-size:60px;"">+</div>",,html-keyboard-response,122,440315,0.0-13.0-0.18,41552,List1A,white,man,,,,null,,,,,,,,,
null,"<img src=""stim_listA/kiss7.gif""style=""height:400px;""></stim_listA>",,html-keyboard-response,123,442329,0.0-13.0-1.18,41552,List1A,white,man,,,,null,,,,,,,,,
null,is kissing,,html-keyboard-response,124,444333,0.0-13.0-2.18,41552,List1A,white,man,,,,null,,,,,,,,,
3111,,,survey-text,125,447446,0.0-13.0-3.18,41552,List1A,white,man,,,,,"{""Q0"":""ruth is kissing beth""}","<img src=""stim_listA/kiss7.gif""style=""height:400px;""></stim_listA>",is kissing,,,,,,
null,"<div style=""font-size:60px;"">+</div>",,html-keyboard-response,126,447960,0.0-13.0-0.19,41552,List1A,white,man,,,,null,,,,,,,,,
null,"<img src=""stim_listA/hug6.gif""style=""height:400px;""></stim_listA>",,html-keyboard-response,127,449962,0.0-13.0-1.19,41552,List1A,white,man,,,,null,,,,,,,,,
null,is being hugged by,,html-keyboard-response,128,451968,0.0-13.0-2.19,41552,List1A,white,man,,,,null,,,,,,,,,
17945.1,,,survey-text,129,469914,0.0-13.0-3.19,41552,List1A,white,man,,,,,"{""Q0"":""mike is being hugged by ""}","<img src=""stim_listA/hug6.gif""style=""height:400px;""></stim_listA>",is being hugged by,,,,,,
8781.7,"<img src='img/portrait_matrix_list1.jpg' style='width:900px;height:500px;''></img><p>If you have memorised all the portraits and names and are ready to start, press Continue.</p><p><strong>Please note: Your memory of these faces will be tested 4 times during this experiment.</strong></p>",0,html-button-response,130,478698,0.0-14.0-0.0,41552,List1A,white,man,,,,,,,,,,,,,
1714.8,"<img src=""portrait/BM2.jpg""style=""height:400px;""></img>",5,html-button-response,131,481417,0.0-14.0-1.0,41552,List1A,white,man,,TRUE,5,,,,,,,,,,
null,CORRECT,,html-keyboard-response,132,482929,0.0-14.0-2.0-0.0,41552,List1A,white,man,,,,null,,,,,,,,,
1915,"<img src=""portrait/WM1.jpg""style=""height:400px;""></img>",6,html-button-response,133,484846,0.0-14.0-4.0,41552,List1A,white,man,,TRUE,6,,,,,,,,,,
null,CORRECT,,html-keyboard-response,134,486377,0.0-14.0-5.0-0.0,41552,List1A,white,man,,,,null,,,,,,,,,
1999.6,"<img src=""portrait/WW1.jpg""style=""height:400px;""></img>",1,html-button-response,135,488379,0.0-14.0-7.0,41552,List1A,white,man,,TRUE,1,,,,,,,,,,
null,CORRECT,,html-keyboard-response,136,489897,0.0-14.0-8.0-0.0,41552,List1A,white,man,,,,null,,,,,,,,,
2094.2,"<img src=""portrait/WM2.jpg""style=""height:400px;""></img>",7,html-button-response,137,491993,0.0-14.0-10.0,41552,List1A,white,man,,TRUE,7,,,,,,,,,,
null,CORRECT,,html-keyboard-response,138,493507,0.0-14.0-11.0-0.0,41552,List1A,white,man,,,,null,,,,,,,,,
4303.8,"<img src=""portrait/BM1.jpg""style=""height:400px;""></img>",4,html-button-response,139,497813,0.0-14.0-13.0,41552,List1A,white,man,,TRUE,4,,,,,,,,,,
null,CORRECT,,html-keyboard-response,140,499320,0.0-14.0-14.0-0.0,41552,List1A,white,man,,,,null,,,,,,,,,
2085.6,"<img src=""portrait/WW2.jpg""style=""height:400px;""></img>",3,html-button-response,141,501408,0.0-14.0-16.0,41552,List1A,white,man,,TRUE,3,,,,,,,,,,
null,CORRECT,,html-keyboard-response,142,502916,0.0-14.0-17.0-0.0,41552,List1A,white,man,,,,null,,,,,,,,,
1285.7,"<img src=""portrait/BW2.jpg""style=""height:400px;""></img>",2,html-button-response,143,504204,0.0-14.0-19.0,41552,List1A,white,man,,TRUE,2,,,,,,,,,,
null,CORRECT,,html-keyboard-response,144,505713,0.0-14.0-20.0-0.0,41552,List1A,white,man,,,,null,,,,,,,,,
1523.6,"<img src=""portrait/BW1.jpg""style=""height:400px;""></img>",0,html-button-response,145,507239,0.0-14.0-22.0,41552,List1A,white,man,,TRUE,0,,,,,,,,,,
null,CORRECT,,html-keyboard-response,146,508761,0.0-14.0-23.0-0.0,41552,List1A,white,man,,,,null,,,,,,,,,
1347.7,<p>You got 8 out of 8 right first time. Press Continue.</p>,0,html-button-response,147,510110,0.0-14.0-25.0,41552,List1A,white,man,,,,,,,,,,,,,
null,"<div style=""font-size:60px;"">+</div>",,html-keyboard-response,148,511628,0.0-15.0-0.0,41552,List1A,white,man,,,,null,,,,,,,,,
null,"<img src=""stim_listA/oppose7.gif""style=""height:400px;""></stim_listA>",,html-keyboard-response,149,513632,0.0-15.0-1.0,41552,List1A,white,man,,,,null,,,,,,,,,
null,is opposing,,html-keyboard-response,150,515640,0.0-15.0-2.0,41552,List1A,white,man,,,,null,,,,,,,,,
6104.9,,,survey-text,151,521747,0.0-15.0-3.0,41552,List1A,white,man,,,,,"{""Q0"":""kate is opposing jane""}","<img src=""stim_listA/oppose7.gif""style=""height:400px;""></stim_listA>",is opposing,,,,,,
null,"<div style=""font-size:60px;"">+</div>",,html-keyboard-response,152,522259,0.0-15.0-0.1,41552,List1A,white,man,,,,null,,,,,,,,,
null,"<img src=""stim_listA/copy2.gif""style=""height:400px;""></stim_listA>",,html-keyboard-response,153,524262,0.0-15.0-1.1,41552,List1A,white,man,,,,null,,,,,,,,,
null,is being copied by,,html-keyboard-response,154,526277,0.0-15.0-2.1,41552,List1A,white,man,,,,null,,,,,,,,,
6116.8,,,survey-text,155,532397,0.0-15.0-3.1,41552,List1A,white,man,,,,,"{""Q0"":""kate is being copied by mike""}","<img src=""stim_listA/copy2.gif""style=""height:400px;""></stim_listA>",is being copied by,,,,,,
null,"<div style=""font-size:60px;"">+</div>",,html-keyboard-response,156,532912,0.0-15.0-0.2,41552,List1A,white,man,,,,null,,,,,,,,,
null,"<img src=""stim_listA/hug1.gif""style=""height:400px;""></stim_listA>",,html-keyboard-response,157,534923,0.0-15.0-1.2,41552,List1A,white,man,,,,null,,,,,,,,,
null,is hugging,,html-keyboard-response,158,536931,0.0-15.0-2.2,41552,List1A,white,man,,,,null,,,,,,,,,
4004.6,,,survey-text,159,540937,0.0-15.0-3.2,41552,List1A,white,man,,,,,"{""Q0"":""fred is hugging beth""}","<img src=""stim_listA/hug1.gif""style=""height:400px;""></stim_listA>",is hugging,,,,,,
null,"<div style=""font-size:60px;"">+</div>",,html-keyboard-response,160,541445,0.0-15.0-0.3,41552,List1A,white,man,,,,null,,,,,,,,,
null,"<img src=""stim_listA/copy6.gif""style=""height:400px;""></stim_listA>",,html-keyboard-response,161,543461,0.0-15.0-1.3,41552,List1A,white,man,,,,null,,,,,,,,,
null,is being copied by,,html-keyboard-response,162,545474,0.0-15.0-2.3,41552,List1A,white,man,,,,null,,,,,,,,,
8709.8,,,survey-text,163,554187,0.0-15.0-3.3,41552,List1A,white,man,,,,,"{""Q0"":""fred is being copied by dave""}","<img src=""stim_listA/copy6.gif""style=""height:400px;""></stim_listA>",is being copied by,,,,,,
null,"<div style=""font-size:60px;"">+</div>",,html-keyboard-response,164,554699,0.0-15.0-0.4,41552,List1A,white,man,,,,null,,,,,,,,,
null,"<img src=""stim_listA/challenge2.gif""style=""height:400px;""></stim_listA>",,html-keyboard-response,165,556702,0.0-15.0-1.4,41552,List1A,white,man,,,,null,,,,,,,,,
null,is being challenged by,,html-keyboard-response,166,558714,0.0-15.0-2.4,41552,List1A,white,man,,,,null,,,,,,,,,
5000.3,,,survey-text,167,563717,0.0-15.0-3.4,41552,List1A,white,man,,,,,"{""Q0"":""fred is being challenged by kate""}","<img src=""stim_listA/challenge2.gif""style=""height:400px;""></stim_listA>",is being challenged by,,,,,,
null,"<div style=""font-size:60px;"">+</div>",,html-keyboard-response,168,564233,0.0-15.0-0.5,41552,List1A,white,man,,,,null,,,,,,,,,
null,"<img src=""stim_listA/seduce4.gif""style=""height:400px;""></stim_listA>",,html-keyboard-response,169,566241,0.0-15.0-1.5,41552,List1A,white,man,,,,null,,,,,,,,,
null,is being seduced by,,html-keyboard-response,170,568249,0.0-15.0-2.5,41552,List1A,white,man,,,,null,,,,,,,,,
5356.6,,,survey-text,171,573607,0.0-15.0-3.5,41552,List1A,white,man,,,,,"{""Q0"":""dave is being seduced by ruth""}","<img src=""stim_listA/seduce4.gif""style=""height:400px;""></stim_listA>",is being seduced by,,,,,,
null,"<div style=""font-size:60px;"">+</div>",,html-keyboard-response,172,574122,0.0-15.0-0.6,41552,List1A,white,man,,,,null,,,,,,,,,
null,"<img src=""stim_listA/oppose1.gif""style=""height:400px;""></stim_listA>",,html-keyboard-response,173,576125,0.0-15.0-1.6,41552,List1A,white,man,,,,null,,,,,,,,,
null,is opposing,,html-keyboard-response,174,578134,0.0-15.0-2.6,41552,List1A,white,man,,,,null,,,,,,,,,
6651.3,,,survey-text,175,584787,0.0-15.0-3.6,41552,List1A,white,man,,,,,"{""Q0"":""kate is opposing mike""}","<img src=""stim_listA/oppose1.gif""style=""height:400px;""></stim_listA>",is opposing,,,,,,
null,"<div style=""font-size:60px;"">+</div>",,html-keyboard-response,176,585296,0.0-15.0-0.7,41552,List1A,white,man,,,,null,,,,,,,,,
null,"<img src=""stim_listA/hug3.gif""style=""height:400px;""></stim_listA>",,html-keyboard-response,177,587305,0.0-15.0-1.7,41552,List1A,white,man,,,,null,,,,,,,,,
null,is hugging,,html-keyboard-response,178,589308,0.0-15.0-2.7,41552,List1A,white,man,,,,null,,,,,,,,,
6286.3,,,survey-text,179,595597,0.0-15.0-3.7,41552,List1A,white,man,,,,,"{""Q0"":""ruth is hugging luke""}","<img src=""stim_listA/hug3.gif""style=""height:400px;""></stim_listA>",is hugging,,,,,,
null,"<div style=""font-size:60px;"">+</div>",,html-keyboard-response,180,596110,0.0-15.0-0.8,41552,List1A,white,man,,,,null,,,,,,,,,
null,"<img src=""stim_listA/seduce3.gif""style=""height:400px;""></stim_listA>",,html-keyboard-response,181,598113,0.0-15.0-1.8,41552,List1A,white,man,,,,null,,,,,,,,,
null,is seducing,,html-keyboard-response,182,600117,0.0-15.0-2.8,41552,List1A,white,man,,,,null,,,,,,,,,
15169.1,,,survey-text,183,615288,0.0-15.0-3.8,41552,List1A,white,man,,,,,"{""Q0"":""luke is something ruth""}","<img src=""stim_listA/seduce3.gif""style=""height:400px;""></stim_listA>",is seducing,,,,,,
null,"<div style=""font-size:60px;"">+</div>",,html-keyboard-response,184,615804,0.0-15.0-0.9,41552,List1A,white,man,,,,null,,,,,,,,,
null,"<img src=""stim_listA/shout8.gif""style=""height:400px;""></stim_listA>",,html-keyboard-response,185,617807,0.0-15.0-1.9,41552,List1A,white,man,,,,null,,,,,,,,,
null,is being shouted at by,,html-keyboard-response,186,619822,0.0-15.0-2.9,41552,List1A,white,man,,,,null,,,,,,,,,
6663.5,,,survey-text,187,626488,0.0-15.0-3.9,41552,List1A,white,man,,,,,"{""Q0"":""jane is being shouted at by kate""}","<img src=""stim_listA/shout8.gif""style=""height:400px;""></stim_listA>",is being shouted at by,,,,,,
null,"<div style=""font-size:60px;"">+</div>",,html-keyboard-response,188,627004,0.0-15.0-0.10,41552,List1A,white,man,,,,null,,,,,,,,,
null,"<img src=""stim_listA/touch5.gif""style=""height:400px;""></stim_listA>",,html-keyboard-response,189,629019,0.0-15.0-1.10,41552,List1A,white,man,,,,null,,,,,,,,,
null,is touching,,html-keyboard-response,190,631025,0.0-15.0-2.10,41552,List1A,white,man,,,,null,,,,,,,,,
3260.7,,,survey-text,191,634289,0.0-15.0-3.10,41552,List1A,white,man,,,,,"{""Q0"":""dave is touching mike""}","<img src=""stim_listA/touch5.gif""style=""height:400px;""></stim_listA>",is touching,,,,,,
null,"<div style=""font-size:60px;"">+</div>",,html-keyboard-response,192,634795,0.0-15.0-0.11,41552,List1A,white,man,,,,null,,,,,,,,,
null,"<img src=""stim_listA/look4.gif""style=""height:400px;""></stim_listA>",,html-keyboard-response,193,636799,0.0-15.0-1.11,41552,List1A,white,man,,,,null,,,,,,,,,
null,is being looked at by,,html-keyboard-response,194,638813,0.0-15.0-2.11,41552,List1A,white,man,,,,null,,,,,,,,,
10363.4,,,survey-text,195,649178,0.0-15.0-3.11,41552,List1A,white,man,,,,,"{""Q0"":""dave is being looked at by jane""}","<img src=""stim_listA/look4.gif""style=""height:400px;""></stim_listA>",is being looked at by,,,,,,
null,"<div style=""font-size:60px;"">+</div>",,html-keyboard-response,196,649691,0.0-15.0-0.12,41552,List1A,white,man,,,,null,,,,,,,,,
null,"<img src=""stim_listA/oppose2.gif""style=""height:400px;""></stim_listA>",,html-keyboard-response,197,651694,0.0-15.0-1.12,41552,List1A,white,man,,,,null,,,,,,,,,
null,is being opposed by,,html-keyboard-response,198,653705,0.0-15.0-2.12,41552,List1A,white,man,,,,null,,,,,,,,,
6150.1,,,survey-text,199,659858,0.0-15.0-3.12,41552,List1A,white,man,,,,,"{""Q0"":""fred is being opposed by beth""}","<img src=""stim_listA/oppose2.gif""style=""height:400px;""></stim_listA>",is being opposed by,,,,,,
null,"<div style=""font-size:60px;"">+</div>",,html-keyboard-response,200,660359,0.0-15.0-0.13,41552,List1A,white,man,,,,null,,,,,,,,,
null,"<img src=""stim_listA/kiss3.gif""style=""height:400px;""></stim_listA>",,html-keyboard-response,201,662361,0.0-15.0-1.13,41552,List1A,white,man,,,,null,,,,,,,,,
null,is kissing,,html-keyboard-response,202,664377,0.0-15.0-2.13,41552,List1A,white,man,,,,null,,,,,,,,,
5387.5,,,survey-text,203,669768,0.0-15.0-3.13,41552,List1A,white,man,,,,,"{""Q0"":""ruth is kissing luke""}","<img src=""stim_listA/kiss3.gif""style=""height:400px;""></stim_listA>",is kissing,,,,,,
null,"<div style=""font-size:60px;"">+</div>",,html-keyboard-response,204,670279,0.0-15.0-0.14,41552,List1A,white,man,,,,null,,,,,,,,,
null,"<img src=""stim_listA/challenge1.gif""style=""height:400px;""></stim_listA>",,html-keyboard-response,205,672281,0.0-15.0-1.14,41552,List1A,white,man,,,,null,,,,,,,,,
null,is challenging,,html-keyboard-response,206,674297,0.0-15.0-2.14,41552,List1A,white,man,,,,null,,,,,,,,,
5168,,,survey-text,207,679468,0.0-15.0-3.14,41552,List1A,white,man,,,,,"{""Q0"":""beth is challenging mike""}","<img src=""stim_listA/challenge1.gif""style=""height:400px;""></stim_listA>",is challenging,,,,,,
null,"<div style=""font-size:60px;"">+</div>",,html-keyboard-response,208,679980,0.0-15.0-0.15,41552,List1A,white,man,,,,null,,,,,,,,,
null,"<img src=""stim_listA/hug7.gif""style=""height:400px;""></stim_listA>",,html-keyboard-response,209,681989,0.0-15.0-1.15,41552,List1A,white,man,,,,null,,,,,,,,,
null,is hugging,,html-keyboard-response,210,683998,0.0-15.0-2.15,41552,List1A,white,man,,,,null,,,,,,,,,
5016.3,,,survey-text,211,689018,0.0-15.0-3.15,41552,List1A,white,man,,,,,"{""Q0"":""ruth is hugging beth""}","<img src=""stim_listA/hug7.gif""style=""height:400px;""></stim_listA>",is hugging,,,,,,
null,"<div style=""font-size:60px;"">+</div>",,html-keyboard-response,212,689523,0.0-15.0-0.16,41552,List1A,white,man,,,,null,,,,,,,,,
null,"<img src=""stim_listA/seduce7.gif""style=""height:400px;""></stim_listA>",,html-keyboard-response,213,691526,0.0-15.0-1.16,41552,List1A,white,man,,,,null,,,,,,,,,
null,is seducing,,html-keyboard-response,214,693535,0.0-15.0-2.16,41552,List1A,white,man,,,,null,,,,,,,,,
3411.8,,,survey-text,215,696949,0.0-15.0-3.16,41552,List1A,white,man,,,,,"{""Q0"":""jane is seducing beth""}","<img src=""stim_listA/seduce7.gif""style=""height:400px;""></stim_listA>",is seducing,,,,,,
null,"<div style=""font-size:60px;"">+</div>",,html-keyboard-response,216,697458,0.0-15.0-0.17,41552,List1A,white,man,,,,null,,,,,,,,,
null,"<img src=""stim_listA/touch4.gif""style=""height:400px;""></stim_listA>",,html-keyboard-response,217,699459,0.0-15.0-1.17,41552,List1A,white,man,,,,null,,,,,,,,,
null,is being touched by,,html-keyboard-response,218,701462,0.0-15.0-2.17,41552,List1A,white,man,,,,null,,,,,,,,,
6603.8,,,survey-text,219,708070,0.0-15.0-3.17,41552,List1A,white,man,,,,,"{""Q0"":""luke is being touched by ruth""}","<img src=""stim_listA/touch4.gif""style=""height:400px;""></stim_listA>",is being touched by,,,,,,
null,"<div style=""font-size:60px;"">+</div>",,html-keyboard-response,220,708572,0.0-15.0-0.18,41552,List1A,white,man,,,,null,,,,,,,,,
null,"<img src=""stim_listA/oppose6.gif""style=""height:400px;""></stim_listA>",,html-keyboard-response,221,710574,0.0-15.0-1.18,41552,List1A,white,man,,,,null,,,,,,,,,
null,is being opposed by,,html-keyboard-response,222,712580,0.0-15.0-2.18,41552,List1A,white,man,,,,null,,,,,,,,,
5456.7,,,survey-text,223,718039,0.0-15.0-3.18,41552,List1A,white,man,,,,,"{""Q0"":""luke is being opposed by fred""}","<img src=""stim_listA/oppose6.gif""style=""height:400px;""></stim_listA>",is being opposed by,,,,,,
null,"<div style=""font-size:60px;"">+</div>",,html-keyboard-response,224,718551,0.0-15.0-0.19,41552,List1A,white,man,,,,null,,,,,,,,,
null,"<img src=""stim_listA/kiss5.gif""style=""height:400px;""></stim_listA>",,html-keyboard-response,225,720554,0.0-15.0-1.19,41552,List1A,white,man,,,,null,,,,,,,,,
null,is kissing,,html-keyboard-response,226,722562,0.0-15.0-2.19,41552,List1A,white,man,,,,null,,,,,,,,,
3044.1,,,survey-text,227,725609,0.0-15.0-3.19,41552,List1A,white,man,,,,,"{""Q0"":""fred is kissing luke""}","<img src=""stim_listA/kiss5.gif""style=""height:400px;""></stim_listA>",is kissing,,,,,,
6676.9,"<img src='img/portrait_matrix_list1.jpg' style='width:900px;height:500px;''></img><p>If you have memorised all the portraits and names and are ready to start, press Continue.</p><p><strong>Please note: Your memory of these faces will be tested 4 times during this experiment.</strong></p>",0,html-button-response,228,732288,0.0-16.0-0.0,41552,List1A,white,man,,,,,,,,,,,,,
1629.9,"<img src=""portrait/WW1.jpg""style=""height:400px;""></img>",1,html-button-response,229,734932,0.0-16.0-1.0,41552,List1A,white,man,,TRUE,1,,,,,,,,,,
null,CORRECT,,html-keyboard-response,230,736442,0.0-16.0-2.0-0.0,41552,List1A,white,man,,,,null,,,,,,,,,
1095.8,"<img src=""portrait/BW1.jpg""style=""height:400px;""></img>",0,html-button-response,231,737541,0.0-16.0-4.0,41552,List1A,white,man,,TRUE,0,,,,,,,,,,
null,CORRECT,,html-keyboard-response,232,739063,0.0-16.0-5.0-0.0,41552,List1A,white,man,,,,null,,,,,,,,,
2260.9,"<img src=""portrait/BM2.jpg""style=""height:400px;""></img>",4,html-button-response,233,741329,0.0-16.0-7.0,41552,List1A,white,man,,TRUE,5,,,,,,,,,,
1083.3,"<img src=""portrait/BM2.jpg""style=""height:400px;""></img>",5,html-button-response,234,743421,0.0-16.0-9.0-0.0,41552,List1A,white,man,,FALSE,5,,,,,,,,,,
null,CORRECT,,html-keyboard-response,235,744941,0.0-16.0-9.0-1.0-0.0,41552,List1A,white,man,,,,null,,,,,,,,,
1325.9,"<img src=""portrait/WM1.jpg""style=""height:400px;""></img>",6,html-button-response,236,746269,0.0-16.0-10.0,41552,List1A,white,man,,TRUE,6,,,,,,,,,,
null,CORRECT,,html-keyboard-response,237,747785,0.0-16.0-11.0-0.0,41552,List1A,white,man,,,,null,,,,,,,,,
1153,"<img src=""portrait/BW2.jpg""style=""height:400px;""></img>",2,html-button-response,238,748940,0.0-16.0-13.0,41552,List1A,white,man,,TRUE,2,,,,,,,,,,
null,CORRECT,,html-keyboard-response,239,750460,0.0-16.0-14.0-0.0,41552,List1A,white,man,,,,null,,,,,,,,,
3199.7,"<img src=""portrait/BM1.jpg""style=""height:400px;""></img>",4,html-button-response,240,753661,0.0-16.0-16.0,41552,List1A,white,man,,TRUE,4,,,,,,,,,,
null,CORRECT,,html-keyboard-response,241,755168,0.0-16.0-17.0-0.0,41552,List1A,white,man,,,,null,,,,,,,,,
1458.1,"<img src=""portrait/WM2.jpg""style=""height:400px;""></img>",7,html-button-response,242,756628,0.0-16.0-19.0,41552,List1A,white,man,,TRUE,7,,,,,,,,,,
null,CORRECT,,html-keyboard-response,243,758147,0.0-16.0-20.0-0.0,41552,List1A,white,man,,,,null,,,,,,,,,
1288.1,"<img src=""portrait/WW2.jpg""style=""height:400px;""></img>",3,html-button-response,244,759437,0.0-16.0-22.0,41552,List1A,white,man,,TRUE,3,,,,,,,,,,
null,CORRECT,,html-keyboard-response,245,760942,0.0-16.0-23.0-0.0,41552,List1A,white,man,,,,null,,,,,,,,,
1212.5,<p>You got 7 out of 8 right first time. Press Continue.</p>,0,html-button-response,246,762157,0.0-16.0-25.0,41552,List1A,white,man,,,,,,,,,,,,,
1863.4,"As you did not score 100%, the memory game will repeat. Press Continue.",0,html-button-response,247,765027,0.0-16.0-26.0-0.0,41552,List1A,white,man,,,,,,,,,,,,,
1377.2,"<img src='img/portrait_matrix_list1.jpg' style='width:900px;height:500px;''></img><p>If you have memorised all the portraits and names and are ready to start, press Continue.</p><p><strong>Please note: Your memory of these faces will be tested 4 times during this experiment.</strong></p>",0,html-button-response,248,767414,0.0-16.1-0.1,41552,List1A,white,man,,,,,,,,,,,,,
967.1,"<img src=""portrait/WW1.jpg""style=""height:400px;""></img>",1,html-button-response,249,769385,0.0-16.1-1.1,41552,List1A,white,man,,TRUE,1,,,,,,,,,,
null,CORRECT,,html-keyboard-response,250,770899,0.0-16.1-2.1-0.1,41552,List1A,white,man,,,,null,,,,,,,,,
1354.1,"<img src=""portrait/BW1.jpg""style=""height:400px;""></img>",0,html-button-response,251,772254,0.0-16.1-4.1,41552,List1A,white,man,,TRUE,0,,,,,,,,,,
null,CORRECT,,html-keyboard-response,252,773770,0.0-16.1-5.1-0.1,41552,List1A,white,man,,,,null,,,,,,,,,
3059.3,"<img src=""portrait/BM2.jpg""style=""height:400px;""></img>",5,html-button-response,253,776831,0.0-16.1-7.1,41552,List1A,white,man,,TRUE,5,,,,,,,,,,
null,CORRECT,,html-keyboard-response,254,778350,0.0-16.1-8.1-0.1,41552,List1A,white,man,,,,null,,,,,,,,,
1680.8,"<img src=""portrait/WM1.jpg""style=""height:400px;""></img>",6,html-button-response,255,780031,0.0-16.1-10.1,41552,List1A,white,man,,TRUE,6,,,,,,,,,,
null,CORRECT,,html-keyboard-response,256,781539,0.0-16.1-11.1-0.1,41552,List1A,white,man,,,,null,,,,,,,,,
2636.7,"<img src=""portrait/BW2.jpg""style=""height:400px;""></img>",2,html-button-response,257,784177,0.0-16.1-13.1,41552,List1A,white,man,,TRUE,2,,,,,,,,,,
null,CORRECT,,html-keyboard-response,258,785695,0.0-16.1-14.1-0.1,41552,List1A,white,man,,,,null,,,,,,,,,
3160.5,"<img src=""portrait/BM1.jpg""style=""height:400px;""></img>",4,html-button-response,259,788857,0.0-16.1-16.1,41552,List1A,white,man,,TRUE,4,,,,,,,,,,
null,CORRECT,,html-keyboard-response,260,790367,0.0-16.1-17.1-0.1,41552,List1A,white,man,,,,null,,,,,,,,,
1565.2,"<img src=""portrait/WM2.jpg""style=""height:400px;""></img>",7,html-button-response,261,791934,0.0-16.1-19.1,41552,List1A,white,man,,TRUE,7,,,,,,,,,,
null,CORRECT,,html-keyboard-response,262,793450,0.0-16.1-20.1-0.1,41552,List1A,white,man,,,,null,,,,,,,,,
2322.8,"<img src=""portrait/WW2.jpg""style=""height:400px;""></img>",3,html-button-response,263,795775,0.0-16.1-22.1,41552,List1A,white,man,,TRUE,3,,,,,,,,,,
null,CORRECT,,html-keyboard-response,264,797288,0.0-16.1-23.1-0.1,41552,List1A,white,man,,,,null,,,,,,,,,
1293.5,<p>You got 8 out of 8 right first time. Press Continue.</p>,0,html-button-response,265,798583,0.0-16.1-25.1,41552,List1A,white,man,,,,,,,,,,,,,
null,"<div style=""font-size:60px;"">+</div>",,html-keyboard-response,266,800100,0.0-17.0-0.0,41552,List1A,white,man,,,,null,,,,,,,,,
null,"<img src=""stim_listA/shout5.gif""style=""height:400px;""></stim_listA>",,html-keyboard-response,267,802103,0.0-17.0-1.0,41552,List1A,white,man,,,,null,,,,,,,,,
null,is shouting at,,html-keyboard-response,268,804110,0.0-17.0-2.0,41552,List1A,white,man,,,,null,,,,,,,,,
3636.7,,,survey-text,269,807749,0.0-17.0-3.0,41552,List1A,white,man,,,,,"{""Q0"":""fred is shouting at luke""}","<img src=""stim_listA/shout5.gif""style=""height:400px;""></stim_listA>",is shouting at,,,,,,
null,"<div style=""font-size:60px;"">+</div>",,html-keyboard-response,270,808260,0.0-17.0-0.1,41552,List1A,white,man,,,,null,,,,,,,,,
null,"<img src=""stim_listA/oppose8.gif""style=""height:400px;""></stim_listA>",,html-keyboard-response,271,810269,0.0-17.0-1.1,41552,List1A,white,man,,,,null,,,,,,,,,
null,is being opposed by,,html-keyboard-response,272,812278,0.0-17.0-2.1,41552,List1A,white,man,,,,null,,,,,,,,,
8599.3,,,survey-text,273,820880,0.0-17.0-3.1,41552,List1A,white,man,,,,,"{""Q0"":""beth is being opposed by ruth""}","<img src=""stim_listA/oppose8.gif""style=""height:400px;""></stim_listA>",is being opposed by,,,,,,
null,"<div style=""font-size:60px;"">+</div>",,html-keyboard-response,274,821381,0.0-17.0-0.2,41552,List1A,white,man,,,,null,,,,,,,,,
null,"<img src=""stim_listA/hug2.gif""style=""height:400px;""></stim_listA>",,html-keyboard-response,275,823388,0.0-17.0-1.2,41552,List1A,white,man,,,,null,,,,,,,,,
null,is being hugged by,,html-keyboard-response,276,825391,0.0-17.0-2.2,41552,List1A,white,man,,,,null,,,,,,,,,
5547.7,,,survey-text,277,830940,0.0-17.0-3.2,41552,List1A,white,man,,,,,"{""Q0"":""mike is being hugged by kate""}","<img src=""stim_listA/hug2.gif""style=""height:400px;""></stim_listA>",is being hugged by,,,,,,
null,"<div style=""font-size:60px;"">+</div>",,html-keyboard-response,278,831447,0.0-17.0-0.3,41552,List1A,white,man,,,,null,,,,,,,,,
null,"<img src=""stim_listA/shout1.gif""style=""height:400px;""></stim_listA>",,html-keyboard-response,279,833455,0.0-17.0-1.3,41552,List1A,white,man,,,,null,,,,,,,,,
null,is shouting at,,html-keyboard-response,280,835465,0.0-17.0-2.3,41552,List1A,white,man,,,,null,,,,,,,,,
4481.6,,,survey-text,281,839950,0.0-17.0-3.3,41552,List1A,white,man,,,,,"{""Q0"":""beth is shouting at fred""}","<img src=""stim_listA/shout1.gif""style=""height:400px;""></stim_listA>",is shouting at,,,,,,
null,"<div style=""font-size:60px;"">+</div>",,html-keyboard-response,282,840455,0.0-17.0-0.4,41552,List1A,white,man,,,,null,,,,,,,,,
null,"<img src=""stim_listA/seduce1.gif""style=""height:400px;""></stim_listA>",,html-keyboard-response,283,842458,0.0-17.0-1.4,41552,List1A,white,man,,,,null,,,,,,,,,
null,is seducing,,html-keyboard-response,284,844463,0.0-17.0-2.4,41552,List1A,white,man,,,,null,,,,,,,,,
3775.3,,,survey-text,285,848241,0.0-17.0-3.4,41552,List1A,white,man,,,,,"{""Q0"":""fred is seducing kate""}","<img src=""stim_listA/seduce1.gif""style=""height:400px;""></stim_listA>",is seducing,,,,,,
null,"<div style=""font-size:60px;"">+</div>",,html-keyboard-response,286,848752,0.0-17.0-0.5,41552,List1A,white,man,,,,null,,,,,,,,,
null,"<img src=""stim_listA/hug4.gif""style=""height:400px;""></stim_listA>",,html-keyboard-response,287,850760,0.0-17.0-1.5,41552,List1A,white,man,,,,null,,,,,,,,,
null,is being hugged by,,html-keyboard-response,288,852765,0.0-17.0-2.5,41552,List1A,white,man,,,,null,,,,,,,,,
4463.5,,,survey-text,289,857231,0.0-17.0-3.5,41552,List1A,white,man,,,,,"{""Q0"":""jane is being hugged by dave""}","<img src=""stim_listA/hug4.gif""style=""height:400px;""></stim_listA>",is being hugged by,,,,,,
null,"<div style=""font-size:60px;"">+</div>",,html-keyboard-response,290,857742,0.0-17.0-0.6,41552,List1A,white,man,,,,null,,,,,,,,,
null,"<img src=""stim_listA/greet6.gif""style=""height:400px;""></stim_listA>",,html-keyboard-response,291,859744,0.0-17.0-1.6,41552,List1A,white,man,,,,null,,,,,,,,,
null,is being greeted by,,html-keyboard-response,292,861753,0.0-17.0-2.6,41552,List1A,white,man,,,,null,,,,,,,,,
6146.1,,,survey-text,293,867900,0.0-17.0-3.6,41552,List1A,white,man,,,,,"{""Q0"":""dave is being greeted by fred""}","<img src=""stim_listA/greet6.gif""style=""height:400px;""></stim_listA>",is being greeted by,,,,,,
null,"<div style=""font-size:60px;"">+</div>",,html-keyboard-response,294,868412,0.0-17.0-0.7,41552,List1A,white,man,,,,null,,,,,,,,,
null,"<img src=""stim_listA/challenge3.gif""style=""height:400px;""></stim_listA>",,html-keyboard-response,295,870417,0.0-17.0-1.7,41552,List1A,white,man,,,,null,,,,,,,,,
null,is challenging,,html-keyboard-response,296,872426,0.0-17.0-2.7,41552,List1A,white,man,,,,null,,,,,,,,,
6243.1,,,survey-text,297,878671,0.0-17.0-3.7,41552,List1A,white,man,,,,,"{""Q0"":""dave is challenging ruth""}","<img src=""stim_listA/challenge3.gif""style=""height:400px;""></stim_listA>",is challenging,,,,,,
null,"<div style=""font-size:60px;"">+</div>",,html-keyboard-response,298,879186,0.0-17.0-0.8,41552,List1A,white,man,,,,null,,,,,,,,,
null,"<img src=""stim_listA/greet2.gif""style=""height:400px;""></stim_listA>",,html-keyboard-response,299,881194,0.0-17.0-1.8,41552,List1A,white,man,,,,null,,,,,,,,,
null,is being greeted by,,html-keyboard-response,300,883198,0.0-17.0-2.8,41552,List1A,white,man,,,,null,,,,,,,,,
3870.8,,,survey-text,301,887071,0.0-17.0-3.8,41552,List1A,white,man,,,,,"{""Q0"":""fred is being greeted by kate""}","<img src=""stim_listA/greet2.gif""style=""height:400px;""></stim_listA>",is being greeted by,,,,,,
null,"<div style=""font-size:60px;"">+</div>",,html-keyboard-response,302,887573,0.0-17.0-0.9,41552,List1A,white,man,,,,null,,,,,,,,,
null,"<img src=""stim_listA/seduce8.gif""style=""height:400px;""></stim_listA>",,html-keyboard-response,303,889579,0.0-17.0-1.9,41552,List1A,white,man,,,,null,,,,,,,,,
null,is being seduced by,,html-keyboard-response,304,891590,0.0-17.0-2.9,41552,List1A,white,man,,,,null,,,,,,,,,
5029.1,,,survey-text,305,896621,0.0-17.0-3.9,41552,List1A,white,man,,,,,"{""Q0"":""kate is being seduced by ruth""}","<img src=""stim_listA/seduce8.gif""style=""height:400px;""></stim_listA>",is being seduced by,,,,,,
null,"<div style=""font-size:60px;"">+</div>",,html-keyboard-response,306,897134,0.0-17.0-0.10,41552,List1A,white,man,,,,null,,,,,,,,,
null,"<img src=""stim_listA/seduce6.gif""style=""height:400px;""></stim_listA>",,html-keyboard-response,307,899137,0.0-17.0-1.10,41552,List1A,white,man,,,,null,,,,,,,,,
null,is being seduced by,,html-keyboard-response,308,901150,0.0-17.0-2.10,41552,List1A,white,man,,,,null,,,,,,,,,
9608.5,,,survey-text,309,910761,0.0-17.0-3.10,41552,List1A,white,man,,,,,"{""Q0"":""mike is being seduced by luke""}","<img src=""stim_listA/seduce6.gif""style=""height:400px;""></stim_listA>",is being seduced by,,,,,,
null,"<div style=""font-size:60px;"">+</div>",,html-keyboard-response,310,911270,0.0-17.0-0.11,41552,List1A,white,man,,,,null,,,,,,,,,
null,"<img src=""stim_listA/challenge4.gif""style=""height:400px;""></stim_listA>",,html-keyboard-response,311,913279,0.0-17.0-1.11,41552,List1A,white,man,,,,null,,,,,,,,,
null,is being challenged by,,html-keyboard-response,312,915287,0.0-17.0-2.11,41552,List1A,white,man,,,,null,,,,,,,,,
8882.1,,,survey-text,313,924172,0.0-17.0-3.11,41552,List1A,white,man,,,,,"{""Q0"":""luke is being challenged by jane""}","<img src=""stim_listA/challenge4.gif""style=""height:400px;""></stim_listA>",is being challenged by,,,,,,
null,"<div style=""font-size:60px;"">+</div>",,html-keyboard-response,314,924679,0.0-17.0-0.12,41552,List1A,white,man,,,,null,,,,,,,,,
null,"<img src=""stim_listA/look7.gif""style=""height:400px;""></stim_listA>",,html-keyboard-response,315,926689,0.0-17.0-1.12,41552,List1A,white,man,,,,null,,,,,,,,,
null,is looking at,,html-keyboard-response,316,928696,0.0-17.0-2.12,41552,List1A,white,man,,,,null,,,,,,,,,
3412.9,,,survey-text,317,932112,0.0-17.0-3.12,41552,List1A,white,man,,,,,"{""Q0"":""ruth is looking at beth""}","<img src=""stim_listA/look7.gif""style=""height:400px;""></stim_listA>",is looking at,,,,,,
null,"<div style=""font-size:60px;"">+</div>",,html-keyboard-response,318,932626,0.0-17.0-0.13,41552,List1A,white,man,,,,null,,,,,,,,,
null,"<img src=""stim_listA/oppose3.gif""style=""height:400px;""></stim_listA>",,html-keyboard-response,319,934628,0.0-17.0-1.13,41552,List1A,white,man,,,,null,,,,,,,,,
null,is opposing,,html-keyboard-response,320,936632,0.0-17.0-2.13,41552,List1A,white,man,,,,null,,,,,,,,,
5836.4,,,survey-text,321,942472,0.0-17.0-3.13,41552,List1A,white,man,,,,,"{""Q0"":""dave is opposing jane""}","<img src=""stim_listA/oppose3.gif""style=""height:400px;""></stim_listA>",is opposing,,,,,,
null,"<div style=""font-size:60px;"">+</div>",,html-keyboard-response,322,942977,0.0-17.0-0.14,41552,List1A,white,man,,,,null,,,,,,,,,
null,"<img src=""stim_listA/shout3.gif""style=""height:400px;""></stim_listA>",,html-keyboard-response,323,944988,0.0-17.0-1.14,41552,List1A,white,man,,,,null,,,,,,,,,
null,is shouting at,,html-keyboard-response,324,946992,0.0-17.0-2.14,41552,List1A,white,man,,,,null,,,,,,,,,
3347.2,,,survey-text,325,950342,0.0-17.0-3.14,41552,List1A,white,man,,,,,"{""Q0"":""ruth is shouting at luke""}","<img src=""stim_listA/shout3.gif""style=""height:400px;""></stim_listA>",is shouting at,,,,,,
null,"<div style=""font-size:60px;"">+</div>",,html-keyboard-response,326,950851,0.0-17.0-0.15,41552,List1A,white,man,,,,null,,,,,,,,,
null,"<img src=""stim_listA/look2.gif""style=""height:400px;""></stim_listA>",,html-keyboard-response,327,952854,0.0-17.0-1.15,41552,List1A,white,man,,,,null,,,,,,,,,
null,is being looked at by,,html-keyboard-response,328,954869,0.0-17.0-2.15,41552,List1A,white,man,,,,null,,,,,,,,,
6649.9,,,survey-text,329,961522,0.0-17.0-3.15,41552,List1A,white,man,,,,,"{""Q0"":""mike is being looked at by kate""}","<img src=""stim_listA/look2.gif""style=""height:400px;""></stim_listA>",is being looked at by,,,,,,
null,"<div style=""font-size:60px;"">+</div>",,html-keyboard-response,330,962024,0.0-17.0-0.16,41552,List1A,white,man,,,,null,,,,,,,,,
null,"<img src=""stim_listA/greet7.gif""style=""height:400px;""></stim_listA>",,html-keyboard-response,331,964030,0.0-17.0-1.16,41552,List1A,white,man,,,,null,,,,,,,,,
null,is greeting,,html-keyboard-response,332,966040,0.0-17.0-2.16,41552,List1A,white,man,,,,null,,,,,,,,,
3598.2,,,survey-text,333,969642,0.0-17.0-3.16,41552,List1A,white,man,,,,,"{""Q0"":""ruth is greeting kate""}","<img src=""stim_listA/greet7.gif""style=""height:400px;""></stim_listA>",is greeting,,,,,,
null,"<div style=""font-size:60px;"">+</div>",,html-keyboard-response,334,970154,0.0-17.0-0.17,41552,List1A,white,man,,,,null,,,,,,,,,
null,"<img src=""stim_listA/kiss8.gif""style=""height:400px;""></stim_listA>",,html-keyboard-response,335,972160,0.0-17.0-1.17,41552,List1A,white,man,,,,null,,,,,,,,,
null,is being kissed by,,html-keyboard-response,336,974172,0.0-17.0-2.17,41552,List1A,white,man,,,,null,,,,,,,,,
5346.7,,,survey-text,337,979521,0.0-17.0-3.17,41552,List1A,white,man,,,,,"{""Q0"":""jane is being kissed by kate""}","<img src=""stim_listA/kiss8.gif""style=""height:400px;""></stim_listA>",is being kissed by,,,,,,
null,"<div style=""font-size:60px;"">+</div>",,html-keyboard-response,338,980024,0.0-17.0-0.18,41552,List1A,white,man,,,,null,,,,,,,,,
null,"<img src=""stim_listA/challenge5.gif""style=""height:400px;""></stim_listA>",,html-keyboard-response,339,982027,0.0-17.0-1.18,41552,List1A,white,man,,,,null,,,,,,,,,
null,is challenging,,html-keyboard-response,340,984031,0.0-17.0-2.18,41552,List1A,white,man,,,,null,,,,,,,,,
10419.1,,,survey-text,341,994452,0.0-17.0-3.18,41552,List1A,white,man,,,,,"{""Q0"":""mike is challenging luke""}","<img src=""stim_listA/challenge5.gif""style=""height:400px;""></stim_listA>",is challenging,,,,,,
null,"<div style=""font-size:60px;"">+</div>",,html-keyboard-response,342,994962,0.0-17.0-0.19,41552,List1A,white,man,,,,null,,,,,,,,,
null,"<img src=""stim_listA/challenge6.gif""style=""height:400px;""></stim_listA>",,html-keyboard-response,343,996972,0.0-17.0-1.19,41552,List1A,white,man,,,,null,,,,,,,,,
null,is being challenged by,,html-keyboard-response,344,998977,0.0-17.0-2.19,41552,List1A,white,man,,,,null,,,,,,,,,
7223.6,,,survey-text,345,1006203,0.0-17.0-3.19,41552,List1A,white,man,,,,,"{""Q0"":""dave is being challenged by fred""}","<img src=""stim_listA/challenge6.gif""style=""height:400px;""></stim_listA>",is being challenged by,,,,,,
1696.7,"<img src='img/portrait_matrix_list1.jpg' style='width:900px;height:500px;''></img><p>If you have memorised all the portraits and names and are ready to start, press Continue.</p><p><strong>Please note: Your memory of these faces will be tested 4 times during this experiment.</strong></p>",0,html-button-response,346,1007901,0.0-18.0-0.0,41552,List1A,white,man,,,,,,,,,,,,,
1225.6,"<img src=""portrait/BW1.jpg""style=""height:400px;""></img>",0,html-button-response,347,1010139,0.0-18.0-1.0,41552,List1A,white,man,,TRUE,0,,,,,,,,,,
null,CORRECT,,html-keyboard-response,348,1011657,0.0-18.0-2.0-0.0,41552,List1A,white,man,,,,null,,,,,,,,,
1309.5,"<img src=""portrait/WW2.jpg""style=""height:400px;""></img>",3,html-button-response,349,1012967,0.0-18.0-4.0,41552,List1A,white,man,,TRUE,3,,,,,,,,,,
null,CORRECT,,html-keyboard-response,350,1014483,0.0-18.0-5.0-0.0,41552,List1A,white,man,,,,null,,,,,,,,,
1462.8,"<img src=""portrait/BM1.jpg""style=""height:400px;""></img>",4,html-button-response,351,1015948,0.0-18.0-7.0,41552,List1A,white,man,,TRUE,4,,,,,,,,,,
null,CORRECT,,html-keyboard-response,352,1017460,0.0-18.0-8.0-0.0,41552,List1A,white,man,,,,null,,,,,,,,,
1225.6,"<img src=""portrait/WW1.jpg""style=""height:400px;""></img>",1,html-button-response,353,1018687,0.0-18.0-10.0,41552,List1A,white,man,,TRUE,1,,,,,,,,,,
null,CORRECT,,html-keyboard-response,354,1020197,0.0-18.0-11.0-0.0,41552,List1A,white,man,,,,null,,,,,,,,,
1433.3,"<img src=""portrait/WM2.jpg""style=""height:400px;""></img>",7,html-button-response,355,1021632,0.0-18.0-13.0,41552,List1A,white,man,,TRUE,7,,,,,,,,,,
null,CORRECT,,html-keyboard-response,356,1023151,0.0-18.0-14.0-0.0,41552,List1A,white,man,,,,null,,,,,,,,,
2223.8,"<img src=""portrait/BM2.jpg""style=""height:400px;""></img>",5,html-button-response,357,1025377,0.0-18.0-16.0,41552,List1A,white,man,,TRUE,5,,,,,,,,,,
null,CORRECT,,html-keyboard-response,358,1026894,0.0-18.0-17.0-0.0,41552,List1A,white,man,,,,null,,,,,,,,,
1633.2,"<img src=""portrait/WM1.jpg""style=""height:400px;""></img>",6,html-button-response,359,1028530,0.0-18.0-19.0,41552,List1A,white,man,,TRUE,6,,,,,,,,,,
null,CORRECT,,html-keyboard-response,360,1030047,0.0-18.0-20.0-0.0,41552,List1A,white,man,,,,null,,,,,,,,,
2080.9,"<img src=""portrait/BW2.jpg""style=""height:400px;""></img>",2,html-button-response,361,1032129,0.0-18.0-22.0,41552,List1A,white,man,,TRUE,2,,,,,,,,,,
null,CORRECT,,html-keyboard-response,362,1033648,0.0-18.0-23.0-0.0,41552,List1A,white,man,,,,null,,,,,,,,,
1472.6,<p>You got 8 out of 8 right first time. Press Continue.</p>,0,html-button-response,363,1035122,0.0-18.0-25.0,41552,List1A,white,man,,,,,,,,,,,,,
null,"<div style=""font-size:60px;"">+</div>",,html-keyboard-response,364,1036632,0.0-19.0-0.0,41552,List1A,white,man,,,,null,,,,,,,,,
null,"<img src=""stim_listA/copy4.gif""style=""height:400px;""></stim_listA>",,html-keyboard-response,365,1038636,0.0-19.0-1.0,41552,List1A,white,man,,,,null,,,,,,,,,
null,is being copied by,,html-keyboard-response,366,1040643,0.0-19.0-2.0,41552,List1A,white,man,,,,null,,,,,,,,,
3668.9,,,survey-text,367,1044314,0.0-19.0-3.0,41552,List1A,white,man,,,,,"{""Q0"":""luke is being copied by jane""}","<img src=""stim_listA/copy4.gif""style=""height:400px;""></stim_listA>",is being copied by,,,,,,
null,"<div style=""font-size:60px;"">+</div>",,html-keyboard-response,368,1044817,0.0-19.0-0.1,41552,List1A,white,man,,,,null,,,,,,,,,
null,"<img src=""stim_listA/greet3.gif""style=""height:400px;""></stim_listA>",,html-keyboard-response,369,1046821,0.0-19.0-1.1,41552,List1A,white,man,,,,null,,,,,,,,,
null,is greeting,,html-keyboard-response,370,1048825,0.0-19.0-2.1,41552,List1A,white,man,,,,null,,,,,,,,,
3525.8,,,survey-text,371,1052354,0.0-19.0-3.1,41552,List1A,white,man,,,,,"{""Q0"":""ruth is greeting dave""}","<img src=""stim_listA/greet3.gif""style=""height:400px;""></stim_listA>",is greeting,,,,,,
null,"<div style=""font-size:60px;"">+</div>",,html-keyboard-response,372,1052862,0.0-19.0-0.2,41552,List1A,white,man,,,,null,,,,,,,,,
null,"<img src=""stim_listA/shout4.gif""style=""height:400px;""></stim_listA>",,html-keyboard-response,373,1054870,0.0-19.0-1.2,41552,List1A,white,man,,,,null,,,,,,,,,
null,is being shouted at by,,html-keyboard-response,374,1056882,0.0-19.0-2.2,41552,List1A,white,man,,,,null,,,,,,,,,
5048.6,,,survey-text,375,1061933,0.0-19.0-3.2,41552,List1A,white,man,,,,,"{""Q0"":""dave is being shouted at by jane""}","<img src=""stim_listA/shout4.gif""style=""height:400px;""></stim_listA>",is being shouted at by,,,,,,
null,"<div style=""font-size:60px;"">+</div>",,html-keyboard-response,376,1062446,0.0-19.0-0.3,41552,List1A,white,man,,,,null,,,,,,,,,
null,"<img src=""stim_listA/look1.gif""style=""height:400px;""></stim_listA>",,html-keyboard-response,377,1064448,0.0-19.0-1.3,41552,List1A,white,man,,,,null,,,,,,,,,
null,is looking at,,html-keyboard-response,378,1066458,0.0-19.0-2.3,41552,List1A,white,man,,,,null,,,,,,,,,
4182.9,,,survey-text,379,1070643,0.0-19.0-3.3,41552,List1A,white,man,,,,,"{""Q0"":""beth is looking at fred""}","<img src=""stim_listA/look1.gif""style=""height:400px;""></stim_listA>",is looking at,,,,,,
null,"<div style=""font-size:60px;"">+</div>",,html-keyboard-response,380,1071146,0.0-19.0-0.4,41552,List1A,white,man,,,,null,,,,,,,,,
null,"<img src=""stim_listA/kiss4.gif""style=""height:400px;""></stim_listA>",,html-keyboard-response,381,1073148,0.0-19.0-1.4,41552,List1A,white,man,,,,null,,,,,,,,,
null,is being kissed by,,html-keyboard-response,382,1075153,0.0-19.0-2.4,41552,List1A,white,man,,,,null,,,,,,,,,
4198.2,,,survey-text,383,1079354,0.0-19.0-3.4,41552,List1A,white,man,,,,,"{""Q0"":""dave is being kissed by jane""}","<img src=""stim_listA/kiss4.gif""style=""height:400px;""></stim_listA>",is being kissed by,,,,,,
null,"<div style=""font-size:60px;"">+</div>",,html-keyboard-response,384,1079865,0.0-19.0-0.5,41552,List1A,white,man,,,,null,,,,,,,,,
null,"<img src=""stim_listA/touch2.gif""style=""height:400px;""></stim_listA>",,html-keyboard-response,385,1081871,0.0-19.0-1.5,41552,List1A,white,man,,,,null,,,,,,,,,
null,is being touched by,,html-keyboard-response,386,1083885,0.0-19.0-2.5,41552,List1A,white,man,,,,null,,,,,,,,,
4446.9,,,survey-text,387,1088336,0.0-19.0-3.5,41552,List1A,white,man,,,,,"{""Q0"":""beth is being touched by fred""}","<img src=""stim_listA/touch2.gif""style=""height:400px;""></stim_listA>",is being touched by,,,,,,
null,"<div style=""font-size:60px;"">+</div>",,html-keyboard-response,388,1088841,0.0-19.0-0.6,41552,List1A,white,man,,,,null,,,,,,,,,
null,"<img src=""stim_listA/touch7.gif""style=""height:400px;""></stim_listA>",,html-keyboard-response,389,1090843,0.0-19.0-1.6,41552,List1A,white,man,,,,null,,,,,,,,,
null,is touching,,html-keyboard-response,390,1092857,0.0-19.0-2.6,41552,List1A,white,man,,,,null,,,,,,,,,
3344.9,,,survey-text,391,1096204,0.0-19.0-3.6,41552,List1A,white,man,,,,,"{""Q0"":""jane is touching kate""}","<img src=""stim_listA/touch7.gif""style=""height:400px;""></stim_listA>",is touching,,,,,,
null,"<div style=""font-size:60px;"">+</div>",,html-keyboard-response,392,1096712,0.0-19.0-0.7,41552,List1A,white,man,,,,null,,,,,,,,,
null,"<img src=""stim_listA/touch8.gif""style=""height:400px;""></stim_listA>",,html-keyboard-response,393,1098716,0.0-19.0-1.7,41552,List1A,white,man,,,,null,,,,,,,,,
null,is being touched by,,html-keyboard-response,394,1100723,0.0-19.0-2.7,41552,List1A,white,man,,,,null,,,,,,,,,
5527,,,survey-text,395,1106254,0.0-19.0-3.7,41552,List1A,white,man,,,,,"{""Q0"":""beth is being touched by ruth""}","<img src=""stim_listA/touch8.gif""style=""height:400px;""></stim_listA>",is being touched by,,,,,,
null,"<div style=""font-size:60px;"">+</div>",,html-keyboard-response,396,1106762,0.0-19.0-0.8,41552,List1A,white,man,,,,null,,,,,,,,,
null,"<img src=""stim_listA/shout7.gif""style=""height:400px;""></stim_listA>",,html-keyboard-response,397,1108770,0.0-19.0-1.8,41552,List1A,white,man,,,,null,,,,,,,,,
null,is shouting at,,html-keyboard-response,398,1110775,0.0-19.0-2.8,41552,List1A,white,man,,,,null,,,,,,,,,
5566,,,survey-text,399,1116344,0.0-19.0-3.8,41552,List1A,white,man,,,,,"{""Q0"":""beth is shouting at ruth""}","<img src=""stim_listA/shout7.gif""style=""height:400px;""></stim_listA>",is shouting at,,,,,,
null,"<div style=""font-size:60px;"">+</div>",,html-keyboard-response,400,1116850,0.0-19.0-0.9,41552,List1A,white,man,,,,null,,,,,,,,,
null,"<img src=""stim_listA/oppose4.gif""style=""height:400px;""></stim_listA>",,html-keyboard-response,401,1118853,0.0-19.0-1.9,41552,List1A,white,man,,,,null,,,,,,,,,
null,is being opposed by,,html-keyboard-response,402,1120862,0.0-19.0-2.9,41552,List1A,white,man,,,,null,,,,,,,,,
6539.1,,,survey-text,403,1127404,0.0-19.0-3.9,41552,List1A,white,man,,,,,"{""Q0"":""ruth is being opposed by luke ""}","<img src=""stim_listA/oppose4.gif""style=""height:400px;""></stim_listA>",is being opposed by,,,,,,
null,"<div style=""font-size:60px;"">+</div>",,html-keyboard-response,404,1127909,0.0-19.0-0.10,41552,List1A,white,man,,,,null,,,,,,,,,
null,"<img src=""stim_listA/shout6.gif""style=""height:400px;""></stim_listA>",,html-keyboard-response,405,1129913,0.0-19.0-1.10,41552,List1A,white,man,,,,null,,,,,,,,,
null,is being shouted at by,,html-keyboard-response,406,1131922,0.0-19.0-2.10,41552,List1A,white,man,,,,null,,,,,,,,,
5778.5,,,survey-text,407,1137703,0.0-19.0-3.10,41552,List1A,white,man,,,,,"{""Q0"":""mike is being shouted at by dave""}","<img src=""stim_listA/shout6.gif""style=""height:400px;""></stim_listA>",is being shouted at by,,,,,,
null,"<div style=""font-size:60px;"">+</div>",,html-keyboard-response,408,1138207,0.0-19.0-0.11,41552,List1A,white,man,,,,null,,,,,,,,,
null,"<img src=""stim_listA/copy8.gif""style=""height:400px;""></stim_listA>",,html-keyboard-response,409,1140219,0.0-19.0-1.11,41552,List1A,white,man,,,,null,,,,,,,,,
null,is being copied by,,html-keyboard-response,410,1142226,0.0-19.0-2.11,41552,List1A,white,man,,,,null,,,,,,,,,
7024.9,,,survey-text,411,1149254,0.0-19.0-3.11,41552,List1A,white,man,,,,,"{""Q0"":""jane is being copied by beth""}","<img src=""stim_listA/copy8.gif""style=""height:400px;""></stim_listA>",is being copied by,,,,,,
null,"<div style=""font-size:60px;"">+</div>",,html-keyboard-response,412,1149758,0.0-19.0-0.12,41552,List1A,white,man,,,,null,,,,,,,,,
null,"<img src=""stim_listA/copy3.gif""style=""height:400px;""></stim_listA>",,html-keyboard-response,413,1151765,0.0-19.0-1.12,41552,List1A,white,man,,,,null,,,,,,,,,
null,is copying,,html-keyboard-response,414,1153769,0.0-19.0-2.12,41552,List1A,white,man,,,,null,,,,,,,,,
4695.3,,,survey-text,415,1158466,0.0-19.0-3.12,41552,List1A,white,man,,,,,"{""Q0"":""ruth is copying dave""}","<img src=""stim_listA/copy3.gif""style=""height:400px;""></stim_listA>",is copying,,,,,,
null,"<div style=""font-size:60px;"">+</div>",,html-keyboard-response,416,1158981,0.0-19.0-0.13,41552,List1A,white,man,,,,null,,,,,,,,,
null,"<img src=""stim_listA/seduce5.gif""style=""height:400px;""></stim_listA>",,html-keyboard-response,417,1160991,0.0-19.0-1.13,41552,List1A,white,man,,,,null,,,,,,,,,
null,is seducing,,html-keyboard-response,418,1163003,0.0-19.0-2.13,41552,List1A,white,man,,,,null,,,,,,,,,
4150.3,,,survey-text,419,1167155,0.0-19.0-3.13,41552,List1A,white,man,,,,,"{""Q0"":""dave is seducing fred""}","<img src=""stim_listA/seduce5.gif""style=""height:400px;""></stim_listA>",is seducing,,,,,,
null,"<div style=""font-size:60px;"">+</div>",,html-keyboard-response,420,1167660,0.0-19.0-0.14,41552,List1A,white,man,,,,null,,,,,,,,,
null,"<img src=""stim_listA/kiss6.gif""style=""height:400px;""></stim_listA>",,html-keyboard-response,421,1169662,0.0-19.0-1.14,41552,List1A,white,man,,,,null,,,,,,,,,
null,is being kissed by,,html-keyboard-response,422,1171678,0.0-19.0-2.14,41552,List1A,white,man,,,,null,,,,,,,,,
4584.3,,,survey-text,423,1176265,0.0-19.0-3.14,41552,List1A,white,man,,,,,"{""Q0"":""mike is being kissed by dave""}","<img src=""stim_listA/kiss6.gif""style=""height:400px;""></stim_listA>",is being kissed by,,,,,,
null,"<div style=""font-size:60px;"">+</div>",,html-keyboard-response,424,1176767,0.0-19.0-0.15,41552,List1A,white,man,,,,null,,,,,,,,,
null,"<img src=""stim_listA/look6.gif""style=""height:400px;""></stim_listA>",,html-keyboard-response,425,1178773,0.0-19.0-1.15,41552,List1A,white,man,,,,null,,,,,,,,,
null,is being looked at by,,html-keyboard-response,426,1180776,0.0-19.0-2.15,41552,List1A,white,man,,,,null,,,,,,,,,
4727,,,survey-text,427,1185506,0.0-19.0-3.15,41552,List1A,white,man,,,,,"{""Q0"":""dave is being looked at by mike""}","<img src=""stim_listA/look6.gif""style=""height:400px;""></stim_listA>",is being looked at by,,,,,,
null,"<div style=""font-size:60px;"">+</div>",,html-keyboard-response,428,1186022,0.0-19.0-0.16,41552,List1A,white,man,,,,null,,,,,,,,,
null,"<img src=""stim_listA/oppose5.gif""style=""height:400px;""></stim_listA>",,html-keyboard-response,429,1188031,0.0-19.0-1.16,41552,List1A,white,man,,,,null,,,,,,,,,
null,is opposing,,html-keyboard-response,430,1190039,0.0-19.0-2.16,41552,List1A,white,man,,,,null,,,,,,,,,
5453.9,,,survey-text,431,1195495,0.0-19.0-3.16,41552,List1A,white,man,,,,,"{""Q0"":""mike is opposing dave""}","<img src=""stim_listA/oppose5.gif""style=""height:400px;""></stim_listA>",is opposing,,,,,,
null,"<div style=""font-size:60px;"">+</div>",,html-keyboard-response,432,1196004,0.0-19.0-0.17,41552,List1A,white,man,,,,null,,,,,,,,,
null,"<img src=""stim_listA/hug5.gif""style=""height:400px;""></stim_listA>",,html-keyboard-response,433,1198007,0.0-19.0-1.17,41552,List1A,white,man,,,,null,,,,,,,,,
null,is hugging,,html-keyboard-response,434,1200022,0.0-19.0-2.17,41552,List1A,white,man,,,,null,,,,,,,,,
2889.6,,,survey-text,435,1202915,0.0-19.0-3.17,41552,List1A,white,man,,,,,"{""Q0"":""fred is hugging luke""}","<img src=""stim_listA/hug5.gif""style=""height:400px;""></stim_listA>",is hugging,,,,,,
null,"<div style=""font-size:60px;"">+</div>",,html-keyboard-response,436,1203429,0.0-19.0-0.18,41552,List1A,white,man,,,,null,,,,,,,,,
null,"<img src=""stim_listA/greet5.gif""style=""height:400px;""></stim_listA>",,html-keyboard-response,437,1205431,0.0-19.0-1.18,41552,List1A,white,man,,,,null,,,,,,,,,
null,is greeting,,html-keyboard-response,438,1207441,0.0-19.0-2.18,41552,List1A,white,man,,,,null,,,,,,,,,
2832.6,,,survey-text,439,1210275,0.0-19.0-3.18,41552,List1A,white,man,,,,,"{""Q0"":""luke is greeting mike""}","<img src=""stim_listA/greet5.gif""style=""height:400px;""></stim_listA>",is greeting,,,,,,
null,"<div style=""font-size:60px;"">+</div>",,html-keyboard-response,440,1210785,0.0-19.0-0.19,41552,List1A,white,man,,,,null,,,,,,,,,
null,"<img src=""stim_listA/greet1.gif""style=""height:400px;""></stim_listA>",,html-keyboard-response,441,1212793,0.0-19.0-1.19,41552,List1A,white,man,,,,null,,,,,,,,,
null,is greeting,,html-keyboard-response,442,1214801,0.0-19.0-2.19,41552,List1A,white,man,,,,null,,,,,,,,,
3521.5,,,survey-text,443,1218325,0.0-19.0-3.19,41552,List1A,white,man,,,,,"{""Q0"":""beth is greeting mike""}","<img src=""stim_listA/greet1.gif""style=""height:400px;""></stim_listA>",is greeting,,,,,,
14044.4,<p>Thank you for completing that task.</p><p>The final part of this session is a questionnaire that will take about 4 minutes.</p><p>Press Continue.</p>,0,html-button-response,444,1232371,0.0-20.0,41552,List1A,white,man,,,,,,,,,,,,,
109575.6,,,survey-text,445,1342951,0.0-21.0,41552,List1A,white,man,,,,,"{""Q0"":""33"",""Q1"":""English"",""Q2"":""English"",""Q3"":""united states"",""Q4"":""american"",""Q5"":""white"",""Q6"":""male""}",,,demographics,,,,,
2159.1,<p>Have you lived in the USA for the last 5 years or more?</p>,0,html-button-response,446,1345113,0.0-22.0,41552,List1A,white,man,,,,,,,,fiveyears,,,,,
2125.5,<p>Move the slider to show the extent to which you agree with the following statements.</p>,0,html-button-response,447,1348254,0.0-23.0,41552,List1A,white,man,,,,,,,,,,,,,
6346,,,html-slider-response,448,1355612,0.0-24.0-0.0-0.0,41552,List1A,white,man,,,,,,,,survey_gender,79,,,I am similar to the average person of my gender.,similar
3533.7,,,html-slider-response,449,1359149,0.0-24.0-0.0-0.1,41552,List1A,white,man,,,,,,,,survey_gender,100,,,I consider myself a highly empathetic person.,filler
4831.8,,,html-slider-response,450,1363984,0.0-24.0-0.0-0.2,41552,List1A,white,man,,,,,,,,survey_gender,52,,,I am glad to be my gender.,glad
4621.7,,,html-slider-response,451,1368608,0.0-24.0-0.0-0.3,41552,List1A,white,man,,,,,,,,survey_gender,51,,,I feel a bond with my gender.,bond
4081.2,,,html-slider-response,452,1372693,0.0-24.0-0.0-0.4,41552,List1A,white,man,,,,,,,,survey_gender,52,,,I feel solidarity with my gender.,solidarity
3231.3,,,html-slider-response,453,1375927,0.0-24.0-0.0-0.5,41552,List1A,white,man,,,,,,,,survey_gender,52,,,I think that my gender has a lot to be proud of.,proud
3999.9,,,html-slider-response,454,1379931,0.0-24.0-0.0-0.6,41552,List1A,white,man,,,,,,,,survey_gender,100,,,I would say I am an animal person.,filler
7910.5,,,html-slider-response,455,1387845,0.0-24.0-0.0-0.7,41552,List1A,white,man,,,,,,,,survey_gender,50,,,The fact that I am my gender is an important part of my identity.,identity
3302.5,,,html-slider-response,456,1391149,0.0-24.0-0.0-0.8,41552,List1A,white,man,,,,,,,,survey_gender,100,,,Being around my friends gives me a good feeling.,filler
5606.5,,,html-slider-response,457,1396757,0.0-24.0-0.0-0.9,41552,List1A,white,man,,,,,,,,survey_gender,83,,,Most of the friends in my life are very similar to me.,filler
4043.3,,,html-slider-response,458,1400803,0.0-24.0-0.0-0.10,41552,List1A,white,man,,,,,,,,survey_gender,50,,,I often think about the fact that I am my gender.,often
4264.9,,,html-slider-response,459,1405070,0.0-24.0-0.0-0.11,41552,List1A,white,man,,,,,,,,survey_gender,74,,,People of my gender are very similar to each other.,verysimilar
5070.4,,,html-slider-response,460,1410143,0.0-24.0-0.0-0.12,41552,List1A,white,man,,,,,,,,survey_gender,77,,,I have a lot in common with the average person of my gender.,average
3575.2,,,html-slider-response,461,1413721,0.0-24.0-0.0-0.13,41552,List1A,white,man,,,,,,,,survey_gender,98,,,I often think about my actions.,filler
4097.8,,,html-slider-response,462,1417821,0.0-24.0-0.0-0.14,41552,List1A,white,man,,,,,,,,survey_gender,50,,,Being my gender is an important part of how I see myself.,important
4181,,,html-slider-response,463,1422004,0.0-24.0-0.0-0.15,41552,List1A,white,man,,,,,,,,survey_gender,92,,,My friends have a lot in common with each other.,filler
3435.4,,,html-slider-response,464,1425442,0.0-24.0-0.0-0.16,41552,List1A,white,man,,,,,,,,survey_gender,100,,,I feel a bond with my friends.,filler
3436.8,,,html-slider-response,465,1428881,0.0-24.0-0.0-0.17,41552,List1A,white,man,,,,,,,,survey_gender,100,,,My friends understand me.,filler
6447.7,,,html-slider-response,466,1435331,0.0-24.0-0.0-0.18,41552,List1A,white,man,,,,,,,,survey_gender,64,,,People of my gender have a lot in common with each other.,common
7318.3,,,html-slider-response,467,1442652,0.0-24.0-0.0-0.19,41552,List1A,white,man,,,,,,,,survey_gender,33,,,Routine is not important to me.,filler
4620.1,,,html-slider-response,468,1447276,0.0-24.0-0.0-0.20,41552,List1A,white,man,,,,,,,,survey_gender,50,,,It is pleasant to be my gender.,pleasant
7341,,,html-slider-response,469,1454619,0.0-24.0-0.0-0.21,41552,List1A,white,man,,,,,,,,survey_gender,14,,,Family is not more important to me than friendship.,filler
3364.1,,,html-slider-response,470,1457985,0.0-24.0-0.0-0.22,41552,List1A,white,man,,,,,,,,survey_gender,100,,,I feel solidarity with my friends.,filler
5116.9,,,html-slider-response,471,1463104,0.0-24.0-0.0-0.23,41552,List1A,white,man,,,,,,,,survey_gender,84,,,I have a lot in common with my friends.,filler
2996.4,,,html-slider-response,472,1466102,0.0-24.0-0.0-0.24,41552,List1A,white,man,,,,,,,,survey_gender,51,,,Being my gender gives me a good feeling.,feeling
3418.8,,,html-slider-response,473,1469522,0.0-24.0-0.0-0.25,41552,List1A,white,man,,,,,,,,survey_gender,100,,,I am glad to have the friends that I have.,filler
3373.1,,,html-slider-response,474,1472898,0.0-24.0-0.0-0.26,41552,List1A,white,man,,,,,,,,survey_gender,50,,,I feel committed to my gender.,committed
3801.9,,,html-slider-response,475,1476702,0.0-24.0-0.0-0.27,41552,List1A,white,man,,,,,,,,survey_gender,88,,,It is not always easy for people to know what I am thinking.,filler
5083.6,,,html-slider-response,476,1481787,0.0-24.0-1.0-0.0,41552,List1A,white,man,,,,,,,,survey_race,51,,,I often think about the fact that I am my race.,often
3607,,,html-slider-response,477,1485398,0.0-24.0-1.0-0.1,41552,List1A,white,man,,,,,,,,survey_race,51,,,Being my race gives me a good feeling.,feeling
4039.5,,,html-slider-response,478,1489440,0.0-24.0-1.0-0.2,41552,List1A,white,man,,,,,,,,survey_race,84,,,People my age have a lot in common with each other.,filler
5408,,,html-slider-response,479,1494850,0.0-24.0-1.0-0.3,41552,List1A,white,man,,,,,,,,survey_race,70,,,I often think about the fact that I am my age.,filler
4641,,,html-slider-response,480,1499493,0.0-24.0-1.0-0.4,41552,List1A,white,man,,,,,,,,survey_race,32,,,"The older I get, the wiser I feel.",filler
3964.3,,,html-slider-response,481,1503459,0.0-24.0-1.0-0.5,41552,List1A,white,man,,,,,,,,survey_race,75,,,Getting older does not worry me.,filler
3661.3,,,html-slider-response,482,1507124,0.0-24.0-1.0-0.6,41552,List1A,white,man,,,,,,,,survey_race,67,,,I feel solidarity with people the same age as me.,filler
3664.2,,,html-slider-response,483,1510791,0.0-24.0-1.0-0.7,41552,List1A,white,man,,,,,,,,survey_race,51,,,Being my race is an important part of how I see myself.,important
4317.6,,,html-slider-response,484,1515112,0.0-24.0-1.0-0.8,41552,List1A,white,man,,,,,,,,survey_race,68,,,I think that my race has a lot to be proud of.,proud
4231.3,,,html-slider-response,485,1519345,0.0-24.0-1.0-0.9,41552,List1A,white,man,,,,,,,,survey_race,66,,,Being my age gives me a good feeling.,filler
3165.1,,,html-slider-response,486,1522512,0.0-24.0-1.0-0.10,41552,List1A,white,man,,,,,,,,survey_race,62,,,I enjoy being in large groups.,filler
3373.9,,,html-slider-response,487,1525888,0.0-24.0-1.0-0.11,41552,List1A,white,man,,,,,,,,survey_race,50,,,I feel committed to my race.,committed
5926,,,html-slider-response,488,1531816,0.0-24.0-1.0-0.12,41552,List1A,white,man,,,,,,,,survey_race,38,,,People of my race have a lot in common with each other.,common
4223.6,,,html-slider-response,489,1536041,0.0-24.0-1.0-0.13,41552,List1A,white,man,,,,,,,,survey_race,13,,,I consider myself an introvert.,filler
7949.9,,,html-slider-response,490,1543994,0.0-24.0-1.0-0.14,41552,List1A,white,man,,,,,,,,survey_race,49,,,I have a lot in common with the average person of my race.,average
4730,,,html-slider-response,491,1548726,0.0-24.0-1.0-0.15,41552,List1A,white,man,,,,,,,,survey_race,53,,,I am glad to be the age I am.,filler
4554.9,,,html-slider-response,492,1553284,0.0-24.0-1.0-0.16,41552,List1A,white,man,,,,,,,,survey_race,51,,,I feel solidarity with my race.,solidarity
5108.3,,,html-slider-response,493,1558394,0.0-24.0-1.0-0.17,41552,List1A,white,man,,,,,,,,survey_race,71,,,I have a lot in common with people of a similar age to me.,filler
3563.5,,,html-slider-response,494,1561960,0.0-24.0-1.0-0.18,41552,List1A,white,man,,,,,,,,survey_race,78,,,My age is not an important part of who I am.,filler
3200,,,html-slider-response,495,1565162,0.0-24.0-1.0-0.19,41552,List1A,white,man,,,,,,,,survey_race,88,,,I consider myself an extrovert.,filler
3048.8,,,html-slider-response,496,1568213,0.0-24.0-1.0-0.20,41552,List1A,white,man,,,,,,,,survey_race,51,,,I feel a bond with my race.,bond
4912.1,,,html-slider-response,497,1573128,0.0-24.0-1.0-0.21,41552,List1A,white,man,,,,,,,,survey_race,59,,,People of my race are very similar to each other.,verysimilar
5758.9,,,html-slider-response,498,1578891,0.0-24.0-1.0-0.22,41552,List1A,white,man,,,,,,,,survey_race,69,,,I am similar to the average person of my race.,similar
2975.3,,,html-slider-response,499,1581870,0.0-24.0-1.0-0.23,41552,List1A,white,man,,,,,,,,survey_race,71,,,I feel a bond with people the same age as me.,filler
4048.1,,,html-slider-response,500,1585921,0.0-24.0-1.0-0.24,41552,List1A,white,man,,,,,,,,survey_race,49,,,The fact that I am my race is an important part of my identity.,identity
3737.6,,,html-slider-response,501,1589663,0.0-24.0-1.0-0.25,41552,List1A,white,man,,,,,,,,survey_race,51,,,It is pleasant to be my race.,pleasant
3218.9,,,html-slider-response,502,1592885,0.0-24.0-1.0-0.26,41552,List1A,white,man,,,,,,,,survey_race,66,,,I am glad to be my age.,filler
4097.2,,,html-slider-response,503,1596984,0.0-24.0-1.0-0.27,41552,List1A,white,man,,,,,,,,survey_race,53,,,I am glad to be my race.,glad
11575,,,survey-text,504,1608563,0.0-25.0,41552,List1A,white,man,,,,,"{""Q0"":""ccc""}",,,worker_id,,,,,
15187.3,,,external-html,505,1624542,0.0-26.0,41552,List1A,white,man,debrief.html,,,,,,,,,,,,
