rt,stimulus,button_pressed,trial_type,trial_index,time_elapsed,internal_node_id,subject,list,ppt_race,ppt_gender,url,first_guess,correct,key_press,responses,image_type,phrase_type,test_part,response,stimulus1,stimulus2,question_type,survey_item
4417.9,Welcome to the experiment. Press Continue to begin.,0,html-button-response,0,4437,0.0-0.0,42806,List1B,black,man,,,,,,,,,,,,,
44167,,,external-html,1,51372,0.0-1.0,42806,List1B,black,man,consent.html,,,,,,,,,,,,
9191.7,"<p>On the next page, you will see portraits of 8 people and their names.</p><p>Your first task is to take a few minutes to memorise the names of these people.</p><p>You will have to recall their names during the rest of the experiment, so it is</p><p>essential that you try to memorise these people and their names as best as you can.</p><br><p><strong>You will then be tested on your memory of these names and portraits.</strong></p><br><p>The experiment will start after you have completed this memory test.</p><br><p>Ready?</p>",0,html-button-response,2,60581,0.0-2.0,42806,List1B,black,man,,,,,,,,,,,,,
65467,"<img src='img/portrait_matrix_list1.jpg' style='width:900px;height:500px;''></img><p>If you have memorised all the portraits and names and are ready to start, press Continue.</p><p><strong>Please note: Your memory of these faces will be tested 4 times during this experiment.</strong></p>",0,html-button-response,3,127059,0.0-3.0-0.0,42806,List1B,black,man,,,,,,,,,,,,,
7508,"<img src=""portrait/BM2.jpg""style=""height:400px;""></img>",5,html-button-response,4,135585,0.0-3.0-1.0,42806,List1B,black,man,,TRUE,5,,,,,,,,,,
null,CORRECT,,html-keyboard-response,5,137097,0.0-3.0-2.0-0.0,42806,List1B,black,man,,,,null,,,,,,,,,
6715.1,"<img src=""portrait/BW1.jpg""style=""height:400px;""></img>",0,html-button-response,6,143829,0.0-3.0-4.0,42806,List1B,black,man,,TRUE,0,,,,,,,,,,
null,CORRECT,,html-keyboard-response,7,145339,0.0-3.0-5.0-0.0,42806,List1B,black,man,,,,null,,,,,,,,,
17943.2,"<img src=""portrait/WM1.jpg""style=""height:400px;""></img>",6,html-button-response,8,163293,0.0-3.0-7.0,42806,List1B,black,man,,TRUE,6,,,,,,,,,,
null,CORRECT,,html-keyboard-response,9,164799,0.0-3.0-8.0-0.0,42806,List1B,black,man,,,,null,,,,,,,,,
13208.9,"<img src=""portrait/WM2.jpg""style=""height:400px;""></img>",7,html-button-response,10,178022,0.0-3.0-10.0,42806,List1B,black,man,,TRUE,7,,,,,,,,,,
null,CORRECT,,html-keyboard-response,11,179528,0.0-3.0-11.0-0.0,42806,List1B,black,man,,,,null,,,,,,,,,
6597.8,"<img src=""portrait/BM1.jpg""style=""height:400px;""></img>",4,html-button-response,12,186135,0.0-3.0-13.0,42806,List1B,black,man,,TRUE,4,,,,,,,,,,
null,CORRECT,,html-keyboard-response,13,187644,0.0-3.0-14.0-0.0,42806,List1B,black,man,,,,null,,,,,,,,,
9493.9,"<img src=""portrait/WW2.jpg""style=""height:400px;""></img>",3,html-button-response,14,197147,0.0-3.0-16.0,42806,List1B,black,man,,TRUE,3,,,,,,,,,,
null,CORRECT,,html-keyboard-response,15,198651,0.0-3.0-17.0-0.0,42806,List1B,black,man,,,,null,,,,,,,,,
12690.4,"<img src=""portrait/WW1.jpg""style=""height:400px;""></img>",1,html-button-response,16,211350,0.0-3.0-19.0,42806,List1B,black,man,,TRUE,1,,,,,,,,,,
null,CORRECT,,html-keyboard-response,17,212856,0.0-3.0-20.0-0.0,42806,List1B,black,man,,,,null,,,,,,,,,
5415.8,"<img src=""portrait/BW2.jpg""style=""height:400px;""></img>",2,html-button-response,18,218285,0.0-3.0-22.0,42806,List1B,black,man,,TRUE,2,,,,,,,,,,
null,CORRECT,,html-keyboard-response,19,219794,0.0-3.0-23.0-0.0,42806,List1B,black,man,,,,null,,,,,,,,,
3353.7,<p>You got 8 out of 8 right first time. Press Continue.</p>,0,html-button-response,20,223156,0.0-3.0-25.0,42806,List1B,black,man,,,,,,,,,,,,,
27223,"<p>In this experiment, you will view photographs of the people from the memory game interacting.</p><p>By using the <strong>exact</strong> phrase given <i>after</i> the photograph appears and recalling the correct names of the people in the photographs, form a sentence describing the interaction. You do not need to capitalise names.</p><p>Type your answer in the space provided. Please complete every sentence before moving onto the next trial.</p><p>You will only have a few seconds to memorise each given photograph and phrase before you can respond, so try your best to focus.</p><p>An example is given below. Press 'Continue' when you are ready.</p><img src='img/speaking_example.jpg' style='width:800px;height:460px;''></img>",0,html-button-response,21,251396,0.0-4.0,42806,List1B,black,man,,,,,,,,,,,,,
8202.1,"<p>Before the experiment starts, you will watch two example trials. Press 'Continue'.</p>",0,html-button-response,22,260608,0.0-5.0,42806,List1B,black,man,,,,,,,,,,,,,
null,<img src='img/play_eg.gif' style='height:400px;''></img>,,html-keyboard-response,23,263614,0.0-6.0,42806,List1B,black,man,,,,null,,,,,,,,,
null,<p>is playing with</p>,,html-keyboard-response,24,265619,0.0-7.0,42806,List1B,black,man,,,,null,,,,,,,,,
4241.6,<p><b>Answer:</b> kate is playing with beth</p>,0,html-button-response,25,269866,0.0-8.0,42806,List1B,black,man,,,,,,,,,,,,,
null,<img src='img/dance_eg.gif' style='height:400px;''></img>,,html-keyboard-response,26,272874,0.0-9.0,42806,List1B,black,man,,,,null,,,,,,,,,
null,<p>is being entertained by</p>,,html-keyboard-response,27,274878,0.0-10.0,42806,List1B,black,man,,,,null,,,,,,,,,
4178.4,<p><b>Answer:</b> luke is being entertained by dave</p>,0,html-button-response,28,279062,0.0-11.0,42806,List1B,black,man,,,,,,,,,,,,,
17778.7,"<p>Ready to start the experiment?</p><br><p><strong>Remember to describe the picture using a full sentence,</strong></p><p><strong>that combines the names of the people with the <i>exact</i> phrase given.</strong></p><p><strong>To receive full payment you must do this correctly.</strong></p><p><strong> You do not need to capitalise names or use punctuation.</strong></p><br><p>Press 'Continue' to begin.</p>",0,html-button-response,29,297849,0.0-12.0,42806,List1B,black,man,,,,,,,,,,,,,
null,"<div style=""font-size:60px;"">+</div>",,html-keyboard-response,30,299358,0.0-13.0-0.0,42806,List1B,black,man,,,,null,,,,,,,,,
null,"<img src=""stim_listB/greet2.gif""style=""height:400px;""></stim_listB>",,html-keyboard-response,31,301371,0.0-13.0-1.0,42806,List1B,black,man,,,,null,,,,,,,,,
null,is being greeted by,,html-keyboard-response,32,303376,0.0-13.0-2.0,42806,List1B,black,man,,,,null,,,,,,,,,
36655,,,survey-text,33,340057,0.0-13.0-3.0,42806,List1B,black,man,,,,,"{""Q0"":""Fred is engaging with kate""}","<img src=""stim_listB/greet2.gif""style=""height:400px;""></stim_listB>",is being greeted by,,,,,,
null,"<div style=""font-size:60px;"">+</div>",,html-keyboard-response,34,340565,0.0-13.0-0.1,42806,List1B,black,man,,,,null,,,,,,,,,
null,"<img src=""stim_listB/touch4.gif""style=""height:400px;""></stim_listB>",,html-keyboard-response,35,342570,0.0-13.0-1.1,42806,List1B,black,man,,,,null,,,,,,,,,
null,is being touched by,,html-keyboard-response,36,344575,0.0-13.0-2.1,42806,List1B,black,man,,,,null,,,,,,,,,
30161.8,,,survey-text,37,374755,0.0-13.0-3.1,42806,List1B,black,man,,,,,"{""Q0"":""Ruth is touch hands with luke""}","<img src=""stim_listB/touch4.gif""style=""height:400px;""></stim_listB>",is being touched by,,,,,,
null,"<div style=""font-size:60px;"">+</div>",,html-keyboard-response,38,375260,0.0-13.0-0.2,42806,List1B,black,man,,,,null,,,,,,,,,
null,"<img src=""stim_listB/seduce8.gif""style=""height:400px;""></stim_listB>",,html-keyboard-response,39,377267,0.0-13.0-1.2,42806,List1B,black,man,,,,null,,,,,,,,,
null,is being seduced by,,html-keyboard-response,40,379271,0.0-13.0-2.2,42806,List1B,black,man,,,,null,,,,,,,,,
42319.6,,,survey-text,41,421612,0.0-13.0-3.2,42806,List1B,black,man,,,,,"{""Q0"":""Ruth is entertaining kate""}","<img src=""stim_listB/seduce8.gif""style=""height:400px;""></stim_listB>",is being seduced by,,,,,,
null,"<div style=""font-size:60px;"">+</div>",,html-keyboard-response,42,422117,0.0-13.0-0.3,42806,List1B,black,man,,,,null,,,,,,,,,
null,"<img src=""stim_listB/oppose2.gif""style=""height:400px;""></stim_listB>",,html-keyboard-response,43,424125,0.0-13.0-1.3,42806,List1B,black,man,,,,null,,,,,,,,,
null,is being opposed by,,html-keyboard-response,44,426129,0.0-13.0-2.3,42806,List1B,black,man,,,,null,,,,,,,,,
29466.3,,,survey-text,45,455615,0.0-13.0-3.3,42806,List1B,black,man,,,,,"{""Q0"":""Fred is interacting with beth""}","<img src=""stim_listB/oppose2.gif""style=""height:400px;""></stim_listB>",is being opposed by,,,,,,
null,"<div style=""font-size:60px;"">+</div>",,html-keyboard-response,46,456121,0.0-13.0-0.4,42806,List1B,black,man,,,,null,,,,,,,,,
null,"<img src=""stim_listB/copy2.gif""style=""height:400px;""></stim_listB>",,html-keyboard-response,47,458128,0.0-13.0-1.4,42806,List1B,black,man,,,,null,,,,,,,,,
null,is being copied by,,html-keyboard-response,48,460133,0.0-13.0-2.4,42806,List1B,black,man,,,,null,,,,,,,,,
18618.1,,,survey-text,49,478770,0.0-13.0-3.4,42806,List1B,black,man,,,,,"{""Q0"":""Kate is pleased with fred""}","<img src=""stim_listB/copy2.gif""style=""height:400px;""></stim_listB>",is being copied by,,,,,,
null,"<div style=""font-size:60px;"">+</div>",,html-keyboard-response,50,479276,0.0-13.0-0.5,42806,List1B,black,man,,,,null,,,,,,,,,
null,"<img src=""stim_listB/seduce1.gif""style=""height:400px;""></stim_listB>",,html-keyboard-response,51,481283,0.0-13.0-1.5,42806,List1B,black,man,,,,null,,,,,,,,,
null,is seducing,,html-keyboard-response,52,483288,0.0-13.0-2.5,42806,List1B,black,man,,,,null,,,,,,,,,
43984,,,survey-text,53,527298,0.0-13.0-3.5,42806,List1B,black,man,,,,,"{""Q0"":""Kate is showing emotions to fred""}","<img src=""stim_listB/seduce1.gif""style=""height:400px;""></stim_listB>",is seducing,,,,,,
null,"<div style=""font-size:60px;"">+</div>",,html-keyboard-response,54,527805,0.0-13.0-0.6,42806,List1B,black,man,,,,null,,,,,,,,,
null,"<img src=""stim_listB/seduce3.gif""style=""height:400px;""></stim_listB>",,html-keyboard-response,55,529811,0.0-13.0-1.6,42806,List1B,black,man,,,,null,,,,,,,,,
null,is seducing,,html-keyboard-response,56,531817,0.0-13.0-2.6,42806,List1B,black,man,,,,null,,,,,,,,,
34996,,,survey-text,57,566831,0.0-13.0-3.6,42806,List1B,black,man,,,,,"{""Q0"":""Jane is entertaning luke""}","<img src=""stim_listB/seduce3.gif""style=""height:400px;""></stim_listB>",is seducing,,,,,,
null,"<div style=""font-size:60px;"">+</div>",,html-keyboard-response,58,567337,0.0-13.0-0.7,42806,List1B,black,man,,,,null,,,,,,,,,
null,"<img src=""stim_listB/shout3.gif""style=""height:400px;""></stim_listB>",,html-keyboard-response,59,569346,0.0-13.0-1.7,42806,List1B,black,man,,,,null,,,,,,,,,
null,is shouting at,,html-keyboard-response,60,571351,0.0-13.0-2.7,42806,List1B,black,man,,,,null,,,,,,,,,
19733.4,,,survey-text,61,591103,0.0-13.0-3.7,42806,List1B,black,man,,,,,"{""Q0"":""Ruth is arguing with luke""}","<img src=""stim_listB/shout3.gif""style=""height:400px;""></stim_listB>",is shouting at,,,,,,
null,"<div style=""font-size:60px;"">+</div>",,html-keyboard-response,62,591608,0.0-13.0-0.8,42806,List1B,black,man,,,,null,,,,,,,,,
null,"<img src=""stim_listB/copy8.gif""style=""height:400px;""></stim_listB>",,html-keyboard-response,63,593616,0.0-13.0-1.8,42806,List1B,black,man,,,,null,,,,,,,,,
null,is being copied by,,html-keyboard-response,64,595620,0.0-13.0-2.8,42806,List1B,black,man,,,,null,,,,,,,,,
14861,,,survey-text,65,610504,0.0-13.0-3.8,42806,List1B,black,man,,,,,"{""Q0"":""Beth is pleased with jane""}","<img src=""stim_listB/copy8.gif""style=""height:400px;""></stim_listB>",is being copied by,,,,,,
null,"<div style=""font-size:60px;"">+</div>",,html-keyboard-response,66,611010,0.0-13.0-0.9,42806,List1B,black,man,,,,null,,,,,,,,,
null,"<img src=""stim_listB/shout2.gif""style=""height:400px;""></stim_listB>",,html-keyboard-response,67,613017,0.0-13.0-1.9,42806,List1B,black,man,,,,null,,,,,,,,,
null,is being shouted at by,,html-keyboard-response,68,615036,0.0-13.0-2.9,42806,List1B,black,man,,,,null,,,,,,,,,
18911.2,,,survey-text,69,633969,0.0-13.0-3.9,42806,List1B,black,man,,,,,"{""Q0"":""Kate is arguing with mike""}","<img src=""stim_listB/shout2.gif""style=""height:400px;""></stim_listB>",is being shouted at by,,,,,,
null,"<div style=""font-size:60px;"">+</div>",,html-keyboard-response,70,634475,0.0-13.0-0.10,42806,List1B,black,man,,,,null,,,,,,,,,
null,"<img src=""stim_listB/kiss6.gif""style=""height:400px;""></stim_listB>",,html-keyboard-response,71,636482,0.0-13.0-1.10,42806,List1B,black,man,,,,null,,,,,,,,,
null,is being kissed by,,html-keyboard-response,72,638486,0.0-13.0-2.10,42806,List1B,black,man,,,,null,,,,,,,,,
40930.6,,,survey-text,73,679438,0.0-13.0-3.10,42806,List1B,black,man,,,,,"{""Q0"":""Mike is being kissed by dave""}","<img src=""stim_listB/kiss6.gif""style=""height:400px;""></stim_listB>",is being kissed by,,,,,,
null,"<div style=""font-size:60px;"">+</div>",,html-keyboard-response,74,679943,0.0-13.0-0.11,42806,List1B,black,man,,,,null,,,,,,,,,
null,"<img src=""stim_listB/challenge1.gif""style=""height:400px;""></stim_listB>",,html-keyboard-response,75,681952,0.0-13.0-1.11,42806,List1B,black,man,,,,null,,,,,,,,,
null,is challenging,,html-keyboard-response,76,683956,0.0-13.0-2.11,42806,List1B,black,man,,,,null,,,,,,,,,
19060.5,,,survey-text,77,703036,0.0-13.0-3.11,42806,List1B,black,man,,,,,"{""Q0"":""Mike is challenging beth""}","<img src=""stim_listB/challenge1.gif""style=""height:400px;""></stim_listB>",is challenging,,,,,,
null,"<div style=""font-size:60px;"">+</div>",,html-keyboard-response,78,703544,0.0-13.0-0.12,42806,List1B,black,man,,,,null,,,,,,,,,
null,"<img src=""stim_listB/seduce2.gif""style=""height:400px;""></stim_listB>",,html-keyboard-response,79,705551,0.0-13.0-1.12,42806,List1B,black,man,,,,null,,,,,,,,,
null,is being seduced by,,html-keyboard-response,80,707556,0.0-13.0-2.12,42806,List1B,black,man,,,,null,,,,,,,,,
14469,,,survey-text,81,722044,0.0-13.0-3.12,42806,List1B,black,man,,,,,"{""Q0"":""Mike is being seduced by beth""}","<img src=""stim_listB/seduce2.gif""style=""height:400px;""></stim_listB>",is being seduced by,,,,,,
null,"<div style=""font-size:60px;"">+</div>",,html-keyboard-response,82,722550,0.0-13.0-0.13,42806,List1B,black,man,,,,null,,,,,,,,,
null,"<img src=""stim_listB/kiss2.gif""style=""height:400px;""></stim_listB>",,html-keyboard-response,83,724557,0.0-13.0-1.13,42806,List1B,black,man,,,,null,,,,,,,,,
null,is being kissed by,,html-keyboard-response,84,726562,0.0-13.0-2.13,42806,List1B,black,man,,,,null,,,,,,,,,
17499.2,,,survey-text,85,744079,0.0-13.0-3.13,42806,List1B,black,man,,,,,"{""Q0"":""Mike is kissing kate""}","<img src=""stim_listB/kiss2.gif""style=""height:400px;""></stim_listB>",is being kissed by,,,,,,
null,"<div style=""font-size:60px;"">+</div>",,html-keyboard-response,86,744585,0.0-13.0-0.14,42806,List1B,black,man,,,,null,,,,,,,,,
null,"<img src=""stim_listB/oppose5.gif""style=""height:400px;""></stim_listB>",,html-keyboard-response,87,746592,0.0-13.0-1.14,42806,List1B,black,man,,,,null,,,,,,,,,
null,is opposing,,html-keyboard-response,88,748596,0.0-13.0-2.14,42806,List1B,black,man,,,,null,,,,,,,,,
17384.2,,,survey-text,89,766000,0.0-13.0-3.14,42806,List1B,black,man,,,,,"{""Q0"":""Mike is opposing dave""}","<img src=""stim_listB/oppose5.gif""style=""height:400px;""></stim_listB>",is opposing,,,,,,
null,"<div style=""font-size:60px;"">+</div>",,html-keyboard-response,90,766506,0.0-13.0-0.15,42806,List1B,black,man,,,,null,,,,,,,,,
null,"<img src=""stim_listB/touch7.gif""style=""height:400px;""></stim_listB>",,html-keyboard-response,91,768513,0.0-13.0-1.15,42806,List1B,black,man,,,,null,,,,,,,,,
null,is touching,,html-keyboard-response,92,770517,0.0-13.0-2.15,42806,List1B,black,man,,,,null,,,,,,,,,
18571,,,survey-text,93,789109,0.0-13.0-3.15,42806,List1B,black,man,,,,,"{""Q0"":""Jane is touching kate""}","<img src=""stim_listB/touch7.gif""style=""height:400px;""></stim_listB>",is touching,,,,,,
null,"<div style=""font-size:60px;"">+</div>",,html-keyboard-response,94,789615,0.0-13.0-0.16,42806,List1B,black,man,,,,null,,,,,,,,,
null,"<img src=""stim_listB/hug7.gif""style=""height:400px;""></stim_listB>",,html-keyboard-response,95,791623,0.0-13.0-1.16,42806,List1B,black,man,,,,null,,,,,,,,,
null,is hugging,,html-keyboard-response,96,793627,0.0-13.0-2.16,42806,List1B,black,man,,,,null,,,,,,,,,
24164.4,,,survey-text,97,817810,0.0-13.0-3.16,42806,List1B,black,man,,,,,"{""Q0"":""Beth is hugging ruth""}","<img src=""stim_listB/hug7.gif""style=""height:400px;""></stim_listB>",is hugging,,,,,,
null,"<div style=""font-size:60px;"">+</div>",,html-keyboard-response,98,818316,0.0-13.0-0.17,42806,List1B,black,man,,,,null,,,,,,,,,
null,"<img src=""stim_listB/kiss8.gif""style=""height:400px;""></stim_listB>",,html-keyboard-response,99,820324,0.0-13.0-1.17,42806,List1B,black,man,,,,null,,,,,,,,,
null,is being kissed by,,html-keyboard-response,100,822328,0.0-13.0-2.17,42806,List1B,black,man,,,,null,,,,,,,,,
19273.6,,,survey-text,101,841622,0.0-13.0-3.17,42806,List1B,black,man,,,,,"{""Q0"":""Jane is being kissed by kate""}","<img src=""stim_listB/kiss8.gif""style=""height:400px;""></stim_listB>",is being kissed by,,,,,,
null,"<div style=""font-size:60px;"">+</div>",,html-keyboard-response,102,842128,0.0-13.0-0.18,42806,List1B,black,man,,,,null,,,,,,,,,
null,"<img src=""stim_listB/greet1.gif""style=""height:400px;""></stim_listB>",,html-keyboard-response,103,844136,0.0-13.0-1.18,42806,List1B,black,man,,,,null,,,,,,,,,
null,is greeting,,html-keyboard-response,104,846141,0.0-13.0-2.18,42806,List1B,black,man,,,,null,,,,,,,,,
15891.9,,,survey-text,105,862049,0.0-13.0-3.18,42806,List1B,black,man,,,,,"{""Q0"":""Mike is greeting beth""}","<img src=""stim_listB/greet1.gif""style=""height:400px;""></stim_listB>",is greeting,,,,,,
null,"<div style=""font-size:60px;"">+</div>",,html-keyboard-response,106,862556,0.0-13.0-0.19,42806,List1B,black,man,,,,null,,,,,,,,,
null,"<img src=""stim_listB/shout5.gif""style=""height:400px;""></stim_listB>",,html-keyboard-response,107,864567,0.0-13.0-1.19,42806,List1B,black,man,,,,null,,,,,,,,,
null,is shouting at,,html-keyboard-response,108,866572,0.0-13.0-2.19,42806,List1B,black,man,,,,null,,,,,,,,,
15616.8,,,survey-text,109,882210,0.0-13.0-3.19,42806,List1B,black,man,,,,,"{""Q0"":""Fred is shouting at luke""}","<img src=""stim_listB/shout5.gif""style=""height:400px;""></stim_listB>",is shouting at,,,,,,
9585.1,"<img src='img/portrait_matrix_list1.jpg' style='width:900px;height:500px;''></img><p>If you have memorised all the portraits and names and are ready to start, press Continue.</p><p><strong>Please note: Your memory of these faces will be tested 4 times during this experiment.</strong></p>",0,html-button-response,110,891809,0.0-14.0-0.0,42806,List1B,black,man,,,,,,,,,,,,,
10768.7,"<img src=""portrait/WW1.jpg""style=""height:400px;""></img>",1,html-button-response,111,903591,0.0-14.0-1.0,42806,List1B,black,man,,TRUE,1,,,,,,,,,,
null,CORRECT,,html-keyboard-response,112,905101,0.0-14.0-2.0-0.0,42806,List1B,black,man,,,,null,,,,,,,,,
6819.3,"<img src=""portrait/BW2.jpg""style=""height:400px;""></img>",2,html-button-response,113,911932,0.0-14.0-4.0,42806,List1B,black,man,,TRUE,2,,,,,,,,,,
null,CORRECT,,html-keyboard-response,114,913442,0.0-14.0-5.0-0.0,42806,List1B,black,man,,,,null,,,,,,,,,
9067.7,"<img src=""portrait/BW1.jpg""style=""height:400px;""></img>",0,html-button-response,115,922521,0.0-14.0-7.0,42806,List1B,black,man,,TRUE,0,,,,,,,,,,
null,CORRECT,,html-keyboard-response,116,924028,0.0-14.0-8.0-0.0,42806,List1B,black,man,,,,null,,,,,,,,,
5502.5,"<img src=""portrait/WW2.jpg""style=""height:400px;""></img>",3,html-button-response,117,929542,0.0-14.0-10.0,42806,List1B,black,man,,TRUE,3,,,,,,,,,,
null,CORRECT,,html-keyboard-response,118,931049,0.0-14.0-11.0-0.0,42806,List1B,black,man,,,,null,,,,,,,,,
9020,"<img src=""portrait/BM2.jpg""style=""height:400px;""></img>",5,html-button-response,119,940079,0.0-14.0-13.0,42806,List1B,black,man,,TRUE,5,,,,,,,,,,
null,CORRECT,,html-keyboard-response,120,941585,0.0-14.0-14.0-0.0,42806,List1B,black,man,,,,null,,,,,,,,,
3909.8,"<img src=""portrait/WM1.jpg""style=""height:400px;""></img>",6,html-button-response,121,945506,0.0-14.0-16.0,42806,List1B,black,man,,TRUE,6,,,,,,,,,,
null,CORRECT,,html-keyboard-response,122,947013,0.0-14.0-17.0-0.0,42806,List1B,black,man,,,,null,,,,,,,,,
2349.9,"<img src=""portrait/WM2.jpg""style=""height:400px;""></img>",7,html-button-response,123,949373,0.0-14.0-19.0,42806,List1B,black,man,,TRUE,7,,,,,,,,,,
null,CORRECT,,html-keyboard-response,124,950879,0.0-14.0-20.0-0.0,42806,List1B,black,man,,,,null,,,,,,,,,
10560.7,"<img src=""portrait/BM1.jpg""style=""height:400px;""></img>",4,html-button-response,125,961451,0.0-14.0-22.0,42806,List1B,black,man,,TRUE,4,,,,,,,,,,
null,CORRECT,,html-keyboard-response,126,962957,0.0-14.0-23.0-0.0,42806,List1B,black,man,,,,null,,,,,,,,,
1945.4,<p>You got 8 out of 8 right first time. Press Continue.</p>,0,html-button-response,127,964912,0.0-14.0-25.0,42806,List1B,black,man,,,,,,,,,,,,,
null,"<div style=""font-size:60px;"">+</div>",,html-keyboard-response,128,966421,0.0-15.0-0.0,42806,List1B,black,man,,,,null,,,,,,,,,
null,"<img src=""stim_listB/challenge8.gif""style=""height:400px;""></stim_listB>",,html-keyboard-response,129,968430,0.0-15.0-1.0,42806,List1B,black,man,,,,null,,,,,,,,,
null,is being challenged by,,html-keyboard-response,130,970435,0.0-15.0-2.0,42806,List1B,black,man,,,,null,,,,,,,,,
60314.4,,,survey-text,131,1030768,0.0-15.0-3.0,42806,List1B,black,man,,,,,"{""Q0"":""Beth is challenging jane""}","<img src=""stim_listB/challenge8.gif""style=""height:400px;""></stim_listB>",is being challenged by,,,,,,
null,"<div style=""font-size:60px;"">+</div>",,html-keyboard-response,132,1031274,0.0-15.0-0.1,42806,List1B,black,man,,,,null,,,,,,,,,
null,"<img src=""stim_listB/copy4.gif""style=""height:400px;""></stim_listB>",,html-keyboard-response,133,1033283,0.0-15.0-1.1,42806,List1B,black,man,,,,null,,,,,,,,,
null,is being copied by,,html-keyboard-response,134,1035287,0.0-15.0-2.1,42806,List1B,black,man,,,,null,,,,,,,,,
18630.2,,,survey-text,135,1053936,0.0-15.0-3.1,42806,List1B,black,man,,,,,"{""Q0"":""Jane is being copied by luke""}","<img src=""stim_listB/copy4.gif""style=""height:400px;""></stim_listB>",is being copied by,,,,,,
null,"<div style=""font-size:60px;"">+</div>",,html-keyboard-response,136,1054443,0.0-15.0-0.2,42806,List1B,black,man,,,,null,,,,,,,,,
null,"<img src=""stim_listB/hug2.gif""style=""height:400px;""></stim_listB>",,html-keyboard-response,137,1056450,0.0-15.0-1.2,42806,List1B,black,man,,,,null,,,,,,,,,
null,is being hugged by,,html-keyboard-response,138,1058455,0.0-15.0-2.2,42806,List1B,black,man,,,,null,,,,,,,,,
13795.2,,,survey-text,139,1072270,0.0-15.0-3.2,42806,List1B,black,man,,,,,"{""Q0"":""Mike is hugging kate""}","<img src=""stim_listB/hug2.gif""style=""height:400px;""></stim_listB>",is being hugged by,,,,,,
null,"<div style=""font-size:60px;"">+</div>",,html-keyboard-response,140,1072776,0.0-15.0-0.3,42806,List1B,black,man,,,,null,,,,,,,,,
null,"<img src=""stim_listB/greet7.gif""style=""height:400px;""></stim_listB>",,html-keyboard-response,141,1074785,0.0-15.0-1.3,42806,List1B,black,man,,,,null,,,,,,,,,
null,is greeting,,html-keyboard-response,142,1076790,0.0-15.0-2.3,42806,List1B,black,man,,,,null,,,,,,,,,
19398.6,,,survey-text,143,1096209,0.0-15.0-3.3,42806,List1B,black,man,,,,,"{""Q0"":""Kate is greeting ruth""}","<img src=""stim_listB/greet7.gif""style=""height:400px;""></stim_listB>",is greeting,,,,,,
null,"<div style=""font-size:60px;"">+</div>",,html-keyboard-response,144,1096715,0.0-15.0-0.4,42806,List1B,black,man,,,,null,,,,,,,,,
null,"<img src=""stim_listB/greet3.gif""style=""height:400px;""></stim_listB>",,html-keyboard-response,145,1098724,0.0-15.0-1.4,42806,List1B,black,man,,,,null,,,,,,,,,
null,is greeting,,html-keyboard-response,146,1100730,0.0-15.0-2.4,42806,List1B,black,man,,,,null,,,,,,,,,
10430.4,,,survey-text,147,1111209,0.0-15.0-3.4,42806,List1B,black,man,,,,,"{""Q0"":""Ruth is greeting dave""}","<img src=""stim_listB/greet3.gif""style=""height:400px;""></stim_listB>",is greeting,,,,,,
null,"<div style=""font-size:60px;"">+</div>",,html-keyboard-response,148,1111715,0.0-15.0-0.5,42806,List1B,black,man,,,,null,,,,,,,,,
null,"<img src=""stim_listB/hug5.gif""style=""height:400px;""></stim_listB>",,html-keyboard-response,149,1113722,0.0-15.0-1.5,42806,List1B,black,man,,,,null,,,,,,,,,
null,is hugging,,html-keyboard-response,150,1115727,0.0-15.0-2.5,42806,List1B,black,man,,,,null,,,,,,,,,
9593,,,survey-text,151,1125337,0.0-15.0-3.5,42806,List1B,black,man,,,,,"{""Q0"":""Fred is hugging luke""}","<img src=""stim_listB/hug5.gif""style=""height:400px;""></stim_listB>",is hugging,,,,,,
null,"<div style=""font-size:60px;"">+</div>",,html-keyboard-response,152,1125844,0.0-15.0-0.6,42806,List1B,black,man,,,,null,,,,,,,,,
null,"<img src=""stim_listB/shout1.gif""style=""height:400px;""></stim_listB>",,html-keyboard-response,153,1127850,0.0-15.0-1.6,42806,List1B,black,man,,,,null,,,,,,,,,
null,is shouting at,,html-keyboard-response,154,1129855,0.0-15.0-2.6,42806,List1B,black,man,,,,null,,,,,,,,,
17961.6,,,survey-text,155,1147834,0.0-15.0-3.6,42806,List1B,black,man,,,,,"{""Q0"":""Fred is shouting at beth""}","<img src=""stim_listB/shout1.gif""style=""height:400px;""></stim_listB>",is shouting at,,,,,,
null,"<div style=""font-size:60px;"">+</div>",,html-keyboard-response,156,1148339,0.0-15.0-0.7,42806,List1B,black,man,,,,null,,,,,,,,,
null,"<img src=""stim_listB/copy6.gif""style=""height:400px;""></stim_listB>",,html-keyboard-response,157,1150348,0.0-15.0-1.7,42806,List1B,black,man,,,,null,,,,,,,,,
null,is being copied by,,html-keyboard-response,158,1152352,0.0-15.0-2.7,42806,List1B,black,man,,,,null,,,,,,,,,
11606.7,,,survey-text,159,1163977,0.0-15.0-3.7,42806,List1B,black,man,,,,,"{""Q0"":""Fred is being copied by dave""}","<img src=""stim_listB/copy6.gif""style=""height:400px;""></stim_listB>",is being copied by,,,,,,
null,"<div style=""font-size:60px;"">+</div>",,html-keyboard-response,160,1164483,0.0-15.0-0.8,42806,List1B,black,man,,,,null,,,,,,,,,
null,"<img src=""stim_listB/kiss5.gif""style=""height:400px;""></stim_listB>",,html-keyboard-response,161,1166489,0.0-15.0-1.8,42806,List1B,black,man,,,,null,,,,,,,,,
null,is kissing,,html-keyboard-response,162,1168494,0.0-15.0-2.8,42806,List1B,black,man,,,,null,,,,,,,,,
9122,,,survey-text,163,1177634,0.0-15.0-3.8,42806,List1B,black,man,,,,,"{""Q0"":""Luke is kissing fred""}","<img src=""stim_listB/kiss5.gif""style=""height:400px;""></stim_listB>",is kissing,,,,,,
null,"<div style=""font-size:60px;"">+</div>",,html-keyboard-response,164,1178140,0.0-15.0-0.9,42806,List1B,black,man,,,,null,,,,,,,,,
null,"<img src=""stim_listB/shout7.gif""style=""height:400px;""></stim_listB>",,html-keyboard-response,165,1180146,0.0-15.0-1.9,42806,List1B,black,man,,,,null,,,,,,,,,
null,is shouting at,,html-keyboard-response,166,1182152,0.0-15.0-2.9,42806,List1B,black,man,,,,null,,,,,,,,,
15192.6,,,survey-text,167,1197370,0.0-15.0-3.9,42806,List1B,black,man,,,,,"{""Q0"":""Beth is shouting at ruth""}","<img src=""stim_listB/shout7.gif""style=""height:400px;""></stim_listB>",is shouting at,,,,,,
null,"<div style=""font-size:60px;"">+</div>",,html-keyboard-response,168,1197876,0.0-15.0-0.10,42806,List1B,black,man,,,,null,,,,,,,,,
null,"<img src=""stim_listB/kiss1.gif""style=""height:400px;""></stim_listB>",,html-keyboard-response,169,1199884,0.0-15.0-1.10,42806,List1B,black,man,,,,null,,,,,,,,,
null,is kissing,,html-keyboard-response,170,1201889,0.0-15.0-2.10,42806,List1B,black,man,,,,null,,,,,,,,,
9846.8,,,survey-text,171,1211754,0.0-15.0-3.10,42806,List1B,black,man,,,,,"{""Q0"":""Fred is kissing beth""}","<img src=""stim_listB/kiss1.gif""style=""height:400px;""></stim_listB>",is kissing,,,,,,
null,"<div style=""font-size:60px;"">+</div>",,html-keyboard-response,172,1212259,0.0-15.0-0.11,42806,List1B,black,man,,,,null,,,,,,,,,
null,"<img src=""stim_listB/challenge2.gif""style=""height:400px;""></stim_listB>",,html-keyboard-response,173,1214267,0.0-15.0-1.11,42806,List1B,black,man,,,,null,,,,,,,,,
null,is being challenged by,,html-keyboard-response,174,1216272,0.0-15.0-2.11,42806,List1B,black,man,,,,null,,,,,,,,,
12628.9,,,survey-text,175,1228923,0.0-15.0-3.11,42806,List1B,black,man,,,,,"{""Q0"":""Fred is challenging kate""}","<img src=""stim_listB/challenge2.gif""style=""height:400px;""></stim_listB>",is being challenged by,,,,,,
null,"<div style=""font-size:60px;"">+</div>",,html-keyboard-response,176,1229429,0.0-15.0-0.12,42806,List1B,black,man,,,,null,,,,,,,,,
null,"<img src=""stim_listB/look3.gif""style=""height:400px;""></stim_listB>",,html-keyboard-response,177,1231436,0.0-15.0-1.12,42806,List1B,black,man,,,,null,,,,,,,,,
null,is looking at,,html-keyboard-response,178,1233440,0.0-15.0-2.12,42806,List1B,black,man,,,,null,,,,,,,,,
17646.3,,,survey-text,179,1251105,0.0-15.0-3.12,42806,List1B,black,man,,,,,"{""Q0"":""Luke is looking at ruth""}","<img src=""stim_listB/look3.gif""style=""height:400px;""></stim_listB>",is looking at,,,,,,
null,"<div style=""font-size:60px;"">+</div>",,html-keyboard-response,180,1251610,0.0-15.0-0.13,42806,List1B,black,man,,,,null,,,,,,,,,
null,"<img src=""stim_listB/challenge3.gif""style=""height:400px;""></stim_listB>",,html-keyboard-response,181,1253617,0.0-15.0-1.13,42806,List1B,black,man,,,,null,,,,,,,,,
null,is challenging,,html-keyboard-response,182,1255622,0.0-15.0-2.13,42806,List1B,black,man,,,,null,,,,,,,,,
9786.2,,,survey-text,183,1265427,0.0-15.0-3.13,42806,List1B,black,man,,,,,"{""Q0"":""Ruth is challenging dave""}","<img src=""stim_listB/challenge3.gif""style=""height:400px;""></stim_listB>",is challenging,,,,,,
null,"<div style=""font-size:60px;"">+</div>",,html-keyboard-response,184,1265933,0.0-15.0-0.14,42806,List1B,black,man,,,,null,,,,,,,,,
null,"<img src=""stim_listB/touch8.gif""style=""height:400px;""></stim_listB>",,html-keyboard-response,185,1267940,0.0-15.0-1.14,42806,List1B,black,man,,,,null,,,,,,,,,
null,is being touched by,,html-keyboard-response,186,1269945,0.0-15.0-2.14,42806,List1B,black,man,,,,null,,,,,,,,,
12968,,,survey-text,187,1282931,0.0-15.0-3.14,42806,List1B,black,man,,,,,"{""Q0"":""Ruth is touching beth""}","<img src=""stim_listB/touch8.gif""style=""height:400px;""></stim_listB>",is being touched by,,,,,,
null,"<div style=""font-size:60px;"">+</div>",,html-keyboard-response,188,1283438,0.0-15.0-0.15,42806,List1B,black,man,,,,null,,,,,,,,,
null,"<img src=""stim_listB/oppose3.gif""style=""height:400px;""></stim_listB>",,html-keyboard-response,189,1285445,0.0-15.0-1.15,42806,List1B,black,man,,,,null,,,,,,,,,
null,is opposing,,html-keyboard-response,190,1287449,0.0-15.0-2.15,42806,List1B,black,man,,,,null,,,,,,,,,
10619.3,,,survey-text,191,1298091,0.0-15.0-3.15,42806,List1B,black,man,,,,,"{""Q0"":""Jane is opposing dave""}","<img src=""stim_listB/oppose3.gif""style=""height:400px;""></stim_listB>",is opposing,,,,,,
null,"<div style=""font-size:60px;"">+</div>",,html-keyboard-response,192,1298597,0.0-15.0-0.16,42806,List1B,black,man,,,,null,,,,,,,,,
null,"<img src=""stim_listB/greet8.gif""style=""height:400px;""></stim_listB>",,html-keyboard-response,193,1300604,0.0-15.0-1.16,42806,List1B,black,man,,,,null,,,,,,,,,
null,is being greeted by,,html-keyboard-response,194,1302610,0.0-15.0-2.16,42806,List1B,black,man,,,,null,,,,,,,,,
15714.2,,,survey-text,195,1318344,0.0-15.0-3.16,42806,List1B,black,man,,,,,"{""Q0"":""Jane is being greeted by beth""}","<img src=""stim_listB/greet8.gif""style=""height:400px;""></stim_listB>",is being greeted by,,,,,,
null,"<div style=""font-size:60px;"">+</div>",,html-keyboard-response,196,1318849,0.0-15.0-0.17,42806,List1B,black,man,,,,null,,,,,,,,,
null,"<img src=""stim_listB/kiss3.gif""style=""height:400px;""></stim_listB>",,html-keyboard-response,197,1320857,0.0-15.0-1.17,42806,List1B,black,man,,,,null,,,,,,,,,
null,is kissing,,html-keyboard-response,198,1322861,0.0-15.0-2.17,42806,List1B,black,man,,,,null,,,,,,,,,
17547.1,,,survey-text,199,1340427,0.0-15.0-3.17,42806,List1B,black,man,,,,,"{""Q0"":""Ruth is kissing luke""}","<img src=""stim_listB/kiss3.gif""style=""height:400px;""></stim_listB>",is kissing,,,,,,
null,"<div style=""font-size:60px;"">+</div>",,html-keyboard-response,200,1340932,0.0-15.0-0.18,42806,List1B,black,man,,,,null,,,,,,,,,
null,"<img src=""stim_listB/challenge5.gif""style=""height:400px;""></stim_listB>",,html-keyboard-response,201,1342940,0.0-15.0-1.18,42806,List1B,black,man,,,,null,,,,,,,,,
null,is challenging,,html-keyboard-response,202,1344945,0.0-15.0-2.18,42806,List1B,black,man,,,,null,,,,,,,,,
12174,,,survey-text,203,1357141,0.0-15.0-3.18,42806,List1B,black,man,,,,,"{""Q0"":""Mike is challenging luke""}","<img src=""stim_listB/challenge5.gif""style=""height:400px;""></stim_listB>",is challenging,,,,,,
null,"<div style=""font-size:60px;"">+</div>",,html-keyboard-response,204,1357647,0.0-15.0-0.19,42806,List1B,black,man,,,,null,,,,,,,,,
null,"<img src=""stim_listB/hug3.gif""style=""height:400px;""></stim_listB>",,html-keyboard-response,205,1359654,0.0-15.0-1.19,42806,List1B,black,man,,,,null,,,,,,,,,
null,is hugging,,html-keyboard-response,206,1361658,0.0-15.0-2.19,42806,List1B,black,man,,,,null,,,,,,,,,
10360.2,,,survey-text,207,1372037,0.0-15.0-3.19,42806,List1B,black,man,,,,,"{""Q0"":""Luke is hugging ruth""}","<img src=""stim_listB/hug3.gif""style=""height:400px;""></stim_listB>",is hugging,,,,,,
3072.1,"<img src='img/portrait_matrix_list1.jpg' style='width:900px;height:500px;''></img><p>If you have memorised all the portraits and names and are ready to start, press Continue.</p><p><strong>Please note: Your memory of these faces will be tested 4 times during this experiment.</strong></p>",0,html-button-response,208,1375120,0.0-16.0-0.0,42806,List1B,black,man,,,,,,,,,,,,,
3663.4,"<img src=""portrait/WW1.jpg""style=""height:400px;""></img>",1,html-button-response,209,1379796,0.0-16.0-1.0,42806,List1B,black,man,,TRUE,1,,,,,,,,,,
null,CORRECT,,html-keyboard-response,210,1381304,0.0-16.0-2.0-0.0,42806,List1B,black,man,,,,null,,,,,,,,,
4660.2,"<img src=""portrait/WW2.jpg""style=""height:400px;""></img>",3,html-button-response,211,1385974,0.0-16.0-4.0,42806,List1B,black,man,,TRUE,3,,,,,,,,,,
null,CORRECT,,html-keyboard-response,212,1387482,0.0-16.0-5.0-0.0,42806,List1B,black,man,,,,null,,,,,,,,,
6118.1,"<img src=""portrait/BW1.jpg""style=""height:400px;""></img>",0,html-button-response,213,1393611,0.0-16.0-7.0,42806,List1B,black,man,,TRUE,0,,,,,,,,,,
null,CORRECT,,html-keyboard-response,214,1395119,0.0-16.0-8.0-0.0,42806,List1B,black,man,,,,null,,,,,,,,,
2070.2,"<img src=""portrait/WM2.jpg""style=""height:400px;""></img>",7,html-button-response,215,1397204,0.0-16.0-10.0,42806,List1B,black,man,,TRUE,7,,,,,,,,,,
null,CORRECT,,html-keyboard-response,216,1398710,0.0-16.0-11.0-0.0,42806,List1B,black,man,,,,null,,,,,,,,,
2016.6,"<img src=""portrait/BM2.jpg""style=""height:400px;""></img>",5,html-button-response,217,1400737,0.0-16.0-13.0,42806,List1B,black,man,,TRUE,5,,,,,,,,,,
null,CORRECT,,html-keyboard-response,218,1402245,0.0-16.0-14.0-0.0,42806,List1B,black,man,,,,null,,,,,,,,,
2410.9,"<img src=""portrait/BM1.jpg""style=""height:400px;""></img>",4,html-button-response,219,1404668,0.0-16.0-16.0,42806,List1B,black,man,,TRUE,4,,,,,,,,,,
null,CORRECT,,html-keyboard-response,220,1406174,0.0-16.0-17.0-0.0,42806,List1B,black,man,,,,null,,,,,,,,,
2538,"<img src=""portrait/BW2.jpg""style=""height:400px;""></img>",2,html-button-response,221,1408723,0.0-16.0-19.0,42806,List1B,black,man,,TRUE,2,,,,,,,,,,
null,CORRECT,,html-keyboard-response,222,1410232,0.0-16.0-20.0-0.0,42806,List1B,black,man,,,,null,,,,,,,,,
3565.4,"<img src=""portrait/WM1.jpg""style=""height:400px;""></img>",6,html-button-response,223,1413810,0.0-16.0-22.0,42806,List1B,black,man,,TRUE,6,,,,,,,,,,
null,CORRECT,,html-keyboard-response,224,1415318,0.0-16.0-23.0-0.0,42806,List1B,black,man,,,,null,,,,,,,,,
1501.2,<p>You got 8 out of 8 right first time. Press Continue.</p>,0,html-button-response,225,1416827,0.0-16.0-25.0,42806,List1B,black,man,,,,,,,,,,,,,
null,"<div style=""font-size:60px;"">+</div>",,html-keyboard-response,226,1418336,0.0-17.0-0.0,42806,List1B,black,man,,,,null,,,,,,,,,
null,"<img src=""stim_listB/greet4.gif""style=""height:400px;""></stim_listB>",,html-keyboard-response,227,1420344,0.0-17.0-1.0,42806,List1B,black,man,,,,null,,,,,,,,,
null,is being greeted by,,html-keyboard-response,228,1422348,0.0-17.0-2.0,42806,List1B,black,man,,,,null,,,,,,,,,
13314.3,,,survey-text,229,1435686,0.0-17.0-3.0,42806,List1B,black,man,,,,,"{""Q0"":""Jane is being greeted by luke""}","<img src=""stim_listB/greet4.gif""style=""height:400px;""></stim_listB>",is being greeted by,,,,,,
null,"<div style=""font-size:60px;"">+</div>",,html-keyboard-response,230,1436193,0.0-17.0-0.1,42806,List1B,black,man,,,,null,,,,,,,,,
null,"<img src=""stim_listB/look1.gif""style=""height:400px;""></stim_listB>",,html-keyboard-response,231,1438200,0.0-17.0-1.1,42806,List1B,black,man,,,,null,,,,,,,,,
null,is looking at,,html-keyboard-response,232,1440205,0.0-17.0-2.1,42806,List1B,black,man,,,,null,,,,,,,,,
12756.8,,,survey-text,233,1452983,0.0-17.0-3.1,42806,List1B,black,man,,,,,"{""Q0"":""Beth is looking at fred""}","<img src=""stim_listB/look1.gif""style=""height:400px;""></stim_listB>",is looking at,,,,,,
null,"<div style=""font-size:60px;"">+</div>",,html-keyboard-response,234,1453489,0.0-17.0-0.2,42806,List1B,black,man,,,,null,,,,,,,,,
null,"<img src=""stim_listB/copy5.gif""style=""height:400px;""></stim_listB>",,html-keyboard-response,235,1455497,0.0-17.0-1.2,42806,List1B,black,man,,,,null,,,,,,,,,
null,is copying,,html-keyboard-response,236,1457502,0.0-17.0-2.2,42806,List1B,black,man,,,,null,,,,,,,,,
11005.4,,,survey-text,237,1468529,0.0-17.0-3.2,42806,List1B,black,man,,,,,"{""Q0"":""Mike is copying luke""}","<img src=""stim_listB/copy5.gif""style=""height:400px;""></stim_listB>",is copying,,,,,,
null,"<div style=""font-size:60px;"">+</div>",,html-keyboard-response,238,1469035,0.0-17.0-0.3,42806,List1B,black,man,,,,null,,,,,,,,,
null,"<img src=""stim_listB/oppose6.gif""style=""height:400px;""></stim_listB>",,html-keyboard-response,239,1471043,0.0-17.0-1.3,42806,List1B,black,man,,,,null,,,,,,,,,
null,is being opposed by,,html-keyboard-response,240,1473048,0.0-17.0-2.3,42806,List1B,black,man,,,,null,,,,,,,,,
13467.1,,,survey-text,241,1486535,0.0-17.0-3.3,42806,List1B,black,man,,,,,"{""Q0"":""Luke is being opposed by fred""}","<img src=""stim_listB/oppose6.gif""style=""height:400px;""></stim_listB>",is being opposed by,,,,,,
null,"<div style=""font-size:60px;"">+</div>",,html-keyboard-response,242,1487043,0.0-17.0-0.4,42806,List1B,black,man,,,,null,,,,,,,,,
null,"<img src=""stim_listB/oppose7.gif""style=""height:400px;""></stim_listB>",,html-keyboard-response,243,1489050,0.0-17.0-1.4,42806,List1B,black,man,,,,null,,,,,,,,,
null,is opposing,,html-keyboard-response,244,1491055,0.0-17.0-2.4,42806,List1B,black,man,,,,null,,,,,,,,,
11187.5,,,survey-text,245,1502262,0.0-17.0-3.4,42806,List1B,black,man,,,,,"{""Q0"":""Jane is opposing kate""}","<img src=""stim_listB/oppose7.gif""style=""height:400px;""></stim_listB>",is opposing,,,,,,
null,"<div style=""font-size:60px;"">+</div>",,html-keyboard-response,246,1502772,0.0-17.0-0.5,42806,List1B,black,man,,,,null,,,,,,,,,
null,"<img src=""stim_listB/touch3.gif""style=""height:400px;""></stim_listB>",,html-keyboard-response,247,1504780,0.0-17.0-1.5,42806,List1B,black,man,,,,null,,,,,,,,,
null,is touching,,html-keyboard-response,248,1506785,0.0-17.0-2.5,42806,List1B,black,man,,,,null,,,,,,,,,
9117.3,,,survey-text,249,1515924,0.0-17.0-3.5,42806,List1B,black,man,,,,,"{""Q0"":""Jane is touching dave""}","<img src=""stim_listB/touch3.gif""style=""height:400px;""></stim_listB>",is touching,,,,,,
null,"<div style=""font-size:60px;"">+</div>",,html-keyboard-response,250,1516429,0.0-17.0-0.6,42806,List1B,black,man,,,,null,,,,,,,,,
null,"<img src=""stim_listB/shout4.gif""style=""height:400px;""></stim_listB>",,html-keyboard-response,251,1518437,0.0-17.0-1.6,42806,List1B,black,man,,,,null,,,,,,,,,
null,is being shouted at by,,html-keyboard-response,252,1520442,0.0-17.0-2.6,42806,List1B,black,man,,,,null,,,,,,,,,
14018.9,,,survey-text,253,1534480,0.0-17.0-3.6,42806,List1B,black,man,,,,,"{""Q0"":""Jane is being shouted at by dave""}","<img src=""stim_listB/shout4.gif""style=""height:400px;""></stim_listB>",is being shouted at by,,,,,,
null,"<div style=""font-size:60px;"">+</div>",,html-keyboard-response,254,1534986,0.0-17.0-0.7,42806,List1B,black,man,,,,null,,,,,,,,,
null,"<img src=""stim_listB/hug6.gif""style=""height:400px;""></stim_listB>",,html-keyboard-response,255,1536994,0.0-17.0-1.7,42806,List1B,black,man,,,,null,,,,,,,,,
null,is being hugged by,,html-keyboard-response,256,1539000,0.0-17.0-2.7,42806,List1B,black,man,,,,null,,,,,,,,,
9947.4,,,survey-text,257,1548968,0.0-17.0-3.7,42806,List1B,black,man,,,,,"{""Q0"":""Mike is being hugged by dave""}","<img src=""stim_listB/hug6.gif""style=""height:400px;""></stim_listB>",is being hugged by,,,,,,
null,"<div style=""font-size:60px;"">+</div>",,html-keyboard-response,258,1549475,0.0-17.0-0.8,42806,List1B,black,man,,,,null,,,,,,,,,
null,"<img src=""stim_listB/greet5.gif""style=""height:400px;""></stim_listB>",,html-keyboard-response,259,1551484,0.0-17.0-1.8,42806,List1B,black,man,,,,null,,,,,,,,,
null,is greeting,,html-keyboard-response,260,1553490,0.0-17.0-2.8,42806,List1B,black,man,,,,null,,,,,,,,,
10741.2,,,survey-text,261,1564254,0.0-17.0-3.8,42806,List1B,black,man,,,,,"{""Q0"":""Luke is greeting mike""}","<img src=""stim_listB/greet5.gif""style=""height:400px;""></stim_listB>",is greeting,,,,,,
null,"<div style=""font-size:60px;"">+</div>",,html-keyboard-response,262,1564760,0.0-17.0-0.9,42806,List1B,black,man,,,,null,,,,,,,,,
null,"<img src=""stim_listB/look2.gif""style=""height:400px;""></stim_listB>",,html-keyboard-response,263,1566768,0.0-17.0-1.9,42806,List1B,black,man,,,,null,,,,,,,,,
null,is being looked at by,,html-keyboard-response,264,1568772,0.0-17.0-2.9,42806,List1B,black,man,,,,null,,,,,,,,,
11633.4,,,survey-text,265,1580425,0.0-17.0-3.9,42806,List1B,black,man,,,,,"{""Q0"":""Mike is looking at kate""}","<img src=""stim_listB/look2.gif""style=""height:400px;""></stim_listB>",is being looked at by,,,,,,
null,"<div style=""font-size:60px;"">+</div>",,html-keyboard-response,266,1580931,0.0-17.0-0.10,42806,List1B,black,man,,,,null,,,,,,,,,
null,"<img src=""stim_listB/copy7.gif""style=""height:400px;""></stim_listB>",,html-keyboard-response,267,1582939,0.0-17.0-1.10,42806,List1B,black,man,,,,null,,,,,,,,,
null,is copying,,html-keyboard-response,268,1584945,0.0-17.0-2.10,42806,List1B,black,man,,,,null,,,,,,,,,
9233.1,,,survey-text,269,1594196,0.0-17.0-3.10,42806,List1B,black,man,,,,,"{""Q0"":""Kate is copying ruth""}","<img src=""stim_listB/copy7.gif""style=""height:400px;""></stim_listB>",is copying,,,,,,
null,"<div style=""font-size:60px;"">+</div>",,html-keyboard-response,270,1594702,0.0-17.0-0.11,42806,List1B,black,man,,,,null,,,,,,,,,
null,"<img src=""stim_listB/look7.gif""style=""height:400px;""></stim_listB>",,html-keyboard-response,271,1596708,0.0-17.0-1.11,42806,List1B,black,man,,,,null,,,,,,,,,
null,is looking at,,html-keyboard-response,272,1598713,0.0-17.0-2.11,42806,List1B,black,man,,,,null,,,,,,,,,
10695.5,,,survey-text,273,1609426,0.0-17.0-3.11,42806,List1B,black,man,,,,,"{""Q0"":""Ruth is looking at beth""}","<img src=""stim_listB/look7.gif""style=""height:400px;""></stim_listB>",is looking at,,,,,,
null,"<div style=""font-size:60px;"">+</div>",,html-keyboard-response,274,1609931,0.0-17.0-0.12,42806,List1B,black,man,,,,null,,,,,,,,,
null,"<img src=""stim_listB/shout8.gif""style=""height:400px;""></stim_listB>",,html-keyboard-response,275,1611938,0.0-17.0-1.12,42806,List1B,black,man,,,,null,,,,,,,,,
null,is being shouted at by,,html-keyboard-response,276,1613943,0.0-17.0-2.12,42806,List1B,black,man,,,,null,,,,,,,,,
13631.2,,,survey-text,277,1627591,0.0-17.0-3.12,42806,List1B,black,man,,,,,"{""Q0"":""Kate is being shouted at by jane""}","<img src=""stim_listB/shout8.gif""style=""height:400px;""></stim_listB>",is being shouted at by,,,,,,
null,"<div style=""font-size:60px;"">+</div>",,html-keyboard-response,278,1628098,0.0-17.0-0.13,42806,List1B,black,man,,,,null,,,,,,,,,
null,"<img src=""stim_listB/look8.gif""style=""height:400px;""></stim_listB>",,html-keyboard-response,279,1630105,0.0-17.0-1.13,42806,List1B,black,man,,,,null,,,,,,,,,
null,is being looked at by,,html-keyboard-response,280,1632109,0.0-17.0-2.13,42806,List1B,black,man,,,,null,,,,,,,,,
14817,,,survey-text,281,1646945,0.0-17.0-3.13,42806,List1B,black,man,,,,,"{""Q0"":""Jane is being looked at by kate""}","<img src=""stim_listB/look8.gif""style=""height:400px;""></stim_listB>",is being looked at by,,,,,,
null,"<div style=""font-size:60px;"">+</div>",,html-keyboard-response,282,1647451,0.0-17.0-0.14,42806,List1B,black,man,,,,null,,,,,,,,,
null,"<img src=""stim_listB/look6.gif""style=""height:400px;""></stim_listB>",,html-keyboard-response,283,1649458,0.0-17.0-1.14,42806,List1B,black,man,,,,null,,,,,,,,,
null,is being looked at by,,html-keyboard-response,284,1651463,0.0-17.0-2.14,42806,List1B,black,man,,,,null,,,,,,,,,
11996.5,,,survey-text,285,1663477,0.0-17.0-3.14,42806,List1B,black,man,,,,,"{""Q0"":""Mike is being looked at by dave""}","<img src=""stim_listB/look6.gif""style=""height:400px;""></stim_listB>",is being looked at by,,,,,,
null,"<div style=""font-size:60px;"">+</div>",,html-keyboard-response,286,1663984,0.0-17.0-0.15,42806,List1B,black,man,,,,null,,,,,,,,,
null,"<img src=""stim_listB/seduce7.gif""style=""height:400px;""></stim_listB>",,html-keyboard-response,287,1665992,0.0-17.0-1.15,42806,List1B,black,man,,,,null,,,,,,,,,
null,is seducing,,html-keyboard-response,288,1667996,0.0-17.0-2.15,42806,List1B,black,man,,,,null,,,,,,,,,
11568.2,,,survey-text,289,1679583,0.0-17.0-3.15,42806,List1B,black,man,,,,,"{""Q0"":""Jane is seducing beth""}","<img src=""stim_listB/seduce7.gif""style=""height:400px;""></stim_listB>",is seducing,,,,,,
null,"<div style=""font-size:60px;"">+</div>",,html-keyboard-response,290,1680089,0.0-17.0-0.16,42806,List1B,black,man,,,,null,,,,,,,,,
null,"<img src=""stim_listB/look4.gif""style=""height:400px;""></stim_listB>",,html-keyboard-response,291,1682098,0.0-17.0-1.16,42806,List1B,black,man,,,,null,,,,,,,,,
null,is being looked at by,,html-keyboard-response,292,1684103,0.0-17.0-2.16,42806,List1B,black,man,,,,null,,,,,,,,,
14166.9,,,survey-text,293,1698289,0.0-17.0-3.16,42806,List1B,black,man,,,,,"{""Q0"":""Jane is being looked at by dave""}","<img src=""stim_listB/look4.gif""style=""height:400px;""></stim_listB>",is being looked at by,,,,,,
null,"<div style=""font-size:60px;"">+</div>",,html-keyboard-response,294,1698795,0.0-17.0-0.17,42806,List1B,black,man,,,,null,,,,,,,,,
null,"<img src=""stim_listB/touch2.gif""style=""height:400px;""></stim_listB>",,html-keyboard-response,295,1700804,0.0-17.0-1.17,42806,List1B,black,man,,,,null,,,,,,,,,
null,is being touched by,,html-keyboard-response,296,1702809,0.0-17.0-2.17,42806,List1B,black,man,,,,null,,,,,,,,,
10431.9,,,survey-text,297,1713259,0.0-17.0-3.17,42806,List1B,black,man,,,,,"{""Q0"":""Fred is being touched by beth""}","<img src=""stim_listB/touch2.gif""style=""height:400px;""></stim_listB>",is being touched by,,,,,,
null,"<div style=""font-size:60px;"">+</div>",,html-keyboard-response,298,1713765,0.0-17.0-0.18,42806,List1B,black,man,,,,null,,,,,,,,,
null,"<img src=""stim_listB/challenge6.gif""style=""height:400px;""></stim_listB>",,html-keyboard-response,299,1715774,0.0-17.0-1.18,42806,List1B,black,man,,,,null,,,,,,,,,
null,is being challenged by,,html-keyboard-response,300,1717778,0.0-17.0-2.18,42806,List1B,black,man,,,,null,,,,,,,,,
8703.5,,,survey-text,301,1726502,0.0-17.0-3.18,42806,List1B,black,man,,,,,"{""Q0"":""Fred is challenging dave""}","<img src=""stim_listB/challenge6.gif""style=""height:400px;""></stim_listB>",is being challenged by,,,,,,
null,"<div style=""font-size:60px;"">+</div>",,html-keyboard-response,302,1727009,0.0-17.0-0.19,42806,List1B,black,man,,,,null,,,,,,,,,
null,"<img src=""stim_listB/touch5.gif""style=""height:400px;""></stim_listB>",,html-keyboard-response,303,1729017,0.0-17.0-1.19,42806,List1B,black,man,,,,null,,,,,,,,,
null,is touching,,html-keyboard-response,304,1731022,0.0-17.0-2.19,42806,List1B,black,man,,,,null,,,,,,,,,
8722.5,,,survey-text,305,1739763,0.0-17.0-3.19,42806,List1B,black,man,,,,,"{""Q0"":""Dave is touching mike""}","<img src=""stim_listB/touch5.gif""style=""height:400px;""></stim_listB>",is touching,,,,,,
3212.2,"<img src='img/portrait_matrix_list1.jpg' style='width:900px;height:500px;''></img><p>If you have memorised all the portraits and names and are ready to start, press Continue.</p><p><strong>Please note: Your memory of these faces will be tested 4 times during this experiment.</strong></p>",0,html-button-response,306,1742985,0.0-18.0-0.0,42806,List1B,black,man,,,,,,,,,,,,,
2463.9,"<img src=""portrait/BW2.jpg""style=""height:400px;""></img>",2,html-button-response,307,1746465,0.0-18.0-1.0,42806,List1B,black,man,,TRUE,2,,,,,,,,,,
null,CORRECT,,html-keyboard-response,308,1747973,0.0-18.0-2.0-0.0,42806,List1B,black,man,,,,null,,,,,,,,,
3097.1,"<img src=""portrait/WM2.jpg""style=""height:400px;""></img>",7,html-button-response,309,1751081,0.0-18.0-4.0,42806,List1B,black,man,,TRUE,7,,,,,,,,,,
null,CORRECT,,html-keyboard-response,310,1752586,0.0-18.0-5.0-0.0,42806,List1B,black,man,,,,null,,,,,,,,,
2142.5,"<img src=""portrait/WM1.jpg""style=""height:400px;""></img>",6,html-button-response,311,1754739,0.0-18.0-7.0,42806,List1B,black,man,,TRUE,6,,,,,,,,,,
null,CORRECT,,html-keyboard-response,312,1756247,0.0-18.0-8.0-0.0,42806,List1B,black,man,,,,null,,,,,,,,,
1917,"<img src=""portrait/BM2.jpg""style=""height:400px;""></img>",5,html-button-response,313,1758174,0.0-18.0-10.0,42806,List1B,black,man,,TRUE,5,,,,,,,,,,
null,CORRECT,,html-keyboard-response,314,1759681,0.0-18.0-11.0-0.0,42806,List1B,black,man,,,,null,,,,,,,,,
3487.3,"<img src=""portrait/WW1.jpg""style=""height:400px;""></img>",1,html-button-response,315,1763189,0.0-18.0-13.0,42806,List1B,black,man,,TRUE,1,,,,,,,,,,
null,CORRECT,,html-keyboard-response,316,1764698,0.0-18.0-14.0-0.0,42806,List1B,black,man,,,,null,,,,,,,,,
5398,"<img src=""portrait/WW2.jpg""style=""height:400px;""></img>",3,html-button-response,317,1770110,0.0-18.0-16.0,42806,List1B,black,man,,TRUE,3,,,,,,,,,,
null,CORRECT,,html-keyboard-response,318,1771618,0.0-18.0-17.0-0.0,42806,List1B,black,man,,,,null,,,,,,,,,
2433.7,"<img src=""portrait/BM1.jpg""style=""height:400px;""></img>",4,html-button-response,319,1774066,0.0-18.0-19.0,42806,List1B,black,man,,TRUE,4,,,,,,,,,,
null,CORRECT,,html-keyboard-response,320,1775572,0.0-18.0-20.0-0.0,42806,List1B,black,man,,,,null,,,,,,,,,
2018.7,"<img src=""portrait/BW1.jpg""style=""height:400px;""></img>",0,html-button-response,321,1777602,0.0-18.0-22.0,42806,List1B,black,man,,TRUE,0,,,,,,,,,,
null,CORRECT,,html-keyboard-response,322,1779108,0.0-18.0-23.0-0.0,42806,List1B,black,man,,,,null,,,,,,,,,
1901.3,<p>You got 8 out of 8 right first time. Press Continue.</p>,0,html-button-response,323,1781018,0.0-18.0-25.0,42806,List1B,black,man,,,,,,,,,,,,,
null,"<div style=""font-size:60px;"">+</div>",,html-keyboard-response,324,1782525,0.0-19.0-0.0,42806,List1B,black,man,,,,null,,,,,,,,,
null,"<img src=""stim_listB/challenge7.gif""style=""height:400px;""></stim_listB>",,html-keyboard-response,325,1784532,0.0-19.0-1.0,42806,List1B,black,man,,,,null,,,,,,,,,
null,is challenging,,html-keyboard-response,326,1786537,0.0-19.0-2.0,42806,List1B,black,man,,,,null,,,,,,,,,
11255.3,,,survey-text,327,1797812,0.0-19.0-3.0,42806,List1B,black,man,,,,,"{""Q0"":""Kate is challenging ruth""}","<img src=""stim_listB/challenge7.gif""style=""height:400px;""></stim_listB>",is challenging,,,,,,
null,"<div style=""font-size:60px;"">+</div>",,html-keyboard-response,328,1798319,0.0-19.0-0.1,42806,List1B,black,man,,,,null,,,,,,,,,
null,"<img src=""stim_listB/shout6.gif""style=""height:400px;""></stim_listB>",,html-keyboard-response,329,1800328,0.0-19.0-1.1,42806,List1B,black,man,,,,null,,,,,,,,,
null,is being shouted at by,,html-keyboard-response,330,1802333,0.0-19.0-2.1,42806,List1B,black,man,,,,null,,,,,,,,,
18603.1,,,survey-text,331,1820955,0.0-19.0-3.1,42806,List1B,black,man,,,,,"{""Q0"":""Dave is being shouted at by mike""}","<img src=""stim_listB/shout6.gif""style=""height:400px;""></stim_listB>",is being shouted at by,,,,,,
null,"<div style=""font-size:60px;"">+</div>",,html-keyboard-response,332,1821463,0.0-19.0-0.2,42806,List1B,black,man,,,,null,,,,,,,,,
null,"<img src=""stim_listB/touch6.gif""style=""height:400px;""></stim_listB>",,html-keyboard-response,333,1823471,0.0-19.0-1.2,42806,List1B,black,man,,,,null,,,,,,,,,
null,is being touched by,,html-keyboard-response,334,1825475,0.0-19.0-2.2,42806,List1B,black,man,,,,null,,,,,,,,,
13498.3,,,survey-text,335,1838995,0.0-19.0-3.2,42806,List1B,black,man,,,,,"{""Q0"":""Fred is being touched by luke""}","<img src=""stim_listB/touch6.gif""style=""height:400px;""></stim_listB>",is being touched by,,,,,,
null,"<div style=""font-size:60px;"">+</div>",,html-keyboard-response,336,1839501,0.0-19.0-0.3,42806,List1B,black,man,,,,null,,,,,,,,,
null,"<img src=""stim_listB/oppose4.gif""style=""height:400px;""></stim_listB>",,html-keyboard-response,337,1841509,0.0-19.0-1.3,42806,List1B,black,man,,,,null,,,,,,,,,
null,is being opposed by,,html-keyboard-response,338,1843514,0.0-19.0-2.3,42806,List1B,black,man,,,,null,,,,,,,,,
16476.7,,,survey-text,339,1860010,0.0-19.0-3.3,42806,List1B,black,man,,,,,"{""Q0"":""Luke is being opposed by ruth""}","<img src=""stim_listB/oppose4.gif""style=""height:400px;""></stim_listB>",is being opposed by,,,,,,
null,"<div style=""font-size:60px;"">+</div>",,html-keyboard-response,340,1860517,0.0-19.0-0.4,42806,List1B,black,man,,,,null,,,,,,,,,
null,"<img src=""stim_listB/oppose1.gif""style=""height:400px;""></stim_listB>",,html-keyboard-response,341,1862525,0.0-19.0-1.4,42806,List1B,black,man,,,,null,,,,,,,,,
null,is opposing,,html-keyboard-response,342,1864530,0.0-19.0-2.4,42806,List1B,black,man,,,,null,,,,,,,,,
8782.9,,,survey-text,343,1873333,0.0-19.0-3.4,42806,List1B,black,man,,,,,"{""Q0"":""Kate is opposing mike""}","<img src=""stim_listB/oppose1.gif""style=""height:400px;""></stim_listB>",is opposing,,,,,,
null,"<div style=""font-size:60px;"">+</div>",,html-keyboard-response,344,1873839,0.0-19.0-0.5,42806,List1B,black,man,,,,null,,,,,,,,,
null,"<img src=""stim_listB/hug4.gif""style=""height:400px;""></stim_listB>",,html-keyboard-response,345,1875848,0.0-19.0-1.5,42806,List1B,black,man,,,,null,,,,,,,,,
null,is being hugged by,,html-keyboard-response,346,1877853,0.0-19.0-2.5,42806,List1B,black,man,,,,null,,,,,,,,,
10486.7,,,survey-text,347,1888359,0.0-19.0-3.5,42806,List1B,black,man,,,,,"{""Q0"":""Jane is being hugged by dave""}","<img src=""stim_listB/hug4.gif""style=""height:400px;""></stim_listB>",is being hugged by,,,,,,
null,"<div style=""font-size:60px;"">+</div>",,html-keyboard-response,348,1888865,0.0-19.0-0.6,42806,List1B,black,man,,,,null,,,,,,,,,
null,"<img src=""stim_listB/copy1.gif""style=""height:400px;""></stim_listB>",,html-keyboard-response,349,1890871,0.0-19.0-1.6,42806,List1B,black,man,,,,null,,,,,,,,,
null,is copying,,html-keyboard-response,350,1892876,0.0-19.0-2.6,42806,List1B,black,man,,,,null,,,,,,,,,
8919.4,,,survey-text,351,1901818,0.0-19.0-3.6,42806,List1B,black,man,,,,,"{""Q0"":""Mike is copying beth""}","<img src=""stim_listB/copy1.gif""style=""height:400px;""></stim_listB>",is copying,,,,,,
null,"<div style=""font-size:60px;"">+</div>",,html-keyboard-response,352,1902325,0.0-19.0-0.7,42806,List1B,black,man,,,,null,,,,,,,,,
null,"<img src=""stim_listB/look5.gif""style=""height:400px;""></stim_listB>",,html-keyboard-response,353,1904332,0.0-19.0-1.7,42806,List1B,black,man,,,,null,,,,,,,,,
null,is looking at,,html-keyboard-response,354,1906337,0.0-19.0-2.7,42806,List1B,black,man,,,,null,,,,,,,,,
9191.7,,,survey-text,355,1915548,0.0-19.0-3.7,42806,List1B,black,man,,,,,"{""Q0"":""Fred is looking at luke""}","<img src=""stim_listB/look5.gif""style=""height:400px;""></stim_listB>",is looking at,,,,,,
null,"<div style=""font-size:60px;"">+</div>",,html-keyboard-response,356,1916055,0.0-19.0-0.8,42806,List1B,black,man,,,,null,,,,,,,,,
null,"<img src=""stim_listB/seduce6.gif""style=""height:400px;""></stim_listB>",,html-keyboard-response,357,1918062,0.0-19.0-1.8,42806,List1B,black,man,,,,null,,,,,,,,,
null,is being seduced by,,html-keyboard-response,358,1920067,0.0-19.0-2.8,42806,List1B,black,man,,,,null,,,,,,,,,
9734.1,,,survey-text,359,1929822,0.0-19.0-3.8,42806,List1B,black,man,,,,,"{""Q0"":""Luke is being seduced by mike""}","<img src=""stim_listB/seduce6.gif""style=""height:400px;""></stim_listB>",is being seduced by,,,,,,
null,"<div style=""font-size:60px;"">+</div>",,html-keyboard-response,360,1930328,0.0-19.0-0.9,42806,List1B,black,man,,,,null,,,,,,,,,
null,"<img src=""stim_listB/hug8.gif""style=""height:400px;""></stim_listB>",,html-keyboard-response,361,1932335,0.0-19.0-1.9,42806,List1B,black,man,,,,null,,,,,,,,,
null,is being hugged by,,html-keyboard-response,362,1934340,0.0-19.0-2.9,42806,List1B,black,man,,,,null,,,,,,,,,
16835.3,,,survey-text,363,1951195,0.0-19.0-3.9,42806,List1B,black,man,,,,,"{""Q0"":""Jane is being hugged by kate""}","<img src=""stim_listB/hug8.gif""style=""height:400px;""></stim_listB>",is being hugged by,,,,,,
null,"<div style=""font-size:60px;"">+</div>",,html-keyboard-response,364,1951701,0.0-19.0-0.10,42806,List1B,black,man,,,,null,,,,,,,,,
null,"<img src=""stim_listB/seduce4.gif""style=""height:400px;""></stim_listB>",,html-keyboard-response,365,1953709,0.0-19.0-1.10,42806,List1B,black,man,,,,null,,,,,,,,,
null,is being seduced by,,html-keyboard-response,366,1955714,0.0-19.0-2.10,42806,List1B,black,man,,,,null,,,,,,,,,
17675.4,,,survey-text,367,1973412,0.0-19.0-3.10,42806,List1B,black,man,,,,,"{""Q0"":""Ruth is being seduced by dave""}","<img src=""stim_listB/seduce4.gif""style=""height:400px;""></stim_listB>",is being seduced by,,,,,,
null,"<div style=""font-size:60px;"">+</div>",,html-keyboard-response,368,1973919,0.0-19.0-0.11,42806,List1B,black,man,,,,null,,,,,,,,,
null,"<img src=""stim_listB/touch1.gif""style=""height:400px;""></stim_listB>",,html-keyboard-response,369,1975927,0.0-19.0-1.11,42806,List1B,black,man,,,,null,,,,,,,,,
null,is touching,,html-keyboard-response,370,1977931,0.0-19.0-2.11,42806,List1B,black,man,,,,null,,,,,,,,,
9843.8,,,survey-text,371,1987794,0.0-19.0-3.11,42806,List1B,black,man,,,,,"{""Q0"":""Mike is touching kate""}","<img src=""stim_listB/touch1.gif""style=""height:400px;""></stim_listB>",is touching,,,,,,
null,"<div style=""font-size:60px;"">+</div>",,html-keyboard-response,372,1988300,0.0-19.0-0.12,42806,List1B,black,man,,,,null,,,,,,,,,
null,"<img src=""stim_listB/oppose8.gif""style=""height:400px;""></stim_listB>",,html-keyboard-response,373,1990308,0.0-19.0-1.12,42806,List1B,black,man,,,,null,,,,,,,,,
null,is being opposed by,,html-keyboard-response,374,1992312,0.0-19.0-2.12,42806,List1B,black,man,,,,null,,,,,,,,,
14765.5,,,survey-text,375,2007099,0.0-19.0-3.12,42806,List1B,black,man,,,,,"{""Q0"":""Ruth is being opposed by beth""}","<img src=""stim_listB/oppose8.gif""style=""height:400px;""></stim_listB>",is being opposed by,,,,,,
null,"<div style=""font-size:60px;"">+</div>",,html-keyboard-response,376,2007605,0.0-19.0-0.13,42806,List1B,black,man,,,,null,,,,,,,,,
null,"<img src=""stim_listB/kiss4.gif""style=""height:400px;""></stim_listB>",,html-keyboard-response,377,2009612,0.0-19.0-1.13,42806,List1B,black,man,,,,null,,,,,,,,,
null,is being kissed by,,html-keyboard-response,378,2011616,0.0-19.0-2.13,42806,List1B,black,man,,,,null,,,,,,,,,
10347.6,,,survey-text,379,2021983,0.0-19.0-3.13,42806,List1B,black,man,,,,,"{""Q0"":""Jane is being kissed by dave""}","<img src=""stim_listB/kiss4.gif""style=""height:400px;""></stim_listB>",is being kissed by,,,,,,
null,"<div style=""font-size:60px;"">+</div>",,html-keyboard-response,380,2022488,0.0-19.0-0.14,42806,List1B,black,man,,,,null,,,,,,,,,
null,"<img src=""stim_listB/seduce5.gif""style=""height:400px;""></stim_listB>",,html-keyboard-response,381,2024494,0.0-19.0-1.14,42806,List1B,black,man,,,,null,,,,,,,,,
null,is seducing,,html-keyboard-response,382,2026499,0.0-19.0-2.14,42806,List1B,black,man,,,,null,,,,,,,,,
9756.9,,,survey-text,383,2036274,0.0-19.0-3.14,42806,List1B,black,man,,,,,"{""Q0"":""Dave is seducing fred""}","<img src=""stim_listB/seduce5.gif""style=""height:400px;""></stim_listB>",is seducing,,,,,,
null,"<div style=""font-size:60px;"">+</div>",,html-keyboard-response,384,2036780,0.0-19.0-0.15,42806,List1B,black,man,,,,null,,,,,,,,,
null,"<img src=""stim_listB/hug1.gif""style=""height:400px;""></stim_listB>",,html-keyboard-response,385,2038790,0.0-19.0-1.15,42806,List1B,black,man,,,,null,,,,,,,,,
null,is hugging,,html-keyboard-response,386,2040794,0.0-19.0-2.15,42806,List1B,black,man,,,,null,,,,,,,,,
8042.3,,,survey-text,387,2048854,0.0-19.0-3.15,42806,List1B,black,man,,,,,"{""Q0"":""Fred is hugging beth""}","<img src=""stim_listB/hug1.gif""style=""height:400px;""></stim_listB>",is hugging,,,,,,
null,"<div style=""font-size:60px;"">+</div>",,html-keyboard-response,388,2049361,0.0-19.0-0.16,42806,List1B,black,man,,,,null,,,,,,,,,
null,"<img src=""stim_listB/challenge4.gif""style=""height:400px;""></stim_listB>",,html-keyboard-response,389,2051368,0.0-19.0-1.16,42806,List1B,black,man,,,,null,,,,,,,,,
null,is being challenged by,,html-keyboard-response,390,2053381,0.0-19.0-2.16,42806,List1B,black,man,,,,null,,,,,,,,,
15041.7,,,survey-text,391,2068441,0.0-19.0-3.16,42806,List1B,black,man,,,,,"{""Q0"":""Jane is being challenged by luke""}","<img src=""stim_listB/challenge4.gif""style=""height:400px;""></stim_listB>",is being challenged by,,,,,,
null,"<div style=""font-size:60px;"">+</div>",,html-keyboard-response,392,2068946,0.0-19.0-0.17,42806,List1B,black,man,,,,null,,,,,,,,,
null,"<img src=""stim_listB/kiss7.gif""style=""height:400px;""></stim_listB>",,html-keyboard-response,393,2070955,0.0-19.0-1.17,42806,List1B,black,man,,,,null,,,,,,,,,
null,is kissing,,html-keyboard-response,394,2072962,0.0-19.0-2.17,42806,List1B,black,man,,,,null,,,,,,,,,
10645.7,,,survey-text,395,2083639,0.0-19.0-3.17,42806,List1B,black,man,,,,,"{""Q0"":""Ruth is kissing beth""}","<img src=""stim_listB/kiss7.gif""style=""height:400px;""></stim_listB>",is kissing,,,,,,
null,"<div style=""font-size:60px;"">+</div>",,html-keyboard-response,396,2084147,0.0-19.0-0.18,42806,List1B,black,man,,,,null,,,,,,,,,
null,"<img src=""stim_listB/greet6.gif""style=""height:400px;""></stim_listB>",,html-keyboard-response,397,2086163,0.0-19.0-1.18,42806,List1B,black,man,,,,null,,,,,,,,,
null,is being greeted by,,html-keyboard-response,398,2088173,0.0-19.0-2.18,42806,List1B,black,man,,,,null,,,,,,,,,
10466.5,,,survey-text,399,2098676,0.0-19.0-3.18,42806,List1B,black,man,,,,,"{""Q0"":""Fred is being greeted by dave""}","<img src=""stim_listB/greet6.gif""style=""height:400px;""></stim_listB>",is being greeted by,,,,,,
null,"<div style=""font-size:60px;"">+</div>",,html-keyboard-response,400,2099185,0.0-19.0-0.19,42806,List1B,black,man,,,,null,,,,,,,,,
null,"<img src=""stim_listB/copy3.gif""style=""height:400px;""></stim_listB>",,html-keyboard-response,401,2101197,0.0-19.0-1.19,42806,List1B,black,man,,,,null,,,,,,,,,
null,is copying,,html-keyboard-response,402,2103205,0.0-19.0-2.19,42806,List1B,black,man,,,,null,,,,,,,,,
9579.2,,,survey-text,403,2112807,0.0-19.0-3.19,42806,List1B,black,man,,,,,"{""Q0"":""Dave is copying ruth""}","<img src=""stim_listB/copy3.gif""style=""height:400px;""></stim_listB>",is copying,,,,,,
6246.8,<p>Thank you for completing that task.</p><p>The final part of this session is a questionnaire that will take about 4 minutes.</p><p>Press Continue.</p>,0,html-button-response,404,2119084,0.0-20.0,42806,List1B,black,man,,,,,,,,,,,,,
72103.3,,,survey-text,405,2192266,0.0-21.0,42806,List1B,black,man,,,,,"{""Q0"":""40"",""Q1"":""English "",""Q2"":""English"",""Q3"":""United state of america"",""Q4"":""American"",""Q5"":""African american"",""Q6"":""Male""}",,,demographics,,,,,
3653.9,<p>Have you lived in the USA for the last 5 years or more?</p>,0,html-button-response,406,2195944,0.0-22.0,42806,List1B,black,man,,,,,,,,fiveyears,,,,,
6004.1,<p>Move the slider to show the extent to which you agree with the following statements.</p>,0,html-button-response,407,2202956,0.0-23.0,42806,List1B,black,man,,,,,,,,,,,,,
7572.7,,,html-slider-response,408,2211549,0.0-24.0-0.0-0.0,42806,List1B,black,man,,,,,,,,survey_race,94,,,"The older I get, the wiser I feel.",filler
6254.4,,,html-slider-response,409,2217816,0.0-24.0-0.0-0.1,42806,List1B,black,man,,,,,,,,survey_race,88,,,People of my race have a lot in common with each other.,common
3201.5,,,html-slider-response,410,2221031,0.0-24.0-0.0-0.2,42806,List1B,black,man,,,,,,,,survey_race,91,,,I feel a bond with my race.,bond
5319.4,,,html-slider-response,411,2226362,0.0-24.0-0.0-0.3,42806,List1B,black,man,,,,,,,,survey_race,24,,,I consider myself an introvert.,filler
6853.1,,,html-slider-response,412,2233228,0.0-24.0-0.0-0.4,42806,List1B,black,man,,,,,,,,survey_race,90,,,Being my race is an important part of how I see myself.,important
4625.5,,,html-slider-response,413,2237866,0.0-24.0-0.0-0.5,42806,List1B,black,man,,,,,,,,survey_race,91,,,I think that my race has a lot to be proud of.,proud
4404.7,,,html-slider-response,414,2242286,0.0-24.0-0.0-0.6,42806,List1B,black,man,,,,,,,,survey_race,92,,,I feel a bond with people the same age as me.,filler
3681.6,,,html-slider-response,415,2245983,0.0-24.0-0.0-0.7,42806,List1B,black,man,,,,,,,,survey_race,76,,,I consider myself an extrovert.,filler
5197.8,,,html-slider-response,416,2251190,0.0-24.0-0.0-0.8,42806,List1B,black,man,,,,,,,,survey_race,87,,,I have a lot in common with the average person of my race.,average
4237.7,,,html-slider-response,417,2255438,0.0-24.0-0.0-0.9,42806,List1B,black,man,,,,,,,,survey_race,92,,,I feel solidarity with my race.,solidarity
8207.1,,,html-slider-response,418,2263659,0.0-24.0-0.0-0.10,42806,List1B,black,man,,,,,,,,survey_race,80,,,I often think about the fact that I am my age.,filler
5109,,,html-slider-response,419,2268783,0.0-24.0-0.0-0.11,42806,List1B,black,man,,,,,,,,survey_race,89,,,I often think about the fact that I am my race.,often
5210.9,,,html-slider-response,420,2274004,0.0-24.0-0.0-0.12,42806,List1B,black,man,,,,,,,,survey_race,15,,,My age is not an important part of who I am.,filler
4841.3,,,html-slider-response,421,2278857,0.0-24.0-0.0-0.13,42806,List1B,black,man,,,,,,,,survey_race,88,,,Being my race gives me a good feeling.,feeling
4239.9,,,html-slider-response,422,2283108,0.0-24.0-0.0-0.14,42806,List1B,black,man,,,,,,,,survey_race,88,,,I am similar to the average person of my race.,similar
4393.2,,,html-slider-response,423,2287514,0.0-24.0-0.0-0.15,42806,List1B,black,man,,,,,,,,survey_race,85,,,People my age have a lot in common with each other.,filler
3043.9,,,html-slider-response,424,2290571,0.0-24.0-0.0-0.16,42806,List1B,black,man,,,,,,,,survey_race,89,,,I am glad to be my age.,filler
2791.8,,,html-slider-response,425,2293373,0.0-24.0-0.0-0.17,42806,List1B,black,man,,,,,,,,survey_race,88,,,I feel committed to my race.,committed
4088.4,,,html-slider-response,426,2297471,0.0-24.0-0.0-0.18,42806,List1B,black,man,,,,,,,,survey_race,89,,,I enjoy being in large groups.,filler
3495.3,,,html-slider-response,427,2300977,0.0-24.0-0.0-0.19,42806,List1B,black,man,,,,,,,,survey_race,88,,,Getting older does not worry me.,filler
2494.7,,,html-slider-response,428,2303485,0.0-24.0-0.0-0.20,42806,List1B,black,man,,,,,,,,survey_race,86,,,I am glad to be my race.,glad
4016.8,,,html-slider-response,429,2307510,0.0-24.0-0.0-0.21,42806,List1B,black,man,,,,,,,,survey_race,85,,,I feel solidarity with people the same age as me.,filler
3758.1,,,html-slider-response,430,2311280,0.0-24.0-0.0-0.22,42806,List1B,black,man,,,,,,,,survey_race,91,,,I am glad to be the age I am.,filler
3449.5,,,html-slider-response,431,2314741,0.0-24.0-0.0-0.23,42806,List1B,black,man,,,,,,,,survey_race,92,,,Being my age gives me a good feeling.,filler
4373.6,,,html-slider-response,432,2319127,0.0-24.0-0.0-0.24,42806,List1B,black,man,,,,,,,,survey_race,88,,,I have a lot in common with people of a similar age to me.,filler
3256,,,html-slider-response,433,2322393,0.0-24.0-0.0-0.25,42806,List1B,black,man,,,,,,,,survey_race,92,,,It is pleasant to be my race.,pleasant
5811.9,,,html-slider-response,434,2328222,0.0-24.0-0.0-0.26,42806,List1B,black,man,,,,,,,,survey_race,83,,,The fact that I am my race is an important part of my identity.,identity
3885.7,,,html-slider-response,435,2332124,0.0-24.0-0.0-0.27,42806,List1B,black,man,,,,,,,,survey_race,85,,,People of my race are very similar to each other.,verysimilar
3562.2,,,html-slider-response,436,2335697,0.0-24.0-1.0-0.0,42806,List1B,black,man,,,,,,,,survey_gender,85,,,My friends understand me.,filler
4010.6,,,html-slider-response,437,2339722,0.0-24.0-1.0-0.1,42806,List1B,black,man,,,,,,,,survey_gender,90,,,People of my gender are very similar to each other.,verysimilar
3237.4,,,html-slider-response,438,2342969,0.0-24.0-1.0-0.2,42806,List1B,black,man,,,,,,,,survey_gender,89,,,People of my gender have a lot in common with each other.,common
6817.1,,,html-slider-response,439,2349796,0.0-24.0-1.0-0.3,42806,List1B,black,man,,,,,,,,survey_gender,88,,,Most of the friends in my life are very similar to me.,filler
5944.7,,,html-slider-response,440,2355755,0.0-24.0-1.0-0.4,42806,List1B,black,man,,,,,,,,survey_gender,86,,,I have a lot in common with the average person of my gender.,average
3608.2,,,html-slider-response,441,2359374,0.0-24.0-1.0-0.5,42806,List1B,black,man,,,,,,,,survey_gender,82,,,I would say I am an animal person.,filler
2784.1,,,html-slider-response,442,2362170,0.0-24.0-1.0-0.6,42806,List1B,black,man,,,,,,,,survey_gender,88,,,I feel solidarity with my friends.,filler
3598.9,,,html-slider-response,443,2365781,0.0-24.0-1.0-0.7,42806,List1B,black,man,,,,,,,,survey_gender,87,,,I often think about my actions.,filler
3416.1,,,html-slider-response,444,2369208,0.0-24.0-1.0-0.8,42806,List1B,black,man,,,,,,,,survey_gender,90,,,I have a lot in common with my friends.,filler
5749.6,,,html-slider-response,445,2374969,0.0-24.0-1.0-0.9,42806,List1B,black,man,,,,,,,,survey_gender,90,,,Being my gender is an important part of how I see myself.,important
5349.6,,,html-slider-response,446,2380328,0.0-24.0-1.0-0.10,42806,List1B,black,man,,,,,,,,survey_gender,87,,,I consider myself a highly empathetic person.,filler
4458.5,,,html-slider-response,447,2384797,0.0-24.0-1.0-0.11,42806,List1B,black,man,,,,,,,,survey_gender,83,,,I think that my gender has a lot to be proud of.,proud
4511.9,,,html-slider-response,448,2389319,0.0-24.0-1.0-0.12,42806,List1B,black,man,,,,,,,,survey_gender,87,,,My friends have a lot in common with each other.,filler
4284,,,html-slider-response,449,2393613,0.0-24.0-1.0-0.13,42806,List1B,black,man,,,,,,,,survey_gender,85,,,The fact that I am my gender is an important part of my identity.,identity
3265.3,,,html-slider-response,450,2396892,0.0-24.0-1.0-0.14,42806,List1B,black,man,,,,,,,,survey_gender,87,,,Being my gender gives me a good feeling.,feeling
3058.8,,,html-slider-response,451,2399965,0.0-24.0-1.0-0.15,42806,List1B,black,man,,,,,,,,survey_gender,89,,,I am glad to be my gender.,glad
5401.5,,,html-slider-response,452,2405375,0.0-24.0-1.0-0.16,42806,List1B,black,man,,,,,,,,survey_gender,90,,,It is pleasant to be my gender.,pleasant
3978.1,,,html-slider-response,453,2409365,0.0-24.0-1.0-0.17,42806,List1B,black,man,,,,,,,,survey_gender,89,,,Being around my friends gives me a good feeling.,filler
3492.3,,,html-slider-response,454,2412867,0.0-24.0-1.0-0.18,42806,List1B,black,man,,,,,,,,survey_gender,89,,,I am similar to the average person of my gender.,similar
6158.4,,,html-slider-response,455,2419036,0.0-24.0-1.0-0.19,42806,List1B,black,man,,,,,,,,survey_gender,78,,,Routine is not important to me.,filler
2928.4,,,html-slider-response,456,2421976,0.0-24.0-1.0-0.20,42806,List1B,black,man,,,,,,,,survey_gender,88,,,I feel committed to my gender.,committed
2516.9,,,html-slider-response,457,2424503,0.0-24.0-1.0-0.21,42806,List1B,black,man,,,,,,,,survey_gender,89,,,I feel solidarity with my gender.,solidarity
9325,,,html-slider-response,458,2433836,0.0-24.0-1.0-0.22,42806,List1B,black,man,,,,,,,,survey_gender,11,,,I often think about the fact that I am my gender.,often
7077.6,,,html-slider-response,459,2440926,0.0-24.0-1.0-0.23,42806,List1B,black,man,,,,,,,,survey_gender,15,,,Family is not more important to me than friendship.,filler
10804,,,html-slider-response,460,2451741,0.0-24.0-1.0-0.24,42806,List1B,black,man,,,,,,,,survey_gender,83,,,It is not always easy for people to know what I am thinking.,filler
2730.1,,,html-slider-response,461,2454484,0.0-24.0-1.0-0.25,42806,List1B,black,man,,,,,,,,survey_gender,84,,,I am glad to have the friends that I have.,filler
2412.8,,,html-slider-response,462,2456911,0.0-24.0-1.0-0.26,42806,List1B,black,man,,,,,,,,survey_gender,85,,,I feel a bond with my gender.,bond
2922.6,,,html-slider-response,463,2459844,0.0-24.0-1.0-0.27,42806,List1B,black,man,,,,,,,,survey_gender,91,,,I feel a bond with my friends.,filler
23080.3,,,survey-text,464,2482951,0.0-25.0,42806,List1B,black,man,,,,,"{""Q0"":""ccc""}",,,worker_id,,,,,
12733,,,external-html,465,2503215,0.0-26.0,42806,List1B,black,man,debrief.html,,,,,,,,,,,,
