rt,stimulus,button_pressed,trial_type,trial_index,time_elapsed,internal_node_id,subject,list,ppt_race,ppt_gender,url,first_guess,correct,key_press,responses,image_type,phrase_type,test_part,response,stimulus1,stimulus2,question_type,survey_item
1900.87,Welcome to the experiment. Press Continue to begin.,0,html-button-response,0,1908,0.0-0.0,4311,List1A,white,woman,,,,,,,,,,,,,
50808.85,,,external-html,1,53977,0.0-1.0,4311,List1A,white,woman,consent.html,,,,,,,,,,,,
13881.535,"<p>On the next page, you will see portraits of 8 people and their names.</p><p>Your first task is to take a few minutes to memorise the names of these people.</p><p>You will have to recall their names during the rest of the experiment, so it is</p><p>essential that you try to memorise these people and their names as best as you can.</p><br><p><strong>You will then be tested on your memory of these names and portraits.</strong></p><br><p>The experiment will start after you have completed this memory test.</p><br><p>Ready?</p>",0,html-button-response,2,67863,0.0-2.0,4311,List1A,white,woman,,,,,,,,,,,,,
35655.685,"<img src='img/portrait_matrix_list1.jpg' style='width:900px;height:500px;''></img><p>If you have memorised all the portraits and names and are ready to start, press Continue.</p><p><strong>Please note: Your memory of these faces will be tested 4 times during this experiment.</strong></p>",0,html-button-response,3,104531,0.0-3.0-0.0,4311,List1A,white,woman,,,,,,,,,,,,,
3965.21,"<img src=""portrait/WW2.jpg""style=""height:400px;""></img>",1,html-button-response,4,109511,0.0-3.0-1.0,4311,List1A,white,woman,,TRUE,3,,,,,,,,,,
4706.945,"<img src=""portrait/WW2.jpg""style=""height:400px;""></img>",3,html-button-response,5,115242,0.0-3.0-3.0-0.0,4311,List1A,white,woman,,FALSE,3,,,,,,,,,,
null,CORRECT,,html-keyboard-response,6,116773,0.0-3.0-3.0-1.0-0.0,4311,List1A,white,woman,,,,null,,,,,,,,,
2530.425,"<img src=""portrait/WM2.jpg""style=""height:400px;""></img>",4,html-button-response,7,119322,0.0-3.0-4.0,4311,List1A,white,woman,,TRUE,7,,,,,,,,,,
2666.39,"<img src=""portrait/WM2.jpg""style=""height:400px;""></img>",7,html-button-response,8,123007,0.0-3.0-6.0-0.0,4311,List1A,white,woman,,FALSE,7,,,,,,,,,,
null,CORRECT,,html-keyboard-response,9,124519,0.0-3.0-6.0-1.0-0.0,4311,List1A,white,woman,,,,null,,,,,,,,,
4315.97,"<img src=""portrait/BM1.jpg""style=""height:400px;""></img>",5,html-button-response,10,128846,0.0-3.0-7.0,4311,List1A,white,woman,,TRUE,4,,,,,,,,,,
1989.835,"<img src=""portrait/BM1.jpg""style=""height:400px;""></img>",4,html-button-response,11,131856,0.0-3.0-9.0-0.0,4311,List1A,white,woman,,FALSE,4,,,,,,,,,,
null,CORRECT,,html-keyboard-response,12,133358,0.0-3.0-9.0-1.0-0.0,4311,List1A,white,woman,,,,null,,,,,,,,,
3643.385,"<img src=""portrait/WM1.jpg""style=""height:400px;""></img>",5,html-button-response,13,137006,0.0-3.0-10.0,4311,List1A,white,woman,,TRUE,6,,,,,,,,,,
2684.04,"<img src=""portrait/WM1.jpg""style=""height:400px;""></img>",6,html-button-response,14,140706,0.0-3.0-12.0-0.0,4311,List1A,white,woman,,FALSE,6,,,,,,,,,,
null,CORRECT,,html-keyboard-response,15,142210,0.0-3.0-12.0-1.0-0.0,4311,List1A,white,woman,,,,null,,,,,,,,,
5382.92,"<img src=""portrait/BM2.jpg""style=""height:400px;""></img>",5,html-button-response,16,147603,0.0-3.0-13.0,4311,List1A,white,woman,,TRUE,5,,,,,,,,,,
null,CORRECT,,html-keyboard-response,17,149113,0.0-3.0-14.0-0.0,4311,List1A,white,woman,,,,null,,,,,,,,,
6710.27,"<img src=""portrait/BW2.jpg""style=""height:400px;""></img>",2,html-button-response,18,155827,0.0-3.0-16.0,4311,List1A,white,woman,,TRUE,2,,,,,,,,,,
null,CORRECT,,html-keyboard-response,19,157333,0.0-3.0-17.0-0.0,4311,List1A,white,woman,,,,null,,,,,,,,,
7667.485,"<img src=""portrait/WW1.jpg""style=""height:400px;""></img>",1,html-button-response,20,165008,0.0-3.0-19.0,4311,List1A,white,woman,,TRUE,1,,,,,,,,,,
null,CORRECT,,html-keyboard-response,21,166513,0.0-3.0-20.0-0.0,4311,List1A,white,woman,,,,null,,,,,,,,,
3753.195,"<img src=""portrait/BW1.jpg""style=""height:400px;""></img>",0,html-button-response,22,170274,0.0-3.0-22.0,4311,List1A,white,woman,,TRUE,0,,,,,,,,,,
null,CORRECT,,html-keyboard-response,23,171776,0.0-3.0-23.0-0.0,4311,List1A,white,woman,,,,null,,,,,,,,,
1939.5,<p>You got 4 out of 8 right first time. Press Continue.</p>,0,html-button-response,24,173720,0.0-3.0-25.0,4311,List1A,white,woman,,,,,,,,,,,,,
3605.325,"As you did not score 100%, the memory game will repeat. Press Continue.",0,html-button-response,25,178333,0.0-3.0-26.0-0.0,4311,List1A,white,woman,,,,,,,,,,,,,
22890.225,"<img src='img/portrait_matrix_list1.jpg' style='width:900px;height:500px;''></img><p>If you have memorised all the portraits and names and are ready to start, press Continue.</p><p><strong>Please note: Your memory of these faces will be tested 4 times during this experiment.</strong></p>",0,html-button-response,26,202242,0.0-3.1-0.1,4311,List1A,white,woman,,,,,,,,,,,,,
3617.975,"<img src=""portrait/WW2.jpg""style=""height:400px;""></img>",3,html-button-response,27,206875,0.0-3.1-1.1,4311,List1A,white,woman,,TRUE,3,,,,,,,,,,
null,CORRECT,,html-keyboard-response,28,208380,0.0-3.1-2.1-0.1,4311,List1A,white,woman,,,,null,,,,,,,,,
10126.435,"<img src=""portrait/WM2.jpg""style=""height:400px;""></img>",4,html-button-response,29,218510,0.0-3.1-4.1,4311,List1A,white,woman,,TRUE,7,,,,,,,,,,
2763.805,"<img src=""portrait/WM2.jpg""style=""height:400px;""></img>",7,html-button-response,30,222293,0.0-3.1-6.1-0.1,4311,List1A,white,woman,,FALSE,7,,,,,,,,,,
null,CORRECT,,html-keyboard-response,31,223801,0.0-3.1-6.1-1.1-0.1,4311,List1A,white,woman,,,,null,,,,,,,,,
4049.565,"<img src=""portrait/BM1.jpg""style=""height:400px;""></img>",4,html-button-response,32,227855,0.0-3.1-7.1,4311,List1A,white,woman,,TRUE,4,,,,,,,,,,
null,CORRECT,,html-keyboard-response,33,229357,0.0-3.1-8.1-0.1,4311,List1A,white,woman,,,,null,,,,,,,,,
4604.575,"<img src=""portrait/WM1.jpg""style=""height:400px;""></img>",6,html-button-response,34,233966,0.0-3.1-10.1,4311,List1A,white,woman,,TRUE,6,,,,,,,,,,
null,CORRECT,,html-keyboard-response,35,235481,0.0-3.1-11.1-0.1,4311,List1A,white,woman,,,,null,,,,,,,,,
1788.955,"<img src=""portrait/BM2.jpg""style=""height:400px;""></img>",5,html-button-response,36,237277,0.0-3.1-13.1,4311,List1A,white,woman,,TRUE,5,,,,,,,,,,
null,CORRECT,,html-keyboard-response,37,238785,0.0-3.1-14.1-0.1,4311,List1A,white,woman,,,,null,,,,,,,,,
3465.095,"<img src=""portrait/BW2.jpg""style=""height:400px;""></img>",2,html-button-response,38,242258,0.0-3.1-16.1,4311,List1A,white,woman,,TRUE,2,,,,,,,,,,
null,CORRECT,,html-keyboard-response,39,243769,0.0-3.1-17.1-0.1,4311,List1A,white,woman,,,,null,,,,,,,,,
4084.195,"<img src=""portrait/WW1.jpg""style=""height:400px;""></img>",1,html-button-response,40,247862,0.0-3.1-19.1,4311,List1A,white,woman,,TRUE,1,,,,,,,,,,
null,CORRECT,,html-keyboard-response,41,249375,0.0-3.1-20.1-0.1,4311,List1A,white,woman,,,,null,,,,,,,,,
1456.195,"<img src=""portrait/BW1.jpg""style=""height:400px;""></img>",0,html-button-response,42,250845,0.0-3.1-22.1,4311,List1A,white,woman,,TRUE,0,,,,,,,,,,
null,CORRECT,,html-keyboard-response,43,252357,0.0-3.1-23.1-0.1,4311,List1A,white,woman,,,,null,,,,,,,,,
1365.94,<p>You got 7 out of 8 right first time. Press Continue.</p>,0,html-button-response,44,253729,0.0-3.1-25.1,4311,List1A,white,woman,,,,,,,,,,,,,
838.225,"As you did not score 100%, the memory game will repeat. Press Continue.",0,html-button-response,45,255581,0.0-3.1-26.1-0.1,4311,List1A,white,woman,,,,,,,,,,,,,
5698.55,"<img src='img/portrait_matrix_list1.jpg' style='width:900px;height:500px;''></img><p>If you have memorised all the portraits and names and are ready to start, press Continue.</p><p><strong>Please note: Your memory of these faces will be tested 4 times during this experiment.</strong></p>",0,html-button-response,46,262293,0.0-3.2-0.2,4311,List1A,white,woman,,,,,,,,,,,,,
9496.75,"<img src=""portrait/WW2.jpg""style=""height:400px;""></img>",3,html-button-response,47,272807,0.0-3.2-1.2,4311,List1A,white,woman,,TRUE,3,,,,,,,,,,
null,CORRECT,,html-keyboard-response,48,274319,0.0-3.2-2.2-0.2,4311,List1A,white,woman,,,,null,,,,,,,,,
2106.67,"<img src=""portrait/WM2.jpg""style=""height:400px;""></img>",7,html-button-response,49,276437,0.0-3.2-4.2,4311,List1A,white,woman,,TRUE,7,,,,,,,,,,
null,CORRECT,,html-keyboard-response,50,277949,0.0-3.2-5.2-0.2,4311,List1A,white,woman,,,,null,,,,,,,,,
9995.795,"<img src=""portrait/BM1.jpg""style=""height:400px;""></img>",4,html-button-response,51,287953,0.0-3.2-7.2,4311,List1A,white,woman,,TRUE,4,,,,,,,,,,
null,CORRECT,,html-keyboard-response,52,289463,0.0-3.2-8.2-0.2,4311,List1A,white,woman,,,,null,,,,,,,,,
3718.18,"<img src=""portrait/WM1.jpg""style=""height:400px;""></img>",6,html-button-response,53,293217,0.0-3.2-10.2,4311,List1A,white,woman,,TRUE,6,,,,,,,,,,
null,CORRECT,,html-keyboard-response,54,294722,0.0-3.2-11.2-0.2,4311,List1A,white,woman,,,,null,,,,,,,,,
1926.87,"<img src=""portrait/BM2.jpg""style=""height:400px;""></img>",5,html-button-response,55,296661,0.0-3.2-13.2,4311,List1A,white,woman,,TRUE,5,,,,,,,,,,
null,CORRECT,,html-keyboard-response,56,298171,0.0-3.2-14.2-0.2,4311,List1A,white,woman,,,,null,,,,,,,,,
2408.94,"<img src=""portrait/BW2.jpg""style=""height:400px;""></img>",2,html-button-response,57,300583,0.0-3.2-16.2,4311,List1A,white,woman,,TRUE,2,,,,,,,,,,
null,CORRECT,,html-keyboard-response,58,302090,0.0-3.2-17.2-0.2,4311,List1A,white,woman,,,,null,,,,,,,,,
5127.03,"<img src=""portrait/WW1.jpg""style=""height:400px;""></img>",1,html-button-response,59,307221,0.0-3.2-19.2,4311,List1A,white,woman,,TRUE,1,,,,,,,,,,
null,CORRECT,,html-keyboard-response,60,308735,0.0-3.2-20.2-0.2,4311,List1A,white,woman,,,,null,,,,,,,,,
9252.385,"<img src=""portrait/BW1.jpg""style=""height:400px;""></img>",2,html-button-response,61,317997,0.0-3.2-22.2,4311,List1A,white,woman,,TRUE,0,,,,,,,,,,
2486.775,"<img src=""portrait/BW1.jpg""style=""height:400px;""></img>",0,html-button-response,62,321494,0.0-3.2-24.2-0.2,4311,List1A,white,woman,,FALSE,0,,,,,,,,,,
null,CORRECT,,html-keyboard-response,63,322997,0.0-3.2-24.2-1.2-0.2,4311,List1A,white,woman,,,,null,,,,,,,,,
1272.755,<p>You got 7 out of 8 right first time. Press Continue.</p>,0,html-button-response,64,324275,0.0-3.2-25.2,4311,List1A,white,woman,,,,,,,,,,,,,
883.63,"As you did not score 100%, the memory game will repeat. Press Continue.",0,html-button-response,65,326169,0.0-3.2-26.2-0.2,4311,List1A,white,woman,,,,,,,,,,,,,
4524.585,"<img src='img/portrait_matrix_list1.jpg' style='width:900px;height:500px;''></img><p>If you have memorised all the portraits and names and are ready to start, press Continue.</p><p><strong>Please note: Your memory of these faces will be tested 4 times during this experiment.</strong></p>",0,html-button-response,66,331698,0.0-3.3-0.3,4311,List1A,white,woman,,,,,,,,,,,,,
6150.57,"<img src=""portrait/WW2.jpg""style=""height:400px;""></img>",3,html-button-response,67,338854,0.0-3.3-1.3,4311,List1A,white,woman,,TRUE,3,,,,,,,,,,
null,CORRECT,,html-keyboard-response,68,340363,0.0-3.3-2.3-0.3,4311,List1A,white,woman,,,,null,,,,,,,,,
1965.97,"<img src=""portrait/WM2.jpg""style=""height:400px;""></img>",7,html-button-response,69,342335,0.0-3.3-4.3,4311,List1A,white,woman,,TRUE,7,,,,,,,,,,
null,CORRECT,,html-keyboard-response,70,343848,0.0-3.3-5.3-0.3,4311,List1A,white,woman,,,,null,,,,,,,,,
6257.845,"<img src=""portrait/BM1.jpg""style=""height:400px;""></img>",6,html-button-response,71,350117,0.0-3.3-7.3,4311,List1A,white,woman,,TRUE,4,,,,,,,,,,
1625.94,"<img src=""portrait/BM1.jpg""style=""height:400px;""></img>",4,html-button-response,72,352749,0.0-3.3-9.3-0.3,4311,List1A,white,woman,,FALSE,4,,,,,,,,,,
null,CORRECT,,html-keyboard-response,73,354255,0.0-3.3-9.3-1.3-0.3,4311,List1A,white,woman,,,,null,,,,,,,,,
9075.98,"<img src=""portrait/WM1.jpg""style=""height:400px;""></img>",6,html-button-response,74,363335,0.0-3.3-10.3,4311,List1A,white,woman,,TRUE,6,,,,,,,,,,
null,CORRECT,,html-keyboard-response,75,364850,0.0-3.3-11.3-0.3,4311,List1A,white,woman,,,,null,,,,,,,,,
1680.435,"<img src=""portrait/BM2.jpg""style=""height:400px;""></img>",5,html-button-response,76,366544,0.0-3.3-13.3,4311,List1A,white,woman,,TRUE,5,,,,,,,,,,
null,CORRECT,,html-keyboard-response,77,368047,0.0-3.3-14.3-0.3,4311,List1A,white,woman,,,,null,,,,,,,,,
3733.68,"<img src=""portrait/BW2.jpg""style=""height:400px;""></img>",2,html-button-response,78,371791,0.0-3.3-16.3,4311,List1A,white,woman,,TRUE,2,,,,,,,,,,
null,CORRECT,,html-keyboard-response,79,373294,0.0-3.3-17.3-0.3,4311,List1A,white,woman,,,,null,,,,,,,,,
3221.57,"<img src=""portrait/WW1.jpg""style=""height:400px;""></img>",1,html-button-response,80,376519,0.0-3.3-19.3,4311,List1A,white,woman,,TRUE,1,,,,,,,,,,
null,CORRECT,,html-keyboard-response,81,378030,0.0-3.3-20.3-0.3,4311,List1A,white,woman,,,,null,,,,,,,,,
1335.145,"<img src=""portrait/BW1.jpg""style=""height:400px;""></img>",0,html-button-response,82,379369,0.0-3.3-22.3,4311,List1A,white,woman,,TRUE,0,,,,,,,,,,
null,CORRECT,,html-keyboard-response,83,380874,0.0-3.3-23.3-0.3,4311,List1A,white,woman,,,,null,,,,,,,,,
1848.91,<p>You got 7 out of 8 right first time. Press Continue.</p>,0,html-button-response,84,382736,0.0-3.3-25.3,4311,List1A,white,woman,,,,,,,,,,,,,
2349.985,"As you did not score 100%, the memory game will repeat. Press Continue.",0,html-button-response,85,386094,0.0-3.3-26.3-0.3,4311,List1A,white,woman,,,,,,,,,,,,,
7300.325,"<img src='img/portrait_matrix_list1.jpg' style='width:900px;height:500px;''></img><p>If you have memorised all the portraits and names and are ready to start, press Continue.</p><p><strong>Please note: Your memory of these faces will be tested 4 times during this experiment.</strong></p>",0,html-button-response,86,394400,0.0-3.4-0.4,4311,List1A,white,woman,,,,,,,,,,,,,
4008.32,"<img src=""portrait/WW2.jpg""style=""height:400px;""></img>",3,html-button-response,87,399420,0.0-3.4-1.4,4311,List1A,white,woman,,TRUE,3,,,,,,,,,,
null,CORRECT,,html-keyboard-response,88,400937,0.0-3.4-2.4-0.4,4311,List1A,white,woman,,,,null,,,,,,,,,
2328.535,"<img src=""portrait/WM2.jpg""style=""height:400px;""></img>",7,html-button-response,89,403273,0.0-3.4-4.4,4311,List1A,white,woman,,TRUE,7,,,,,,,,,,
null,CORRECT,,html-keyboard-response,90,404784,0.0-3.4-5.4-0.4,4311,List1A,white,woman,,,,null,,,,,,,,,
1875.485,"<img src=""portrait/BM1.jpg""style=""height:400px;""></img>",4,html-button-response,91,406675,0.0-3.4-7.4,4311,List1A,white,woman,,TRUE,4,,,,,,,,,,
null,CORRECT,,html-keyboard-response,92,408189,0.0-3.4-8.4-0.4,4311,List1A,white,woman,,,,null,,,,,,,,,
2217.665,"<img src=""portrait/WM1.jpg""style=""height:400px;""></img>",6,html-button-response,93,410415,0.0-3.4-10.4,4311,List1A,white,woman,,TRUE,6,,,,,,,,,,
null,CORRECT,,html-keyboard-response,94,411925,0.0-3.4-11.4-0.4,4311,List1A,white,woman,,,,null,,,,,,,,,
1360.725,"<img src=""portrait/BM2.jpg""style=""height:400px;""></img>",5,html-button-response,95,413290,0.0-3.4-13.4,4311,List1A,white,woman,,TRUE,5,,,,,,,,,,
null,CORRECT,,html-keyboard-response,96,414802,0.0-3.4-14.4-0.4,4311,List1A,white,woman,,,,null,,,,,,,,,
2442.185,"<img src=""portrait/BW2.jpg""style=""height:400px;""></img>",2,html-button-response,97,417256,0.0-3.4-16.4,4311,List1A,white,woman,,TRUE,2,,,,,,,,,,
null,CORRECT,,html-keyboard-response,98,418766,0.0-3.4-17.4-0.4,4311,List1A,white,woman,,,,null,,,,,,,,,
3513.17,"<img src=""portrait/WW1.jpg""style=""height:400px;""></img>",1,html-button-response,99,422290,0.0-3.4-19.4,4311,List1A,white,woman,,TRUE,1,,,,,,,,,,
null,CORRECT,,html-keyboard-response,100,423803,0.0-3.4-20.4-0.4,4311,List1A,white,woman,,,,null,,,,,,,,,
1866.24,"<img src=""portrait/BW1.jpg""style=""height:400px;""></img>",0,html-button-response,101,425680,0.0-3.4-22.4,4311,List1A,white,woman,,TRUE,0,,,,,,,,,,
null,CORRECT,,html-keyboard-response,102,427195,0.0-3.4-23.4-0.4,4311,List1A,white,woman,,,,null,,,,,,,,,
3050,<p>You got 8 out of 8 right first time. Press Continue.</p>,0,html-button-response,103,430254,0.0-3.4-25.4,4311,List1A,white,woman,,,,,,,,,,,,,
28332.575,"<p>In this experiment, you will view photographs of the people from the memory game interacting.</p><p>By using the <strong>exact</strong> phrase given <i>after</i> the photograph appears and recalling the correct names of the people in the photographs, form a sentence describing the interaction. You do not need to capitalise names.</p><p>Type your answer in the space provided. Please complete every sentence before moving onto the next trial.</p><p>You will only have a few seconds to memorise each given photograph and phrase before you can respond, so try your best to focus.</p><p>An example is given below. Press 'Continue' when you are ready.</p><img src='img/speaking_example.jpg' style='width:800px;height:460px;''></img>",0,html-button-response,104,459599,0.0-4.0,4311,List1A,white,woman,,,,,,,,,,,,,
1875.65,"<p>Before the experiment starts, you will watch two example trials. Press 'Continue'.</p>",0,html-button-response,105,462486,0.0-5.0,4311,List1A,white,woman,,,,,,,,,,,,,
null,<img src='img/play_eg.gif' style='height:400px;''></img>,,html-keyboard-response,106,465492,0.0-6.0,4311,List1A,white,woman,,,,null,,,,,,,,,
null,<p>is playing with</p>,,html-keyboard-response,107,467499,0.0-7.0,4311,List1A,white,woman,,,,null,,,,,,,,,
1717.345,<p><b>Answer:</b> kate is playing with beth</p>,0,html-button-response,108,469224,0.0-8.0,4311,List1A,white,woman,,,,,,,,,,,,,
null,<img src='img/dance_eg.gif' style='height:400px;''></img>,,html-keyboard-response,109,472229,0.0-9.0,4311,List1A,white,woman,,,,null,,,,,,,,,
null,<p>is being entertained by</p>,,html-keyboard-response,110,474237,0.0-10.0,4311,List1A,white,woman,,,,null,,,,,,,,,
4070.26,<p><b>Answer:</b> luke is being entertained by dave</p>,0,html-button-response,111,478313,0.0-11.0,4311,List1A,white,woman,,,,,,,,,,,,,
6817.86,"<p>Ready to start the experiment?</p><br><p><strong>Remember to describe the picture using a full sentence,</strong></p><p><strong>that combines the names of the people with the <i>exact</i> phrase given.</strong></p><p><strong>To receive full payment you must do this correctly.</strong></p><p><strong> You do not need to capitalise names or use punctuation.</strong></p><br><p>Press 'Continue' to begin.</p>",0,html-button-response,112,486140,0.0-12.0,4311,List1A,white,woman,,,,,,,,,,,,,
null,"<div style=""font-size:60px;"">+</div>",,html-keyboard-response,113,487645,0.0-13.0-0.0,4311,List1A,white,woman,,,,null,,,,,,,,,
null,"<img src=""stim_listA/greet4.gif""style=""height:400px;""></stim_listA>",,html-keyboard-response,114,489665,0.0-13.0-1.0,4311,List1A,white,woman,,,,null,,,,,,,,,
null,is being greeted by,,html-keyboard-response,115,491672,0.0-13.0-2.0,4311,List1A,white,woman,,,,null,,,,,,,,,
28047.655,,,survey-text,116,519735,0.0-13.0-3.0,4311,List1A,white,woman,,,,,"{""Q0"":""luke is being greeted by jane""}","<img src=""stim_listA/greet4.gif""style=""height:400px;""></stim_listA>",is being greeted by,,,,,,
null,"<div style=""font-size:60px;"">+</div>",,html-keyboard-response,117,520241,0.0-13.0-0.1,4311,List1A,white,woman,,,,null,,,,,,,,,
null,"<img src=""stim_listA/greet5.gif""style=""height:400px;""></stim_listA>",,html-keyboard-response,118,522247,0.0-13.0-1.1,4311,List1A,white,woman,,,,null,,,,,,,,,
null,is greeting,,html-keyboard-response,119,524256,0.0-13.0-2.1,4311,List1A,white,woman,,,,null,,,,,,,,,
43789.32,,,survey-text,120,568064,0.0-13.0-3.1,4311,List1A,white,woman,,,,,"{""Q0"":""mike is being greeted by luke""}","<img src=""stim_listA/greet5.gif""style=""height:400px;""></stim_listA>",is greeting,,,,,,
null,"<div style=""font-size:60px;"">+</div>",,html-keyboard-response,121,568567,0.0-13.0-0.2,4311,List1A,white,woman,,,,null,,,,,,,,,
null,"<img src=""stim_listA/hug1.gif""style=""height:400px;""></stim_listA>",,html-keyboard-response,122,570572,0.0-13.0-1.2,4311,List1A,white,woman,,,,null,,,,,,,,,
null,is hugging,,html-keyboard-response,123,572581,0.0-13.0-2.2,4311,List1A,white,woman,,,,null,,,,,,,,,
48418.965,,,survey-text,124,621011,0.0-13.0-3.2,4311,List1A,white,woman,,,,,"{""Q0"":""beth is hugging mike""}","<img src=""stim_listA/hug1.gif""style=""height:400px;""></stim_listA>",is hugging,,,,,,
null,"<div style=""font-size:60px;"">+</div>",,html-keyboard-response,125,621515,0.0-13.0-0.3,4311,List1A,white,woman,,,,null,,,,,,,,,
null,"<img src=""stim_listA/seduce8.gif""style=""height:400px;""></stim_listA>",,html-keyboard-response,126,623526,0.0-13.0-1.3,4311,List1A,white,woman,,,,null,,,,,,,,,
null,is being seduced by,,html-keyboard-response,127,625531,0.0-13.0-2.3,4311,List1A,white,woman,,,,null,,,,,,,,,
44847.695,,,survey-text,128,670393,0.0-13.0-3.3,4311,List1A,white,woman,,,,,"{""Q0"":""beth is being seduced by jane""}","<img src=""stim_listA/seduce8.gif""style=""height:400px;""></stim_listA>",is being seduced by,,,,,,
null,"<div style=""font-size:60px;"">+</div>",,html-keyboard-response,129,670899,0.0-13.0-0.4,4311,List1A,white,woman,,,,null,,,,,,,,,
null,"<img src=""stim_listA/look6.gif""style=""height:400px;""></stim_listA>",,html-keyboard-response,130,672909,0.0-13.0-1.4,4311,List1A,white,woman,,,,null,,,,,,,,,
null,is being looked at by,,html-keyboard-response,131,674915,0.0-13.0-2.4,4311,List1A,white,woman,,,,null,,,,,,,,,
15740.665,,,survey-text,132,690675,0.0-13.0-3.4,4311,List1A,white,woman,,,,,"{""Q0"":""mike was looking at dave""}","<img src=""stim_listA/look6.gif""style=""height:400px;""></stim_listA>",is being looked at by,,,,,,
null,"<div style=""font-size:60px;"">+</div>",,html-keyboard-response,133,691178,0.0-13.0-0.5,4311,List1A,white,woman,,,,null,,,,,,,,,
null,"<img src=""stim_listA/hug4.gif""style=""height:400px;""></stim_listA>",,html-keyboard-response,134,693195,0.0-13.0-1.5,4311,List1A,white,woman,,,,null,,,,,,,,,
null,is being hugged by,,html-keyboard-response,135,695203,0.0-13.0-2.5,4311,List1A,white,woman,,,,null,,,,,,,,,
8688.59,,,survey-text,136,703905,0.0-13.0-3.5,4311,List1A,white,woman,,,,,"{""Q0"":""dave is hugging jane""}","<img src=""stim_listA/hug4.gif""style=""height:400px;""></stim_listA>",is being hugged by,,,,,,
null,"<div style=""font-size:60px;"">+</div>",,html-keyboard-response,137,704410,0.0-13.0-0.6,4311,List1A,white,woman,,,,null,,,,,,,,,
null,"<img src=""stim_listA/copy1.gif""style=""height:400px;""></stim_listA>",,html-keyboard-response,138,706422,0.0-13.0-1.6,4311,List1A,white,woman,,,,null,,,,,,,,,
null,is copying,,html-keyboard-response,139,708428,0.0-13.0-2.6,4311,List1A,white,woman,,,,null,,,,,,,,,
14090.735,,,survey-text,140,722536,0.0-13.0-3.6,4311,List1A,white,woman,,,,,"{""Q0"":""beth is copying mike""}","<img src=""stim_listA/copy1.gif""style=""height:400px;""></stim_listA>",is copying,,,,,,
null,"<div style=""font-size:60px;"">+</div>",,html-keyboard-response,141,723042,0.0-13.0-0.7,4311,List1A,white,woman,,,,null,,,,,,,,,
null,"<img src=""stim_listA/hug8.gif""style=""height:400px;""></stim_listA>",,html-keyboard-response,142,725059,0.0-13.0-1.7,4311,List1A,white,woman,,,,null,,,,,,,,,
null,is being hugged by,,html-keyboard-response,143,727065,0.0-13.0-2.7,4311,List1A,white,woman,,,,null,,,,,,,,,
16735.655,,,survey-text,144,743811,0.0-13.0-3.7,4311,List1A,white,woman,,,,,"{""Q0"":""beth is hugging jane""}","<img src=""stim_listA/hug8.gif""style=""height:400px;""></stim_listA>",is being hugged by,,,,,,
null,"<div style=""font-size:60px;"">+</div>",,html-keyboard-response,145,744313,0.0-13.0-0.8,4311,List1A,white,woman,,,,null,,,,,,,,,
null,"<img src=""stim_listA/kiss3.gif""style=""height:400px;""></stim_listA>",,html-keyboard-response,146,746318,0.0-13.0-1.8,4311,List1A,white,woman,,,,null,,,,,,,,,
null,is kissing,,html-keyboard-response,147,748327,0.0-13.0-2.8,4311,List1A,white,woman,,,,null,,,,,,,,,
9485.725,,,survey-text,148,757830,0.0-13.0-3.8,4311,List1A,white,woman,,,,,"{""Q0"":""jane is kissing dave""}","<img src=""stim_listA/kiss3.gif""style=""height:400px;""></stim_listA>",is kissing,,,,,,
null,"<div style=""font-size:60px;"">+</div>",,html-keyboard-response,149,758333,0.0-13.0-0.9,4311,List1A,white,woman,,,,null,,,,,,,,,
null,"<img src=""stim_listA/challenge5.gif""style=""height:400px;""></stim_listA>",,html-keyboard-response,150,760346,0.0-13.0-1.9,4311,List1A,white,woman,,,,null,,,,,,,,,
null,is challenging,,html-keyboard-response,151,762351,0.0-13.0-2.9,4311,List1A,white,woman,,,,null,,,,,,,,,
25784.945,,,survey-text,152,788148,0.0-13.0-3.9,4311,List1A,white,woman,,,,,"{""Q0"":""mike is challenging luke""}","<img src=""stim_listA/challenge5.gif""style=""height:400px;""></stim_listA>",is challenging,,,,,,
null,"<div style=""font-size:60px;"">+</div>",,html-keyboard-response,153,788650,0.0-13.0-0.10,4311,List1A,white,woman,,,,null,,,,,,,,,
null,"<img src=""stim_listA/challenge8.gif""style=""height:400px;""></stim_listA>",,html-keyboard-response,154,790654,0.0-13.0-1.10,4311,List1A,white,woman,,,,null,,,,,,,,,
null,is being challenged by,,html-keyboard-response,155,792657,0.0-13.0-2.10,4311,List1A,white,woman,,,,null,,,,,,,,,
10642.26,,,survey-text,156,803304,0.0-13.0-3.10,4311,List1A,white,woman,,,,,"{""Q0"":""beth is being challenged by jane""}","<img src=""stim_listA/challenge8.gif""style=""height:400px;""></stim_listA>",is being challenged by,,,,,,
null,"<div style=""font-size:60px;"">+</div>",,html-keyboard-response,157,803805,0.0-13.0-0.11,4311,List1A,white,woman,,,,null,,,,,,,,,
null,"<img src=""stim_listA/shout4.gif""style=""height:400px;""></stim_listA>",,html-keyboard-response,158,805809,0.0-13.0-1.11,4311,List1A,white,woman,,,,null,,,,,,,,,
null,is being shouted at by,,html-keyboard-response,159,807815,0.0-13.0-2.11,4311,List1A,white,woman,,,,null,,,,,,,,,
20595.025,,,survey-text,160,828424,0.0-13.0-3.11,4311,List1A,white,woman,,,,,"{""Q0"":""jane is being shouted at by luke""}","<img src=""stim_listA/shout4.gif""style=""height:400px;""></stim_listA>",is being shouted at by,,,,,,
null,"<div style=""font-size:60px;"">+</div>",,html-keyboard-response,161,828928,0.0-13.0-0.12,4311,List1A,white,woman,,,,null,,,,,,,,,
null,"<img src=""stim_listA/look4.gif""style=""height:400px;""></stim_listA>",,html-keyboard-response,162,830945,0.0-13.0-1.12,4311,List1A,white,woman,,,,null,,,,,,,,,
null,is being looked at by,,html-keyboard-response,163,832950,0.0-13.0-2.12,4311,List1A,white,woman,,,,null,,,,,,,,,
9333.295,,,survey-text,164,842302,0.0-13.0-3.12,4311,List1A,white,woman,,,,,"{""Q0"":""jane is being looked at by dave""}","<img src=""stim_listA/look4.gif""style=""height:400px;""></stim_listA>",is being looked at by,,,,,,
null,"<div style=""font-size:60px;"">+</div>",,html-keyboard-response,165,842809,0.0-13.0-0.13,4311,List1A,white,woman,,,,null,,,,,,,,,
null,"<img src=""stim_listA/look3.gif""style=""height:400px;""></stim_listA>",,html-keyboard-response,166,844820,0.0-13.0-1.13,4311,List1A,white,woman,,,,null,,,,,,,,,
null,is looking at,,html-keyboard-response,167,846822,0.0-13.0-2.13,4311,List1A,white,woman,,,,null,,,,,,,,,
12685.7,,,survey-text,168,859512,0.0-13.0-3.13,4311,List1A,white,woman,,,,,"{""Q0"":""jane is looking at luke""}","<img src=""stim_listA/look3.gif""style=""height:400px;""></stim_listA>",is looking at,,,,,,
null,"<div style=""font-size:60px;"">+</div>",,html-keyboard-response,169,860016,0.0-13.0-0.14,4311,List1A,white,woman,,,,null,,,,,,,,,
null,"<img src=""stim_listA/touch6.gif""style=""height:400px;""></stim_listA>",,html-keyboard-response,170,862028,0.0-13.0-1.14,4311,List1A,white,woman,,,,null,,,,,,,,,
null,is being touched by,,html-keyboard-response,171,864033,0.0-13.0-2.14,4311,List1A,white,woman,,,,null,,,,,,,,,
12500.96,,,survey-text,172,876544,0.0-13.0-3.14,4311,List1A,white,woman,,,,,"{""Q0"":""luke is being touched by mike""}","<img src=""stim_listA/touch6.gif""style=""height:400px;""></stim_listA>",is being touched by,,,,,,
null,"<div style=""font-size:60px;"">+</div>",,html-keyboard-response,173,877048,0.0-13.0-0.15,4311,List1A,white,woman,,,,null,,,,,,,,,
null,"<img src=""stim_listA/shout2.gif""style=""height:400px;""></stim_listA>",,html-keyboard-response,174,879059,0.0-13.0-1.15,4311,List1A,white,woman,,,,null,,,,,,,,,
null,is being shouted at by,,html-keyboard-response,175,881063,0.0-13.0-2.15,4311,List1A,white,woman,,,,null,,,,,,,,,
31761.855,,,survey-text,176,912838,0.0-13.0-3.15,4311,List1A,white,woman,,,,,"{""Q0"":""beth is being shouted at by mike""}","<img src=""stim_listA/shout2.gif""style=""height:400px;""></stim_listA>",is being shouted at by,,,,,,
null,"<div style=""font-size:60px;"">+</div>",,html-keyboard-response,177,913341,0.0-13.0-0.16,4311,List1A,white,woman,,,,null,,,,,,,,,
null,"<img src=""stim_listA/kiss2.gif""style=""height:400px;""></stim_listA>",,html-keyboard-response,178,915349,0.0-13.0-1.16,4311,List1A,white,woman,,,,null,,,,,,,,,
null,is being kissed by,,html-keyboard-response,179,917357,0.0-13.0-2.16,4311,List1A,white,woman,,,,null,,,,,,,,,
20324.315,,,survey-text,180,937690,0.0-13.0-3.16,4311,List1A,white,woman,,,,,"{""Q0"":""mike is being kissed by beth""}","<img src=""stim_listA/kiss2.gif""style=""height:400px;""></stim_listA>",is being kissed by,,,,,,
null,"<div style=""font-size:60px;"">+</div>",,html-keyboard-response,181,938192,0.0-13.0-0.17,4311,List1A,white,woman,,,,null,,,,,,,,,
null,"<img src=""stim_listA/oppose8.gif""style=""height:400px;""></stim_listA>",,html-keyboard-response,182,940198,0.0-13.0-1.17,4311,List1A,white,woman,,,,null,,,,,,,,,
null,is being opposed by,,html-keyboard-response,183,942204,0.0-13.0-2.17,4311,List1A,white,woman,,,,null,,,,,,,,,
13749.795,,,survey-text,184,955965,0.0-13.0-3.17,4311,List1A,white,woman,,,,,"{""Q0"":""beth is being opposed by jane""}","<img src=""stim_listA/oppose8.gif""style=""height:400px;""></stim_listA>",is being opposed by,,,,,,
null,"<div style=""font-size:60px;"">+</div>",,html-keyboard-response,185,956469,0.0-13.0-0.18,4311,List1A,white,woman,,,,null,,,,,,,,,
null,"<img src=""stim_listA/greet7.gif""style=""height:400px;""></stim_listA>",,html-keyboard-response,186,958485,0.0-13.0-1.18,4311,List1A,white,woman,,,,null,,,,,,,,,
null,is greeting,,html-keyboard-response,187,960491,0.0-13.0-2.18,4311,List1A,white,woman,,,,null,,,,,,,,,
10413.73,,,survey-text,188,970917,0.0-13.0-3.18,4311,List1A,white,woman,,,,,"{""Q0"":""beth is greeting jane""}","<img src=""stim_listA/greet7.gif""style=""height:400px;""></stim_listA>",is greeting,,,,,,
null,"<div style=""font-size:60px;"">+</div>",,html-keyboard-response,189,971422,0.0-13.0-0.19,4311,List1A,white,woman,,,,null,,,,,,,,,
null,"<img src=""stim_listA/greet2.gif""style=""height:400px;""></stim_listA>",,html-keyboard-response,190,973434,0.0-13.0-1.19,4311,List1A,white,woman,,,,null,,,,,,,,,
null,is being greeted by,,html-keyboard-response,191,975438,0.0-13.0-2.19,4311,List1A,white,woman,,,,null,,,,,,,,,
12049.055,,,survey-text,192,987493,0.0-13.0-3.19,4311,List1A,white,woman,,,,,"{""Q0"":""beth is greeting luke""}","<img src=""stim_listA/greet2.gif""style=""height:400px;""></stim_listA>",is being greeted by,,,,,,
22753.88,"<img src='img/portrait_matrix_list1.jpg' style='width:900px;height:500px;''></img><p>If you have memorised all the portraits and names and are ready to start, press Continue.</p><p><strong>Please note: Your memory of these faces will be tested 4 times during this experiment.</strong></p>",0,html-button-response,193,1010250,0.0-14.0-0.0,4311,List1A,white,woman,,,,,,,,,,,,,
7851.46,"<img src=""portrait/WM2.jpg""style=""height:400px;""></img>",7,html-button-response,194,1019107,0.0-14.0-1.0,4311,List1A,white,woman,,TRUE,7,,,,,,,,,,
null,CORRECT,,html-keyboard-response,195,1020614,0.0-14.0-2.0-0.0,4311,List1A,white,woman,,,,null,,,,,,,,,
5660.49,"<img src=""portrait/BM1.jpg""style=""height:400px;""></img>",4,html-button-response,196,1026290,0.0-14.0-4.0,4311,List1A,white,woman,,TRUE,4,,,,,,,,,,
null,CORRECT,,html-keyboard-response,197,1027804,0.0-14.0-5.0-0.0,4311,List1A,white,woman,,,,null,,,,,,,,,
1934.8,"<img src=""portrait/WW2.jpg""style=""height:400px;""></img>",3,html-button-response,198,1029754,0.0-14.0-7.0,4311,List1A,white,woman,,TRUE,3,,,,,,,,,,
null,CORRECT,,html-keyboard-response,199,1031267,0.0-14.0-8.0-0.0,4311,List1A,white,woman,,,,null,,,,,,,,,
6342.33,"<img src=""portrait/WM1.jpg""style=""height:400px;""></img>",6,html-button-response,200,1037626,0.0-14.0-10.0,4311,List1A,white,woman,,TRUE,6,,,,,,,,,,
null,CORRECT,,html-keyboard-response,201,1039129,0.0-14.0-11.0-0.0,4311,List1A,white,woman,,,,null,,,,,,,,,
2142.58,"<img src=""portrait/BW2.jpg""style=""height:400px;""></img>",2,html-button-response,202,1041276,0.0-14.0-13.0,4311,List1A,white,woman,,TRUE,2,,,,,,,,,,
null,CORRECT,,html-keyboard-response,203,1042786,0.0-14.0-14.0-0.0,4311,List1A,white,woman,,,,null,,,,,,,,,
2673.35,"<img src=""portrait/BW1.jpg""style=""height:400px;""></img>",0,html-button-response,204,1045469,0.0-14.0-16.0,4311,List1A,white,woman,,TRUE,0,,,,,,,,,,
null,CORRECT,,html-keyboard-response,205,1046983,0.0-14.0-17.0-0.0,4311,List1A,white,woman,,,,null,,,,,,,,,
2332.135,"<img src=""portrait/BM2.jpg""style=""height:400px;""></img>",5,html-button-response,206,1049319,0.0-14.0-19.0,4311,List1A,white,woman,,TRUE,5,,,,,,,,,,
null,CORRECT,,html-keyboard-response,207,1050831,0.0-14.0-20.0-0.0,4311,List1A,white,woman,,,,null,,,,,,,,,
4028.86,"<img src=""portrait/WW1.jpg""style=""height:400px;""></img>",1,html-button-response,208,1054873,0.0-14.0-22.0,4311,List1A,white,woman,,TRUE,1,,,,,,,,,,
null,CORRECT,,html-keyboard-response,209,1056388,0.0-14.0-23.0-0.0,4311,List1A,white,woman,,,,null,,,,,,,,,
1604.88,<p>You got 8 out of 8 right first time. Press Continue.</p>,0,html-button-response,210,1058012,0.0-14.0-25.0,4311,List1A,white,woman,,,,,,,,,,,,,
null,"<div style=""font-size:60px;"">+</div>",,html-keyboard-response,211,1059526,0.0-15.0-0.0,4311,List1A,white,woman,,,,null,,,,,,,,,
null,"<img src=""stim_listA/copy8.gif""style=""height:400px;""></stim_listA>",,html-keyboard-response,212,1061540,0.0-15.0-1.0,4311,List1A,white,woman,,,,null,,,,,,,,,
null,is being copied by,,html-keyboard-response,213,1063544,0.0-15.0-2.0,4311,List1A,white,woman,,,,null,,,,,,,,,
11619.31,,,survey-text,214,1075175,0.0-15.0-3.0,4311,List1A,white,woman,,,,,"{""Q0"":""beth is being copied by jane""}","<img src=""stim_listA/copy8.gif""style=""height:400px;""></stim_listA>",is being copied by,,,,,,
null,"<div style=""font-size:60px;"">+</div>",,html-keyboard-response,215,1075677,0.0-15.0-0.1,4311,List1A,white,woman,,,,null,,,,,,,,,
null,"<img src=""stim_listA/copy4.gif""style=""height:400px;""></stim_listA>",,html-keyboard-response,216,1077684,0.0-15.0-1.1,4311,List1A,white,woman,,,,null,,,,,,,,,
null,is being copied by,,html-keyboard-response,217,1079687,0.0-15.0-2.1,4311,List1A,white,woman,,,,null,,,,,,,,,
10148.555,,,survey-text,218,1089841,0.0-15.0-3.1,4311,List1A,white,woman,,,,,"{""Q0"":""jane is being copied by luke""}","<img src=""stim_listA/copy4.gif""style=""height:400px;""></stim_listA>",is being copied by,,,,,,
null,"<div style=""font-size:60px;"">+</div>",,html-keyboard-response,219,1090346,0.0-15.0-0.2,4311,List1A,white,woman,,,,null,,,,,,,,,
null,"<img src=""stim_listA/look8.gif""style=""height:400px;""></stim_listA>",,html-keyboard-response,220,1092364,0.0-15.0-1.2,4311,List1A,white,woman,,,,null,,,,,,,,,
null,is being looked at by,,html-keyboard-response,221,1094377,0.0-15.0-2.2,4311,List1A,white,woman,,,,null,,,,,,,,,
10412.205,,,survey-text,222,1104794,0.0-15.0-3.2,4311,List1A,white,woman,,,,,"{""Q0"":""jane is being looked at by kate""}","<img src=""stim_listA/look8.gif""style=""height:400px;""></stim_listA>",is being looked at by,,,,,,
null,"<div style=""font-size:60px;"">+</div>",,html-keyboard-response,223,1105296,0.0-15.0-0.3,4311,List1A,white,woman,,,,null,,,,,,,,,
null,"<img src=""stim_listA/shout7.gif""style=""height:400px;""></stim_listA>",,html-keyboard-response,224,1107299,0.0-15.0-1.3,4311,List1A,white,woman,,,,null,,,,,,,,,
null,is shouting at,,html-keyboard-response,225,1109300,0.0-15.0-2.3,4311,List1A,white,woman,,,,null,,,,,,,,,
11193.425,,,survey-text,226,1120499,0.0-15.0-3.3,4311,List1A,white,woman,,,,,"{""Q0"":""beth is shouting at jane""}","<img src=""stim_listA/shout7.gif""style=""height:400px;""></stim_listA>",is shouting at,,,,,,
null,"<div style=""font-size:60px;"">+</div>",,html-keyboard-response,227,1121003,0.0-15.0-0.4,4311,List1A,white,woman,,,,null,,,,,,,,,
null,"<img src=""stim_listA/kiss5.gif""style=""height:400px;""></stim_listA>",,html-keyboard-response,228,1123019,0.0-15.0-1.4,4311,List1A,white,woman,,,,null,,,,,,,,,
null,is kissing,,html-keyboard-response,229,1125028,0.0-15.0-2.4,4311,List1A,white,woman,,,,null,,,,,,,,,
18276.855,,,survey-text,230,1143320,0.0-15.0-3.4,4311,List1A,white,woman,,,,,"{""Q0"":""luke is kissing mike""}","<img src=""stim_listA/kiss5.gif""style=""height:400px;""></stim_listA>",is kissing,,,,,,
null,"<div style=""font-size:60px;"">+</div>",,html-keyboard-response,231,1143822,0.0-15.0-0.5,4311,List1A,white,woman,,,,null,,,,,,,,,
null,"<img src=""stim_listA/shout3.gif""style=""height:400px;""></stim_listA>",,html-keyboard-response,232,1145835,0.0-15.0-1.5,4311,List1A,white,woman,,,,null,,,,,,,,,
null,is shouting at,,html-keyboard-response,233,1147842,0.0-15.0-2.5,4311,List1A,white,woman,,,,null,,,,,,,,,
9971.67,,,survey-text,234,1157824,0.0-15.0-3.5,4311,List1A,white,woman,,,,,"{""Q0"":""jane is shouting at luke""}","<img src=""stim_listA/shout3.gif""style=""height:400px;""></stim_listA>",is shouting at,,,,,,
null,"<div style=""font-size:60px;"">+</div>",,html-keyboard-response,235,1158338,0.0-15.0-0.6,4311,List1A,white,woman,,,,null,,,,,,,,,
null,"<img src=""stim_listA/greet1.gif""style=""height:400px;""></stim_listA>",,html-keyboard-response,236,1160343,0.0-15.0-1.6,4311,List1A,white,woman,,,,null,,,,,,,,,
null,is greeting,,html-keyboard-response,237,1162348,0.0-15.0-2.6,4311,List1A,white,woman,,,,null,,,,,,,,,
7197.855,,,survey-text,238,1169551,0.0-15.0-3.6,4311,List1A,white,woman,,,,,"{""Q0"":""beth is greeting luke""}","<img src=""stim_listA/greet1.gif""style=""height:400px;""></stim_listA>",is greeting,,,,,,
null,"<div style=""font-size:60px;"">+</div>",,html-keyboard-response,239,1170054,0.0-15.0-0.7,4311,List1A,white,woman,,,,null,,,,,,,,,
null,"<img src=""stim_listA/challenge1.gif""style=""height:400px;""></stim_listA>",,html-keyboard-response,240,1172067,0.0-15.0-1.7,4311,List1A,white,woman,,,,null,,,,,,,,,
null,is challenging,,html-keyboard-response,241,1174072,0.0-15.0-2.7,4311,List1A,white,woman,,,,null,,,,,,,,,
6775.345,,,survey-text,242,1180853,0.0-15.0-3.7,4311,List1A,white,woman,,,,,"{""Q0"":""beth is challenging egg""}","<img src=""stim_listA/challenge1.gif""style=""height:400px;""></stim_listA>",is challenging,,,,,,
null,"<div style=""font-size:60px;"">+</div>",,html-keyboard-response,243,1181357,0.0-15.0-0.8,4311,List1A,white,woman,,,,null,,,,,,,,,
null,"<img src=""stim_listA/challenge7.gif""style=""height:400px;""></stim_listA>",,html-keyboard-response,244,1183371,0.0-15.0-1.8,4311,List1A,white,woman,,,,null,,,,,,,,,
null,is challenging,,html-keyboard-response,245,1185379,0.0-15.0-2.8,4311,List1A,white,woman,,,,null,,,,,,,,,
12238.795,,,survey-text,246,1197633,0.0-15.0-3.8,4311,List1A,white,woman,,,,,"{""Q0"":""kate is challenging jane""}","<img src=""stim_listA/challenge7.gif""style=""height:400px;""></stim_listA>",is challenging,,,,,,
null,"<div style=""font-size:60px;"">+</div>",,html-keyboard-response,247,1198136,0.0-15.0-0.9,4311,List1A,white,woman,,,,null,,,,,,,,,
null,"<img src=""stim_listA/copy5.gif""style=""height:400px;""></stim_listA>",,html-keyboard-response,248,1200138,0.0-15.0-1.9,4311,List1A,white,woman,,,,null,,,,,,,,,
null,is copying,,html-keyboard-response,249,1202143,0.0-15.0-2.9,4311,List1A,white,woman,,,,null,,,,,,,,,
7575.19,,,survey-text,250,1209734,0.0-15.0-3.9,4311,List1A,white,woman,,,,,"{""Q0"":""luke is copying mike""}","<img src=""stim_listA/copy5.gif""style=""height:400px;""></stim_listA>",is copying,,,,,,
null,"<div style=""font-size:60px;"">+</div>",,html-keyboard-response,251,1210236,0.0-15.0-0.10,4311,List1A,white,woman,,,,null,,,,,,,,,
null,"<img src=""stim_listA/oppose1.gif""style=""height:400px;""></stim_listA>",,html-keyboard-response,252,1212242,0.0-15.0-1.10,4311,List1A,white,woman,,,,null,,,,,,,,,
null,is opposing,,html-keyboard-response,253,1214252,0.0-15.0-2.10,4311,List1A,white,woman,,,,null,,,,,,,,,
8587.635,,,survey-text,254,1222853,0.0-15.0-3.10,4311,List1A,white,woman,,,,,"{""Q0"":""mike is opposing kate""}","<img src=""stim_listA/oppose1.gif""style=""height:400px;""></stim_listA>",is opposing,,,,,,
null,"<div style=""font-size:60px;"">+</div>",,html-keyboard-response,255,1223361,0.0-15.0-0.11,4311,List1A,white,woman,,,,null,,,,,,,,,
null,"<img src=""stim_listA/copy6.gif""style=""height:400px;""></stim_listA>",,html-keyboard-response,256,1225374,0.0-15.0-1.11,4311,List1A,white,woman,,,,null,,,,,,,,,
null,is being copied by,,html-keyboard-response,257,1227379,0.0-15.0-2.11,4311,List1A,white,woman,,,,null,,,,,,,,,
19352.8,,,survey-text,258,1246752,0.0-15.0-3.11,4311,List1A,white,woman,,,,,"{""Q0"":""luke is copying dave""}","<img src=""stim_listA/copy6.gif""style=""height:400px;""></stim_listA>",is being copied by,,,,,,
null,"<div style=""font-size:60px;"">+</div>",,html-keyboard-response,259,1247255,0.0-15.0-0.12,4311,List1A,white,woman,,,,null,,,,,,,,,
null,"<img src=""stim_listA/greet8.gif""style=""height:400px;""></stim_listA>",,html-keyboard-response,260,1249271,0.0-15.0-1.12,4311,List1A,white,woman,,,,null,,,,,,,,,
null,is being greeted by,,html-keyboard-response,261,1251276,0.0-15.0-2.12,4311,List1A,white,woman,,,,null,,,,,,,,,
10416.535,,,survey-text,262,1261698,0.0-15.0-3.12,4311,List1A,white,woman,,,,,"{""Q0"":""beth is being greeted by jane""}","<img src=""stim_listA/greet8.gif""style=""height:400px;""></stim_listA>",is being greeted by,,,,,,
null,"<div style=""font-size:60px;"">+</div>",,html-keyboard-response,263,1262201,0.0-15.0-0.13,4311,List1A,white,woman,,,,null,,,,,,,,,
null,"<img src=""stim_listA/touch3.gif""style=""height:400px;""></stim_listA>",,html-keyboard-response,264,1264213,0.0-15.0-1.13,4311,List1A,white,woman,,,,null,,,,,,,,,
null,is touching,,html-keyboard-response,265,1266220,0.0-15.0-2.13,4311,List1A,white,woman,,,,null,,,,,,,,,
7433.315,,,survey-text,266,1273664,0.0-15.0-3.13,4311,List1A,white,woman,,,,,"{""Q0"":""jane is touching dave""}","<img src=""stim_listA/touch3.gif""style=""height:400px;""></stim_listA>",is touching,,,,,,
null,"<div style=""font-size:60px;"">+</div>",,html-keyboard-response,267,1274170,0.0-15.0-0.14,4311,List1A,white,woman,,,,null,,,,,,,,,
null,"<img src=""stim_listA/kiss4.gif""style=""height:400px;""></stim_listA>",,html-keyboard-response,268,1276188,0.0-15.0-1.14,4311,List1A,white,woman,,,,null,,,,,,,,,
null,is being kissed by,,html-keyboard-response,269,1278189,0.0-15.0-2.14,4311,List1A,white,woman,,,,null,,,,,,,,,
9892.7,,,survey-text,270,1288087,0.0-15.0-3.14,4311,List1A,white,woman,,,,,"{""Q0"":""jane is being kissed by dave""}","<img src=""stim_listA/kiss4.gif""style=""height:400px;""></stim_listA>",is being kissed by,,,,,,
null,"<div style=""font-size:60px;"">+</div>",,html-keyboard-response,271,1288589,0.0-15.0-0.15,4311,List1A,white,woman,,,,null,,,,,,,,,
null,"<img src=""stim_listA/touch7.gif""style=""height:400px;""></stim_listA>",,html-keyboard-response,272,1290593,0.0-15.0-1.15,4311,List1A,white,woman,,,,null,,,,,,,,,
null,is touching,,html-keyboard-response,273,1292599,0.0-15.0-2.15,4311,List1A,white,woman,,,,null,,,,,,,,,
13548.235,,,survey-text,274,1306159,0.0-15.0-3.15,4311,List1A,white,woman,,,,,"{""Q0"":""jane is touching kate""}","<img src=""stim_listA/touch7.gif""style=""height:400px;""></stim_listA>",is touching,,,,,,
null,"<div style=""font-size:60px;"">+</div>",,html-keyboard-response,275,1306664,0.0-15.0-0.16,4311,List1A,white,woman,,,,null,,,,,,,,,
null,"<img src=""stim_listA/challenge6.gif""style=""height:400px;""></stim_listA>",,html-keyboard-response,276,1308684,0.0-15.0-1.16,4311,List1A,white,woman,,,,null,,,,,,,,,
null,is being challenged by,,html-keyboard-response,277,1310689,0.0-15.0-2.16,4311,List1A,white,woman,,,,null,,,,,,,,,
13194.225,,,survey-text,278,1323895,0.0-15.0-3.16,4311,List1A,white,woman,,,,,"{""Q0"":""luke is being challenged by dave""}","<img src=""stim_listA/challenge6.gif""style=""height:400px;""></stim_listA>",is being challenged by,,,,,,
null,"<div style=""font-size:60px;"">+</div>",,html-keyboard-response,279,1324398,0.0-15.0-0.17,4311,List1A,white,woman,,,,null,,,,,,,,,
null,"<img src=""stim_listA/hug2.gif""style=""height:400px;""></stim_listA>",,html-keyboard-response,280,1326404,0.0-15.0-1.17,4311,List1A,white,woman,,,,null,,,,,,,,,
null,is being hugged by,,html-keyboard-response,281,1328411,0.0-15.0-2.17,4311,List1A,white,woman,,,,null,,,,,,,,,
9163.285,,,survey-text,282,1337593,0.0-15.0-3.17,4311,List1A,white,woman,,,,,"{""Q0"":""kate is being hugged by mike""}","<img src=""stim_listA/hug2.gif""style=""height:400px;""></stim_listA>",is being hugged by,,,,,,
null,"<div style=""font-size:60px;"">+</div>",,html-keyboard-response,283,1338101,0.0-15.0-0.18,4311,List1A,white,woman,,,,null,,,,,,,,,
null,"<img src=""stim_listA/seduce2.gif""style=""height:400px;""></stim_listA>",,html-keyboard-response,284,1340111,0.0-15.0-1.18,4311,List1A,white,woman,,,,null,,,,,,,,,
null,is being seduced by,,html-keyboard-response,285,1342113,0.0-15.0-2.18,4311,List1A,white,woman,,,,null,,,,,,,,,
11807.67,,,survey-text,286,1353928,0.0-15.0-3.18,4311,List1A,white,woman,,,,,"{""Q0"":""beth is being seduced by mike""}","<img src=""stim_listA/seduce2.gif""style=""height:400px;""></stim_listA>",is being seduced by,,,,,,
null,"<div style=""font-size:60px;"">+</div>",,html-keyboard-response,287,1354431,0.0-15.0-0.19,4311,List1A,white,woman,,,,null,,,,,,,,,
null,"<img src=""stim_listA/copy3.gif""style=""height:400px;""></stim_listA>",,html-keyboard-response,288,1356446,0.0-15.0-1.19,4311,List1A,white,woman,,,,null,,,,,,,,,
null,is copying,,html-keyboard-response,289,1358449,0.0-15.0-2.19,4311,List1A,white,woman,,,,null,,,,,,,,,
12502.56,,,survey-text,290,1370957,0.0-15.0-3.19,4311,List1A,white,woman,,,,,"{""Q0"":""dave is copying jane""}","<img src=""stim_listA/copy3.gif""style=""height:400px;""></stim_listA>",is copying,,,,,,
30090.04,"<img src='img/portrait_matrix_list1.jpg' style='width:900px;height:500px;''></img><p>If you have memorised all the portraits and names and are ready to start, press Continue.</p><p><strong>Please note: Your memory of these faces will be tested 4 times during this experiment.</strong></p>",0,html-button-response,291,1401050,0.0-16.0-0.0,4311,List1A,white,woman,,,,,,,,,,,,,
6810.355,"<img src=""portrait/WM2.jpg""style=""height:400px;""></img>",7,html-button-response,292,1408879,0.0-16.0-1.0,4311,List1A,white,woman,,TRUE,7,,,,,,,,,,
null,CORRECT,,html-keyboard-response,293,1410385,0.0-16.0-2.0-0.0,4311,List1A,white,woman,,,,null,,,,,,,,,
3458.035,"<img src=""portrait/WW1.jpg""style=""height:400px;""></img>",1,html-button-response,294,1413852,0.0-16.0-4.0,4311,List1A,white,woman,,TRUE,1,,,,,,,,,,
null,CORRECT,,html-keyboard-response,295,1415359,0.0-16.0-5.0-0.0,4311,List1A,white,woman,,,,null,,,,,,,,,
3031.295,"<img src=""portrait/BW1.jpg""style=""height:400px;""></img>",0,html-button-response,296,1418409,0.0-16.0-7.0,4311,List1A,white,woman,,TRUE,0,,,,,,,,,,
null,CORRECT,,html-keyboard-response,297,1419916,0.0-16.0-8.0-0.0,4311,List1A,white,woman,,,,null,,,,,,,,,
4682.975,"<img src=""portrait/WM1.jpg""style=""height:400px;""></img>",6,html-button-response,298,1424617,0.0-16.0-10.0,4311,List1A,white,woman,,TRUE,6,,,,,,,,,,
null,CORRECT,,html-keyboard-response,299,1426127,0.0-16.0-11.0-0.0,4311,List1A,white,woman,,,,null,,,,,,,,,
2824.725,"<img src=""portrait/BW2.jpg""style=""height:400px;""></img>",2,html-button-response,300,1428956,0.0-16.0-13.0,4311,List1A,white,woman,,TRUE,2,,,,,,,,,,
null,CORRECT,,html-keyboard-response,301,1430467,0.0-16.0-14.0-0.0,4311,List1A,white,woman,,,,null,,,,,,,,,
1903.095,"<img src=""portrait/WW2.jpg""style=""height:400px;""></img>",3,html-button-response,302,1432387,0.0-16.0-16.0,4311,List1A,white,woman,,TRUE,3,,,,,,,,,,
null,CORRECT,,html-keyboard-response,303,1433895,0.0-16.0-17.0-0.0,4311,List1A,white,woman,,,,null,,,,,,,,,
4758.05,"<img src=""portrait/BM1.jpg""style=""height:400px;""></img>",7,html-button-response,304,1438663,0.0-16.0-19.0,4311,List1A,white,woman,,TRUE,4,,,,,,,,,,
2500.84,"<img src=""portrait/BM1.jpg""style=""height:400px;""></img>",4,html-button-response,305,1442183,0.0-16.0-21.0-0.0,4311,List1A,white,woman,,FALSE,4,,,,,,,,,,
null,CORRECT,,html-keyboard-response,306,1443697,0.0-16.0-21.0-1.0-0.0,4311,List1A,white,woman,,,,null,,,,,,,,,
2830.8,"<img src=""portrait/BM2.jpg""style=""height:400px;""></img>",5,html-button-response,307,1446538,0.0-16.0-22.0,4311,List1A,white,woman,,TRUE,5,,,,,,,,,,
null,CORRECT,,html-keyboard-response,308,1448052,0.0-16.0-23.0-0.0,4311,List1A,white,woman,,,,null,,,,,,,,,
1645.725,<p>You got 7 out of 8 right first time. Press Continue.</p>,0,html-button-response,309,1449709,0.0-16.0-25.0,4311,List1A,white,woman,,,,,,,,,,,,,
1354.775,"As you did not score 100%, the memory game will repeat. Press Continue.",0,html-button-response,310,1452072,0.0-16.0-26.0-0.0,4311,List1A,white,woman,,,,,,,,,,,,,
4511.65,"<img src='img/portrait_matrix_list1.jpg' style='width:900px;height:500px;''></img><p>If you have memorised all the portraits and names and are ready to start, press Continue.</p><p><strong>Please note: Your memory of these faces will be tested 4 times during this experiment.</strong></p>",0,html-button-response,311,1457590,0.0-16.1-0.1,4311,List1A,white,woman,,,,,,,,,,,,,
4353.245,"<img src=""portrait/WM2.jpg""style=""height:400px;""></img>",7,html-button-response,312,1462956,0.0-16.1-1.1,4311,List1A,white,woman,,TRUE,7,,,,,,,,,,
null,CORRECT,,html-keyboard-response,313,1464466,0.0-16.1-2.1-0.1,4311,List1A,white,woman,,,,null,,,,,,,,,
2105.245,"<img src=""portrait/WW1.jpg""style=""height:400px;""></img>",1,html-button-response,314,1466584,0.0-16.1-4.1,4311,List1A,white,woman,,TRUE,1,,,,,,,,,,
null,CORRECT,,html-keyboard-response,315,1468094,0.0-16.1-5.1-0.1,4311,List1A,white,woman,,,,null,,,,,,,,,
3456.735,"<img src=""portrait/BW1.jpg""style=""height:400px;""></img>",0,html-button-response,316,1471554,0.0-16.1-7.1,4311,List1A,white,woman,,TRUE,0,,,,,,,,,,
null,CORRECT,,html-keyboard-response,317,1473068,0.0-16.1-8.1-0.1,4311,List1A,white,woman,,,,null,,,,,,,,,
2952.86,"<img src=""portrait/WM1.jpg""style=""height:400px;""></img>",6,html-button-response,318,1476028,0.0-16.1-10.1,4311,List1A,white,woman,,TRUE,6,,,,,,,,,,
null,CORRECT,,html-keyboard-response,319,1477540,0.0-16.1-11.1-0.1,4311,List1A,white,woman,,,,null,,,,,,,,,
8397.905,"<img src=""portrait/BW2.jpg""style=""height:400px;""></img>",2,html-button-response,320,1485947,0.0-16.1-13.1,4311,List1A,white,woman,,TRUE,2,,,,,,,,,,
null,CORRECT,,html-keyboard-response,321,1487457,0.0-16.1-14.1-0.1,4311,List1A,white,woman,,,,null,,,,,,,,,
1515.505,"<img src=""portrait/WW2.jpg""style=""height:400px;""></img>",3,html-button-response,322,1488985,0.0-16.1-16.1,4311,List1A,white,woman,,TRUE,3,,,,,,,,,,
null,CORRECT,,html-keyboard-response,323,1490498,0.0-16.1-17.1-0.1,4311,List1A,white,woman,,,,null,,,,,,,,,
2724.06,"<img src=""portrait/BM1.jpg""style=""height:400px;""></img>",4,html-button-response,324,1493234,0.0-16.1-19.1,4311,List1A,white,woman,,TRUE,4,,,,,,,,,,
null,CORRECT,,html-keyboard-response,325,1494751,0.0-16.1-20.1-0.1,4311,List1A,white,woman,,,,null,,,,,,,,,
2079.23,"<img src=""portrait/BM2.jpg""style=""height:400px;""></img>",5,html-button-response,326,1496844,0.0-16.1-22.1,4311,List1A,white,woman,,TRUE,5,,,,,,,,,,
null,CORRECT,,html-keyboard-response,327,1498354,0.0-16.1-23.1-0.1,4311,List1A,white,woman,,,,null,,,,,,,,,
1443.24,<p>You got 8 out of 8 right first time. Press Continue.</p>,0,html-button-response,328,1499802,0.0-16.1-25.1,4311,List1A,white,woman,,,,,,,,,,,,,
null,"<div style=""font-size:60px;"">+</div>",,html-keyboard-response,329,1501323,0.0-17.0-0.0,4311,List1A,white,woman,,,,null,,,,,,,,,
null,"<img src=""stim_listA/kiss1.gif""style=""height:400px;""></stim_listA>",,html-keyboard-response,330,1503341,0.0-17.0-1.0,4311,List1A,white,woman,,,,null,,,,,,,,,
null,is kissing,,html-keyboard-response,331,1505348,0.0-17.0-2.0,4311,List1A,white,woman,,,,null,,,,,,,,,
7000.925,,,survey-text,332,1512353,0.0-17.0-3.0,4311,List1A,white,woman,,,,,"{""Q0"":""fred is kissing beth""}","<img src=""stim_listA/kiss1.gif""style=""height:400px;""></stim_listA>",is kissing,,,,,,
null,"<div style=""font-size:60px;"">+</div>",,html-keyboard-response,333,1512860,0.0-17.0-0.1,4311,List1A,white,woman,,,,null,,,,,,,,,
null,"<img src=""stim_listA/oppose3.gif""style=""height:400px;""></stim_listA>",,html-keyboard-response,334,1514875,0.0-17.0-1.1,4311,List1A,white,woman,,,,null,,,,,,,,,
null,is opposing,,html-keyboard-response,335,1516879,0.0-17.0-2.1,4311,List1A,white,woman,,,,null,,,,,,,,,
7983.295,,,survey-text,336,1524869,0.0-17.0-3.1,4311,List1A,white,woman,,,,,"{""Q0"":""jane is fighting dave""}","<img src=""stim_listA/oppose3.gif""style=""height:400px;""></stim_listA>",is opposing,,,,,,
null,"<div style=""font-size:60px;"">+</div>",,html-keyboard-response,337,1525375,0.0-17.0-0.2,4311,List1A,white,woman,,,,null,,,,,,,,,
null,"<img src=""stim_listA/kiss7.gif""style=""height:400px;""></stim_listA>",,html-keyboard-response,338,1527386,0.0-17.0-1.2,4311,List1A,white,woman,,,,null,,,,,,,,,
null,is kissing,,html-keyboard-response,339,1529395,0.0-17.0-2.2,4311,List1A,white,woman,,,,null,,,,,,,,,
6320.86,,,survey-text,340,1535729,0.0-17.0-3.2,4311,List1A,white,woman,,,,,"{""Q0"":""jane is kissing beth""}","<img src=""stim_listA/kiss7.gif""style=""height:400px;""></stim_listA>",is kissing,,,,,,
null,"<div style=""font-size:60px;"">+</div>",,html-keyboard-response,341,1536237,0.0-17.0-0.3,4311,List1A,white,woman,,,,null,,,,,,,,,
null,"<img src=""stim_listA/greet6.gif""style=""height:400px;""></stim_listA>",,html-keyboard-response,342,1538250,0.0-17.0-1.3,4311,List1A,white,woman,,,,null,,,,,,,,,
null,is being greeted by,,html-keyboard-response,343,1540258,0.0-17.0-2.3,4311,List1A,white,woman,,,,null,,,,,,,,,
10716.77,,,survey-text,344,1550988,0.0-17.0-3.3,4311,List1A,white,woman,,,,,"{""Q0"":""dave is being greeted by fred""}","<img src=""stim_listA/greet6.gif""style=""height:400px;""></stim_listA>",is being greeted by,,,,,,
null,"<div style=""font-size:60px;"">+</div>",,html-keyboard-response,345,1551490,0.0-17.0-0.4,4311,List1A,white,woman,,,,null,,,,,,,,,
null,"<img src=""stim_listA/hug5.gif""style=""height:400px;""></stim_listA>",,html-keyboard-response,346,1553494,0.0-17.0-1.4,4311,List1A,white,woman,,,,null,,,,,,,,,
null,is hugging,,html-keyboard-response,347,1555501,0.0-17.0-2.4,4311,List1A,white,woman,,,,null,,,,,,,,,
10783.94,,,survey-text,348,1566299,0.0-17.0-3.4,4311,List1A,white,woman,,,,,"{""Q0"":""fred is hugging luke""}","<img src=""stim_listA/hug5.gif""style=""height:400px;""></stim_listA>",is hugging,,,,,,
null,"<div style=""font-size:60px;"">+</div>",,html-keyboard-response,349,1566801,0.0-17.0-0.5,4311,List1A,white,woman,,,,null,,,,,,,,,
null,"<img src=""stim_listA/seduce7.gif""style=""height:400px;""></stim_listA>",,html-keyboard-response,350,1568805,0.0-17.0-1.5,4311,List1A,white,woman,,,,null,,,,,,,,,
null,is seducing,,html-keyboard-response,351,1570810,0.0-17.0-2.5,4311,List1A,white,woman,,,,null,,,,,,,,,
17049.78,,,survey-text,352,1587881,0.0-17.0-3.5,4311,List1A,white,woman,,,,,"{""Q0"":""beth is being seduced by jane""}","<img src=""stim_listA/seduce7.gif""style=""height:400px;""></stim_listA>",is seducing,,,,,,
null,"<div style=""font-size:60px;"">+</div>",,html-keyboard-response,353,1588384,0.0-17.0-0.6,4311,List1A,white,woman,,,,null,,,,,,,,,
null,"<img src=""stim_listA/shout1.gif""style=""height:400px;""></stim_listA>",,html-keyboard-response,354,1590390,0.0-17.0-1.6,4311,List1A,white,woman,,,,null,,,,,,,,,
null,is shouting at,,html-keyboard-response,355,1592394,0.0-17.0-2.6,4311,List1A,white,woman,,,,null,,,,,,,,,
7399.685,,,survey-text,356,1599806,0.0-17.0-3.6,4311,List1A,white,woman,,,,,"{""Q0"":""beth is shouting at fred""}","<img src=""stim_listA/shout1.gif""style=""height:400px;""></stim_listA>",is shouting at,,,,,,
null,"<div style=""font-size:60px;"">+</div>",,html-keyboard-response,357,1600310,0.0-17.0-0.7,4311,List1A,white,woman,,,,null,,,,,,,,,
null,"<img src=""stim_listA/seduce1.gif""style=""height:400px;""></stim_listA>",,html-keyboard-response,358,1602329,0.0-17.0-1.7,4311,List1A,white,woman,,,,null,,,,,,,,,
null,is seducing,,html-keyboard-response,359,1604337,0.0-17.0-2.7,4311,List1A,white,woman,,,,null,,,,,,,,,
14281.275,,,survey-text,360,1618635,0.0-17.0-3.7,4311,List1A,white,woman,,,,,"{""Q0"":""fred is seducing kate""}","<img src=""stim_listA/seduce1.gif""style=""height:400px;""></stim_listA>",is seducing,,,,,,
null,"<div style=""font-size:60px;"">+</div>",,html-keyboard-response,361,1619139,0.0-17.0-0.8,4311,List1A,white,woman,,,,null,,,,,,,,,
null,"<img src=""stim_listA/kiss6.gif""style=""height:400px;""></stim_listA>",,html-keyboard-response,362,1621150,0.0-17.0-1.8,4311,List1A,white,woman,,,,null,,,,,,,,,
null,is being kissed by,,html-keyboard-response,363,1623153,0.0-17.0-2.8,4311,List1A,white,woman,,,,null,,,,,,,,,
13719.44,,,survey-text,364,1636885,0.0-17.0-3.8,4311,List1A,white,woman,,,,,"{""Q0"":""dave is being kissed by mike""}","<img src=""stim_listA/kiss6.gif""style=""height:400px;""></stim_listA>",is being kissed by,,,,,,
null,"<div style=""font-size:60px;"">+</div>",,html-keyboard-response,365,1637390,0.0-17.0-0.9,4311,List1A,white,woman,,,,null,,,,,,,,,
null,"<img src=""stim_listA/seduce3.gif""style=""height:400px;""></stim_listA>",,html-keyboard-response,366,1639400,0.0-17.0-1.9,4311,List1A,white,woman,,,,null,,,,,,,,,
null,is seducing,,html-keyboard-response,367,1641407,0.0-17.0-2.9,4311,List1A,white,woman,,,,null,,,,,,,,,
8740.885,,,survey-text,368,1650153,0.0-17.0-3.9,4311,List1A,white,woman,,,,,"{""Q0"":""luke is seducing jane""}","<img src=""stim_listA/seduce3.gif""style=""height:400px;""></stim_listA>",is seducing,,,,,,
null,"<div style=""font-size:60px;"">+</div>",,html-keyboard-response,369,1650655,0.0-17.0-0.10,4311,List1A,white,woman,,,,null,,,,,,,,,
null,"<img src=""stim_listA/shout5.gif""style=""height:400px;""></stim_listA>",,html-keyboard-response,370,1652662,0.0-17.0-1.10,4311,List1A,white,woman,,,,null,,,,,,,,,
null,is shouting at,,html-keyboard-response,371,1654669,0.0-17.0-2.10,4311,List1A,white,woman,,,,null,,,,,,,,,
26862.31,,,survey-text,372,1681545,0.0-17.0-3.10,4311,List1A,white,woman,,,,,"{""Q0"":""luke is shouting at mike""}","<img src=""stim_listA/shout5.gif""style=""height:400px;""></stim_listA>",is shouting at,,,,,,
null,"<div style=""font-size:60px;"">+</div>",,html-keyboard-response,373,1682049,0.0-17.0-0.11,4311,List1A,white,woman,,,,null,,,,,,,,,
null,"<img src=""stim_listA/oppose6.gif""style=""height:400px;""></stim_listA>",,html-keyboard-response,374,1684062,0.0-17.0-1.11,4311,List1A,white,woman,,,,null,,,,,,,,,
null,is being opposed by,,html-keyboard-response,375,1686065,0.0-17.0-2.11,4311,List1A,white,woman,,,,null,,,,,,,,,
13626.915,,,survey-text,376,1699697,0.0-17.0-3.11,4311,List1A,white,woman,,,,,"{""Q0"":""mike is fighting luke""}","<img src=""stim_listA/oppose6.gif""style=""height:400px;""></stim_listA>",is being opposed by,,,,,,
null,"<div style=""font-size:60px;"">+</div>",,html-keyboard-response,377,1700199,0.0-17.0-0.12,4311,List1A,white,woman,,,,null,,,,,,,,,
null,"<img src=""stim_listA/copy2.gif""style=""height:400px;""></stim_listA>",,html-keyboard-response,378,1702202,0.0-17.0-1.12,4311,List1A,white,woman,,,,null,,,,,,,,,
null,is being copied by,,html-keyboard-response,379,1704205,0.0-17.0-2.12,4311,List1A,white,woman,,,,null,,,,,,,,,
8865.245,,,survey-text,380,1713075,0.0-17.0-3.12,4311,List1A,white,woman,,,,,"{""Q0"":""mike is seducing kate""}","<img src=""stim_listA/copy2.gif""style=""height:400px;""></stim_listA>",is being copied by,,,,,,
null,"<div style=""font-size:60px;"">+</div>",,html-keyboard-response,381,1713579,0.0-17.0-0.13,4311,List1A,white,woman,,,,null,,,,,,,,,
null,"<img src=""stim_listA/seduce4.gif""style=""height:400px;""></stim_listA>",,html-keyboard-response,382,1715597,0.0-17.0-1.13,4311,List1A,white,woman,,,,null,,,,,,,,,
null,is being seduced by,,html-keyboard-response,383,1717601,0.0-17.0-2.13,4311,List1A,white,woman,,,,null,,,,,,,,,
10521.21,,,survey-text,384,1728128,0.0-17.0-3.13,4311,List1A,white,woman,,,,,"{""Q0"":""jane is being seduced by dave""}","<img src=""stim_listA/seduce4.gif""style=""height:400px;""></stim_listA>",is being seduced by,,,,,,
null,"<div style=""font-size:60px;"">+</div>",,html-keyboard-response,385,1728630,0.0-17.0-0.14,4311,List1A,white,woman,,,,null,,,,,,,,,
null,"<img src=""stim_listA/look1.gif""style=""height:400px;""></stim_listA>",,html-keyboard-response,386,1730635,0.0-17.0-1.14,4311,List1A,white,woman,,,,null,,,,,,,,,
null,is looking at,,html-keyboard-response,387,1732643,0.0-17.0-2.14,4311,List1A,white,woman,,,,null,,,,,,,,,
16489.465,,,survey-text,388,1749149,0.0-17.0-3.14,4311,List1A,white,woman,,,,,"{""Q0"":""mike is being seduce by beth""}","<img src=""stim_listA/look1.gif""style=""height:400px;""></stim_listA>",is looking at,,,,,,
null,"<div style=""font-size:60px;"">+</div>",,html-keyboard-response,389,1749654,0.0-17.0-0.15,4311,List1A,white,woman,,,,null,,,,,,,,,
null,"<img src=""stim_listA/touch8.gif""style=""height:400px;""></stim_listA>",,html-keyboard-response,390,1751668,0.0-17.0-1.15,4311,List1A,white,woman,,,,null,,,,,,,,,
null,is being touched by,,html-keyboard-response,391,1753677,0.0-17.0-2.15,4311,List1A,white,woman,,,,null,,,,,,,,,
11331.08,,,survey-text,392,1765023,0.0-17.0-3.15,4311,List1A,white,woman,,,,,"{""Q0"":""beth is being touched by jane""}","<img src=""stim_listA/touch8.gif""style=""height:400px;""></stim_listA>",is being touched by,,,,,,
null,"<div style=""font-size:60px;"">+</div>",,html-keyboard-response,393,1765525,0.0-17.0-0.16,4311,List1A,white,woman,,,,null,,,,,,,,,
null,"<img src=""stim_listA/challenge4.gif""style=""height:400px;""></stim_listA>",,html-keyboard-response,394,1767529,0.0-17.0-1.16,4311,List1A,white,woman,,,,null,,,,,,,,,
null,is being challenged by,,html-keyboard-response,395,1769538,0.0-17.0-2.16,4311,List1A,white,woman,,,,null,,,,,,,,,
12074.53,,,survey-text,396,1781629,0.0-17.0-3.16,4311,List1A,white,woman,,,,,"{""Q0"":""jane is being challenged by luke""}","<img src=""stim_listA/challenge4.gif""style=""height:400px;""></stim_listA>",is being challenged by,,,,,,
null,"<div style=""font-size:60px;"">+</div>",,html-keyboard-response,397,1782131,0.0-17.0-0.17,4311,List1A,white,woman,,,,null,,,,,,,,,
null,"<img src=""stim_listA/look5.gif""style=""height:400px;""></stim_listA>",,html-keyboard-response,398,1784134,0.0-17.0-1.17,4311,List1A,white,woman,,,,null,,,,,,,,,
null,is looking at,,html-keyboard-response,399,1786138,0.0-17.0-2.17,4311,List1A,white,woman,,,,null,,,,,,,,,
7001.925,,,survey-text,400,1793146,0.0-17.0-3.17,4311,List1A,white,woman,,,,,"{""Q0"":""luke is looking at mike""}","<img src=""stim_listA/look5.gif""style=""height:400px;""></stim_listA>",is looking at,,,,,,
null,"<div style=""font-size:60px;"">+</div>",,html-keyboard-response,401,1793649,0.0-17.0-0.18,4311,List1A,white,woman,,,,null,,,,,,,,,
null,"<img src=""stim_listA/oppose2.gif""style=""height:400px;""></stim_listA>",,html-keyboard-response,402,1795662,0.0-17.0-1.18,4311,List1A,white,woman,,,,null,,,,,,,,,
null,is being opposed by,,html-keyboard-response,403,1797670,0.0-17.0-2.18,4311,List1A,white,woman,,,,null,,,,,,,,,
11948.805,,,survey-text,404,1809632,0.0-17.0-3.18,4311,List1A,white,woman,,,,,"{""Q0"":""mike is opposing beth""}","<img src=""stim_listA/oppose2.gif""style=""height:400px;""></stim_listA>",is being opposed by,,,,,,
null,"<div style=""font-size:60px;"">+</div>",,html-keyboard-response,405,1810137,0.0-17.0-0.19,4311,List1A,white,woman,,,,null,,,,,,,,,
null,"<img src=""stim_listA/look7.gif""style=""height:400px;""></stim_listA>",,html-keyboard-response,406,1812140,0.0-17.0-1.19,4311,List1A,white,woman,,,,null,,,,,,,,,
null,is looking at,,html-keyboard-response,407,1814141,0.0-17.0-2.19,4311,List1A,white,woman,,,,null,,,,,,,,,
7553.735,,,survey-text,408,1821700,0.0-17.0-3.19,4311,List1A,white,woman,,,,,"{""Q0"":""beth is looking at jane""}","<img src=""stim_listA/look7.gif""style=""height:400px;""></stim_listA>",is looking at,,,,,,
20021.12,"<img src='img/portrait_matrix_list1.jpg' style='width:900px;height:500px;''></img><p>If you have memorised all the portraits and names and are ready to start, press Continue.</p><p><strong>Please note: Your memory of these faces will be tested 4 times during this experiment.</strong></p>",0,html-button-response,409,1841725,0.0-18.0-0.0,4311,List1A,white,woman,,,,,,,,,,,,,
2382.59,"<img src=""portrait/WM1.jpg""style=""height:400px;""></img>",6,html-button-response,410,1845112,0.0-18.0-1.0,4311,List1A,white,woman,,TRUE,6,,,,,,,,,,
null,CORRECT,,html-keyboard-response,411,1846617,0.0-18.0-2.0-0.0,4311,List1A,white,woman,,,,null,,,,,,,,,
3508.74,"<img src=""portrait/BW1.jpg""style=""height:400px;""></img>",0,html-button-response,412,1850135,0.0-18.0-4.0,4311,List1A,white,woman,,TRUE,0,,,,,,,,,,
null,CORRECT,,html-keyboard-response,413,1851639,0.0-18.0-5.0-0.0,4311,List1A,white,woman,,,,null,,,,,,,,,
1749.64,"<img src=""portrait/WW2.jpg""style=""height:400px;""></img>",3,html-button-response,414,1853393,0.0-18.0-7.0,4311,List1A,white,woman,,TRUE,3,,,,,,,,,,
null,CORRECT,,html-keyboard-response,415,1854903,0.0-18.0-8.0-0.0,4311,List1A,white,woman,,,,null,,,,,,,,,
4754.24,"<img src=""portrait/BM1.jpg""style=""height:400px;""></img>",4,html-button-response,416,1859661,0.0-18.0-10.0,4311,List1A,white,woman,,TRUE,4,,,,,,,,,,
null,CORRECT,,html-keyboard-response,417,1861169,0.0-18.0-11.0-0.0,4311,List1A,white,woman,,,,null,,,,,,,,,
1459.735,"<img src=""portrait/BM2.jpg""style=""height:400px;""></img>",5,html-button-response,418,1862636,0.0-18.0-13.0,4311,List1A,white,woman,,TRUE,5,,,,,,,,,,
null,CORRECT,,html-keyboard-response,419,1864145,0.0-18.0-14.0-0.0,4311,List1A,white,woman,,,,null,,,,,,,,,
8340.475,"<img src=""portrait/WM2.jpg""style=""height:400px;""></img>",7,html-button-response,420,1872491,0.0-18.0-16.0,4311,List1A,white,woman,,TRUE,7,,,,,,,,,,
null,CORRECT,,html-keyboard-response,421,1873997,0.0-18.0-17.0-0.0,4311,List1A,white,woman,,,,null,,,,,,,,,
2435.7,"<img src=""portrait/WW1.jpg""style=""height:400px;""></img>",1,html-button-response,422,1876442,0.0-18.0-19.0,4311,List1A,white,woman,,TRUE,1,,,,,,,,,,
null,CORRECT,,html-keyboard-response,423,1877954,0.0-18.0-20.0-0.0,4311,List1A,white,woman,,,,null,,,,,,,,,
2611.86,"<img src=""portrait/BW2.jpg""style=""height:400px;""></img>",2,html-button-response,424,1880575,0.0-18.0-22.0,4311,List1A,white,woman,,TRUE,2,,,,,,,,,,
null,CORRECT,,html-keyboard-response,425,1882085,0.0-18.0-23.0-0.0,4311,List1A,white,woman,,,,null,,,,,,,,,
1437.965,<p>You got 8 out of 8 right first time. Press Continue.</p>,0,html-button-response,426,1883526,0.0-18.0-25.0,4311,List1A,white,woman,,,,,,,,,,,,,
null,"<div style=""font-size:60px;"">+</div>",,html-keyboard-response,427,1885045,0.0-19.0-0.0,4311,List1A,white,woman,,,,null,,,,,,,,,
null,"<img src=""stim_listA/hug6.gif""style=""height:400px;""></stim_listA>",,html-keyboard-response,428,1887057,0.0-19.0-1.0,4311,List1A,white,woman,,,,null,,,,,,,,,
null,is being hugged by,,html-keyboard-response,429,1889061,0.0-19.0-2.0,4311,List1A,white,woman,,,,null,,,,,,,,,
9129.215,,,survey-text,430,1898198,0.0-19.0-3.0,4311,List1A,white,woman,,,,,"{""Q0"":""mike is being hugged by dave""}","<img src=""stim_listA/hug6.gif""style=""height:400px;""></stim_listA>",is being hugged by,,,,,,
null,"<div style=""font-size:60px;"">+</div>",,html-keyboard-response,431,1898702,0.0-19.0-0.1,4311,List1A,white,woman,,,,null,,,,,,,,,
null,"<img src=""stim_listA/oppose4.gif""style=""height:400px;""></stim_listA>",,html-keyboard-response,432,1900713,0.0-19.0-1.1,4311,List1A,white,woman,,,,null,,,,,,,,,
null,is being opposed by,,html-keyboard-response,433,1902718,0.0-19.0-2.1,4311,List1A,white,woman,,,,null,,,,,,,,,
20202.35,,,survey-text,434,1922934,0.0-19.0-3.1,4311,List1A,white,woman,,,,,"{""Q0"":""jane is fighting with fred""}","<img src=""stim_listA/oppose4.gif""style=""height:400px;""></stim_listA>",is being opposed by,,,,,,
null,"<div style=""font-size:60px;"">+</div>",,html-keyboard-response,435,1923438,0.0-19.0-0.2,4311,List1A,white,woman,,,,null,,,,,,,,,
null,"<img src=""stim_listA/touch5.gif""style=""height:400px;""></stim_listA>",,html-keyboard-response,436,1925450,0.0-19.0-1.2,4311,List1A,white,woman,,,,null,,,,,,,,,
null,is touching,,html-keyboard-response,437,1927458,0.0-19.0-2.2,4311,List1A,white,woman,,,,null,,,,,,,,,
7711.94,,,survey-text,438,1935174,0.0-19.0-3.2,4311,List1A,white,woman,,,,,"{""Q0"":""mike is touching dave""}","<img src=""stim_listA/touch5.gif""style=""height:400px;""></stim_listA>",is touching,,,,,,
null,"<div style=""font-size:60px;"">+</div>",,html-keyboard-response,439,1935680,0.0-19.0-0.3,4311,List1A,white,woman,,,,null,,,,,,,,,
null,"<img src=""stim_listA/challenge2.gif""style=""height:400px;""></stim_listA>",,html-keyboard-response,440,1937689,0.0-19.0-1.3,4311,List1A,white,woman,,,,null,,,,,,,,,
null,is being challenged by,,html-keyboard-response,441,1939698,0.0-19.0-2.3,4311,List1A,white,woman,,,,null,,,,,,,,,
11359.1,,,survey-text,442,1951068,0.0-19.0-3.3,4311,List1A,white,woman,,,,,"{""Q0"":""kate is being challenged by fred""}","<img src=""stim_listA/challenge2.gif""style=""height:400px;""></stim_listA>",is being challenged by,,,,,,
null,"<div style=""font-size:60px;"">+</div>",,html-keyboard-response,443,1951571,0.0-19.0-0.4,4311,List1A,white,woman,,,,null,,,,,,,,,
null,"<img src=""stim_listA/touch4.gif""style=""height:400px;""></stim_listA>",,html-keyboard-response,444,1953575,0.0-19.0-1.4,4311,List1A,white,woman,,,,null,,,,,,,,,
null,is being touched by,,html-keyboard-response,445,1955583,0.0-19.0-2.4,4311,List1A,white,woman,,,,null,,,,,,,,,
9177.45,,,survey-text,446,1964777,0.0-19.0-3.4,4311,List1A,white,woman,,,,,"{""Q0"":""jane is being touched by luke""}","<img src=""stim_listA/touch4.gif""style=""height:400px;""></stim_listA>",is being touched by,,,,,,
null,"<div style=""font-size:60px;"">+</div>",,html-keyboard-response,447,1965279,0.0-19.0-0.5,4311,List1A,white,woman,,,,null,,,,,,,,,
null,"<img src=""stim_listA/greet3.gif""style=""height:400px;""></stim_listA>",,html-keyboard-response,448,1967283,0.0-19.0-1.5,4311,List1A,white,woman,,,,null,,,,,,,,,
null,is greeting,,html-keyboard-response,449,1969287,0.0-19.0-2.5,4311,List1A,white,woman,,,,null,,,,,,,,,
9360.64,,,survey-text,450,1978657,0.0-19.0-3.5,4311,List1A,white,woman,,,,,"{""Q0"":""dave is greeting jane""}","<img src=""stim_listA/greet3.gif""style=""height:400px;""></stim_listA>",is greeting,,,,,,
null,"<div style=""font-size:60px;"">+</div>",,html-keyboard-response,451,1979160,0.0-19.0-0.6,4311,List1A,white,woman,,,,null,,,,,,,,,
null,"<img src=""stim_listA/hug7.gif""style=""height:400px;""></stim_listA>",,html-keyboard-response,452,1981166,0.0-19.0-1.6,4311,List1A,white,woman,,,,null,,,,,,,,,
null,is hugging,,html-keyboard-response,453,1983169,0.0-19.0-2.6,4311,List1A,white,woman,,,,null,,,,,,,,,
16308.5,,,survey-text,454,1999494,0.0-19.0-3.6,4311,List1A,white,woman,,,,,"{""Q0"":""ruth is greeting beth""}","<img src=""stim_listA/hug7.gif""style=""height:400px;""></stim_listA>",is hugging,,,,,,
null,"<div style=""font-size:60px;"">+</div>",,html-keyboard-response,455,1999999,0.0-19.0-0.7,4311,List1A,white,woman,,,,null,,,,,,,,,
null,"<img src=""stim_listA/oppose5.gif""style=""height:400px;""></stim_listA>",,html-keyboard-response,456,2002011,0.0-19.0-1.7,4311,List1A,white,woman,,,,null,,,,,,,,,
null,is opposing,,html-keyboard-response,457,2004020,0.0-19.0-2.7,4311,List1A,white,woman,,,,null,,,,,,,,,
11060.8,,,survey-text,458,2015099,0.0-19.0-3.7,4311,List1A,white,woman,,,,,"{""Q0"":""dave is opposing mike""}","<img src=""stim_listA/oppose5.gif""style=""height:400px;""></stim_listA>",is opposing,,,,,,
null,"<div style=""font-size:60px;"">+</div>",,html-keyboard-response,459,2015606,0.0-19.0-0.8,4311,List1A,white,woman,,,,null,,,,,,,,,
null,"<img src=""stim_listA/seduce6.gif""style=""height:400px;""></stim_listA>",,html-keyboard-response,460,2017619,0.0-19.0-1.8,4311,List1A,white,woman,,,,null,,,,,,,,,
null,is being seduced by,,html-keyboard-response,461,2019624,0.0-19.0-2.8,4311,List1A,white,woman,,,,null,,,,,,,,,
10603.88,,,survey-text,462,2030244,0.0-19.0-3.8,4311,List1A,white,woman,,,,,"{""Q0"":""luke is being seduced by mike""}","<img src=""stim_listA/seduce6.gif""style=""height:400px;""></stim_listA>",is being seduced by,,,,,,
null,"<div style=""font-size:60px;"">+</div>",,html-keyboard-response,463,2030748,0.0-19.0-0.9,4311,List1A,white,woman,,,,null,,,,,,,,,
null,"<img src=""stim_listA/oppose7.gif""style=""height:400px;""></stim_listA>",,html-keyboard-response,464,2032764,0.0-19.0-1.9,4311,List1A,white,woman,,,,null,,,,,,,,,
null,is opposing,,html-keyboard-response,465,2034770,0.0-19.0-2.9,4311,List1A,white,woman,,,,null,,,,,,,,,
12407.16,,,survey-text,466,2047197,0.0-19.0-3.9,4311,List1A,white,woman,,,,,"{""Q0"":""kate opposing jane""}","<img src=""stim_listA/oppose7.gif""style=""height:400px;""></stim_listA>",is opposing,,,,,,
null,"<div style=""font-size:60px;"">+</div>",,html-keyboard-response,467,2047702,0.0-19.0-0.10,4311,List1A,white,woman,,,,null,,,,,,,,,
null,"<img src=""stim_listA/kiss8.gif""style=""height:400px;""></stim_listA>",,html-keyboard-response,468,2049713,0.0-19.0-1.10,4311,List1A,white,woman,,,,null,,,,,,,,,
null,is being kissed by,,html-keyboard-response,469,2051720,0.0-19.0-2.10,4311,List1A,white,woman,,,,null,,,,,,,,,
13172.66,,,survey-text,470,2064906,0.0-19.0-3.10,4311,List1A,white,woman,,,,,"{""Q0"":""jane is being kissed by kate""}","<img src=""stim_listA/kiss8.gif""style=""height:400px;""></stim_listA>",is being kissed by,,,,,,
null,"<div style=""font-size:60px;"">+</div>",,html-keyboard-response,471,2065409,0.0-19.0-0.11,4311,List1A,white,woman,,,,null,,,,,,,,,
null,"<img src=""stim_listA/touch2.gif""style=""height:400px;""></stim_listA>",,html-keyboard-response,472,2067418,0.0-19.0-1.11,4311,List1A,white,woman,,,,null,,,,,,,,,
null,is being touched by,,html-keyboard-response,473,2069425,0.0-19.0-2.11,4311,List1A,white,woman,,,,null,,,,,,,,,
12805.765,,,survey-text,474,2082236,0.0-19.0-3.11,4311,List1A,white,woman,,,,,"{""Q0"":""beth is being touched by fred""}","<img src=""stim_listA/touch2.gif""style=""height:400px;""></stim_listA>",is being touched by,,,,,,
null,"<div style=""font-size:60px;"">+</div>",,html-keyboard-response,475,2082739,0.0-19.0-0.12,4311,List1A,white,woman,,,,null,,,,,,,,,
null,"<img src=""stim_listA/hug3.gif""style=""height:400px;""></stim_listA>",,html-keyboard-response,476,2084747,0.0-19.0-1.12,4311,List1A,white,woman,,,,null,,,,,,,,,
null,is hugging,,html-keyboard-response,477,2086754,0.0-19.0-2.12,4311,List1A,white,woman,,,,null,,,,,,,,,
7039.12,,,survey-text,478,2093809,0.0-19.0-3.12,4311,List1A,white,woman,,,,,"{""Q0"":""ruth is hugging luke""}","<img src=""stim_listA/hug3.gif""style=""height:400px;""></stim_listA>",is hugging,,,,,,
null,"<div style=""font-size:60px;"">+</div>",,html-keyboard-response,479,2094316,0.0-19.0-0.13,4311,List1A,white,woman,,,,null,,,,,,,,,
null,"<img src=""stim_listA/touch1.gif""style=""height:400px;""></stim_listA>",,html-keyboard-response,480,2096324,0.0-19.0-1.13,4311,List1A,white,woman,,,,null,,,,,,,,,
null,is touching,,html-keyboard-response,481,2098328,0.0-19.0-2.13,4311,List1A,white,woman,,,,null,,,,,,,,,
7217.48,,,survey-text,482,2105563,0.0-19.0-3.13,4311,List1A,white,woman,,,,,"{""Q0"":""mike is touching kate""}","<img src=""stim_listA/touch1.gif""style=""height:400px;""></stim_listA>",is touching,,,,,,
null,"<div style=""font-size:60px;"">+</div>",,html-keyboard-response,483,2106065,0.0-19.0-0.14,4311,List1A,white,woman,,,,null,,,,,,,,,
null,"<img src=""stim_listA/shout8.gif""style=""height:400px;""></stim_listA>",,html-keyboard-response,484,2108072,0.0-19.0-1.14,4311,List1A,white,woman,,,,null,,,,,,,,,
null,is being shouted at by,,html-keyboard-response,485,2110077,0.0-19.0-2.14,4311,List1A,white,woman,,,,null,,,,,,,,,
14791.92,,,survey-text,486,2124875,0.0-19.0-3.14,4311,List1A,white,woman,,,,,"{""Q0"":""jane is being shouted at by kate""}","<img src=""stim_listA/shout8.gif""style=""height:400px;""></stim_listA>",is being shouted at by,,,,,,
null,"<div style=""font-size:60px;"">+</div>",,html-keyboard-response,487,2125379,0.0-19.0-0.15,4311,List1A,white,woman,,,,null,,,,,,,,,
null,"<img src=""stim_listA/seduce5.gif""style=""height:400px;""></stim_listA>",,html-keyboard-response,488,2127390,0.0-19.0-1.15,4311,List1A,white,woman,,,,null,,,,,,,,,
null,is seducing,,html-keyboard-response,489,2129396,0.0-19.0-2.15,4311,List1A,white,woman,,,,null,,,,,,,,,
10904.81,,,survey-text,490,2140310,0.0-19.0-3.15,4311,List1A,white,woman,,,,,"{""Q0"":""fred is seducing mike""}","<img src=""stim_listA/seduce5.gif""style=""height:400px;""></stim_listA>",is seducing,,,,,,
null,"<div style=""font-size:60px;"">+</div>",,html-keyboard-response,491,2140815,0.0-19.0-0.16,4311,List1A,white,woman,,,,null,,,,,,,,,
null,"<img src=""stim_listA/shout6.gif""style=""height:400px;""></stim_listA>",,html-keyboard-response,492,2142832,0.0-19.0-1.16,4311,List1A,white,woman,,,,null,,,,,,,,,
null,is being shouted at by,,html-keyboard-response,493,2144843,0.0-19.0-2.16,4311,List1A,white,woman,,,,null,,,,,,,,,
12565.955,,,survey-text,494,2157426,0.0-19.0-3.16,4311,List1A,white,woman,,,,,"{""Q0"":""dave is shouting at mike""}","<img src=""stim_listA/shout6.gif""style=""height:400px;""></stim_listA>",is being shouted at by,,,,,,
null,"<div style=""font-size:60px;"">+</div>",,html-keyboard-response,495,2157931,0.0-19.0-0.17,4311,List1A,white,woman,,,,null,,,,,,,,,
null,"<img src=""stim_listA/copy7.gif""style=""height:400px;""></stim_listA>",,html-keyboard-response,496,2159941,0.0-19.0-1.17,4311,List1A,white,woman,,,,null,,,,,,,,,
null,is copying,,html-keyboard-response,497,2161952,0.0-19.0-2.17,4311,List1A,white,woman,,,,null,,,,,,,,,
7309.29,,,survey-text,498,2169270,0.0-19.0-3.17,4311,List1A,white,woman,,,,,"{""Q0"":""kate is copying ruth""}","<img src=""stim_listA/copy7.gif""style=""height:400px;""></stim_listA>",is copying,,,,,,
null,"<div style=""font-size:60px;"">+</div>",,html-keyboard-response,499,2169778,0.0-19.0-0.18,4311,List1A,white,woman,,,,null,,,,,,,,,
null,"<img src=""stim_listA/challenge3.gif""style=""height:400px;""></stim_listA>",,html-keyboard-response,500,2171798,0.0-19.0-1.18,4311,List1A,white,woman,,,,null,,,,,,,,,
null,is challenging,,html-keyboard-response,501,2173810,0.0-19.0-2.18,4311,List1A,white,woman,,,,null,,,,,,,,,
5843.485,,,survey-text,502,2179670,0.0-19.0-3.18,4311,List1A,white,woman,,,,,"{""Q0"":""ruth is copy mike""}","<img src=""stim_listA/challenge3.gif""style=""height:400px;""></stim_listA>",is challenging,,,,,,
null,"<div style=""font-size:60px;"">+</div>",,html-keyboard-response,503,2180175,0.0-19.0-0.19,4311,List1A,white,woman,,,,null,,,,,,,,,
null,"<img src=""stim_listA/look2.gif""style=""height:400px;""></stim_listA>",,html-keyboard-response,504,2182192,0.0-19.0-1.19,4311,List1A,white,woman,,,,null,,,,,,,,,
null,is being looked at by,,html-keyboard-response,505,2184199,0.0-19.0-2.19,4311,List1A,white,woman,,,,null,,,,,,,,,
10101.26,,,survey-text,506,2194314,0.0-19.0-3.19,4311,List1A,white,woman,,,,,"{""Q0"":""kate is being looked at by mike""}","<img src=""stim_listA/look2.gif""style=""height:400px;""></stim_listA>",is being looked at by,,,,,,
3872.195,<p>Thank you for completing that task.</p><p>The final part of this session is a questionnaire that will take about 4 minutes.</p><p>Press Continue.</p>,0,html-button-response,507,2198190,0.0-20.0,4311,List1A,white,woman,,,,,,,,,,,,,
57089.92,,,survey-text,508,2256306,0.0-21.0,4311,List1A,white,woman,,,,,"{""Q0"":""25"",""Q1"":""english"",""Q2"":""english"",""Q3"":""United States"",""Q4"":""europian"",""Q5"":""white"",""Q6"":""female""}",,,demographics,,,,,
3093.075,<p>Have you lived in the USA for the last 5 years or more?</p>,0,html-button-response,509,2259404,0.0-22.0,4311,List1A,white,woman,,,,,,,,fiveyears,,,,,
2347.97,<p>Move the slider to show the extent to which you agree with the following statements.</p>,0,html-button-response,510,2262766,0.0-23.0,4311,List1A,white,woman,,,,,,,,,,,,,
3731.47,,,html-slider-response,511,2267522,0.0-24.0-0.0-0.0,4311,List1A,white,woman,,,,,,,,survey_gender,99,,,My friends understand me.,filler
3135.53,,,html-slider-response,512,2270661,0.0-24.0-0.0-0.1,4311,List1A,white,woman,,,,,,,,survey_gender,100,,,I would say I am an animal person.,filler
4018.865,,,html-slider-response,513,2274685,0.0-24.0-0.0-0.2,4311,List1A,white,woman,,,,,,,,survey_gender,100,,,I have a lot in common with my friends.,filler
8943.29,,,html-slider-response,514,2283633,0.0-24.0-0.0-0.3,4311,List1A,white,woman,,,,,,,,survey_gender,51,,,People of my gender have a lot in common with each other.,common
7648.635,,,html-slider-response,515,2291287,0.0-24.0-0.0-0.4,4311,List1A,white,woman,,,,,,,,survey_gender,99,,,Being around my friends gives me a good feeling.,filler
5693.745,,,html-slider-response,516,2296985,0.0-24.0-0.0-0.5,4311,List1A,white,woman,,,,,,,,survey_gender,52,,,Being my gender is an important part of how I see myself.,important
4410.39,,,html-slider-response,517,2301401,0.0-24.0-0.0-0.6,4311,List1A,white,woman,,,,,,,,survey_gender,0,,,Routine is not important to me.,filler
4553.64,,,html-slider-response,518,2305961,0.0-24.0-0.0-0.7,4311,List1A,white,woman,,,,,,,,survey_gender,73,,,Being my gender gives me a good feeling.,feeling
6791.645,,,html-slider-response,519,2312758,0.0-24.0-0.0-0.8,4311,List1A,white,woman,,,,,,,,survey_gender,92,,,Most of the friends in my life are very similar to me.,filler
5527.655,,,html-slider-response,520,2318291,0.0-24.0-0.0-0.9,4311,List1A,white,woman,,,,,,,,survey_gender,94,,,I often think about the fact that I am my gender.,often
4113.86,,,html-slider-response,521,2322409,0.0-24.0-0.0-0.10,4311,List1A,white,woman,,,,,,,,survey_gender,63,,,I think that my gender has a lot to be proud of.,proud
4491.04,,,html-slider-response,522,2326905,0.0-24.0-0.0-0.11,4311,List1A,white,woman,,,,,,,,survey_gender,65,,,It is not always easy for people to know what I am thinking.,filler
4604.645,,,html-slider-response,523,2331514,0.0-24.0-0.0-0.12,4311,List1A,white,woman,,,,,,,,survey_gender,92,,,I feel a bond with my friends.,filler
5344.72,,,html-slider-response,524,2336864,0.0-24.0-0.0-0.13,4311,List1A,white,woman,,,,,,,,survey_gender,100,,,Family is not more important to me than friendship.,filler
3448.97,,,html-slider-response,525,2340318,0.0-24.0-0.0-0.14,4311,List1A,white,woman,,,,,,,,survey_gender,81,,,My friends have a lot in common with each other.,filler
16005.695,,,html-slider-response,526,2356328,0.0-24.0-0.0-0.15,4311,List1A,white,woman,,,,,,,,survey_gender,47,,,People of my gender are very similar to each other.,verysimilar
4428.15,,,html-slider-response,527,2360762,0.0-24.0-0.0-0.16,4311,List1A,white,woman,,,,,,,,survey_gender,80,,,The fact that I am my gender is an important part of my identity.,identity
3236.1,,,html-slider-response,528,2364002,0.0-24.0-0.0-0.17,4311,List1A,white,woman,,,,,,,,survey_gender,71,,,I feel a bond with my gender.,bond
3342.965,,,html-slider-response,529,2367351,0.0-24.0-0.0-0.18,4311,List1A,white,woman,,,,,,,,survey_gender,91,,,I am glad to be my gender.,glad
2859.575,,,html-slider-response,530,2370216,0.0-24.0-0.0-0.19,4311,List1A,white,woman,,,,,,,,survey_gender,97,,,I often think about my actions.,filler
2579.775,,,html-slider-response,531,2372800,0.0-24.0-0.0-0.20,4311,List1A,white,woman,,,,,,,,survey_gender,99,,,I feel solidarity with my friends.,filler
4425.485,,,html-slider-response,532,2377231,0.0-24.0-0.0-0.21,4311,List1A,white,woman,,,,,,,,survey_gender,99,,,I feel committed to my gender.,committed
5283.21,,,html-slider-response,533,2382519,0.0-24.0-0.0-0.22,4311,List1A,white,woman,,,,,,,,survey_gender,62,,,It is pleasant to be my gender.,pleasant
6290.825,,,html-slider-response,534,2388815,0.0-24.0-0.0-0.23,4311,List1A,white,woman,,,,,,,,survey_gender,91,,,I have a lot in common with the average person of my gender.,average
3783.84,,,html-slider-response,535,2392604,0.0-24.0-0.0-0.24,4311,List1A,white,woman,,,,,,,,survey_gender,100,,,I consider myself a highly empathetic person.,filler
3604.47,,,html-slider-response,536,2396213,0.0-24.0-0.0-0.25,4311,List1A,white,woman,,,,,,,,survey_gender,100,,,I am glad to have the friends that I have.,filler
4551.045,,,html-slider-response,537,2400769,0.0-24.0-0.0-0.26,4311,List1A,white,woman,,,,,,,,survey_gender,95,,,I feel solidarity with my gender.,solidarity
4628.935,,,html-slider-response,538,2405403,0.0-24.0-0.0-0.27,4311,List1A,white,woman,,,,,,,,survey_gender,74,,,I am similar to the average person of my gender.,similar
5021.275,,,html-slider-response,539,2410430,0.0-24.0-1.0-0.0,4311,List1A,white,woman,,,,,,,,survey_race,99,,,I often think about the fact that I am my race.,often
6708.725,,,html-slider-response,540,2417143,0.0-24.0-1.0-0.1,4311,List1A,white,woman,,,,,,,,survey_race,76,,,Getting older does not worry me.,filler
5603.005,,,html-slider-response,541,2422751,0.0-24.0-1.0-0.2,4311,List1A,white,woman,,,,,,,,survey_race,51,,,I have a lot in common with the average person of my race.,average
5455.735,,,html-slider-response,542,2428211,0.0-24.0-1.0-0.3,4311,List1A,white,woman,,,,,,,,survey_race,97,,,I am glad to be the age I am.,filler
5627.54,,,html-slider-response,543,2433844,0.0-24.0-1.0-0.4,4311,List1A,white,woman,,,,,,,,survey_race,32,,,Being my race is an important part of how I see myself.,important
4318.295,,,html-slider-response,544,2438167,0.0-24.0-1.0-0.5,4311,List1A,white,woman,,,,,,,,survey_race,41,,,I feel a bond with people the same age as me.,filler
3441.37,,,html-slider-response,545,2441613,0.0-24.0-1.0-0.6,4311,List1A,white,woman,,,,,,,,survey_race,44,,,Being my age gives me a good feeling.,filler
4108.67,,,html-slider-response,546,2445727,0.0-24.0-1.0-0.7,4311,List1A,white,woman,,,,,,,,survey_race,73,,,The fact that I am my race is an important part of my identity.,identity
3520.705,,,html-slider-response,547,2449253,0.0-24.0-1.0-0.8,4311,List1A,white,woman,,,,,,,,survey_race,20,,,People of my race have a lot in common with each other.,common
3529.62,,,html-slider-response,548,2452787,0.0-24.0-1.0-0.9,4311,List1A,white,woman,,,,,,,,survey_race,99,,,I consider myself an introvert.,filler
5926.805,,,html-slider-response,549,2458718,0.0-24.0-1.0-0.10,4311,List1A,white,woman,,,,,,,,survey_race,31,,,I feel solidarity with people the same age as me.,filler
4036.03,,,html-slider-response,550,2462759,0.0-24.0-1.0-0.11,4311,List1A,white,woman,,,,,,,,survey_race,8,,,I think that my race has a lot to be proud of.,proud
5424.475,,,html-slider-response,551,2468189,0.0-24.0-1.0-0.12,4311,List1A,white,woman,,,,,,,,survey_race,100,,,I consider myself an extrovert.,filler
4046.555,,,html-slider-response,552,2472241,0.0-24.0-1.0-0.13,4311,List1A,white,woman,,,,,,,,survey_race,96,,,My age is not an important part of who I am.,filler
4285.9,,,html-slider-response,553,2476532,0.0-24.0-1.0-0.14,4311,List1A,white,woman,,,,,,,,survey_race,10,,,I feel solidarity with my race.,solidarity
3407.085,,,html-slider-response,554,2479944,0.0-24.0-1.0-0.15,4311,List1A,white,woman,,,,,,,,survey_race,98,,,"The older I get, the wiser I feel.",filler
3860.625,,,html-slider-response,555,2483810,0.0-24.0-1.0-0.16,4311,List1A,white,woman,,,,,,,,survey_race,27,,,I feel committed to my race.,committed
5902.41,,,html-slider-response,556,2489717,0.0-24.0-1.0-0.17,4311,List1A,white,woman,,,,,,,,survey_race,32,,,I have a lot in common with people of a similar age to me.,filler
4529.365,,,html-slider-response,557,2494251,0.0-24.0-1.0-0.18,4311,List1A,white,woman,,,,,,,,survey_race,60,,,I am glad to be my age.,filler
6018.53,,,html-slider-response,558,2500275,0.0-24.0-1.0-0.19,4311,List1A,white,woman,,,,,,,,survey_race,69,,,People my age have a lot in common with each other.,filler
5159.45,,,html-slider-response,559,2505440,0.0-24.0-1.0-0.20,4311,List1A,white,woman,,,,,,,,survey_race,95,,,It is pleasant to be my race.,pleasant
3134.9,,,html-slider-response,560,2508580,0.0-24.0-1.0-0.21,4311,List1A,white,woman,,,,,,,,survey_race,16,,,I feel a bond with my race.,bond
3875.75,,,html-slider-response,561,2512461,0.0-24.0-1.0-0.22,4311,List1A,white,woman,,,,,,,,survey_race,100,,,I often think about the fact that I am my age.,filler
6840.425,,,html-slider-response,562,2519306,0.0-24.0-1.0-0.23,4311,List1A,white,woman,,,,,,,,survey_race,22,,,I am similar to the average person of my race.,similar
6330.62,,,html-slider-response,563,2525642,0.0-24.0-1.0-0.24,4311,List1A,white,woman,,,,,,,,survey_race,49,,,People of my race are very similar to each other.,verysimilar
3851.22,,,html-slider-response,564,2529498,0.0-24.0-1.0-0.25,4311,List1A,white,woman,,,,,,,,survey_race,6,,,I enjoy being in large groups.,filler
4161.5,,,html-slider-response,565,2533663,0.0-24.0-1.0-0.26,4311,List1A,white,woman,,,,,,,,survey_race,98,,,I am glad to be my race.,glad
3262.59,,,html-slider-response,566,2536931,0.0-24.0-1.0-0.27,4311,List1A,white,woman,,,,,,,,survey_race,13,,,Being my race gives me a good feeling.,feeling
24619.42,,,survey-text,567,2561557,0.0-25.0,4311,List1A,white,woman,,,,,"{""Q0"":""ccc""}",,,worker_id,,,,,
19415.84,,,external-html,568,2581455,0.0-26.0,4311,List1A,white,woman,debrief.html,,,,,,,,,,,,
