"rt","stimulus","button_pressed","trial_type","trial_index","time_elapsed","internal_node_id","subject","list","ppt_race","ppt_gender","url","first_guess","correct","key_press","responses","image_type","phrase_type","test_part","response","stimulus1","stimulus2","question_type","survey_item"
"123175.39999997616","Welcome to the experiment. Press Continue to begin.","0","html-button-response","0","123175","0.0-0.0","43617","List1A","black","man","","","","","","","","","","","","",""
"10297.700000047684","","","external-html","1","137201","0.0-1.0","43617","List1A","black","man","consent.html","","","","","","","","","","","",""
"5736.400000095367","<p>On the next page, you will see portraits of 8 people and their names.</p><p>Your first task is to take a few minutes to memorise the names of these people.</p><p>You will have to recall their names during the rest of the experiment, so it is</p><p>essential that you try to memorise these people and their names as best as you can.</p><br><p><strong>You will then be tested on your memory of these names and portraits.</strong></p><br><p>The experiment will start after you have completed this memory test.</p><br><p>Ready?</p>","0","html-button-response","2","142939","0.0-2.0","43617","List1A","black","man","","","","","","","","","","","","",""
"25694.300000071526","<img src='img/portrait_matrix_list1.jpg' style='width:900px;height:500px;''></img><p>If you have memorised all the portraits and names and are ready to start, press Continue.</p><p><strong>Please note: Your memory of these faces will be tested 4 times during this experiment.</strong></p>","0","html-button-response","3","169636","0.0-3.0-0.0","43617","List1A","black","man","","","","","","","","","","","","",""
"4413","<img src=""portrait/BW2.jpg""style=""height:400px;""></img>","2","html-button-response","4","175058","0.0-3.0-1.0","43617","List1A","black","man","","true","2","","","","","","","","","",""
"null","CORRECT","","html-keyboard-response","5","176574","0.0-3.0-2.0-0.0","43617","List1A","black","man","","","","null","","","","","","","","",""
"4146.100000023842","<img src=""portrait/BW1.jpg""style=""height:400px;""></img>","0","html-button-response","6","180723","0.0-3.0-4.0","43617","List1A","black","man","","true","0","","","","","","","","","",""
"null","CORRECT","","html-keyboard-response","7","182234","0.0-3.0-5.0-0.0","43617","List1A","black","man","","","","null","","","","","","","","",""
"3850.899999976158","<img src=""portrait/WM2.jpg""style=""height:400px;""></img>","7","html-button-response","8","186088","0.0-3.0-7.0","43617","List1A","black","man","","true","7","","","","","","","","","",""
"null","CORRECT","","html-keyboard-response","9","187603","0.0-3.0-8.0-0.0","43617","List1A","black","man","","","","null","","","","","","","","",""
"8294.200000047684","<img src=""portrait/WM1.jpg""style=""height:400px;""></img>","6","html-button-response","10","195899","0.0-3.0-10.0","43617","List1A","black","man","","true","6","","","","","","","","","",""
"null","CORRECT","","html-keyboard-response","11","197410","0.0-3.0-11.0-0.0","43617","List1A","black","man","","","","null","","","","","","","","",""
"15947.199999928474","<img src=""portrait/BM2.jpg""style=""height:400px;""></img>","5","html-button-response","12","213359","0.0-3.0-13.0","43617","List1A","black","man","","true","5","","","","","","","","","",""
"null","CORRECT","","html-keyboard-response","13","214870","0.0-3.0-14.0-0.0","43617","List1A","black","man","","","","null","","","","","","","","",""
"5513.300000071526","<img src=""portrait/WW1.jpg""style=""height:400px;""></img>","1","html-button-response","14","220386","0.0-3.0-16.0","43617","List1A","black","man","","true","1","","","","","","","","","",""
"null","CORRECT","","html-keyboard-response","15","221896","0.0-3.0-17.0-0.0","43617","List1A","black","man","","","","null","","","","","","","","",""
"57722.700000047684","<img src=""portrait/BM1.jpg""style=""height:400px;""></img>","7","html-button-response","16","279618","0.0-3.0-19.0","43617","List1A","black","man","","true","4","","","","","","","","","",""
"3237.600000023842","<img src=""portrait/BM1.jpg""style=""height:400px;""></img>","4","html-button-response","17","283863","0.0-3.0-21.0-0.0","43617","List1A","black","man","","false","4","","","","","","","","","",""
"null","CORRECT","","html-keyboard-response","18","285376","0.0-3.0-21.0-1.0-0.0","43617","List1A","black","man","","","","null","","","","","","","","",""
"4270.100000023842","<img src=""portrait/WW2.jpg""style=""height:400px;""></img>","3","html-button-response","19","289648","0.0-3.0-22.0","43617","List1A","black","man","","true","3","","","","","","","","","",""
"null","CORRECT","","html-keyboard-response","20","291160","0.0-3.0-23.0-0.0","43617","List1A","black","man","","","","null","","","","","","","","",""
"1524.6000000238419","<p>You got 7 out of 8 right first time. Press Continue.</p>","0","html-button-response","21","292688","0.0-3.0-25.0","43617","List1A","black","man","","","","","","","","","","","","",""
"1645.7999999523163","As you did not score 100%, the memory game will repeat. Press Continue.","0","html-button-response","22","295339","0.0-3.0-26.0-0.0","43617","List1A","black","man","","","","","","","","","","","","",""
"2229.7999999523163","<img src='img/portrait_matrix_list1.jpg' style='width:900px;height:500px;''></img><p>If you have memorised all the portraits and names and are ready to start, press Continue.</p><p><strong>Please note: Your memory of these faces will be tested 4 times during this experiment.</strong></p>","0","html-button-response","23","298572","0.0-3.1-0.1","43617","List1A","black","man","","","","","","","","","","","","",""
"5368.5","<img src=""portrait/BW2.jpg""style=""height:400px;""></img>","2","html-button-response","24","304949","0.0-3.1-1.1","43617","List1A","black","man","","true","2","","","","","","","","","",""
"null","CORRECT","","html-keyboard-response","25","306461","0.0-3.1-2.1-0.1","43617","List1A","black","man","","","","null","","","","","","","","",""
"2047.5","<img src=""portrait/BW1.jpg""style=""height:400px;""></img>","0","html-button-response","26","308510","0.0-3.1-4.1","43617","List1A","black","man","","true","0","","","","","","","","","",""
"null","CORRECT","","html-keyboard-response","27","310022","0.0-3.1-5.1-0.1","43617","List1A","black","man","","","","null","","","","","","","","",""
"3355.2000000476837","<img src=""portrait/WM2.jpg""style=""height:400px;""></img>","7","html-button-response","28","313380","0.0-3.1-7.1","43617","List1A","black","man","","true","7","","","","","","","","","",""
"null","CORRECT","","html-keyboard-response","29","314893","0.0-3.1-8.1-0.1","43617","List1A","black","man","","","","null","","","","","","","","",""
"2525.5","<img src=""portrait/WM1.jpg""style=""height:400px;""></img>","6","html-button-response","30","317420","0.0-3.1-10.1","43617","List1A","black","man","","true","6","","","","","","","","","",""
"null","CORRECT","","html-keyboard-response","31","318931","0.0-3.1-11.1-0.1","43617","List1A","black","man","","","","null","","","","","","","","",""
"4091.0999999046326","<img src=""portrait/BM2.jpg""style=""height:400px;""></img>","5","html-button-response","32","323024","0.0-3.1-13.1","43617","List1A","black","man","","true","5","","","","","","","","","",""
"null","CORRECT","","html-keyboard-response","33","324533","0.0-3.1-14.1-0.1","43617","List1A","black","man","","","","null","","","","","","","","",""
"5024.399999976158","<img src=""portrait/WW1.jpg""style=""height:400px;""></img>","1","html-button-response","34","329560","0.0-3.1-16.1","43617","List1A","black","man","","true","1","","","","","","","","","",""
"null","CORRECT","","html-keyboard-response","35","331074","0.0-3.1-17.1-0.1","43617","List1A","black","man","","","","null","","","","","","","","",""
"3234.2999999523163","<img src=""portrait/BM1.jpg""style=""height:400px;""></img>","4","html-button-response","36","334310","0.0-3.1-19.1","43617","List1A","black","man","","true","4","","","","","","","","","",""
"null","CORRECT","","html-keyboard-response","37","335821","0.0-3.1-20.1-0.1","43617","List1A","black","man","","","","null","","","","","","","","",""
"5830.200000047684","<img src=""portrait/WW2.jpg""style=""height:400px;""></img>","3","html-button-response","38","341653","0.0-3.1-22.1","43617","List1A","black","man","","true","3","","","","","","","","","",""
"null","CORRECT","","html-keyboard-response","39","343163","0.0-3.1-23.1-0.1","43617","List1A","black","man","","","","null","","","","","","","","",""
"1499.3999999761581","<p>You got 8 out of 8 right first time. Press Continue.</p>","0","html-button-response","40","344665","0.0-3.1-25.1","43617","List1A","black","man","","","","","","","","","","","","",""
"13810.900000095367","<p>In this experiment, you will view photographs of the people from the memory game interacting.</p><p>By using the <strong>exact</strong> phrase given <i>after</i> the photograph appears and recalling the correct names of the people in the photographs, form a sentence describing the interaction. You do not need to capitalise names.</p><p>Type your answer in the space provided. Please complete every sentence before moving onto the next trial.</p><p>You will only have a few seconds to memorise each given photograph and phrase before you can respond, so try your best to focus.</p><p>An example is given below. Press 'Continue' when you are ready.</p><img src='img/speaking_example.jpg' style='width:800px;height:460px;''></img>","0","html-button-response","41","359478","0.0-4.0","43617","List1A","black","man","","","","","","","","","","","","",""
"1646.8999999761581","<p>Before the experiment starts, you will watch two example trials. Press 'Continue'.</p>","0","html-button-response","42","362133","0.0-5.0","43617","List1A","black","man","","","","","","","","","","","","",""
"null","<img src='img/play_eg.gif' style='height:400px;''></img>","","html-keyboard-response","43","365147","0.0-6.0","43617","List1A","black","man","","","","null","","","","","","","","",""
"null","<p>is playing with</p>","","html-keyboard-response","44","367156","0.0-7.0","43617","List1A","black","man","","","","null","","","","","","","","",""
"1531.5","<p><b>Answer:</b> kate is playing with beth</p>","0","html-button-response","45","368689","0.0-8.0","43617","List1A","black","man","","","","","","","","","","","","",""
"null","<img src='img/dance_eg.gif' style='height:400px;''></img>","","html-keyboard-response","46","371702","0.0-9.0","43617","List1A","black","man","","","","null","","","","","","","","",""
"null","<p>is being entertained by</p>","","html-keyboard-response","47","373704","0.0-10.0","43617","List1A","black","man","","","","null","","","","","","","","",""
"1233.1000000238419","<p><b>Answer:</b> luke is being entertained by dave</p>","0","html-button-response","48","374939","0.0-11.0","43617","List1A","black","man","","","","","","","","","","","","",""
"2856.2999999523163","<p>Ready to start the experiment?</p><br><p><strong>Remember to describe the picture using a full sentence,</strong></p><p><strong>that combines the names of the people with the <i>exact</i> phrase given.</strong></p><p><strong>To receive full payment you must do this correctly.</strong></p><p><strong> You do not need to capitalise names or use punctuation.</strong></p><br><p>Press 'Continue' to begin.</p>","0","html-button-response","49","378805","0.0-12.0","43617","List1A","black","man","","","","","","","","","","","","",""
"null","<div style=""font-size:60px;"">+</div>","","html-keyboard-response","50","380317","0.0-13.0-0.0","43617","List1A","black","man","","","","null","","","","","","","","",""
"null","<img src=""stim_listA/shout7.gif""style=""height:400px;""></stim_listA>","","html-keyboard-response","51","382326","0.0-13.0-1.0","43617","List1A","black","man","","","","null","","","","","","","","",""
"null","is shouting at","","html-keyboard-response","52","384333","0.0-13.0-2.0","43617","List1A","black","man","","","","null","","","","","","","","",""
"15363.5","","","survey-text","53","399702","0.0-13.0-3.0","43617","List1A","black","man","","","","","{""Q0"":""ruth is shouting at beth""}","<img src=""stim_listA/shout7.gif""style=""height:400px;""></stim_listA>","is shouting at","","","","","",""
"null","<div style=""font-size:60px;"">+</div>","","html-keyboard-response","54","400207","0.0-13.0-0.1","43617","List1A","black","man","","","","null","","","","","","","","",""
"null","<img src=""stim_listA/greet7.gif""style=""height:400px;""></stim_listA>","","html-keyboard-response","55","402217","0.0-13.0-1.1","43617","List1A","black","man","","","","null","","","","","","","","",""
"null","is greeting","","html-keyboard-response","56","404223","0.0-13.0-2.1","43617","List1A","black","man","","","","null","","","","","","","","",""
"16808.5","","","survey-text","57","421035","0.0-13.0-3.1","43617","List1A","black","man","","","","","{""Q0"":""jane is greeting kate""}","<img src=""stim_listA/greet7.gif""style=""height:400px;""></stim_listA>","is greeting","","","","","",""
"null","<div style=""font-size:60px;"">+</div>","","html-keyboard-response","58","421537","0.0-13.0-0.2","43617","List1A","black","man","","","","null","","","","","","","","",""
"null","<img src=""stim_listA/seduce7.gif""style=""height:400px;""></stim_listA>","","html-keyboard-response","59","423543","0.0-13.0-1.2","43617","List1A","black","man","","","","null","","","","","","","","",""
"null","is seducing","","html-keyboard-response","60","425546","0.0-13.0-2.2","43617","List1A","black","man","","","","null","","","","","","","","",""
"4347.5","","","survey-text","61","429900","0.0-13.0-3.2","43617","List1A","black","man","","","","","{""Q0"":""idk""}","<img src=""stim_listA/seduce7.gif""style=""height:400px;""></stim_listA>","is seducing","","","","","",""
"null","<div style=""font-size:60px;"">+</div>","","html-keyboard-response","62","430402","0.0-13.0-0.3","43617","List1A","black","man","","","","null","","","","","","","","",""
"null","<img src=""stim_listA/touch7.gif""style=""height:400px;""></stim_listA>","","html-keyboard-response","63","432407","0.0-13.0-1.3","43617","List1A","black","man","","","","null","","","","","","","","",""
"null","is touching","","html-keyboard-response","64","434410","0.0-13.0-2.3","43617","List1A","black","man","","","","null","","","","","","","","",""
"11620.5","","","survey-text","65","446037","0.0-13.0-3.3","43617","List1A","black","man","","","","","{""Q0"":""jane is touching kate""}","<img src=""stim_listA/touch7.gif""style=""height:400px;""></stim_listA>","is touching","","","","","",""
"null","<div style=""font-size:60px;"">+</div>","","html-keyboard-response","66","446539","0.0-13.0-0.4","43617","List1A","black","man","","","","null","","","","","","","","",""
"null","<img src=""stim_listA/look7.gif""style=""height:400px;""></stim_listA>","","html-keyboard-response","67","448543","0.0-13.0-1.4","43617","List1A","black","man","","","","null","","","","","","","","",""
"null","is looking at","","html-keyboard-response","68","450548","0.0-13.0-2.4","43617","List1A","black","man","","","","null","","","","","","","","",""
"14371.799999952316","","","survey-text","69","464923","0.0-13.0-3.4","43617","List1A","black","man","","","","","{""Q0"":""beth is looking at ruth""}","<img src=""stim_listA/look7.gif""style=""height:400px;""></stim_listA>","is looking at","","","","","",""
"null","<div style=""font-size:60px;"">+</div>","","html-keyboard-response","70","465425","0.0-13.0-0.5","43617","List1A","black","man","","","","null","","","","","","","","",""
"null","<img src=""stim_listA/oppose2.gif""style=""height:400px;""></stim_listA>","","html-keyboard-response","71","467432","0.0-13.0-1.5","43617","List1A","black","man","","","","null","","","","","","","","",""
"null","is being opposed by","","html-keyboard-response","72","469433","0.0-13.0-2.5","43617","List1A","black","man","","","","null","","","","","","","","",""
"19344.699999928474","","","survey-text","73","488780","0.0-13.0-3.5","43617","List1A","black","man","","","","","{""Q0"":""fred is being opposed by beth""}","<img src=""stim_listA/oppose2.gif""style=""height:400px;""></stim_listA>","is being opposed by","","","","","",""
"null","<div style=""font-size:60px;"">+</div>","","html-keyboard-response","74","489282","0.0-13.0-0.6","43617","List1A","black","man","","","","null","","","","","","","","",""
"null","<img src=""stim_listA/touch4.gif""style=""height:400px;""></stim_listA>","","html-keyboard-response","75","491287","0.0-13.0-1.6","43617","List1A","black","man","","","","null","","","","","","","","",""
"null","is being touched by","","html-keyboard-response","76","493289","0.0-13.0-2.6","43617","List1A","black","man","","","","null","","","","","","","","",""
"11966.099999904633","","","survey-text","77","505258","0.0-13.0-3.6","43617","List1A","black","man","","","","","{""Q0"":""ruth is being touched by luke""}","<img src=""stim_listA/touch4.gif""style=""height:400px;""></stim_listA>","is being touched by","","","","","",""
"null","<div style=""font-size:60px;"">+</div>","","html-keyboard-response","78","505761","0.0-13.0-0.7","43617","List1A","black","man","","","","null","","","","","","","","",""
"null","<img src=""stim_listA/hug8.gif""style=""height:400px;""></stim_listA>","","html-keyboard-response","79","507768","0.0-13.0-1.7","43617","List1A","black","man","","","","null","","","","","","","","",""
"null","is being hugged by","","html-keyboard-response","80","509775","0.0-13.0-2.7","43617","List1A","black","man","","","","null","","","","","","","","",""
"14857.799999952316","","","survey-text","81","524636","0.0-13.0-3.7","43617","List1A","black","man","","","","","{""Q0"":""kate is being hugged by jane""}","<img src=""stim_listA/hug8.gif""style=""height:400px;""></stim_listA>","is being hugged by","","","","","",""
"null","<div style=""font-size:60px;"">+</div>","","html-keyboard-response","82","525138","0.0-13.0-0.8","43617","List1A","black","man","","","","null","","","","","","","","",""
"null","<img src=""stim_listA/touch6.gif""style=""height:400px;""></stim_listA>","","html-keyboard-response","83","527141","0.0-13.0-1.8","43617","List1A","black","man","","","","null","","","","","","","","",""
"null","is being touched by","","html-keyboard-response","84","529142","0.0-13.0-2.8","43617","List1A","black","man","","","","null","","","","","","","","",""
"19502.5","","","survey-text","85","548648","0.0-13.0-3.8","43617","List1A","black","man","","","","","{""Q0"":""fred is being touched by luke""}","<img src=""stim_listA/touch6.gif""style=""height:400px;""></stim_listA>","is being touched by","","","","","",""
"null","<div style=""font-size:60px;"">+</div>","","html-keyboard-response","86","549151","0.0-13.0-0.9","43617","List1A","black","man","","","","null","","","","","","","","",""
"null","<img src=""stim_listA/hug5.gif""style=""height:400px;""></stim_listA>","","html-keyboard-response","87","551160","0.0-13.0-1.9","43617","List1A","black","man","","","","null","","","","","","","","",""
"null","is hugging","","html-keyboard-response","88","553165","0.0-13.0-2.9","43617","List1A","black","man","","","","null","","","","","","","","",""
"9482.700000047684","","","survey-text","89","562652","0.0-13.0-3.9","43617","List1A","black","man","","","","","{""Q0"":""luke is hugging fred""}","<img src=""stim_listA/hug5.gif""style=""height:400px;""></stim_listA>","is hugging","","","","","",""
"null","<div style=""font-size:60px;"">+</div>","","html-keyboard-response","90","563154","0.0-13.0-0.10","43617","List1A","black","man","","","","null","","","","","","","","",""
"null","<img src=""stim_listA/copy4.gif""style=""height:400px;""></stim_listA>","","html-keyboard-response","91","565158","0.0-13.0-1.10","43617","List1A","black","man","","","","null","","","","","","","","",""
"null","is being copied by","","html-keyboard-response","92","567163","0.0-13.0-2.10","43617","List1A","black","man","","","","null","","","","","","","","",""
"14574.700000047684","","","survey-text","93","581741","0.0-13.0-3.10","43617","List1A","black","man","","","","","{""Q0"":""luke is being copied by jane""}","<img src=""stim_listA/copy4.gif""style=""height:400px;""></stim_listA>","is being copied by","","","","","",""
"null","<div style=""font-size:60px;"">+</div>","","html-keyboard-response","94","582243","0.0-13.0-0.11","43617","List1A","black","man","","","","null","","","","","","","","",""
"null","<img src=""stim_listA/greet4.gif""style=""height:400px;""></stim_listA>","","html-keyboard-response","95","584568","0.0-13.0-1.11","43617","List1A","black","man","","","","null","","","","","","","","",""
"null","is being greeted by","","html-keyboard-response","96","586573","0.0-13.0-2.11","43617","List1A","black","man","","","","null","","","","","","","","",""
"8557.399999976158","","","survey-text","97","595135","0.0-13.0-3.11","43617","List1A","black","man","","","","","{""Q0"":""jane is being greeted by luke""}","<img src=""stim_listA/greet4.gif""style=""height:400px;""></stim_listA>","is being greeted by","","","","","",""
"null","<div style=""font-size:60px;"">+</div>","","html-keyboard-response","98","595639","0.0-13.0-0.12","43617","List1A","black","man","","","","null","","","","","","","","",""
"null","<img src=""stim_listA/touch1.gif""style=""height:400px;""></stim_listA>","","html-keyboard-response","99","597646","0.0-13.0-1.12","43617","List1A","black","man","","","","null","","","","","","","","",""
"null","is touching","","html-keyboard-response","100","599652","0.0-13.0-2.12","43617","List1A","black","man","","","","null","","","","","","","","",""
"8907.100000023842","","","survey-text","101","608563","0.0-13.0-3.12","43617","List1A","black","man","","","","","{""Q0"":""mike is touching kate""}","<img src=""stim_listA/touch1.gif""style=""height:400px;""></stim_listA>","is touching","","","","","",""
"null","<div style=""font-size:60px;"">+</div>","","html-keyboard-response","102","609065","0.0-13.0-0.13","43617","List1A","black","man","","","","null","","","","","","","","",""
"null","<img src=""stim_listA/copy7.gif""style=""height:400px;""></stim_listA>","","html-keyboard-response","103","611074","0.0-13.0-1.13","43617","List1A","black","man","","","","null","","","","","","","","",""
"null","is copying","","html-keyboard-response","104","613076","0.0-13.0-2.13","43617","List1A","black","man","","","","null","","","","","","","","",""
"7710.399999976158","","","survey-text","105","620790","0.0-13.0-3.13","43617","List1A","black","man","","","","","{""Q0"":""ruth is copying kate""}","<img src=""stim_listA/copy7.gif""style=""height:400px;""></stim_listA>","is copying","","","","","",""
"null","<div style=""font-size:60px;"">+</div>","","html-keyboard-response","106","621293","0.0-13.0-0.14","43617","List1A","black","man","","","","null","","","","","","","","",""
"null","<img src=""stim_listA/copy2.gif""style=""height:400px;""></stim_listA>","","html-keyboard-response","107","623302","0.0-13.0-1.14","43617","List1A","black","man","","","","null","","","","","","","","",""
"null","is being copied by","","html-keyboard-response","108","625307","0.0-13.0-2.14","43617","List1A","black","man","","","","null","","","","","","","","",""
"14711.600000023842","","","survey-text","109","640023","0.0-13.0-3.14","43617","List1A","black","man","","","","","{""Q0"":""kate is being copied by fred""}","<img src=""stim_listA/copy2.gif""style=""height:400px;""></stim_listA>","is being copied by","","","","","",""
"null","<div style=""font-size:60px;"">+</div>","","html-keyboard-response","110","640524","0.0-13.0-0.15","43617","List1A","black","man","","","","null","","","","","","","","",""
"null","<img src=""stim_listA/kiss8.gif""style=""height:400px;""></stim_listA>","","html-keyboard-response","111","642531","0.0-13.0-1.15","43617","List1A","black","man","","","","null","","","","","","","","",""
"null","is being kissed by","","html-keyboard-response","112","644537","0.0-13.0-2.15","43617","List1A","black","man","","","","null","","","","","","","","",""
"17759.5","","","survey-text","113","662301","0.0-13.0-3.15","43617","List1A","black","man","","","","","{""Q0"":""kate is being kissed by jane""}","<img src=""stim_listA/kiss8.gif""style=""height:400px;""></stim_listA>","is being kissed by","","","","","",""
"null","<div style=""font-size:60px;"">+</div>","","html-keyboard-response","114","662807","0.0-13.0-0.16","43617","List1A","black","man","","","","null","","","","","","","","",""
"null","<img src=""stim_listA/seduce8.gif""style=""height:400px;""></stim_listA>","","html-keyboard-response","115","664810","0.0-13.0-1.16","43617","List1A","black","man","","","","null","","","","","","","","",""
"null","is being seduced by","","html-keyboard-response","116","666812","0.0-13.0-2.16","43617","List1A","black","man","","","","null","","","","","","","","",""
"16883.100000023842","","","survey-text","117","683700","0.0-13.0-3.16","43617","List1A","black","man","","","","","{""Q0"":""ruth is being seduced by kate""}","<img src=""stim_listA/seduce8.gif""style=""height:400px;""></stim_listA>","is being seduced by","","","","","",""
"null","<div style=""font-size:60px;"">+</div>","","html-keyboard-response","118","684205","0.0-13.0-0.17","43617","List1A","black","man","","","","null","","","","","","","","",""
"null","<img src=""stim_listA/look8.gif""style=""height:400px;""></stim_listA>","","html-keyboard-response","119","686215","0.0-13.0-1.17","43617","List1A","black","man","","","","null","","","","","","","","",""
"null","is being looked at by","","html-keyboard-response","120","688216","0.0-13.0-2.17","43617","List1A","black","man","","","","null","","","","","","","","",""
"18955.200000047684","","","survey-text","121","707176","0.0-13.0-3.17","43617","List1A","black","man","","","","","{""Q0"":""jane is being looked at by kate""}","<img src=""stim_listA/look8.gif""style=""height:400px;""></stim_listA>","is being looked at by","","","","","",""
"null","<div style=""font-size:60px;"">+</div>","","html-keyboard-response","122","707678","0.0-13.0-0.18","43617","List1A","black","man","","","","null","","","","","","","","",""
"null","<img src=""stim_listA/greet6.gif""style=""height:400px;""></stim_listA>","","html-keyboard-response","123","709687","0.0-13.0-1.18","43617","List1A","black","man","","","","null","","","","","","","","",""
"null","is being greeted by","","html-keyboard-response","124","711689","0.0-13.0-2.18","43617","List1A","black","man","","","","null","","","","","","","","",""
"10860.799999952316","","","survey-text","125","722553","0.0-13.0-3.18","43617","List1A","black","man","","","","","{""Q0"":""fred is being greeted by dave""}","<img src=""stim_listA/greet6.gif""style=""height:400px;""></stim_listA>","is being greeted by","","","","","",""
"null","<div style=""font-size:60px;"">+</div>","","html-keyboard-response","126","723056","0.0-13.0-0.19","43617","List1A","black","man","","","","null","","","","","","","","",""
"null","<img src=""stim_listA/greet3.gif""style=""height:400px;""></stim_listA>","","html-keyboard-response","127","725059","0.0-13.0-1.19","43617","List1A","black","man","","","","null","","","","","","","","",""
"null","is greeting","","html-keyboard-response","128","727061","0.0-13.0-2.19","43617","List1A","black","man","","","","null","","","","","","","","",""
"8308.899999976158","","","survey-text","129","735374","0.0-13.0-3.19","43617","List1A","black","man","","","","","{""Q0"":""dave is greeting ruth""}","<img src=""stim_listA/greet3.gif""style=""height:400px;""></stim_listA>","is greeting","","","","","",""
"9608.199999928474","<img src='img/portrait_matrix_list1.jpg' style='width:900px;height:500px;''></img><p>If you have memorised all the portraits and names and are ready to start, press Continue.</p><p><strong>Please note: Your memory of these faces will be tested 4 times during this experiment.</strong></p>","0","html-button-response","130","744984","0.0-14.0-0.0","43617","List1A","black","man","","","","","","","","","","","","",""
"5059.800000071526","<img src=""portrait/WW1.jpg""style=""height:400px;""></img>","1","html-button-response","131","751052","0.0-14.0-1.0","43617","List1A","black","man","","true","1","","","","","","","","","",""
"null","CORRECT","","html-keyboard-response","132","752565","0.0-14.0-2.0-0.0","43617","List1A","black","man","","","","null","","","","","","","","",""
"3388.5","<img src=""portrait/BW2.jpg""style=""height:400px;""></img>","2","html-button-response","133","755956","0.0-14.0-4.0","43617","List1A","black","man","","true","2","","","","","","","","","",""
"null","CORRECT","","html-keyboard-response","134","757461","0.0-14.0-5.0-0.0","43617","List1A","black","man","","","","null","","","","","","","","",""
"1226.3999999761581","<img src=""portrait/WW2.jpg""style=""height:400px;""></img>","3","html-button-response","135","758690","0.0-14.0-7.0","43617","List1A","black","man","","true","3","","","","","","","","","",""
"null","CORRECT","","html-keyboard-response","136","760203","0.0-14.0-8.0-0.0","43617","List1A","black","man","","","","null","","","","","","","","",""
"3377.899999976158","<img src=""portrait/WM2.jpg""style=""height:400px;""></img>","7","html-button-response","137","763583","0.0-14.0-10.0","43617","List1A","black","man","","true","7","","","","","","","","","",""
"null","CORRECT","","html-keyboard-response","138","765094","0.0-14.0-11.0-0.0","43617","List1A","black","man","","","","null","","","","","","","","",""
"2011.4000000953674","<img src=""portrait/BM2.jpg""style=""height:400px;""></img>","5","html-button-response","139","767108","0.0-14.0-13.0","43617","List1A","black","man","","true","5","","","","","","","","","",""
"null","CORRECT","","html-keyboard-response","140","768616","0.0-14.0-14.0-0.0","43617","List1A","black","man","","","","null","","","","","","","","",""
"1221.7000000476837","<img src=""portrait/BM1.jpg""style=""height:400px;""></img>","4","html-button-response","141","769841","0.0-14.0-16.0","43617","List1A","black","man","","true","4","","","","","","","","","",""
"null","CORRECT","","html-keyboard-response","142","771353","0.0-14.0-17.0-0.0","43617","List1A","black","man","","","","null","","","","","","","","",""
"1589.8000000715256","<img src=""portrait/BW1.jpg""style=""height:400px;""></img>","0","html-button-response","143","772945","0.0-14.0-19.0","43617","List1A","black","man","","true","0","","","","","","","","","",""
"null","CORRECT","","html-keyboard-response","144","774456","0.0-14.0-20.0-0.0","43617","List1A","black","man","","","","null","","","","","","","","",""
"3479.5","<img src=""portrait/WM1.jpg""style=""height:400px;""></img>","6","html-button-response","145","777938","0.0-14.0-22.0","43617","List1A","black","man","","true","6","","","","","","","","","",""
"null","CORRECT","","html-keyboard-response","146","779450","0.0-14.0-23.0-0.0","43617","List1A","black","man","","","","null","","","","","","","","",""
"1212.7000000476837","<p>You got 8 out of 8 right first time. Press Continue.</p>","0","html-button-response","147","780665","0.0-14.0-25.0","43617","List1A","black","man","","","","","","","","","","","","",""
"null","<div style=""font-size:60px;"">+</div>","","html-keyboard-response","148","782174","0.0-15.0-0.0","43617","List1A","black","man","","","","null","","","","","","","","",""
"null","<img src=""stim_listA/oppose5.gif""style=""height:400px;""></stim_listA>","","html-keyboard-response","149","784177","0.0-15.0-1.0","43617","List1A","black","man","","","","null","","","","","","","","",""
"null","is opposing","","html-keyboard-response","150","786183","0.0-15.0-2.0","43617","List1A","black","man","","","","null","","","","","","","","",""
"9260.299999952316","","","survey-text","151","795448","0.0-15.0-3.0","43617","List1A","black","man","","","","","{""Q0"":""mike is opposing dave""}","<img src=""stim_listA/oppose5.gif""style=""height:400px;""></stim_listA>","is opposing","","","","","",""
"null","<div style=""font-size:60px;"">+</div>","","html-keyboard-response","152","795950","0.0-15.0-0.1","43617","List1A","black","man","","","","null","","","","","","","","",""
"null","<img src=""stim_listA/challenge7.gif""style=""height:400px;""></stim_listA>","","html-keyboard-response","153","797955","0.0-15.0-1.1","43617","List1A","black","man","","","","null","","","","","","","","",""
"null","is challenging","","html-keyboard-response","154","799963","0.0-15.0-2.1","43617","List1A","black","man","","","","null","","","","","","","","",""
"10569.199999928474","","","survey-text","155","810536","0.0-15.0-3.1","43617","List1A","black","man","","","","","{""Q0"":""kate is challenging ruth""}","<img src=""stim_listA/challenge7.gif""style=""height:400px;""></stim_listA>","is challenging","","","","","",""
"null","<div style=""font-size:60px;"">+</div>","","html-keyboard-response","156","811038","0.0-15.0-0.2","43617","List1A","black","man","","","","null","","","","","","","","",""
"null","<img src=""stim_listA/seduce6.gif""style=""height:400px;""></stim_listA>","","html-keyboard-response","157","813044","0.0-15.0-1.2","43617","List1A","black","man","","","","null","","","","","","","","",""
"null","is being seduced by","","html-keyboard-response","158","815049","0.0-15.0-2.2","43617","List1A","black","man","","","","null","","","","","","","","",""
"11556.900000095367","","","survey-text","159","826610","0.0-15.0-3.2","43617","List1A","black","man","","","","","{""Q0"":""luke is being seduced by mike""}","<img src=""stim_listA/seduce6.gif""style=""height:400px;""></stim_listA>","is being seduced by","","","","","",""
"null","<div style=""font-size:60px;"">+</div>","","html-keyboard-response","160","827113","0.0-15.0-0.3","43617","List1A","black","man","","","","null","","","","","","","","",""
"null","<img src=""stim_listA/challenge6.gif""style=""height:400px;""></stim_listA>","","html-keyboard-response","161","829116","0.0-15.0-1.3","43617","List1A","black","man","","","","null","","","","","","","","",""
"null","is being challenged by","","html-keyboard-response","162","831118","0.0-15.0-2.3","43617","List1A","black","man","","","","null","","","","","","","","",""
"15425.700000047684","","","survey-text","163","846548","0.0-15.0-3.3","43617","List1A","black","man","","","","","{""Q0"":""dave is being challenged by fred""}","<img src=""stim_listA/challenge6.gif""style=""height:400px;""></stim_listA>","is being challenged by","","","","","",""
"null","<div style=""font-size:60px;"">+</div>","","html-keyboard-response","164","847050","0.0-15.0-0.4","43617","List1A","black","man","","","","null","","","","","","","","",""
"null","<img src=""stim_listA/copy6.gif""style=""height:400px;""></stim_listA>","","html-keyboard-response","165","849056","0.0-15.0-1.4","43617","List1A","black","man","","","","null","","","","","","","","",""
"null","is being copied by","","html-keyboard-response","166","851060","0.0-15.0-2.4","43617","List1A","black","man","","","","null","","","","","","","","",""
"10573.700000047684","","","survey-text","167","861639","0.0-15.0-3.4","43617","List1A","black","man","","","","","{""Q0"":""dave is being copied by fred""}","<img src=""stim_listA/copy6.gif""style=""height:400px;""></stim_listA>","is being copied by","","","","","",""
"null","<div style=""font-size:60px;"">+</div>","","html-keyboard-response","168","862141","0.0-15.0-0.5","43617","List1A","black","man","","","","null","","","","","","","","",""
"null","<img src=""stim_listA/shout8.gif""style=""height:400px;""></stim_listA>","","html-keyboard-response","169","864148","0.0-15.0-1.5","43617","List1A","black","man","","","","null","","","","","","","","",""
"null","is being shouted at by","","html-keyboard-response","170","866150","0.0-15.0-2.5","43617","List1A","black","man","","","","null","","","","","","","","",""
"12343.600000023842","","","survey-text","171","878498","0.0-15.0-3.5","43617","List1A","black","man","","","","","{""Q0"":""kate is being shouted at by jane""}","<img src=""stim_listA/shout8.gif""style=""height:400px;""></stim_listA>","is being shouted at by","","","","","",""
"null","<div style=""font-size:60px;"">+</div>","","html-keyboard-response","172","879002","0.0-15.0-0.6","43617","List1A","black","man","","","","null","","","","","","","","",""
"null","<img src=""stim_listA/oppose7.gif""style=""height:400px;""></stim_listA>","","html-keyboard-response","173","881009","0.0-15.0-1.6","43617","List1A","black","man","","","","null","","","","","","","","",""
"null","is opposing","","html-keyboard-response","174","883013","0.0-15.0-2.6","43617","List1A","black","man","","","","null","","","","","","","","",""
"8256.899999976158","","","survey-text","175","891274","0.0-15.0-3.6","43617","List1A","black","man","","","","","{""Q0"":""kate is opposing jane""}","<img src=""stim_listA/oppose7.gif""style=""height:400px;""></stim_listA>","is opposing","","","","","",""
"null","<div style=""font-size:60px;"">+</div>","","html-keyboard-response","176","891775","0.0-15.0-0.7","43617","List1A","black","man","","","","null","","","","","","","","",""
"null","<img src=""stim_listA/hug3.gif""style=""height:400px;""></stim_listA>","","html-keyboard-response","177","893784","0.0-15.0-1.7","43617","List1A","black","man","","","","null","","","","","","","","",""
"null","is hugging","","html-keyboard-response","178","895786","0.0-15.0-2.7","43617","List1A","black","man","","","","null","","","","","","","","",""
"7419","","","survey-text","179","903210","0.0-15.0-3.7","43617","List1A","black","man","","","","","{""Q0"":""luke is hugging ruth""}","<img src=""stim_listA/hug3.gif""style=""height:400px;""></stim_listA>","is hugging","","","","","",""
"null","<div style=""font-size:60px;"">+</div>","","html-keyboard-response","180","903712","0.0-15.0-0.8","43617","List1A","black","man","","","","null","","","","","","","","",""
"null","<img src=""stim_listA/touch5.gif""style=""height:400px;""></stim_listA>","","html-keyboard-response","181","905715","0.0-15.0-1.8","43617","List1A","black","man","","","","null","","","","","","","","",""
"null","is touching","","html-keyboard-response","182","907721","0.0-15.0-2.8","43617","List1A","black","man","","","","null","","","","","","","","",""
"9359","","","survey-text","183","917084","0.0-15.0-3.8","43617","List1A","black","man","","","","","{""Q0"":""dave is touching mike""}","<img src=""stim_listA/touch5.gif""style=""height:400px;""></stim_listA>","is touching","","","","","",""
"null","<div style=""font-size:60px;"">+</div>","","html-keyboard-response","184","917586","0.0-15.0-0.9","43617","List1A","black","man","","","","null","","","","","","","","",""
"null","<img src=""stim_listA/shout2.gif""style=""height:400px;""></stim_listA>","","html-keyboard-response","185","919595","0.0-15.0-1.9","43617","List1A","black","man","","","","null","","","","","","","","",""
"null","is being shouted at by","","html-keyboard-response","186","921602","0.0-15.0-2.9","43617","List1A","black","man","","","","null","","","","","","","","",""
"14046.5","","","survey-text","187","935652","0.0-15.0-3.9","43617","List1A","black","man","","","","","{""Q0"":""mike is being shouted at by kate""}","<img src=""stim_listA/shout2.gif""style=""height:400px;""></stim_listA>","is being shouted at by","","","","","",""
"null","<div style=""font-size:60px;"">+</div>","","html-keyboard-response","188","936154","0.0-15.0-0.10","43617","List1A","black","man","","","","null","","","","","","","","",""
"null","<img src=""stim_listA/shout1.gif""style=""height:400px;""></stim_listA>","","html-keyboard-response","189","938158","0.0-15.0-1.10","43617","List1A","black","man","","","","null","","","","","","","","",""
"null","is shouting at","","html-keyboard-response","190","940164","0.0-15.0-2.10","43617","List1A","black","man","","","","null","","","","","","","","",""
"7012.200000047684","","","survey-text","191","947180","0.0-15.0-3.10","43617","List1A","black","man","","","","","{""Q0"":""beth is shouting at fred""}","<img src=""stim_listA/shout1.gif""style=""height:400px;""></stim_listA>","is shouting at","","","","","",""
"null","<div style=""font-size:60px;"">+</div>","","html-keyboard-response","192","947683","0.0-15.0-0.11","43617","List1A","black","man","","","","null","","","","","","","","",""
"null","<img src=""stim_listA/oppose1.gif""style=""height:400px;""></stim_listA>","","html-keyboard-response","193","949693","0.0-15.0-1.11","43617","List1A","black","man","","","","null","","","","","","","","",""
"null","is opposing","","html-keyboard-response","194","951701","0.0-15.0-2.11","43617","List1A","black","man","","","","null","","","","","","","","",""
"7101.199999928474","","","survey-text","195","958806","0.0-15.0-3.11","43617","List1A","black","man","","","","","{""Q0"":""mike is opposing kate""}","<img src=""stim_listA/oppose1.gif""style=""height:400px;""></stim_listA>","is opposing","","","","","",""
"null","<div style=""font-size:60px;"">+</div>","","html-keyboard-response","196","959308","0.0-15.0-0.12","43617","List1A","black","man","","","","null","","","","","","","","",""
"null","<img src=""stim_listA/challenge8.gif""style=""height:400px;""></stim_listA>","","html-keyboard-response","197","961311","0.0-15.0-1.12","43617","List1A","black","man","","","","null","","","","","","","","",""
"null","is being challenged by","","html-keyboard-response","198","963313","0.0-15.0-2.12","43617","List1A","black","man","","","","null","","","","","","","","",""
"8377","","","survey-text","199","971694","0.0-15.0-3.12","43617","List1A","black","man","","","","","{""Q0"":""beth is being challenged by jane""}","<img src=""stim_listA/challenge8.gif""style=""height:400px;""></stim_listA>","is being challenged by","","","","","",""
"null","<div style=""font-size:60px;"">+</div>","","html-keyboard-response","200","972196","0.0-15.0-0.13","43617","List1A","black","man","","","","null","","","","","","","","",""
"null","<img src=""stim_listA/seduce3.gif""style=""height:400px;""></stim_listA>","","html-keyboard-response","201","974201","0.0-15.0-1.13","43617","List1A","black","man","","","","null","","","","","","","","",""
"null","is seducing","","html-keyboard-response","202","976208","0.0-15.0-2.13","43617","List1A","black","man","","","","null","","","","","","","","",""
"5295.800000071526","","","survey-text","203","981508","0.0-15.0-3.13","43617","List1A","black","man","","","","","{""Q0"":""luke is seducing jane""}","<img src=""stim_listA/seduce3.gif""style=""height:400px;""></stim_listA>","is seducing","","","","","",""
"null","<div style=""font-size:60px;"">+</div>","","html-keyboard-response","204","982010","0.0-15.0-0.14","43617","List1A","black","man","","","","null","","","","","","","","",""
"null","<img src=""stim_listA/challenge2.gif""style=""height:400px;""></stim_listA>","","html-keyboard-response","205","984018","0.0-15.0-1.14","43617","List1A","black","man","","","","null","","","","","","","","",""
"null","is being challenged by","","html-keyboard-response","206","986022","0.0-15.0-2.14","43617","List1A","black","man","","","","null","","","","","","","","",""
"10081.899999976158","","","survey-text","207","996108","0.0-15.0-3.14","43617","List1A","black","man","","","","","{""Q0"":""fred is being challenged by kate""}","<img src=""stim_listA/challenge2.gif""style=""height:400px;""></stim_listA>","is being challenged by","","","","","",""
"null","<div style=""font-size:60px;"">+</div>","","html-keyboard-response","208","996611","0.0-15.0-0.15","43617","List1A","black","man","","","","null","","","","","","","","",""
"null","<img src=""stim_listA/greet5.gif""style=""height:400px;""></stim_listA>","","html-keyboard-response","209","998614","0.0-15.0-1.15","43617","List1A","black","man","","","","null","","","","","","","","",""
"null","is greeting","","html-keyboard-response","210","1000616","0.0-15.0-2.15","43617","List1A","black","man","","","","null","","","","","","","","",""
"7910.5","","","survey-text","211","1008530","0.0-15.0-3.15","43617","List1A","black","man","","","","","{""Q0"":""luke is greeting mike""}","<img src=""stim_listA/greet5.gif""style=""height:400px;""></stim_listA>","is greeting","","","","","",""
"null","<div style=""font-size:60px;"">+</div>","","html-keyboard-response","212","1009032","0.0-15.0-0.16","43617","List1A","black","man","","","","null","","","","","","","","",""
"null","<img src=""stim_listA/greet8.gif""style=""height:400px;""></stim_listA>","","html-keyboard-response","213","1011039","0.0-15.0-1.16","43617","List1A","black","man","","","","null","","","","","","","","",""
"null","is being greeted by","","html-keyboard-response","214","1013041","0.0-15.0-2.16","43617","List1A","black","man","","","","null","","","","","","","","",""
"10563.5","","","survey-text","215","1023608","0.0-15.0-3.16","43617","List1A","black","man","","","","","{""Q0"":""jane is being greeted by beth""}","<img src=""stim_listA/greet8.gif""style=""height:400px;""></stim_listA>","is being greeted by","","","","","",""
"null","<div style=""font-size:60px;"">+</div>","","html-keyboard-response","216","1024110","0.0-15.0-0.17","43617","List1A","black","man","","","","null","","","","","","","","",""
"null","<img src=""stim_listA/kiss1.gif""style=""height:400px;""></stim_listA>","","html-keyboard-response","217","1026113","0.0-15.0-1.17","43617","List1A","black","man","","","","null","","","","","","","","",""
"null","is kissing","","html-keyboard-response","218","1028115","0.0-15.0-2.17","43617","List1A","black","man","","","","null","","","","","","","","",""
"5583.600000023842","","","survey-text","219","1033703","0.0-15.0-3.17","43617","List1A","black","man","","","","","{""Q0"":""fred is kissing beth""}","<img src=""stim_listA/kiss1.gif""style=""height:400px;""></stim_listA>","is kissing","","","","","",""
"null","<div style=""font-size:60px;"">+</div>","","html-keyboard-response","220","1034207","0.0-15.0-0.18","43617","List1A","black","man","","","","null","","","","","","","","",""
"null","<img src=""stim_listA/look4.gif""style=""height:400px;""></stim_listA>","","html-keyboard-response","221","1036212","0.0-15.0-1.18","43617","List1A","black","man","","","","null","","","","","","","","",""
"null","is being looked at by","","html-keyboard-response","222","1038221","0.0-15.0-2.18","43617","List1A","black","man","","","","null","","","","","","","","",""
"11770.5","","","survey-text","223","1049996","0.0-15.0-3.18","43617","List1A","black","man","","","","","{""Q0"":""jane is being looked at by dave""}","<img src=""stim_listA/look4.gif""style=""height:400px;""></stim_listA>","is being looked at by","","","","","",""
"null","<div style=""font-size:60px;"">+</div>","","html-keyboard-response","224","1050499","0.0-15.0-0.19","43617","List1A","black","man","","","","null","","","","","","","","",""
"null","<img src=""stim_listA/look6.gif""style=""height:400px;""></stim_listA>","","html-keyboard-response","225","1052508","0.0-15.0-1.19","43617","List1A","black","man","","","","null","","","","","","","","",""
"null","is being looked at by","","html-keyboard-response","226","1054510","0.0-15.0-2.19","43617","List1A","black","man","","","","null","","","","","","","","",""
"12990.5","","","survey-text","227","1067505","0.0-15.0-3.19","43617","List1A","black","man","","","","","{""Q0"":""mike is being looked at by dave""}","<img src=""stim_listA/look6.gif""style=""height:400px;""></stim_listA>","is being looked at by","","","","","",""
"4698.700000047684","<img src='img/portrait_matrix_list1.jpg' style='width:900px;height:500px;''></img><p>If you have memorised all the portraits and names and are ready to start, press Continue.</p><p><strong>Please note: Your memory of these faces will be tested 4 times during this experiment.</strong></p>","0","html-button-response","228","1072206","0.0-16.0-0.0","43617","List1A","black","man","","","","","","","","","","","","",""
"1990.5999999046326","<img src=""portrait/WW1.jpg""style=""height:400px;""></img>","1","html-button-response","229","1075204","0.0-16.0-1.0","43617","List1A","black","man","","true","1","","","","","","","","","",""
"null","CORRECT","","html-keyboard-response","230","1076712","0.0-16.0-2.0-0.0","43617","List1A","black","man","","","","null","","","","","","","","",""
"1374.2999999523163","<img src=""portrait/WM2.jpg""style=""height:400px;""></img>","7","html-button-response","231","1078089","0.0-16.0-4.0","43617","List1A","black","man","","true","7","","","","","","","","","",""
"null","CORRECT","","html-keyboard-response","232","1079596","0.0-16.0-5.0-0.0","43617","List1A","black","man","","","","null","","","","","","","","",""
"1455.6999999284744","<img src=""portrait/BM1.jpg""style=""height:400px;""></img>","4","html-button-response","233","1081054","0.0-16.0-7.0","43617","List1A","black","man","","true","4","","","","","","","","","",""
"null","CORRECT","","html-keyboard-response","234","1082564","0.0-16.0-8.0-0.0","43617","List1A","black","man","","","","null","","","","","","","","",""
"2400.5999999046326","<img src=""portrait/BW2.jpg""style=""height:400px;""></img>","2","html-button-response","235","1084967","0.0-16.0-10.0","43617","List1A","black","man","","true","2","","","","","","","","","",""
"null","CORRECT","","html-keyboard-response","236","1086479","0.0-16.0-11.0-0.0","43617","List1A","black","man","","","","null","","","","","","","","",""
"991","<img src=""portrait/WW2.jpg""style=""height:400px;""></img>","3","html-button-response","237","1087473","0.0-16.0-13.0","43617","List1A","black","man","","true","3","","","","","","","","","",""
"null","CORRECT","","html-keyboard-response","238","1088985","0.0-16.0-14.0-0.0","43617","List1A","black","man","","","","null","","","","","","","","",""
"3729.399999976158","<img src=""portrait/WM1.jpg""style=""height:400px;""></img>","6","html-button-response","239","1092717","0.0-16.0-16.0","43617","List1A","black","man","","true","6","","","","","","","","","",""
"null","CORRECT","","html-keyboard-response","240","1094227","0.0-16.0-17.0-0.0","43617","List1A","black","man","","","","null","","","","","","","","",""
"1801.2000000476837","<img src=""portrait/BW1.jpg""style=""height:400px;""></img>","0","html-button-response","241","1096030","0.0-16.0-19.0","43617","List1A","black","man","","true","0","","","","","","","","","",""
"null","CORRECT","","html-keyboard-response","242","1097537","0.0-16.0-20.0-0.0","43617","List1A","black","man","","","","null","","","","","","","","",""
"1880.3999999761581","<img src=""portrait/BM2.jpg""style=""height:400px;""></img>","5","html-button-response","243","1099419","0.0-16.0-22.0","43617","List1A","black","man","","true","5","","","","","","","","","",""
"null","CORRECT","","html-keyboard-response","244","1100931","0.0-16.0-23.0-0.0","43617","List1A","black","man","","","","null","","","","","","","","",""
"1204.5999999046326","<p>You got 8 out of 8 right first time. Press Continue.</p>","0","html-button-response","245","1102137","0.0-16.0-25.0","43617","List1A","black","man","","","","","","","","","","","","",""
"null","<div style=""font-size:60px;"">+</div>","","html-keyboard-response","246","1103647","0.0-17.0-0.0","43617","List1A","black","man","","","","null","","","","","","","","",""
"null","<img src=""stim_listA/look1.gif""style=""height:400px;""></stim_listA>","","html-keyboard-response","247","1105656","0.0-17.0-1.0","43617","List1A","black","man","","","","null","","","","","","","","",""
"null","is looking at","","html-keyboard-response","248","1107658","0.0-17.0-2.0","43617","List1A","black","man","","","","null","","","","","","","","",""
"7882.699999928474","","","survey-text","249","1115545","0.0-17.0-3.0","43617","List1A","black","man","","","","","{""Q0"":""beth is looking at fred""}","<img src=""stim_listA/look1.gif""style=""height:400px;""></stim_listA>","is looking at","","","","","",""
"null","<div style=""font-size:60px;"">+</div>","","html-keyboard-response","250","1116047","0.0-17.0-0.1","43617","List1A","black","man","","","","null","","","","","","","","",""
"null","<img src=""stim_listA/challenge5.gif""style=""height:400px;""></stim_listA>","","html-keyboard-response","251","1118053","0.0-17.0-1.1","43617","List1A","black","man","","","","null","","","","","","","","",""
"null","is challenging","","html-keyboard-response","252","1120059","0.0-17.0-2.1","43617","List1A","black","man","","","","null","","","","","","","","",""
"8245.899999976158","","","survey-text","253","1128309","0.0-17.0-3.1","43617","List1A","black","man","","","","","{""Q0"":""luke is challenging mike""}","<img src=""stim_listA/challenge5.gif""style=""height:400px;""></stim_listA>","is challenging","","","","","",""
"null","<div style=""font-size:60px;"">+</div>","","html-keyboard-response","254","1128811","0.0-17.0-0.2","43617","List1A","black","man","","","","null","","","","","","","","",""
"null","<img src=""stim_listA/seduce1.gif""style=""height:400px;""></stim_listA>","","html-keyboard-response","255","1130820","0.0-17.0-1.2","43617","List1A","black","man","","","","null","","","","","","","","",""
"null","is seducing","","html-keyboard-response","256","1132827","0.0-17.0-2.2","43617","List1A","black","man","","","","null","","","","","","","","",""
"7180.600000023842","","","survey-text","257","1140013","0.0-17.0-3.2","43617","List1A","black","man","","","","","{""Q0"":""kate is seducing fred""}","<img src=""stim_listA/seduce1.gif""style=""height:400px;""></stim_listA>","is seducing","","","","","",""
"null","<div style=""font-size:60px;"">+</div>","","html-keyboard-response","258","1140516","0.0-17.0-0.3","43617","List1A","black","man","","","","null","","","","","","","","",""
"null","<img src=""stim_listA/hug1.gif""style=""height:400px;""></stim_listA>","","html-keyboard-response","259","1142524","0.0-17.0-1.3","43617","List1A","black","man","","","","null","","","","","","","","",""
"null","is hugging","","html-keyboard-response","260","1144531","0.0-17.0-2.3","43617","List1A","black","man","","","","null","","","","","","","","",""
"5848.5","","","survey-text","261","1150384","0.0-17.0-3.3","43617","List1A","black","man","","","","","{""Q0"":""beth is hugging fred""}","<img src=""stim_listA/hug1.gif""style=""height:400px;""></stim_listA>","is hugging","","","","","",""
"null","<div style=""font-size:60px;"">+</div>","","html-keyboard-response","262","1150886","0.0-17.0-0.4","43617","List1A","black","man","","","","null","","","","","","","","",""
"null","<img src=""stim_listA/hug4.gif""style=""height:400px;""></stim_listA>","","html-keyboard-response","263","1152893","0.0-17.0-1.4","43617","List1A","black","man","","","","null","","","","","","","","",""
"null","is being hugged by","","html-keyboard-response","264","1154897","0.0-17.0-2.4","43617","List1A","black","man","","","","null","","","","","","","","",""
"8964.699999928474","","","survey-text","265","1163866","0.0-17.0-3.4","43617","List1A","black","man","","","","","{""Q0"":""jane is being hugged by dave""}","<img src=""stim_listA/hug4.gif""style=""height:400px;""></stim_listA>","is being hugged by","","","","","",""
"null","<div style=""font-size:60px;"">+</div>","","html-keyboard-response","266","1164369","0.0-17.0-0.5","43617","List1A","black","man","","","","null","","","","","","","","",""
"null","<img src=""stim_listA/seduce2.gif""style=""height:400px;""></stim_listA>","","html-keyboard-response","267","1166378","0.0-17.0-1.5","43617","List1A","black","man","","","","null","","","","","","","","",""
"null","is being seduced by","","html-keyboard-response","268","1168384","0.0-17.0-2.5","43617","List1A","black","man","","","","null","","","","","","","","",""
"14657.700000047684","","","survey-text","269","1183046","0.0-17.0-3.5","43617","List1A","black","man","","","","","{""Q0"":""mike is being seduced by beth""}","<img src=""stim_listA/seduce2.gif""style=""height:400px;""></stim_listA>","is being seduced by","","","","","",""
"null","<div style=""font-size:60px;"">+</div>","","html-keyboard-response","270","1183550","0.0-17.0-0.6","43617","List1A","black","man","","","","null","","","","","","","","",""
"null","<img src=""stim_listA/shout6.gif""style=""height:400px;""></stim_listA>","","html-keyboard-response","271","1185557","0.0-17.0-1.6","43617","List1A","black","man","","","","null","","","","","","","","",""
"null","is being shouted at by","","html-keyboard-response","272","1187564","0.0-17.0-2.6","43617","List1A","black","man","","","","null","","","","","","","","",""
"14124.5","","","survey-text","273","1201693","0.0-17.0-3.6","43617","List1A","black","man","","","","","{""Q0"":""dave is being shouted at by mike""}","<img src=""stim_listA/shout6.gif""style=""height:400px;""></stim_listA>","is being shouted at by","","","","","",""
"null","<div style=""font-size:60px;"">+</div>","","html-keyboard-response","274","1202195","0.0-17.0-0.7","43617","List1A","black","man","","","","null","","","","","","","","",""
"null","<img src=""stim_listA/copy3.gif""style=""height:400px;""></stim_listA>","","html-keyboard-response","275","1204198","0.0-17.0-1.7","43617","List1A","black","man","","","","null","","","","","","","","",""
"null","is copying","","html-keyboard-response","276","1206205","0.0-17.0-2.7","43617","List1A","black","man","","","","null","","","","","","","","",""
"6446.699999928474","","","survey-text","277","1212656","0.0-17.0-3.7","43617","List1A","black","man","","","","","{""Q0"":""dave is copying ruth""}","<img src=""stim_listA/copy3.gif""style=""height:400px;""></stim_listA>","is copying","","","","","",""
"null","<div style=""font-size:60px;"">+</div>","","html-keyboard-response","278","1213158","0.0-17.0-0.8","43617","List1A","black","man","","","","null","","","","","","","","",""
"null","<img src=""stim_listA/touch3.gif""style=""height:400px;""></stim_listA>","","html-keyboard-response","279","1215169","0.0-17.0-1.8","43617","List1A","black","man","","","","null","","","","","","","","",""
"null","is touching","","html-keyboard-response","280","1217178","0.0-17.0-2.8","43617","List1A","black","man","","","","null","","","","","","","","",""
"7702.899999976158","","","survey-text","281","1224885","0.0-17.0-3.8","43617","List1A","black","man","","","","","{""Q0"":""dave is touching jane""}","<img src=""stim_listA/touch3.gif""style=""height:400px;""></stim_listA>","is touching","","","","","",""
"null","<div style=""font-size:60px;"">+</div>","","html-keyboard-response","282","1225388","0.0-17.0-0.9","43617","List1A","black","man","","","","null","","","","","","","","",""
"null","<img src=""stim_listA/copy8.gif""style=""height:400px;""></stim_listA>","","html-keyboard-response","283","1227392","0.0-17.0-1.9","43617","List1A","black","man","","","","null","","","","","","","","",""
"null","is being copied by","","html-keyboard-response","284","1229397","0.0-17.0-2.9","43617","List1A","black","man","","","","null","","","","","","","","",""
"8337.700000047684","","","survey-text","285","1237739","0.0-17.0-3.9","43617","List1A","black","man","","","","","{""Q0"":""jane is being copied by beth""}","<img src=""stim_listA/copy8.gif""style=""height:400px;""></stim_listA>","is being copied by","","","","","",""
"null","<div style=""font-size:60px;"">+</div>","","html-keyboard-response","286","1238242","0.0-17.0-0.10","43617","List1A","black","man","","","","null","","","","","","","","",""
"null","<img src=""stim_listA/oppose4.gif""style=""height:400px;""></stim_listA>","","html-keyboard-response","287","1240250","0.0-17.0-1.10","43617","List1A","black","man","","","","null","","","","","","","","",""
"null","is being opposed by","","html-keyboard-response","288","1242256","0.0-17.0-2.10","43617","List1A","black","man","","","","null","","","","","","","","",""
"9551.099999904633","","","survey-text","289","1251811","0.0-17.0-3.10","43617","List1A","black","man","","","","","{""Q0"":""luke is being opposed by ruth""}","<img src=""stim_listA/oppose4.gif""style=""height:400px;""></stim_listA>","is being opposed by","","","","","",""
"null","<div style=""font-size:60px;"">+</div>","","html-keyboard-response","290","1252314","0.0-17.0-0.11","43617","List1A","black","man","","","","null","","","","","","","","",""
"null","<img src=""stim_listA/shout5.gif""style=""height:400px;""></stim_listA>","","html-keyboard-response","291","1254321","0.0-17.0-1.11","43617","List1A","black","man","","","","null","","","","","","","","",""
"null","is shouting at","","html-keyboard-response","292","1256328","0.0-17.0-2.11","43617","List1A","black","man","","","","null","","","","","","","","",""
"9805","","","survey-text","293","1266137","0.0-17.0-3.11","43617","List1A","black","man","","","","","{""Q0"":""luke is shouting at fred""}","<img src=""stim_listA/shout5.gif""style=""height:400px;""></stim_listA>","is shouting at","","","","","",""
"null","<div style=""font-size:60px;"">+</div>","","html-keyboard-response","294","1266641","0.0-17.0-0.12","43617","List1A","black","man","","","","null","","","","","","","","",""
"null","<img src=""stim_listA/oppose6.gif""style=""height:400px;""></stim_listA>","","html-keyboard-response","295","1268650","0.0-17.0-1.12","43617","List1A","black","man","","","","null","","","","","","","","",""
"null","is being opposed by","","html-keyboard-response","296","1270657","0.0-17.0-2.12","43617","List1A","black","man","","","","null","","","","","","","","",""
"12132.699999928474","","","survey-text","297","1282794","0.0-17.0-3.12","43617","List1A","black","man","","","","","{""Q0"":""luke is being opposed by fred""}","<img src=""stim_listA/oppose6.gif""style=""height:400px;""></stim_listA>","is being opposed by","","","","","",""
"null","<div style=""font-size:60px;"">+</div>","","html-keyboard-response","298","1283298","0.0-17.0-0.13","43617","List1A","black","man","","","","null","","","","","","","","",""
"null","<img src=""stim_listA/look2.gif""style=""height:400px;""></stim_listA>","","html-keyboard-response","299","1285302","0.0-17.0-1.13","43617","List1A","black","man","","","","null","","","","","","","","",""
"null","is being looked at by","","html-keyboard-response","300","1287307","0.0-17.0-2.13","43617","List1A","black","man","","","","null","","","","","","","","",""
"20761.100000023842","","","survey-text","301","1308072","0.0-17.0-3.13","43617","List1A","black","man","","","","","{""Q0"":""kate is being looked at by mike""}","<img src=""stim_listA/look2.gif""style=""height:400px;""></stim_listA>","is being looked at by","","","","","",""
"null","<div style=""font-size:60px;"">+</div>","","html-keyboard-response","302","1308575","0.0-17.0-0.14","43617","List1A","black","man","","","","null","","","","","","","","",""
"null","<img src=""stim_listA/kiss5.gif""style=""height:400px;""></stim_listA>","","html-keyboard-response","303","1310578","0.0-17.0-1.14","43617","List1A","black","man","","","","null","","","","","","","","",""
"null","is kissing","","html-keyboard-response","304","1312584","0.0-17.0-2.14","43617","List1A","black","man","","","","null","","","","","","","","",""
"5256.100000023842","","","survey-text","305","1317845","0.0-17.0-3.14","43617","List1A","black","man","","","","","{""Q0"":""luke is kissing fred""}","<img src=""stim_listA/kiss5.gif""style=""height:400px;""></stim_listA>","is kissing","","","","","",""
"null","<div style=""font-size:60px;"">+</div>","","html-keyboard-response","306","1318348","0.0-17.0-0.15","43617","List1A","black","man","","","","null","","","","","","","","",""
"null","<img src=""stim_listA/challenge1.gif""style=""height:400px;""></stim_listA>","","html-keyboard-response","307","1320354","0.0-17.0-1.15","43617","List1A","black","man","","","","null","","","","","","","","",""
"null","is challenging","","html-keyboard-response","308","1322362","0.0-17.0-2.15","43617","List1A","black","man","","","","null","","","","","","","","",""
"6382.5","","","survey-text","309","1328749","0.0-17.0-3.15","43617","List1A","black","man","","","","","{""Q0"":""beth is challenging mike""}","<img src=""stim_listA/challenge1.gif""style=""height:400px;""></stim_listA>","is challenging","","","","","",""
"null","<div style=""font-size:60px;"">+</div>","","html-keyboard-response","310","1329253","0.0-17.0-0.16","43617","List1A","black","man","","","","null","","","","","","","","",""
"null","<img src=""stim_listA/hug7.gif""style=""height:400px;""></stim_listA>","","html-keyboard-response","311","1331260","0.0-17.0-1.16","43617","List1A","black","man","","","","null","","","","","","","","",""
"null","is hugging","","html-keyboard-response","312","1333267","0.0-17.0-2.16","43617","List1A","black","man","","","","null","","","","","","","","",""
"5113.399999976158","","","survey-text","313","1338385","0.0-17.0-3.16","43617","List1A","black","man","","","","","{""Q0"":""ruth is hugging beth""}","<img src=""stim_listA/hug7.gif""style=""height:400px;""></stim_listA>","is hugging","","","","","",""
"null","<div style=""font-size:60px;"">+</div>","","html-keyboard-response","314","1338888","0.0-17.0-0.17","43617","List1A","black","man","","","","null","","","","","","","","",""
"null","<img src=""stim_listA/oppose8.gif""style=""height:400px;""></stim_listA>","","html-keyboard-response","315","1340898","0.0-17.0-1.17","43617","List1A","black","man","","","","null","","","","","","","","",""
"null","is being opposed by","","html-keyboard-response","316","1342906","0.0-17.0-2.17","43617","List1A","black","man","","","","null","","","","","","","","",""
"7124.100000023842","","","survey-text","317","1350035","0.0-17.0-3.17","43617","List1A","black","man","","","","","{""Q0"":""ruth is being opposed by beth""}","<img src=""stim_listA/oppose8.gif""style=""height:400px;""></stim_listA>","is being opposed by","","","","","",""
"null","<div style=""font-size:60px;"">+</div>","","html-keyboard-response","318","1350539","0.0-17.0-0.18","43617","List1A","black","man","","","","null","","","","","","","","",""
"null","<img src=""stim_listA/kiss4.gif""style=""height:400px;""></stim_listA>","","html-keyboard-response","319","1352546","0.0-17.0-1.18","43617","List1A","black","man","","","","null","","","","","","","","",""
"null","is being kissed by","","html-keyboard-response","320","1354550","0.0-17.0-2.18","43617","List1A","black","man","","","","null","","","","","","","","",""
"8439.799999952316","","","survey-text","321","1362994","0.0-17.0-3.18","43617","List1A","black","man","","","","","{""Q0"":""jane is being kissed by dave""}","<img src=""stim_listA/kiss4.gif""style=""height:400px;""></stim_listA>","is being kissed by","","","","","",""
"null","<div style=""font-size:60px;"">+</div>","","html-keyboard-response","322","1363498","0.0-17.0-0.19","43617","List1A","black","man","","","","null","","","","","","","","",""
"null","<img src=""stim_listA/kiss6.gif""style=""height:400px;""></stim_listA>","","html-keyboard-response","323","1365501","0.0-17.0-1.19","43617","List1A","black","man","","","","null","","","","","","","","",""
"null","is being kissed by","","html-keyboard-response","324","1367506","0.0-17.0-2.19","43617","List1A","black","man","","","","null","","","","","","","","",""
"7697.600000023842","","","survey-text","325","1375207","0.0-17.0-3.19","43617","List1A","black","man","","","","","{""Q0"":""dave is being kissed by mike""}","<img src=""stim_listA/kiss6.gif""style=""height:400px;""></stim_listA>","is being kissed by","","","","","",""
"2018.5999999046326","<img src='img/portrait_matrix_list1.jpg' style='width:900px;height:500px;''></img><p>If you have memorised all the portraits and names and are ready to start, press Continue.</p><p><strong>Please note: Your memory of these faces will be tested 4 times during this experiment.</strong></p>","0","html-button-response","326","1377228","0.0-18.0-0.0","43617","List1A","black","man","","","","","","","","","","","","",""
"2180.100000023842","<img src=""portrait/BM1.jpg""style=""height:400px;""></img>","4","html-button-response","327","1380417","0.0-18.0-1.0","43617","List1A","black","man","","true","4","","","","","","","","","",""
"null","CORRECT","","html-keyboard-response","328","1381933","0.0-18.0-2.0-0.0","43617","List1A","black","man","","","","null","","","","","","","","",""
"1588.7999999523163","<img src=""portrait/BW2.jpg""style=""height:400px;""></img>","2","html-button-response","329","1383525","0.0-18.0-4.0","43617","List1A","black","man","","true","2","","","","","","","","","",""
"null","CORRECT","","html-keyboard-response","330","1385041","0.0-18.0-5.0-0.0","43617","List1A","black","man","","","","null","","","","","","","","",""
"2149.5","<img src=""portrait/WM1.jpg""style=""height:400px;""></img>","6","html-button-response","331","1387193","0.0-18.0-7.0","43617","List1A","black","man","","true","6","","","","","","","","","",""
"null","CORRECT","","html-keyboard-response","332","1388706","0.0-18.0-8.0-0.0","43617","List1A","black","man","","","","null","","","","","","","","",""
"1356.3999999761581","<img src=""portrait/BM2.jpg""style=""height:400px;""></img>","5","html-button-response","333","1390065","0.0-18.0-10.0","43617","List1A","black","man","","true","5","","","","","","","","","",""
"null","CORRECT","","html-keyboard-response","334","1391575","0.0-18.0-11.0-0.0","43617","List1A","black","man","","","","null","","","","","","","","",""
"2440.2999999523163","<img src=""portrait/WW2.jpg""style=""height:400px;""></img>","3","html-button-response","335","1394017","0.0-18.0-13.0","43617","List1A","black","man","","true","3","","","","","","","","","",""
"null","CORRECT","","html-keyboard-response","336","1395534","0.0-18.0-14.0-0.0","43617","List1A","black","man","","","","null","","","","","","","","",""
"1701.6000000238419","<img src=""portrait/BW1.jpg""style=""height:400px;""></img>","0","html-button-response","337","1397238","0.0-18.0-16.0","43617","List1A","black","man","","true","0","","","","","","","","","",""
"null","CORRECT","","html-keyboard-response","338","1398753","0.0-18.0-17.0-0.0","43617","List1A","black","man","","","","null","","","","","","","","",""
"1886.7000000476837","<img src=""portrait/WM2.jpg""style=""height:400px;""></img>","7","html-button-response","339","1400642","0.0-18.0-19.0","43617","List1A","black","man","","true","7","","","","","","","","","",""
"null","CORRECT","","html-keyboard-response","340","1402152","0.0-18.0-20.0-0.0","43617","List1A","black","man","","","","null","","","","","","","","",""
"3535.3000000715256","<img src=""portrait/WW1.jpg""style=""height:400px;""></img>","1","html-button-response","341","1405690","0.0-18.0-22.0","43617","List1A","black","man","","true","1","","","","","","","","","",""
"null","CORRECT","","html-keyboard-response","342","1407200","0.0-18.0-23.0-0.0","43617","List1A","black","man","","","","null","","","","","","","","",""
"1112.8999999761581","<p>You got 8 out of 8 right first time. Press Continue.</p>","0","html-button-response","343","1408316","0.0-18.0-25.0","43617","List1A","black","man","","","","","","","","","","","","",""
"null","<div style=""font-size:60px;"">+</div>","","html-keyboard-response","344","1409833","0.0-19.0-0.0","43617","List1A","black","man","","","","null","","","","","","","","",""
"null","<img src=""stim_listA/challenge4.gif""style=""height:400px;""></stim_listA>","","html-keyboard-response","345","1411843","0.0-19.0-1.0","43617","List1A","black","man","","","","null","","","","","","","","",""
"null","is being challenged by","","html-keyboard-response","346","1413852","0.0-19.0-2.0","43617","List1A","black","man","","","","null","","","","","","","","",""
"10100","","","survey-text","347","1423957","0.0-19.0-3.0","43617","List1A","black","man","","","","","{""Q0"":""luke is being challenged by jane""}","<img src=""stim_listA/challenge4.gif""style=""height:400px;""></stim_listA>","is being challenged by","","","","","",""
"null","<div style=""font-size:60px;"">+</div>","","html-keyboard-response","348","1424461","0.0-19.0-0.1","43617","List1A","black","man","","","","null","","","","","","","","",""
"null","<img src=""stim_listA/challenge3.gif""style=""height:400px;""></stim_listA>","","html-keyboard-response","349","1426470","0.0-19.0-1.1","43617","List1A","black","man","","","","null","","","","","","","","",""
"null","is challenging","","html-keyboard-response","350","1428475","0.0-19.0-2.1","43617","List1A","black","man","","","","null","","","","","","","","",""
"5929.600000023842","","","survey-text","351","1434409","0.0-19.0-3.1","43617","List1A","black","man","","","","","{""Q0"":""ruth is challenging dave""}","<img src=""stim_listA/challenge3.gif""style=""height:400px;""></stim_listA>","is challenging","","","","","",""
"null","<div style=""font-size:60px;"">+</div>","","html-keyboard-response","352","1434913","0.0-19.0-0.2","43617","List1A","black","man","","","","null","","","","","","","","",""
"null","<img src=""stim_listA/copy5.gif""style=""height:400px;""></stim_listA>","","html-keyboard-response","353","1436918","0.0-19.0-1.2","43617","List1A","black","man","","","","null","","","","","","","","",""
"null","is copying","","html-keyboard-response","354","1438924","0.0-19.0-2.2","43617","List1A","black","man","","","","null","","","","","","","","",""
"8104","","","survey-text","355","1447032","0.0-19.0-3.2","43617","List1A","black","man","","","","","{""Q0"":""mike is copying luke""}","<img src=""stim_listA/copy5.gif""style=""height:400px;""></stim_listA>","is copying","","","","","",""
"null","<div style=""font-size:60px;"">+</div>","","html-keyboard-response","356","1447535","0.0-19.0-0.3","43617","List1A","black","man","","","","null","","","","","","","","",""
"null","<img src=""stim_listA/hug6.gif""style=""height:400px;""></stim_listA>","","html-keyboard-response","357","1449540","0.0-19.0-1.3","43617","List1A","black","man","","","","null","","","","","","","","",""
"null","is being hugged by","","html-keyboard-response","358","1451544","0.0-19.0-2.3","43617","List1A","black","man","","","","null","","","","","","","","",""
"5850.199999928474","","","survey-text","359","1457399","0.0-19.0-3.3","43617","List1A","black","man","","","","","{""Q0"":""dave is being hugged by mike""}","<img src=""stim_listA/hug6.gif""style=""height:400px;""></stim_listA>","is being hugged by","","","","","",""
"null","<div style=""font-size:60px;"">+</div>","","html-keyboard-response","360","1457902","0.0-19.0-0.4","43617","List1A","black","man","","","","null","","","","","","","","",""
"null","<img src=""stim_listA/hug2.gif""style=""height:400px;""></stim_listA>","","html-keyboard-response","361","1459906","0.0-19.0-1.4","43617","List1A","black","man","","","","null","","","","","","","","",""
"null","is being hugged by","","html-keyboard-response","362","1461910","0.0-19.0-2.4","43617","List1A","black","man","","","","null","","","","","","","","",""
"6841.899999976158","","","survey-text","363","1468756","0.0-19.0-3.4","43617","List1A","black","man","","","","","{""Q0"":""kate is being hugged by mike""}","<img src=""stim_listA/hug2.gif""style=""height:400px;""></stim_listA>","is being hugged by","","","","","",""
"null","<div style=""font-size:60px;"">+</div>","","html-keyboard-response","364","1469260","0.0-19.0-0.5","43617","List1A","black","man","","","","null","","","","","","","","",""
"null","<img src=""stim_listA/kiss3.gif""style=""height:400px;""></stim_listA>","","html-keyboard-response","365","1471270","0.0-19.0-1.5","43617","List1A","black","man","","","","null","","","","","","","","",""
"null","is kissing","","html-keyboard-response","366","1473273","0.0-19.0-2.5","43617","List1A","black","man","","","","null","","","","","","","","",""
"4141.699999928474","","","survey-text","367","1477419","0.0-19.0-3.5","43617","List1A","black","man","","","","","{""Q0"":""ruth is kissing luke""}","<img src=""stim_listA/kiss3.gif""style=""height:400px;""></stim_listA>","is kissing","","","","","",""
"null","<div style=""font-size:60px;"">+</div>","","html-keyboard-response","368","1477922","0.0-19.0-0.6","43617","List1A","black","man","","","","null","","","","","","","","",""
"null","<img src=""stim_listA/seduce4.gif""style=""height:400px;""></stim_listA>","","html-keyboard-response","369","1479929","0.0-19.0-1.6","43617","List1A","black","man","","","","null","","","","","","","","",""
"null","is being seduced by","","html-keyboard-response","370","1481936","0.0-19.0-2.6","43617","List1A","black","man","","","","null","","","","","","","","",""
"7126.399999976158","","","survey-text","371","1488984","0.0-19.0-3.6","43617","List1A","black","man","","","","","{""Q0"":""dave is being seduced by ruth""}","<img src=""stim_listA/seduce4.gif""style=""height:400px;""></stim_listA>","is being seduced by","","","","","",""
"null","<div style=""font-size:60px;"">+</div>","","html-keyboard-response","372","1489488","0.0-19.0-0.7","43617","List1A","black","man","","","","null","","","","","","","","",""
"null","<img src=""stim_listA/look3.gif""style=""height:400px;""></stim_listA>","","html-keyboard-response","373","1491497","0.0-19.0-1.7","43617","List1A","black","man","","","","null","","","","","","","","",""
"null","is looking at","","html-keyboard-response","374","1493507","0.0-19.0-2.7","43617","List1A","black","man","","","","null","","","","","","","","",""
"9177.399999976158","","","survey-text","375","1502689","0.0-19.0-3.7","43617","List1A","black","man","","","","","{""Q0"":""ruth is looking at luke""}","<img src=""stim_listA/look3.gif""style=""height:400px;""></stim_listA>","is looking at","","","","","",""
"null","<div style=""font-size:60px;"">+</div>","","html-keyboard-response","376","1503191","0.0-19.0-0.8","43617","List1A","black","man","","","","null","","","","","","","","",""
"null","<img src=""stim_listA/shout3.gif""style=""height:400px;""></stim_listA>","","html-keyboard-response","377","1505198","0.0-19.0-1.8","43617","List1A","black","man","","","","null","","","","","","","","",""
"null","is shouting at","","html-keyboard-response","378","1507204","0.0-19.0-2.8","43617","List1A","black","man","","","","null","","","","","","","","",""
"7517.100000023842","","","survey-text","379","1514725","0.0-19.0-3.8","43617","List1A","black","man","","","","","{""Q0"":""luke is shouting at ruth""}","<img src=""stim_listA/shout3.gif""style=""height:400px;""></stim_listA>","is shouting at","","","","","",""
"null","<div style=""font-size:60px;"">+</div>","","html-keyboard-response","380","1515228","0.0-19.0-0.9","43617","List1A","black","man","","","","null","","","","","","","","",""
"null","<img src=""stim_listA/kiss2.gif""style=""height:400px;""></stim_listA>","","html-keyboard-response","381","1517236","0.0-19.0-1.9","43617","List1A","black","man","","","","null","","","","","","","","",""
"null","is being kissed by","","html-keyboard-response","382","1519241","0.0-19.0-2.9","43617","List1A","black","man","","","","null","","","","","","","","",""
"6347.299999952316","","","survey-text","383","1525593","0.0-19.0-3.9","43617","List1A","black","man","","","","","{""Q0"":""kate is being kissed by mike""}","<img src=""stim_listA/kiss2.gif""style=""height:400px;""></stim_listA>","is being kissed by","","","","","",""
"null","<div style=""font-size:60px;"">+</div>","","html-keyboard-response","384","1526095","0.0-19.0-0.10","43617","List1A","black","man","","","","null","","","","","","","","",""
"null","<img src=""stim_listA/seduce5.gif""style=""height:400px;""></stim_listA>","","html-keyboard-response","385","1528098","0.0-19.0-1.10","43617","List1A","black","man","","","","null","","","","","","","","",""
"null","is seducing","","html-keyboard-response","386","1530105","0.0-19.0-2.10","43617","List1A","black","man","","","","null","","","","","","","","",""
"6107.100000023842","","","survey-text","387","1536219","0.0-19.0-3.10","43617","List1A","black","man","","","","","{""Q0"":""dave is seducing fred""}","<img src=""stim_listA/seduce5.gif""style=""height:400px;""></stim_listA>","is seducing","","","","","",""
"null","<div style=""font-size:60px;"">+</div>","","html-keyboard-response","388","1536721","0.0-19.0-0.11","43617","List1A","black","man","","","","null","","","","","","","","",""
"null","<img src=""stim_listA/kiss7.gif""style=""height:400px;""></stim_listA>","","html-keyboard-response","389","1538728","0.0-19.0-1.11","43617","List1A","black","man","","","","null","","","","","","","","",""
"null","is kissing","","html-keyboard-response","390","1540731","0.0-19.0-2.11","43617","List1A","black","man","","","","null","","","","","","","","",""
"7276.799999952316","","","survey-text","391","1548012","0.0-19.0-3.11","43617","List1A","black","man","","","","","{""Q0"":""beth is kissing ruth""}","<img src=""stim_listA/kiss7.gif""style=""height:400px;""></stim_listA>","is kissing","","","","","",""
"null","<div style=""font-size:60px;"">+</div>","","html-keyboard-response","392","1548516","0.0-19.0-0.12","43617","List1A","black","man","","","","null","","","","","","","","",""
"null","<img src=""stim_listA/copy1.gif""style=""height:400px;""></stim_listA>","","html-keyboard-response","393","1550520","0.0-19.0-1.12","43617","List1A","black","man","","","","null","","","","","","","","",""
"null","is copying","","html-keyboard-response","394","1552521","0.0-19.0-2.12","43617","List1A","black","man","","","","null","","","","","","","","",""
"5111.200000047684","","","survey-text","395","1557636","0.0-19.0-3.12","43617","List1A","black","man","","","","","{""Q0"":""mike is copying beth""}","<img src=""stim_listA/copy1.gif""style=""height:400px;""></stim_listA>","is copying","","","","","",""
"null","<div style=""font-size:60px;"">+</div>","","html-keyboard-response","396","1558142","0.0-19.0-0.13","43617","List1A","black","man","","","","null","","","","","","","","",""
"null","<img src=""stim_listA/shout4.gif""style=""height:400px;""></stim_listA>","","html-keyboard-response","397","1560145","0.0-19.0-1.13","43617","List1A","black","man","","","","null","","","","","","","","",""
"null","is being shouted at by","","html-keyboard-response","398","1562148","0.0-19.0-2.13","43617","List1A","black","man","","","","null","","","","","","","","",""
"8769.899999976158","","","survey-text","399","1570922","0.0-19.0-3.13","43617","List1A","black","man","","","","","{""Q0"":""jane is being shouted at by dave""}","<img src=""stim_listA/shout4.gif""style=""height:400px;""></stim_listA>","is being shouted at by","","","","","",""
"null","<div style=""font-size:60px;"">+</div>","","html-keyboard-response","400","1571427","0.0-19.0-0.14","43617","List1A","black","man","","","","null","","","","","","","","",""
"null","<img src=""stim_listA/look5.gif""style=""height:400px;""></stim_listA>","","html-keyboard-response","401","1573435","0.0-19.0-1.14","43617","List1A","black","man","","","","null","","","","","","","","",""
"null","is looking at","","html-keyboard-response","402","1575442","0.0-19.0-2.14","43617","List1A","black","man","","","","null","","","","","","","","",""
"7671","","","survey-text","403","1583117","0.0-19.0-3.14","43617","List1A","black","man","","","","","{""Q0"":""fred is looking at luke""}","<img src=""stim_listA/look5.gif""style=""height:400px;""></stim_listA>","is looking at","","","","","",""
"null","<div style=""font-size:60px;"">+</div>","","html-keyboard-response","404","1583619","0.0-19.0-0.15","43617","List1A","black","man","","","","null","","","","","","","","",""
"null","<img src=""stim_listA/oppose3.gif""style=""height:400px;""></stim_listA>","","html-keyboard-response","405","1585622","0.0-19.0-1.15","43617","List1A","black","man","","","","null","","","","","","","","",""
"null","is opposing","","html-keyboard-response","406","1587623","0.0-19.0-2.15","43617","List1A","black","man","","","","null","","","","","","","","",""
"5560.299999952316","","","survey-text","407","1593188","0.0-19.0-3.15","43617","List1A","black","man","","","","","{""Q0"":""dave is opposing jane""}","<img src=""stim_listA/oppose3.gif""style=""height:400px;""></stim_listA>","is opposing","","","","","",""
"null","<div style=""font-size:60px;"">+</div>","","html-keyboard-response","408","1593693","0.0-19.0-0.16","43617","List1A","black","man","","","","null","","","","","","","","",""
"null","<img src=""stim_listA/greet1.gif""style=""height:400px;""></stim_listA>","","html-keyboard-response","409","1595700","0.0-19.0-1.16","43617","List1A","black","man","","","","null","","","","","","","","",""
"null","is greeting","","html-keyboard-response","410","1597706","0.0-19.0-2.16","43617","List1A","black","man","","","","null","","","","","","","","",""
"6088.800000071526","","","survey-text","411","1603799","0.0-19.0-3.16","43617","List1A","black","man","","","","","{""Q0"":""beth is greeting mike""}","<img src=""stim_listA/greet1.gif""style=""height:400px;""></stim_listA>","is greeting","","","","","",""
"null","<div style=""font-size:60px;"">+</div>","","html-keyboard-response","412","1604305","0.0-19.0-0.17","43617","List1A","black","man","","","","null","","","","","","","","",""
"null","<img src=""stim_listA/greet2.gif""style=""height:400px;""></stim_listA>","","html-keyboard-response","413","1606312","0.0-19.0-1.17","43617","List1A","black","man","","","","null","","","","","","","","",""
"null","is being greeted by","","html-keyboard-response","414","1608318","0.0-19.0-2.17","43617","List1A","black","man","","","","null","","","","","","","","",""
"9414.399999976158","","","survey-text","415","1617737","0.0-19.0-3.17","43617","List1A","black","man","","","","","{""Q0"":""kate is being greeted by fred""}","<img src=""stim_listA/greet2.gif""style=""height:400px;""></stim_listA>","is being greeted by","","","","","",""
"null","<div style=""font-size:60px;"">+</div>","","html-keyboard-response","416","1618240","0.0-19.0-0.18","43617","List1A","black","man","","","","null","","","","","","","","",""
"null","<img src=""stim_listA/touch2.gif""style=""height:400px;""></stim_listA>","","html-keyboard-response","417","1620248","0.0-19.0-1.18","43617","List1A","black","man","","","","null","","","","","","","","",""
"null","is being touched by","","html-keyboard-response","418","1622253","0.0-19.0-2.18","43617","List1A","black","man","","","","null","","","","","","","","",""
"10983.199999928474","","","survey-text","419","1633240","0.0-19.0-3.18","43617","List1A","black","man","","","","","{""Q0"":""beth is being touched by fred""}","<img src=""stim_listA/touch2.gif""style=""height:400px;""></stim_listA>","is being touched by","","","","","",""
"null","<div style=""font-size:60px;"">+</div>","","html-keyboard-response","420","1633742","0.0-19.0-0.19","43617","List1A","black","man","","","","null","","","","","","","","",""
"null","<img src=""stim_listA/touch8.gif""style=""height:400px;""></stim_listA>","","html-keyboard-response","421","1635745","0.0-19.0-1.19","43617","List1A","black","man","","","","null","","","","","","","","",""
"null","is being touched by","","html-keyboard-response","422","1637747","0.0-19.0-2.19","43617","List1A","black","man","","","","null","","","","","","","","",""
"7638.300000071526","","","survey-text","423","1645391","0.0-19.0-3.19","43617","List1A","black","man","","","","","{""Q0"":""ruth is being touched by beth""}","<img src=""stim_listA/touch8.gif""style=""height:400px;""></stim_listA>","is being touched by","","","","","",""
"1934.2000000476837","<p>Thank you for completing that task.</p><p>The final part of this session is a questionnaire that will take about 4 minutes.</p><p>Press Continue.</p>","0","html-button-response","424","1647327","0.0-20.0","43617","List1A","black","man","","","","","","","","","","","","",""
"45049.5","","","survey-text","425","1693388","0.0-21.0","43617","List1A","black","man","","","","","{""Q0"":""35"",""Q1"":""english"",""Q2"":""english"",""Q3"":""united states of america"",""Q4"":""american"",""Q5"":""black/african american"",""Q6"":""male""}","","","demographics","","","","",""
"1558.3999999761581","<p>Have you lived in the USA for the last 5 years or more?</p>","0","html-button-response","426","1694949","0.0-22.0","43617","List1A","black","man","","","","","","","","fiveyears","","","","",""
"1422.5","<p>Move the slider to show the extent to which you agree with the following statements.</p>","0","html-button-response","427","1697380","0.0-23.0","43617","List1A","black","man","","","","","","","","","","","","",""
"3878.7000000476837","","","html-slider-response","428","1702266","0.0-24.0-0.0-0.0","43617","List1A","black","man","","","","","","","","survey_race","87","","","The older I get, the wiser I feel.","filler"
"5646.600000023842","","","html-slider-response","429","1707915","0.0-24.0-0.0-0.1","43617","List1A","black","man","","","","","","","","survey_race","87","","","I feel committed to my race.","committed"
"3416","","","html-slider-response","430","1711334","0.0-24.0-0.0-0.2","43617","List1A","black","man","","","","","","","","survey_race","89","","","People of my race are very similar to each other.","verysimilar"
"2908","","","html-slider-response","431","1714244","0.0-24.0-0.0-0.3","43617","List1A","black","man","","","","","","","","survey_race","78","","","The fact that I am my race is an important part of my identity.","identity"
"4810.799999952316","","","html-slider-response","432","1719057","0.0-24.0-0.0-0.4","43617","List1A","black","man","","","","","","","","survey_race","41","","","I often think about the fact that I am my age.","filler"
"2809.2000000476837","","","html-slider-response","433","1721870","0.0-24.0-0.0-0.5","43617","List1A","black","man","","","","","","","","survey_race","70","","","Being my race is an important part of how I see myself.","important"
"3002.600000023842","","","html-slider-response","434","1724875","0.0-24.0-0.0-0.6","43617","List1A","black","man","","","","","","","","survey_race","73","","","I enjoy being in large groups.","filler"
"3123","","","html-slider-response","435","1728000","0.0-24.0-0.0-0.7","43617","List1A","black","man","","","","","","","","survey_race","79","","","It is pleasant to be my race.","pleasant"
"4694.100000023842","","","html-slider-response","436","1732696","0.0-24.0-0.0-0.8","43617","List1A","black","man","","","","","","","","survey_race","42","","","Getting older does not worry me.","filler"
"3528.399999976158","","","html-slider-response","437","1736227","0.0-24.0-0.0-0.9","43617","List1A","black","man","","","","","","","","survey_race","82","","","I think that my race has a lot to be proud of.","proud"
"10059.5","","","html-slider-response","438","1746290","0.0-24.0-0.0-0.10","43617","List1A","black","man","","","","","","","","survey_race","79","","","I am glad to be the age I am.","filler"
"3442","","","html-slider-response","439","1749735","0.0-24.0-0.0-0.11","43617","List1A","black","man","","","","","","","","survey_race","92","","","I am similar to the average person of my race.","similar"
"8042.399999976158","","","html-slider-response","440","1757778","0.0-24.0-0.0-0.12","43617","List1A","black","man","","","","","","","","survey_race","79","","","I have a lot in common with people of a similar age to me.","filler"
"5251.600000023842","","","html-slider-response","441","1763032","0.0-24.0-0.0-0.13","43617","List1A","black","man","","","","","","","","survey_race","88","","","People my age have a lot in common with each other.","filler"
"3280.7999999523163","","","html-slider-response","442","1766315","0.0-24.0-0.0-0.14","43617","List1A","black","man","","","","","","","","survey_race","78","","","I am glad to be my race.","glad"
"2908.2999999523163","","","html-slider-response","443","1769226","0.0-24.0-0.0-0.15","43617","List1A","black","man","","","","","","","","survey_race","92","","","People of my race have a lot in common with each other.","common"
"14815.399999976158","","","html-slider-response","444","1784044","0.0-24.0-0.0-0.16","43617","List1A","black","man","","","","","","","","survey_race","33","","","I consider myself an extrovert.","filler"
"2204.2999999523163","","","html-slider-response","445","1786251","0.0-24.0-0.0-0.17","43617","List1A","black","man","","","","","","","","survey_race","70","","","I consider myself an introvert.","filler"
"2723.899999976158","","","html-slider-response","446","1788977","0.0-24.0-0.0-0.18","43617","List1A","black","man","","","","","","","","survey_race","92","","","I feel solidarity with my race.","solidarity"
"2771.3000000715256","","","html-slider-response","447","1791750","0.0-24.0-0.0-0.19","43617","List1A","black","man","","","","","","","","survey_race","82","","","I am glad to be my age.","filler"
"1918.8000000715256","","","html-slider-response","448","1793671","0.0-24.0-0.0-0.20","43617","List1A","black","man","","","","","","","","survey_race","80","","","Being my race gives me a good feeling.","feeling"
"2126.0999999046326","","","html-slider-response","449","1795799","0.0-24.0-0.0-0.21","43617","List1A","black","man","","","","","","","","survey_race","81","","","I feel a bond with people the same age as me.","filler"
"1847.8999999761581","","","html-slider-response","450","1797649","0.0-24.0-0.0-0.22","43617","List1A","black","man","","","","","","","","survey_race","81","","","I often think about the fact that I am my race.","often"
"2014.5","","","html-slider-response","451","1799665","0.0-24.0-0.0-0.23","43617","List1A","black","man","","","","","","","","survey_race","84","","","I feel solidarity with people the same age as me.","filler"
"2070.1999999284744","","","html-slider-response","452","1801737","0.0-24.0-0.0-0.24","43617","List1A","black","man","","","","","","","","survey_race","84","","","I have a lot in common with the average person of my race.","average"
"2077.899999976158","","","html-slider-response","453","1803816","0.0-24.0-0.0-0.25","43617","List1A","black","man","","","","","","","","survey_race","83","","","Being my age gives me a good feeling.","filler"
"2914.7000000476837","","","html-slider-response","454","1806733","0.0-24.0-0.0-0.26","43617","List1A","black","man","","","","","","","","survey_race","26","","","My age is not an important part of who I am.","filler"
"2016.1000000238419","","","html-slider-response","455","1808752","0.0-24.0-0.0-0.27","43617","List1A","black","man","","","","","","","","survey_race","81","","","I feel a bond with my race.","bond"
"2283.4000000953674","","","html-slider-response","456","1811037","0.0-24.0-1.0-0.0","43617","List1A","black","man","","","","","","","","survey_gender","84","","","People of my gender have a lot in common with each other.","common"
"2915.2000000476837","","","html-slider-response","457","1813955","0.0-24.0-1.0-0.1","43617","List1A","black","man","","","","","","","","survey_gender","7","","","Routine is not important to me.","filler"
"2650.2999999523163","","","html-slider-response","458","1816607","0.0-24.0-1.0-0.2","43617","List1A","black","man","","","","","","","","survey_gender","77","","","I feel solidarity with my gender.","solidarity"
"3440.899999976158","","","html-slider-response","459","1820051","0.0-24.0-1.0-0.3","43617","List1A","black","man","","","","","","","","survey_gender","77","","","I feel a bond with my gender.","bond"
"2837.2000000476837","","","html-slider-response","460","1822889","0.0-24.0-1.0-0.4","43617","List1A","black","man","","","","","","","","survey_gender","79","","","I think that my gender has a lot to be proud of.","proud"
"5034.399999976158","","","html-slider-response","461","1827926","0.0-24.0-1.0-0.5","43617","List1A","black","man","","","","","","","","survey_gender","66","","","Family is not more important to me than friendship.","filler"
"2411.2000000476837","","","html-slider-response","462","1830340","0.0-24.0-1.0-0.6","43617","List1A","black","man","","","","","","","","survey_gender","74","","","It is pleasant to be my gender.","pleasant"
"2168.2000000476837","","","html-slider-response","463","1832511","0.0-24.0-1.0-0.7","43617","List1A","black","man","","","","","","","","survey_gender","76","","","I have a lot in common with the average person of my gender.","average"
"2163.399999976158","","","html-slider-response","464","1834677","0.0-24.0-1.0-0.8","43617","List1A","black","man","","","","","","","","survey_gender","82","","","Being my gender gives me a good feeling.","feeling"
"2724.7000000476837","","","html-slider-response","465","1837404","0.0-24.0-1.0-0.9","43617","List1A","black","man","","","","","","","","survey_gender","79","","","Being my gender is an important part of how I see myself.","important"
"2118.899999976158","","","html-slider-response","466","1839525","0.0-24.0-1.0-0.10","43617","List1A","black","man","","","","","","","","survey_gender","77","","","It is not always easy for people to know what I am thinking.","filler"
"1908.8999999761581","","","html-slider-response","467","1841436","0.0-24.0-1.0-0.11","43617","List1A","black","man","","","","","","","","survey_gender","81","","","I feel solidarity with my friends.","filler"
"3091","","","html-slider-response","468","1844529","0.0-24.0-1.0-0.12","43617","List1A","black","man","","","","","","","","survey_gender","69","","","People of my gender are very similar to each other.","verysimilar"
"3025.8000000715256","","","html-slider-response","469","1847557","0.0-24.0-1.0-0.13","43617","List1A","black","man","","","","","","","","survey_gender","93","","","Being around my friends gives me a good feeling.","filler"
"2763.7999999523163","","","html-slider-response","470","1850322","0.0-24.0-1.0-0.14","43617","List1A","black","man","","","","","","","","survey_gender","95","","","I often think about my actions.","filler"
"5863.699999928474","","","html-slider-response","471","1856189","0.0-24.0-1.0-0.15","43617","List1A","black","man","","","","","","","","survey_gender","45","","","I feel committed to my gender.","committed"
"1880.2999999523163","","","html-slider-response","472","1858071","0.0-24.0-1.0-0.16","43617","List1A","black","man","","","","","","","","survey_gender","69","","","The fact that I am my gender is an important part of my identity.","identity"
"3409.5","","","html-slider-response","473","1861483","0.0-24.0-1.0-0.17","43617","List1A","black","man","","","","","","","","survey_gender","17","","","I often think about the fact that I am my gender.","often"
"2536.5","","","html-slider-response","474","1864023","0.0-24.0-1.0-0.18","43617","List1A","black","man","","","","","","","","survey_gender","74","","","I feel a bond with my friends.","filler"
"1907","","","html-slider-response","475","1865932","0.0-24.0-1.0-0.19","43617","List1A","black","man","","","","","","","","survey_gender","82","","","I have a lot in common with my friends.","filler"
"1939.2999999523163","","","html-slider-response","476","1867873","0.0-24.0-1.0-0.20","43617","List1A","black","man","","","","","","","","survey_gender","80","","","I am glad to have the friends that I have.","filler"
"1950.8999999761581","","","html-slider-response","477","1869826","0.0-24.0-1.0-0.21","43617","List1A","black","man","","","","","","","","survey_gender","87","","","My friends understand me.","filler"
"2439.2999999523163","","","html-slider-response","478","1872266","0.0-24.0-1.0-0.22","43617","List1A","black","man","","","","","","","","survey_gender","99","","","I consider myself a highly empathetic person.","filler"
"2611.600000023842","","","html-slider-response","479","1874880","0.0-24.0-1.0-0.23","43617","List1A","black","man","","","","","","","","survey_gender","64","","","I am similar to the average person of my gender.","similar"
