rt,stimulus,button_pressed,trial_type,trial_index,time_elapsed,internal_node_id,subject,list,ppt_race,ppt_gender,url,first_guess,correct,key_press,responses,image_type,phrase_type,test_part,response,stimulus1,stimulus2,question_type,survey_item
3899.8,Welcome to the experiment. Press Continue to begin.,0,html-button-response,0,3902,0.0-0.0,44324,List2A,black,woman,,,,,,,,,,,,,
129353.5,,,external-html,1,134402,0.0-1.0,44324,List2A,black,woman,consent.html,,,,,,,,,,,,
71773.9,"<p>On the next page, you will see portraits of 8 people and their names.</p><p>Your first task is to take a few minutes to memorise the names of these people.</p><p>You will have to recall their names during the rest of the experiment, so it is</p><p>essential that you try to memorise these people and their names as best as you can.</p><br><p><strong>You will then be tested on your memory of these names and portraits.</strong></p><br><p>The experiment will start after you have completed this memory test.</p><br><p>Ready?</p>",0,html-button-response,2,206177,0.0-2.0,44324,List2A,black,woman,,,,,,,,,,,,,
101041.6,"<img src='img/portrait_matrix_list2.jpg' style='width:900px;height:500px;''></img><p>If you have memorised all the portraits and names and are ready to start, press Continue.</p><p><strong>Please note: Your memory of these faces will be tested 4 times during this experiment.</strong></p>",0,html-button-response,3,308232,0.0-3.0-0.0,44324,List2A,black,woman,,,,,,,,,,,,,
4093.4,"<img src=""portrait/WW2.jpg""style=""height:400px;""></img>",3,html-button-response,4,313337,0.0-3.0-1.0,44324,List2A,black,woman,,TRUE,3,,,,,,,,,,
null,CORRECT,,html-keyboard-response,5,314859,0.0-3.0-2.0-0.0,44324,List2A,black,woman,,,,null,,,,,,,,,
2502.3,"<img src=""portrait/BM1.jpg""style=""height:400px;""></img>",4,html-button-response,6,317363,0.0-3.0-4.0,44324,List2A,black,woman,,TRUE,4,,,,,,,,,,
null,CORRECT,,html-keyboard-response,7,318890,0.0-3.0-5.0-0.0,44324,List2A,black,woman,,,,null,,,,,,,,,
3650.7,"<img src=""portrait/WM1.jpg""style=""height:400px;""></img>",6,html-button-response,8,322542,0.0-3.0-7.0,44324,List2A,black,woman,,TRUE,6,,,,,,,,,,
null,CORRECT,,html-keyboard-response,9,324072,0.0-3.0-8.0-0.0,44324,List2A,black,woman,,,,null,,,,,,,,,
3202.3,"<img src=""portrait/BW1.jpg""style=""height:400px;""></img>",0,html-button-response,10,327275,0.0-3.0-10.0,44324,List2A,black,woman,,TRUE,0,,,,,,,,,,
null,CORRECT,,html-keyboard-response,11,328805,0.0-3.0-11.0-0.0,44324,List2A,black,woman,,,,null,,,,,,,,,
2971.5,"<img src=""portrait/BM2.jpg""style=""height:400px;""></img>",5,html-button-response,12,331778,0.0-3.0-13.0,44324,List2A,black,woman,,TRUE,5,,,,,,,,,,
null,CORRECT,,html-keyboard-response,13,333304,0.0-3.0-14.0-0.0,44324,List2A,black,woman,,,,null,,,,,,,,,
3242.2,"<img src=""portrait/WM2.jpg""style=""height:400px;""></img>",7,html-button-response,14,336548,0.0-3.0-16.0,44324,List2A,black,woman,,TRUE,7,,,,,,,,,,
null,CORRECT,,html-keyboard-response,15,338064,0.0-3.0-17.0-0.0,44324,List2A,black,woman,,,,null,,,,,,,,,
2859,"<img src=""portrait/WW1.jpg""style=""height:400px;""></img>",1,html-button-response,16,340924,0.0-3.0-19.0,44324,List2A,black,woman,,TRUE,1,,,,,,,,,,
null,CORRECT,,html-keyboard-response,17,342445,0.0-3.0-20.0-0.0,44324,List2A,black,woman,,,,null,,,,,,,,,
3069.7,"<img src=""portrait/BW2.jpg""style=""height:400px;""></img>",2,html-button-response,18,345516,0.0-3.0-22.0,44324,List2A,black,woman,,TRUE,2,,,,,,,,,,
null,CORRECT,,html-keyboard-response,19,347042,0.0-3.0-23.0-0.0,44324,List2A,black,woman,,,,null,,,,,,,,,
6047.4,<p>You got 8 out of 8 right first time. Press Continue.</p>,0,html-button-response,20,353091,0.0-3.0-25.0,44324,List2A,black,woman,,,,,,,,,,,,,
63129.6,"<p>In this experiment, you will view photographs of the people from the memory game interacting.</p><p>By using the <strong>exact</strong> phrase given <i>after</i> the photograph appears and recalling the correct names of the people in the photographs, form a sentence describing the interaction. You do not need to capitalise names.</p><p>Type your answer in the space provided. Please complete every sentence before moving onto the next trial.</p><p>You will only have a few seconds to memorise each given photograph and phrase before you can respond, so try your best to focus.</p><p>An example is given below. Press 'Continue' when you are ready.</p><img src='img/speaking_example.jpg' style='width:800px;height:460px;''></img>",0,html-button-response,21,417226,0.0-4.0,44324,List2A,black,woman,,,,,,,,,,,,,
2729.1,"<p>Before the experiment starts, you will watch two example trials. Press 'Continue'.</p>",0,html-button-response,22,420969,0.0-5.0,44324,List2A,black,woman,,,,,,,,,,,,,
null,<img src='img/play_eg.gif' style='height:400px;''></img>,,html-keyboard-response,23,423997,0.0-6.0,44324,List2A,black,woman,,,,null,,,,,,,,,
null,<p>is playing with</p>,,html-keyboard-response,24,426012,0.0-7.0,44324,List2A,black,woman,,,,null,,,,,,,,,
7676.2,<p><b>Answer:</b> jane is playing with ruth</p>,0,html-button-response,25,433690,0.0-8.0,44324,List2A,black,woman,,,,,,,,,,,,,
null,<img src='img/dance_eg.gif' style='height:400px;''></img>,,html-keyboard-response,26,436710,0.0-9.0,44324,List2A,black,woman,,,,null,,,,,,,,,
null,<p>is being entertained by</p>,,html-keyboard-response,27,438721,0.0-10.0,44324,List2A,black,woman,,,,null,,,,,,,,,
10910.6,<p><b>Answer:</b> fred is being entertained by mike</p>,0,html-button-response,28,449633,0.0-11.0,44324,List2A,black,woman,,,,,,,,,,,,,
11847.7,"<p>Ready to start the experiment?</p><br><p><strong>Remember to describe the picture using a full sentence,</strong></p><p><strong>that combines the names of the people with the <i>exact</i> phrase given.</strong></p><p><strong>To receive full payment you must do this correctly.</strong></p><p><strong> You do not need to capitalise names or use punctuation.</strong></p><br><p>Press 'Continue' to begin.</p>",0,html-button-response,29,462494,0.0-12.0,44324,List2A,black,woman,,,,,,,,,,,,,
null,"<div style=""font-size:60px;"">+</div>",,html-keyboard-response,30,464020,0.0-13.0-0.0,44324,List2A,black,woman,,,,null,,,,,,,,,
null,"<img src=""stim_listA/shout8.gif""style=""height:400px;""></stim_listA>",,html-keyboard-response,31,466023,0.0-13.0-1.0,44324,List2A,black,woman,,,,null,,,,,,,,,
null,is being shouted at by,,html-keyboard-response,32,468035,0.0-13.0-2.0,44324,List2A,black,woman,,,,null,,,,,,,,,
17275.8,,,survey-text,33,485314,0.0-13.0-3.0,44324,List2A,black,woman,,,,,"{""Q0"":""Kate is being shouted at by jane""}","<img src=""stim_listA/shout8.gif""style=""height:400px;""></stim_listA>",is being shouted at by,,,,,,
null,"<div style=""font-size:60px;"">+</div>",,html-keyboard-response,34,485822,0.0-13.0-0.1,44324,List2A,black,woman,,,,null,,,,,,,,,
null,"<img src=""stim_listA/look7.gif""style=""height:400px;""></stim_listA>",,html-keyboard-response,35,487835,0.0-13.0-1.1,44324,List2A,black,woman,,,,null,,,,,,,,,
null,is looking at,,html-keyboard-response,36,489852,0.0-13.0-2.1,44324,List2A,black,woman,,,,null,,,,,,,,,
8743.8,,,survey-text,37,498598,0.0-13.0-3.1,44324,List2A,black,woman,,,,,"{""Q0"":""beth is looking at ruth""}","<img src=""stim_listA/look7.gif""style=""height:400px;""></stim_listA>",is looking at,,,,,,
null,"<div style=""font-size:60px;"">+</div>",,html-keyboard-response,38,499112,0.0-13.0-0.2,44324,List2A,black,woman,,,,null,,,,,,,,,
null,"<img src=""stim_listA/copy1.gif""style=""height:400px;""></stim_listA>",,html-keyboard-response,39,501123,0.0-13.0-1.2,44324,List2A,black,woman,,,,null,,,,,,,,,
null,is copying,,html-keyboard-response,40,503127,0.0-13.0-2.2,44324,List2A,black,woman,,,,null,,,,,,,,,
18162.7,,,survey-text,41,521292,0.0-13.0-3.2,44324,List2A,black,woman,,,,,"{""Q0"":""ruth is copying mike""}","<img src=""stim_listA/copy1.gif""style=""height:400px;""></stim_listA>",is copying,,,,,,
null,"<div style=""font-size:60px;"">+</div>",,html-keyboard-response,42,521806,0.0-13.0-0.3,44324,List2A,black,woman,,,,null,,,,,,,,,
null,"<img src=""stim_listA/touch2.gif""style=""height:400px;""></stim_listA>",,html-keyboard-response,43,523820,0.0-13.0-1.3,44324,List2A,black,woman,,,,null,,,,,,,,,
null,is being touched by,,html-keyboard-response,44,525836,0.0-13.0-2.3,44324,List2A,black,woman,,,,null,,,,,,,,,
12080.3,,,survey-text,45,537918,0.0-13.0-3.3,44324,List2A,black,woman,,,,,"{""Q0"":""ruth is being touched by luke""}","<img src=""stim_listA/touch2.gif""style=""height:400px;""></stim_listA>",is being touched by,,,,,,
null,"<div style=""font-size:60px;"">+</div>",,html-keyboard-response,46,538429,0.0-13.0-0.4,44324,List2A,black,woman,,,,null,,,,,,,,,
null,"<img src=""stim_listA/challenge3.gif""style=""height:400px;""></stim_listA>",,html-keyboard-response,47,540443,0.0-13.0-1.4,44324,List2A,black,woman,,,,null,,,,,,,,,
null,is challenging,,html-keyboard-response,48,542460,0.0-13.0-2.4,44324,List2A,black,woman,,,,null,,,,,,,,,
8473,,,survey-text,49,550936,0.0-13.0-3.4,44324,List2A,black,woman,,,,,"{""Q0"":""mike is challenging beth ""}","<img src=""stim_listA/challenge3.gif""style=""height:400px;""></stim_listA>",is challenging,,,,,,
null,"<div style=""font-size:60px;"">+</div>",,html-keyboard-response,50,551449,0.0-13.0-0.5,44324,List2A,black,woman,,,,null,,,,,,,,,
null,"<img src=""stim_listA/hug8.gif""style=""height:400px;""></stim_listA>",,html-keyboard-response,51,553462,0.0-13.0-1.5,44324,List2A,black,woman,,,,null,,,,,,,,,
null,is being hugged by,,html-keyboard-response,52,555477,0.0-13.0-2.5,44324,List2A,black,woman,,,,null,,,,,,,,,
11257,,,survey-text,53,566736,0.0-13.0-3.5,44324,List2A,black,woman,,,,,"{""Q0"":""jane is being hugged by kate""}","<img src=""stim_listA/hug8.gif""style=""height:400px;""></stim_listA>",is being hugged by,,,,,,
null,"<div style=""font-size:60px;"">+</div>",,html-keyboard-response,54,567250,0.0-13.0-0.6,44324,List2A,black,woman,,,,null,,,,,,,,,
null,"<img src=""stim_listA/seduce6.gif""style=""height:400px;""></stim_listA>",,html-keyboard-response,55,569264,0.0-13.0-1.6,44324,List2A,black,woman,,,,null,,,,,,,,,
null,is being seduced by,,html-keyboard-response,56,571277,0.0-13.0-2.6,44324,List2A,black,woman,,,,null,,,,,,,,,
9677,,,survey-text,57,580959,0.0-13.0-3.6,44324,List2A,black,woman,,,,,"{""Q0"":""dave is being seduced by fred""}","<img src=""stim_listA/seduce6.gif""style=""height:400px;""></stim_listA>",is being seduced by,,,,,,
null,"<div style=""font-size:60px;"">+</div>",,html-keyboard-response,58,581464,0.0-13.0-0.7,44324,List2A,black,woman,,,,null,,,,,,,,,
null,"<img src=""stim_listA/oppose1.gif""style=""height:400px;""></stim_listA>",,html-keyboard-response,59,583477,0.0-13.0-1.7,44324,List2A,black,woman,,,,null,,,,,,,,,
null,is opposing,,html-keyboard-response,60,585479,0.0-13.0-2.7,44324,List2A,black,woman,,,,null,,,,,,,,,
6203,,,survey-text,61,591685,0.0-13.0-3.7,44324,List2A,black,woman,,,,,"{""Q0"":""dave is opposing jane""}","<img src=""stim_listA/oppose1.gif""style=""height:400px;""></stim_listA>",is opposing,,,,,,
null,"<div style=""font-size:60px;"">+</div>",,html-keyboard-response,62,592197,0.0-13.0-0.8,44324,List2A,black,woman,,,,null,,,,,,,,,
null,"<img src=""stim_listA/challenge8.gif""style=""height:400px;""></stim_listA>",,html-keyboard-response,63,594210,0.0-13.0-1.8,44324,List2A,black,woman,,,,null,,,,,,,,,
null,is being challenged by,,html-keyboard-response,64,596213,0.0-13.0-2.8,44324,List2A,black,woman,,,,null,,,,,,,,,
11374.9,,,survey-text,65,607590,0.0-13.0-3.8,44324,List2A,black,woman,,,,,"{""Q0"":""ruth is being challenged by kate""}","<img src=""stim_listA/challenge8.gif""style=""height:400px;""></stim_listA>",is being challenged by,,,,,,
null,"<div style=""font-size:60px;"">+</div>",,html-keyboard-response,66,608092,0.0-13.0-0.9,44324,List2A,black,woman,,,,null,,,,,,,,,
null,"<img src=""stim_listA/challenge1.gif""style=""height:400px;""></stim_listA>",,html-keyboard-response,67,610109,0.0-13.0-1.9,44324,List2A,black,woman,,,,null,,,,,,,,,
null,is challenging,,html-keyboard-response,68,612128,0.0-13.0-2.9,44324,List2A,black,woman,,,,null,,,,,,,,,
9249.7,,,survey-text,69,621382,0.0-13.0-3.9,44324,List2A,black,woman,,,,,"{""Q0"":""ruth is challenging dave""}","<img src=""stim_listA/challenge1.gif""style=""height:400px;""></stim_listA>",is challenging,,,,,,
null,"<div style=""font-size:60px;"">+</div>",,html-keyboard-response,70,621892,0.0-13.0-0.10,44324,List2A,black,woman,,,,null,,,,,,,,,
null,"<img src=""stim_listA/touch8.gif""style=""height:400px;""></stim_listA>",,html-keyboard-response,71,623895,0.0-13.0-1.10,44324,List2A,black,woman,,,,null,,,,,,,,,
null,is being touched by,,html-keyboard-response,72,625906,0.0-13.0-2.10,44324,List2A,black,woman,,,,null,,,,,,,,,
10143.3,,,survey-text,73,636051,0.0-13.0-3.10,44324,List2A,black,woman,,,,,"{""Q0"":""beth is being touched by ruth""}","<img src=""stim_listA/touch8.gif""style=""height:400px;""></stim_listA>",is being touched by,,,,,,
null,"<div style=""font-size:60px;"">+</div>",,html-keyboard-response,74,636552,0.0-13.0-0.11,44324,List2A,black,woman,,,,null,,,,,,,,,
null,"<img src=""stim_listA/shout6.gif""style=""height:400px;""></stim_listA>",,html-keyboard-response,75,638570,0.0-13.0-1.11,44324,List2A,black,woman,,,,null,,,,,,,,,
null,is being shouted at by,,html-keyboard-response,76,640576,0.0-13.0-2.11,44324,List2A,black,woman,,,,null,,,,,,,,,
21766.4,,,survey-text,77,662347,0.0-13.0-3.11,44324,List2A,black,woman,,,,,"{""Q0"":""dave is being shouted at by mike""}","<img src=""stim_listA/shout6.gif""style=""height:400px;""></stim_listA>",is being shouted at by,,,,,,
null,"<div style=""font-size:60px;"">+</div>",,html-keyboard-response,78,662854,0.0-13.0-0.12,44324,List2A,black,woman,,,,null,,,,,,,,,
null,"<img src=""stim_listA/kiss5.gif""style=""height:400px;""></stim_listA>",,html-keyboard-response,79,664865,0.0-13.0-1.12,44324,List2A,black,woman,,,,null,,,,,,,,,
null,is kissing,,html-keyboard-response,80,666866,0.0-13.0-2.12,44324,List2A,black,woman,,,,null,,,,,,,,,
10050.1,,,survey-text,81,676919,0.0-13.0-3.12,44324,List2A,black,woman,,,,,"{""Q0"":""fred is kissing luke""}","<img src=""stim_listA/kiss5.gif""style=""height:400px;""></stim_listA>",is kissing,,,,,,
null,"<div style=""font-size:60px;"">+</div>",,html-keyboard-response,82,677428,0.0-13.0-0.13,44324,List2A,black,woman,,,,null,,,,,,,,,
null,"<img src=""stim_listA/copy5.gif""style=""height:400px;""></stim_listA>",,html-keyboard-response,83,679439,0.0-13.0-1.13,44324,List2A,black,woman,,,,null,,,,,,,,,
null,is copying,,html-keyboard-response,84,681447,0.0-13.0-2.13,44324,List2A,black,woman,,,,null,,,,,,,,,
8934.7,,,survey-text,85,690383,0.0-13.0-3.13,44324,List2A,black,woman,,,,,"{""Q0"":""fred is copying dave""}","<img src=""stim_listA/copy5.gif""style=""height:400px;""></stim_listA>",is copying,,,,,,
null,"<div style=""font-size:60px;"">+</div>",,html-keyboard-response,86,690885,0.0-13.0-0.14,44324,List2A,black,woman,,,,null,,,,,,,,,
null,"<img src=""stim_listA/greet7.gif""style=""height:400px;""></stim_listA>",,html-keyboard-response,87,692891,0.0-13.0-1.14,44324,List2A,black,woman,,,,null,,,,,,,,,
null,is greeting,,html-keyboard-response,88,694896,0.0-13.0-2.14,44324,List2A,black,woman,,,,null,,,,,,,,,
9686.3,,,survey-text,89,704585,0.0-13.0-3.14,44324,List2A,black,woman,,,,,"{""Q0"":""jane is greeting kate""}","<img src=""stim_listA/greet7.gif""style=""height:400px;""></stim_listA>",is greeting,,,,,,
null,"<div style=""font-size:60px;"">+</div>",,html-keyboard-response,90,705097,0.0-13.0-0.15,44324,List2A,black,woman,,,,null,,,,,,,,,
null,"<img src=""stim_listA/touch1.gif""style=""height:400px;""></stim_listA>",,html-keyboard-response,91,707106,0.0-13.0-1.15,44324,List2A,black,woman,,,,null,,,,,,,,,
null,is touching,,html-keyboard-response,92,709110,0.0-13.0-2.15,44324,List2A,black,woman,,,,null,,,,,,,,,
13254.1,,,survey-text,93,722368,0.0-13.0-3.15,44324,List2A,black,woman,,,,,"{""Q0"":""dave is touching jane""}","<img src=""stim_listA/touch1.gif""style=""height:400px;""></stim_listA>",is touching,,,,,,
null,"<div style=""font-size:60px;"">+</div>",,html-keyboard-response,94,722873,0.0-13.0-0.16,44324,List2A,black,woman,,,,null,,,,,,,,,
null,"<img src=""stim_listA/copy4.gif""style=""height:400px;""></stim_listA>",,html-keyboard-response,95,724884,0.0-13.0-1.16,44324,List2A,black,woman,,,,null,,,,,,,,,
null,is being copied by,,html-keyboard-response,96,726892,0.0-13.0-2.16,44324,List2A,black,woman,,,,null,,,,,,,,,
8939.6,,,survey-text,97,735833,0.0-13.0-3.16,44324,List2A,black,woman,,,,,"{""Q0"":""kate is being copied by fred""}","<img src=""stim_listA/copy4.gif""style=""height:400px;""></stim_listA>",is being copied by,,,,,,
null,"<div style=""font-size:60px;"">+</div>",,html-keyboard-response,98,736344,0.0-13.0-0.17,44324,List2A,black,woman,,,,null,,,,,,,,,
null,"<img src=""stim_listA/hug5.gif""style=""height:400px;""></stim_listA>",,html-keyboard-response,99,738358,0.0-13.0-1.17,44324,List2A,black,woman,,,,null,,,,,,,,,
null,is hugging,,html-keyboard-response,100,740366,0.0-13.0-2.17,44324,List2A,black,woman,,,,null,,,,,,,,,
7770,,,survey-text,101,748138,0.0-13.0-3.17,44324,List2A,black,woman,,,,,"{""Q0"":""luke is hugging fred""}","<img src=""stim_listA/hug5.gif""style=""height:400px;""></stim_listA>",is hugging,,,,,,
null,"<div style=""font-size:60px;"">+</div>",,html-keyboard-response,102,748649,0.0-13.0-0.18,44324,List2A,black,woman,,,,null,,,,,,,,,
null,"<img src=""stim_listA/look3.gif""style=""height:400px;""></stim_listA>",,html-keyboard-response,103,750664,0.0-13.0-1.18,44324,List2A,black,woman,,,,null,,,,,,,,,
null,is looking at,,html-keyboard-response,104,752675,0.0-13.0-2.18,44324,List2A,black,woman,,,,null,,,,,,,,,
6112.5,,,survey-text,105,758790,0.0-13.0-3.18,44324,List2A,black,woman,,,,,"{""Q0"":""fred is looking at beth""}","<img src=""stim_listA/look3.gif""style=""height:400px;""></stim_listA>",is looking at,,,,,,
null,"<div style=""font-size:60px;"">+</div>",,html-keyboard-response,106,759300,0.0-13.0-0.19,44324,List2A,black,woman,,,,null,,,,,,,,,
null,"<img src=""stim_listA/challenge5.gif""style=""height:400px;""></stim_listA>",,html-keyboard-response,107,761314,0.0-13.0-1.19,44324,List2A,black,woman,,,,null,,,,,,,,,
null,is challenging,,html-keyboard-response,108,763324,0.0-13.0-2.19,44324,List2A,black,woman,,,,null,,,,,,,,,
7909.6,,,survey-text,109,771235,0.0-13.0-3.19,44324,List2A,black,woman,,,,,"{""Q0"":""dave is challenging fred""}","<img src=""stim_listA/challenge5.gif""style=""height:400px;""></stim_listA>",is challenging,,,,,,
28307.2,"<img src='img/portrait_matrix_list2.jpg' style='width:900px;height:500px;''></img><p>If you have memorised all the portraits and names and are ready to start, press Continue.</p><p><strong>Please note: Your memory of these faces will be tested 4 times during this experiment.</strong></p>",0,html-button-response,110,799544,0.0-14.0-0.0,44324,List2A,black,woman,,,,,,,,,,,,,
2235.3,"<img src=""portrait/BW1.jpg""style=""height:400px;""></img>",0,html-button-response,111,802797,0.0-14.0-1.0,44324,List2A,black,woman,,TRUE,0,,,,,,,,,,
null,CORRECT,,html-keyboard-response,112,804319,0.0-14.0-2.0-0.0,44324,List2A,black,woman,,,,null,,,,,,,,,
4467.1,"<img src=""portrait/BM2.jpg""style=""height:400px;""></img>",5,html-button-response,113,808787,0.0-14.0-4.0,44324,List2A,black,woman,,TRUE,5,,,,,,,,,,
null,CORRECT,,html-keyboard-response,114,810308,0.0-14.0-5.0-0.0,44324,List2A,black,woman,,,,null,,,,,,,,,
2020.8,"<img src=""portrait/BW2.jpg""style=""height:400px;""></img>",2,html-button-response,115,812331,0.0-14.0-7.0,44324,List2A,black,woman,,TRUE,2,,,,,,,,,,
null,CORRECT,,html-keyboard-response,116,813847,0.0-14.0-8.0-0.0,44324,List2A,black,woman,,,,null,,,,,,,,,
1935.6,"<img src=""portrait/WM1.jpg""style=""height:400px;""></img>",6,html-button-response,117,815784,0.0-14.0-10.0,44324,List2A,black,woman,,TRUE,6,,,,,,,,,,
null,CORRECT,,html-keyboard-response,118,817310,0.0-14.0-11.0-0.0,44324,List2A,black,woman,,,,null,,,,,,,,,
1851.6,"<img src=""portrait/WW2.jpg""style=""height:400px;""></img>",3,html-button-response,119,819163,0.0-14.0-13.0,44324,List2A,black,woman,,TRUE,3,,,,,,,,,,
null,CORRECT,,html-keyboard-response,120,820681,0.0-14.0-14.0-0.0,44324,List2A,black,woman,,,,null,,,,,,,,,
2015.6,"<img src=""portrait/WM2.jpg""style=""height:400px;""></img>",7,html-button-response,121,822698,0.0-14.0-16.0,44324,List2A,black,woman,,TRUE,7,,,,,,,,,,
null,CORRECT,,html-keyboard-response,122,824228,0.0-14.0-17.0-0.0,44324,List2A,black,woman,,,,null,,,,,,,,,
2480.9,"<img src=""portrait/BM1.jpg""style=""height:400px;""></img>",4,html-button-response,123,826710,0.0-14.0-19.0,44324,List2A,black,woman,,TRUE,4,,,,,,,,,,
null,CORRECT,,html-keyboard-response,124,828228,0.0-14.0-20.0-0.0,44324,List2A,black,woman,,,,null,,,,,,,,,
1837.5,"<img src=""portrait/WW1.jpg""style=""height:400px;""></img>",1,html-button-response,125,830067,0.0-14.0-22.0,44324,List2A,black,woman,,TRUE,1,,,,,,,,,,
null,CORRECT,,html-keyboard-response,126,831578,0.0-14.0-23.0-0.0,44324,List2A,black,woman,,,,null,,,,,,,,,
1925.7,<p>You got 8 out of 8 right first time. Press Continue.</p>,0,html-button-response,127,833505,0.0-14.0-25.0,44324,List2A,black,woman,,,,,,,,,,,,,
null,"<div style=""font-size:60px;"">+</div>",,html-keyboard-response,128,835021,0.0-15.0-0.0,44324,List2A,black,woman,,,,null,,,,,,,,,
null,"<img src=""stim_listA/greet1.gif""style=""height:400px;""></stim_listA>",,html-keyboard-response,129,837033,0.0-15.0-1.0,44324,List2A,black,woman,,,,null,,,,,,,,,
null,is greeting,,html-keyboard-response,130,839040,0.0-15.0-2.0,44324,List2A,black,woman,,,,null,,,,,,,,,
5976.3,,,survey-text,131,845019,0.0-15.0-3.0,44324,List2A,black,woman,,,,,"{""Q0"":""dave is greeting ruth""}","<img src=""stim_listA/greet1.gif""style=""height:400px;""></stim_listA>",is greeting,,,,,,
null,"<div style=""font-size:60px;"">+</div>",,html-keyboard-response,132,845528,0.0-15.0-0.1,44324,List2A,black,woman,,,,null,,,,,,,,,
null,"<img src=""stim_listA/look8.gif""style=""height:400px;""></stim_listA>",,html-keyboard-response,133,847547,0.0-15.0-1.1,44324,List2A,black,woman,,,,null,,,,,,,,,
null,is being looked at by,,html-keyboard-response,134,849560,0.0-15.0-2.1,44324,List2A,black,woman,,,,null,,,,,,,,,
13268.4,,,survey-text,135,862831,0.0-15.0-3.1,44324,List2A,black,woman,,,,,"{""Q0"":""jane is being looked at by kate""}","<img src=""stim_listA/look8.gif""style=""height:400px;""></stim_listA>",is being looked at by,,,,,,
null,"<div style=""font-size:60px;"">+</div>",,html-keyboard-response,136,863339,0.0-15.0-0.2,44324,List2A,black,woman,,,,null,,,,,,,,,
null,"<img src=""stim_listA/copy2.gif""style=""height:400px;""></stim_listA>",,html-keyboard-response,137,865354,0.0-15.0-1.2,44324,List2A,black,woman,,,,null,,,,,,,,,
null,is being copied by,,html-keyboard-response,138,867362,0.0-15.0-2.2,44324,List2A,black,woman,,,,null,,,,,,,,,
7531.9,,,survey-text,139,874896,0.0-15.0-3.2,44324,List2A,black,woman,,,,,"{""Q0"":""jane is being copied by luke""}","<img src=""stim_listA/copy2.gif""style=""height:400px;""></stim_listA>",is being copied by,,,,,,
null,"<div style=""font-size:60px;"">+</div>",,html-keyboard-response,140,875399,0.0-15.0-0.3,44324,List2A,black,woman,,,,null,,,,,,,,,
null,"<img src=""stim_listA/greet6.gif""style=""height:400px;""></stim_listA>",,html-keyboard-response,141,877402,0.0-15.0-1.3,44324,List2A,black,woman,,,,null,,,,,,,,,
null,is being greeted by,,html-keyboard-response,142,879414,0.0-15.0-2.3,44324,List2A,black,woman,,,,null,,,,,,,,,
11378.3,,,survey-text,143,890794,0.0-15.0-3.3,44324,List2A,black,woman,,,,,"{""Q0"":""luke is being greeted by mike""}","<img src=""stim_listA/greet6.gif""style=""height:400px;""></stim_listA>",is being greeted by,,,,,,
null,"<div style=""font-size:60px;"">+</div>",,html-keyboard-response,144,891309,0.0-15.0-0.4,44324,List2A,black,woman,,,,null,,,,,,,,,
null,"<img src=""stim_listA/look5.gif""style=""height:400px;""></stim_listA>",,html-keyboard-response,145,893316,0.0-15.0-1.4,44324,List2A,black,woman,,,,null,,,,,,,,,
null,is looking at,,html-keyboard-response,146,895321,0.0-15.0-2.4,44324,List2A,black,woman,,,,null,,,,,,,,,
7915.9,,,survey-text,147,903238,0.0-15.0-3.4,44324,List2A,black,woman,,,,,"{""Q0"":""fred is looking at luke""}","<img src=""stim_listA/look5.gif""style=""height:400px;""></stim_listA>",is looking at,,,,,,
null,"<div style=""font-size:60px;"">+</div>",,html-keyboard-response,148,903752,0.0-15.0-0.5,44324,List2A,black,woman,,,,null,,,,,,,,,
null,"<img src=""stim_listA/greet2.gif""style=""height:400px;""></stim_listA>",,html-keyboard-response,149,905754,0.0-15.0-1.5,44324,List2A,black,woman,,,,null,,,,,,,,,
null,is being greeted by,,html-keyboard-response,150,907759,0.0-15.0-2.5,44324,List2A,black,woman,,,,null,,,,,,,,,
11679,,,survey-text,151,919441,0.0-15.0-3.5,44324,List2A,black,woman,,,,,"{""Q0"":""luke is being greeted by jane""}","<img src=""stim_listA/greet2.gif""style=""height:400px;""></stim_listA>",is being greeted by,,,,,,
null,"<div style=""font-size:60px;"">+</div>",,html-keyboard-response,152,919953,0.0-15.0-0.6,44324,List2A,black,woman,,,,null,,,,,,,,,
null,"<img src=""stim_listA/challenge4.gif""style=""height:400px;""></stim_listA>",,html-keyboard-response,153,921967,0.0-15.0-1.6,44324,List2A,black,woman,,,,null,,,,,,,,,
null,is being challenged by,,html-keyboard-response,154,923974,0.0-15.0-2.6,44324,List2A,black,woman,,,,null,,,,,,,,,
12278.4,,,survey-text,155,936254,0.0-15.0-3.6,44324,List2A,black,woman,,,,,"{""Q0"":""kate is being challenged by fred""}","<img src=""stim_listA/challenge4.gif""style=""height:400px;""></stim_listA>",is being challenged by,,,,,,
null,"<div style=""font-size:60px;"">+</div>",,html-keyboard-response,156,936759,0.0-15.0-0.7,44324,List2A,black,woman,,,,null,,,,,,,,,
null,"<img src=""stim_listA/oppose6.gif""style=""height:400px;""></stim_listA>",,html-keyboard-response,157,938773,0.0-15.0-1.7,44324,List2A,black,woman,,,,null,,,,,,,,,
null,is being opposed by,,html-keyboard-response,158,940787,0.0-15.0-2.7,44324,List2A,black,woman,,,,null,,,,,,,,,
7307,,,survey-text,159,948096,0.0-15.0-3.7,44324,List2A,black,woman,,,,,"{""Q0"":""fred is opposed by luke ""}","<img src=""stim_listA/oppose6.gif""style=""height:400px;""></stim_listA>",is being opposed by,,,,,,
null,"<div style=""font-size:60px;"">+</div>",,html-keyboard-response,160,948601,0.0-15.0-0.8,44324,List2A,black,woman,,,,null,,,,,,,,,
null,"<img src=""stim_listA/oppose3.gif""style=""height:400px;""></stim_listA>",,html-keyboard-response,161,950604,0.0-15.0-1.8,44324,List2A,black,woman,,,,null,,,,,,,,,
null,is opposing,,html-keyboard-response,162,952608,0.0-15.0-2.8,44324,List2A,black,woman,,,,null,,,,,,,,,
11584.4,,,survey-text,163,964195,0.0-15.0-3.8,44324,List2A,black,woman,,,,,"{""Q0"":""mike is opposing kate""}","<img src=""stim_listA/oppose3.gif""style=""height:400px;""></stim_listA>",is opposing,,,,,,
null,"<div style=""font-size:60px;"">+</div>",,html-keyboard-response,164,964705,0.0-15.0-0.9,44324,List2A,black,woman,,,,null,,,,,,,,,
null,"<img src=""stim_listA/hug4.gif""style=""height:400px;""></stim_listA>",,html-keyboard-response,165,966719,0.0-15.0-1.9,44324,List2A,black,woman,,,,null,,,,,,,,,
null,is being hugged by,,html-keyboard-response,166,968733,0.0-15.0-2.9,44324,List2A,black,woman,,,,null,,,,,,,,,
8670.5,,,survey-text,167,977406,0.0-15.0-3.9,44324,List2A,black,woman,,,,,"{""Q0"":""mike is being hugged by kate""}","<img src=""stim_listA/hug4.gif""style=""height:400px;""></stim_listA>",is being hugged by,,,,,,
null,"<div style=""font-size:60px;"">+</div>",,html-keyboard-response,168,977909,0.0-15.0-0.10,44324,List2A,black,woman,,,,null,,,,,,,,,
null,"<img src=""stim_listA/hug7.gif""style=""height:400px;""></stim_listA>",,html-keyboard-response,169,979921,0.0-15.0-1.10,44324,List2A,black,woman,,,,null,,,,,,,,,
null,is hugging,,html-keyboard-response,170,981925,0.0-15.0-2.10,44324,List2A,black,woman,,,,null,,,,,,,,,
8966.3,,,survey-text,171,990893,0.0-15.0-3.10,44324,List2A,black,woman,,,,,"{""Q0"":""ruth is hugging beth ""}","<img src=""stim_listA/hug7.gif""style=""height:400px;""></stim_listA>",is hugging,,,,,,
null,"<div style=""font-size:60px;"">+</div>",,html-keyboard-response,172,991403,0.0-15.0-0.11,44324,List2A,black,woman,,,,null,,,,,,,,,
null,"<img src=""stim_listA/shout5.gif""style=""height:400px;""></stim_listA>",,html-keyboard-response,173,993415,0.0-15.0-1.11,44324,List2A,black,woman,,,,null,,,,,,,,,
null,is shouting at,,html-keyboard-response,174,995430,0.0-15.0-2.11,44324,List2A,black,woman,,,,null,,,,,,,,,
5812.9,,,survey-text,175,1001246,0.0-15.0-3.11,44324,List2A,black,woman,,,,,"{""Q0"":""luke is shouting at fred ""}","<img src=""stim_listA/shout5.gif""style=""height:400px;""></stim_listA>",is shouting at,,,,,,
null,"<div style=""font-size:60px;"">+</div>",,html-keyboard-response,176,1001759,0.0-15.0-0.12,44324,List2A,black,woman,,,,null,,,,,,,,,
null,"<img src=""stim_listA/look1.gif""style=""height:400px;""></stim_listA>",,html-keyboard-response,177,1003773,0.0-15.0-1.12,44324,List2A,black,woman,,,,null,,,,,,,,,
null,is looking at,,html-keyboard-response,178,1005779,0.0-15.0-2.12,44324,List2A,black,woman,,,,null,,,,,,,,,
6406.3,,,survey-text,179,1012187,0.0-15.0-3.12,44324,List2A,black,woman,,,,,"{""Q0"":""luke is looking at ruth ""}","<img src=""stim_listA/look1.gif""style=""height:400px;""></stim_listA>",is looking at,,,,,,
null,"<div style=""font-size:60px;"">+</div>",,html-keyboard-response,180,1012702,0.0-15.0-0.13,44324,List2A,black,woman,,,,null,,,,,,,,,
null,"<img src=""stim_listA/shout4.gif""style=""height:400px;""></stim_listA>",,html-keyboard-response,181,1014716,0.0-15.0-1.13,44324,List2A,black,woman,,,,null,,,,,,,,,
null,is being shouted at by,,html-keyboard-response,182,1016729,0.0-15.0-2.13,44324,List2A,black,woman,,,,null,,,,,,,,,
10766,,,survey-text,183,1027498,0.0-15.0-3.13,44324,List2A,black,woman,,,,,"{""Q0"":""mike is being shouted at by kate ""}","<img src=""stim_listA/shout4.gif""style=""height:400px;""></stim_listA>",is being shouted at by,,,,,,
null,"<div style=""font-size:60px;"">+</div>",,html-keyboard-response,184,1028013,0.0-15.0-0.14,44324,List2A,black,woman,,,,null,,,,,,,,,
null,"<img src=""stim_listA/touch7.gif""style=""height:400px;""></stim_listA>",,html-keyboard-response,185,1030017,0.0-15.0-1.14,44324,List2A,black,woman,,,,null,,,,,,,,,
null,is touching,,html-keyboard-response,186,1032028,0.0-15.0-2.14,44324,List2A,black,woman,,,,null,,,,,,,,,
5515,,,survey-text,187,1037546,0.0-15.0-3.14,44324,List2A,black,woman,,,,,"{""Q0"":""jane is touching kate""}","<img src=""stim_listA/touch7.gif""style=""height:400px;""></stim_listA>",is touching,,,,,,
null,"<div style=""font-size:60px;"">+</div>",,html-keyboard-response,188,1038060,0.0-15.0-0.15,44324,List2A,black,woman,,,,null,,,,,,,,,
null,"<img src=""stim_listA/copy3.gif""style=""height:400px;""></stim_listA>",,html-keyboard-response,189,1040065,0.0-15.0-1.15,44324,List2A,black,woman,,,,null,,,,,,,,,
null,is copying,,html-keyboard-response,190,1042082,0.0-15.0-2.15,44324,List2A,black,woman,,,,null,,,,,,,,,
7050.6,,,survey-text,191,1049135,0.0-15.0-3.15,44324,List2A,black,woman,,,,,"{""Q0"":""beth is copying mike ""}","<img src=""stim_listA/copy3.gif""style=""height:400px;""></stim_listA>",is copying,,,,,,
null,"<div style=""font-size:60px;"">+</div>",,html-keyboard-response,192,1049642,0.0-15.0-0.16,44324,List2A,black,woman,,,,null,,,,,,,,,
null,"<img src=""stim_listA/hug1.gif""style=""height:400px;""></stim_listA>",,html-keyboard-response,193,1051657,0.0-15.0-1.16,44324,List2A,black,woman,,,,null,,,,,,,,,
null,is hugging,,html-keyboard-response,194,1053665,0.0-15.0-2.16,44324,List2A,black,woman,,,,null,,,,,,,,,
7688.8,,,survey-text,195,1061357,0.0-15.0-3.16,44324,List2A,black,woman,,,,,"{""Q0"":""luke is hugging ruth ""}","<img src=""stim_listA/hug1.gif""style=""height:400px;""></stim_listA>",is hugging,,,,,,
null,"<div style=""font-size:60px;"">+</div>",,html-keyboard-response,196,1061868,0.0-15.0-0.17,44324,List2A,black,woman,,,,null,,,,,,,,,
null,"<img src=""stim_listA/look2.gif""style=""height:400px;""></stim_listA>",,html-keyboard-response,197,1063884,0.0-15.0-1.17,44324,List2A,black,woman,,,,null,,,,,,,,,
null,is being looked at by,,html-keyboard-response,198,1065892,0.0-15.0-2.17,44324,List2A,black,woman,,,,null,,,,,,,,,
15053.5,,,survey-text,199,1080949,0.0-15.0-3.17,44324,List2A,black,woman,,,,,"{""Q0"":""jane is being copied by dave""}","<img src=""stim_listA/look2.gif""style=""height:400px;""></stim_listA>",is being looked at by,,,,,,
null,"<div style=""font-size:60px;"">+</div>",,html-keyboard-response,200,1081456,0.0-15.0-0.18,44324,List2A,black,woman,,,,null,,,,,,,,,
null,"<img src=""stim_listA/touch6.gif""style=""height:400px;""></stim_listA>",,html-keyboard-response,201,1083472,0.0-15.0-1.18,44324,List2A,black,woman,,,,null,,,,,,,,,
null,is being touched by,,html-keyboard-response,202,1085475,0.0-15.0-2.18,44324,List2A,black,woman,,,,null,,,,,,,,,
120910.6,,,survey-text,203,1206388,0.0-15.0-3.18,44324,List2A,black,woman,,,,,"{""Q0"":""luke is being touched by fred""}","<img src=""stim_listA/touch6.gif""style=""height:400px;""></stim_listA>",is being touched by,,,,,,
null,"<div style=""font-size:60px;"">+</div>",,html-keyboard-response,204,1206901,0.0-15.0-0.19,44324,List2A,black,woman,,,,null,,,,,,,,,
null,"<img src=""stim_listA/hug6.gif""style=""height:400px;""></stim_listA>",,html-keyboard-response,205,1208908,0.0-15.0-1.19,44324,List2A,black,woman,,,,null,,,,,,,,,
null,is being hugged by,,html-keyboard-response,206,1210923,0.0-15.0-2.19,44324,List2A,black,woman,,,,null,,,,,,,,,
13173,,,survey-text,207,1224100,0.0-15.0-3.19,44324,List2A,black,woman,,,,,"{""Q0"":""dave is being hugged by mike""}","<img src=""stim_listA/hug6.gif""style=""height:400px;""></stim_listA>",is being hugged by,,,,,,
12358.8,"<img src='img/portrait_matrix_list2.jpg' style='width:900px;height:500px;''></img><p>If you have memorised all the portraits and names and are ready to start, press Continue.</p><p><strong>Please note: Your memory of these faces will be tested 4 times during this experiment.</strong></p>",0,html-button-response,208,1236460,0.0-16.0-0.0,44324,List2A,black,woman,,,,,,,,,,,,,
2232.4,"<img src=""portrait/WW1.jpg""style=""height:400px;""></img>",1,html-button-response,209,1239705,0.0-16.0-1.0,44324,List2A,black,woman,,TRUE,1,,,,,,,,,,
null,CORRECT,,html-keyboard-response,210,1241227,0.0-16.0-2.0-0.0,44324,List2A,black,woman,,,,null,,,,,,,,,
2212.8,"<img src=""portrait/WM2.jpg""style=""height:400px;""></img>",7,html-button-response,211,1243441,0.0-16.0-4.0,44324,List2A,black,woman,,TRUE,7,,,,,,,,,,
null,CORRECT,,html-keyboard-response,212,1244961,0.0-16.0-5.0-0.0,44324,List2A,black,woman,,,,null,,,,,,,,,
1798.5,"<img src=""portrait/WM1.jpg""style=""height:400px;""></img>",6,html-button-response,213,1246761,0.0-16.0-7.0,44324,List2A,black,woman,,TRUE,6,,,,,,,,,,
null,CORRECT,,html-keyboard-response,214,1248280,0.0-16.0-8.0-0.0,44324,List2A,black,woman,,,,null,,,,,,,,,
1933,"<img src=""portrait/BM1.jpg""style=""height:400px;""></img>",4,html-button-response,215,1250215,0.0-16.0-10.0,44324,List2A,black,woman,,TRUE,4,,,,,,,,,,
null,CORRECT,,html-keyboard-response,216,1251739,0.0-16.0-11.0-0.0,44324,List2A,black,woman,,,,null,,,,,,,,,
1511.8,"<img src=""portrait/BW2.jpg""style=""height:400px;""></img>",2,html-button-response,217,1253251,0.0-16.0-13.0,44324,List2A,black,woman,,TRUE,2,,,,,,,,,,
null,CORRECT,,html-keyboard-response,218,1254771,0.0-16.0-14.0-0.0,44324,List2A,black,woman,,,,null,,,,,,,,,
1531.1,"<img src=""portrait/WW2.jpg""style=""height:400px;""></img>",3,html-button-response,219,1256303,0.0-16.0-16.0,44324,List2A,black,woman,,TRUE,3,,,,,,,,,,
null,CORRECT,,html-keyboard-response,220,1257823,0.0-16.0-17.0-0.0,44324,List2A,black,woman,,,,null,,,,,,,,,
2529.1,"<img src=""portrait/BW1.jpg""style=""height:400px;""></img>",0,html-button-response,221,1260353,0.0-16.0-19.0,44324,List2A,black,woman,,TRUE,0,,,,,,,,,,
null,CORRECT,,html-keyboard-response,222,1261877,0.0-16.0-20.0-0.0,44324,List2A,black,woman,,,,null,,,,,,,,,
2390.3,"<img src=""portrait/BM2.jpg""style=""height:400px;""></img>",5,html-button-response,223,1264269,0.0-16.0-22.0,44324,List2A,black,woman,,TRUE,5,,,,,,,,,,
null,CORRECT,,html-keyboard-response,224,1265788,0.0-16.0-23.0-0.0,44324,List2A,black,woman,,,,null,,,,,,,,,
2632.6,<p>You got 8 out of 8 right first time. Press Continue.</p>,0,html-button-response,225,1268421,0.0-16.0-25.0,44324,List2A,black,woman,,,,,,,,,,,,,
null,"<div style=""font-size:60px;"">+</div>",,html-keyboard-response,226,1269943,0.0-17.0-0.0,44324,List2A,black,woman,,,,null,,,,,,,,,
null,"<img src=""stim_listA/kiss7.gif""style=""height:400px;""></stim_listA>",,html-keyboard-response,227,1271949,0.0-17.0-1.0,44324,List2A,black,woman,,,,null,,,,,,,,,
null,is kissing,,html-keyboard-response,228,1273958,0.0-17.0-2.0,44324,List2A,black,woman,,,,null,,,,,,,,,
5870.2,,,survey-text,229,1279833,0.0-17.0-3.0,44324,List2A,black,woman,,,,,"{""Q0"":""ruth is kissing kate""}","<img src=""stim_listA/kiss7.gif""style=""height:400px;""></stim_listA>",is kissing,,,,,,
null,"<div style=""font-size:60px;"">+</div>",,html-keyboard-response,230,1280335,0.0-17.0-0.1,44324,List2A,black,woman,,,,null,,,,,,,,,
null,"<img src=""stim_listA/greet5.gif""style=""height:400px;""></stim_listA>",,html-keyboard-response,231,1282344,0.0-17.0-1.1,44324,List2A,black,woman,,,,null,,,,,,,,,
null,is greeting,,html-keyboard-response,232,1284359,0.0-17.0-2.1,44324,List2A,black,woman,,,,null,,,,,,,,,
9553.9,,,survey-text,233,1293916,0.0-17.0-3.1,44324,List2A,black,woman,,,,,"{""Q0"":""dave is greeting fred""}","<img src=""stim_listA/greet5.gif""style=""height:400px;""></stim_listA>",is greeting,,,,,,
null,"<div style=""font-size:60px;"">+</div>",,html-keyboard-response,234,1294423,0.0-17.0-0.2,44324,List2A,black,woman,,,,null,,,,,,,,,
null,"<img src=""stim_listA/greet3.gif""style=""height:400px;""></stim_listA>",,html-keyboard-response,235,1296441,0.0-17.0-1.2,44324,List2A,black,woman,,,,null,,,,,,,,,
null,is greeting,,html-keyboard-response,236,1298454,0.0-17.0-2.2,44324,List2A,black,woman,,,,null,,,,,,,,,
7824.6,,,survey-text,237,1306281,0.0-17.0-3.2,44324,List2A,black,woman,,,,,"{""Q0"":""mike is greeting beth""}","<img src=""stim_listA/greet3.gif""style=""height:400px;""></stim_listA>",is greeting,,,,,,
null,"<div style=""font-size:60px;"">+</div>",,html-keyboard-response,238,1306792,0.0-17.0-0.3,44324,List2A,black,woman,,,,null,,,,,,,,,
null,"<img src=""stim_listA/seduce4.gif""style=""height:400px;""></stim_listA>",,html-keyboard-response,239,1308805,0.0-17.0-1.3,44324,List2A,black,woman,,,,null,,,,,,,,,
null,is being seduced by,,html-keyboard-response,240,1310822,0.0-17.0-2.3,44324,List2A,black,woman,,,,null,,,,,,,,,
12431,,,survey-text,241,1323255,0.0-17.0-3.3,44324,List2A,black,woman,,,,,"{""Q0"":""mike is being seduced by beth ""}","<img src=""stim_listA/seduce4.gif""style=""height:400px;""></stim_listA>",is being seduced by,,,,,,
null,"<div style=""font-size:60px;"">+</div>",,html-keyboard-response,242,1323771,0.0-17.0-0.4,44324,List2A,black,woman,,,,null,,,,,,,,,
null,"<img src=""stim_listA/challenge7.gif""style=""height:400px;""></stim_listA>",,html-keyboard-response,243,1325782,0.0-17.0-1.4,44324,List2A,black,woman,,,,null,,,,,,,,,
null,is challenging,,html-keyboard-response,244,1327786,0.0-17.0-2.4,44324,List2A,black,woman,,,,null,,,,,,,,,
10354.1,,,survey-text,245,1338142,0.0-17.0-3.4,44324,List2A,black,woman,,,,,"{""Q0"":""jane is challenging kate""}","<img src=""stim_listA/challenge7.gif""style=""height:400px;""></stim_listA>",is challenging,,,,,,
null,"<div style=""font-size:60px;"">+</div>",,html-keyboard-response,246,1338652,0.0-17.0-0.5,44324,List2A,black,woman,,,,null,,,,,,,,,
null,"<img src=""stim_listA/copy7.gif""style=""height:400px;""></stim_listA>",,html-keyboard-response,247,1340660,0.0-17.0-1.5,44324,List2A,black,woman,,,,null,,,,,,,,,
null,is copying,,html-keyboard-response,248,1342671,0.0-17.0-2.5,44324,List2A,black,woman,,,,null,,,,,,,,,
7408.2,,,survey-text,249,1350082,0.0-17.0-3.5,44324,List2A,black,woman,,,,,"{""Q0"":""beth is copying jane ""}","<img src=""stim_listA/copy7.gif""style=""height:400px;""></stim_listA>",is copying,,,,,,
null,"<div style=""font-size:60px;"">+</div>",,html-keyboard-response,250,1350591,0.0-17.0-0.6,44324,List2A,black,woman,,,,null,,,,,,,,,
null,"<img src=""stim_listA/shout7.gif""style=""height:400px;""></stim_listA>",,html-keyboard-response,251,1352608,0.0-17.0-1.6,44324,List2A,black,woman,,,,null,,,,,,,,,
null,is shouting at,,html-keyboard-response,252,1354620,0.0-17.0-2.6,44324,List2A,black,woman,,,,null,,,,,,,,,
11939.5,,,survey-text,253,1366563,0.0-17.0-3.6,44324,List2A,black,woman,,,,,"{""Q0"":""ruth is shouting at beth""}","<img src=""stim_listA/shout7.gif""style=""height:400px;""></stim_listA>",is shouting at,,,,,,
null,"<div style=""font-size:60px;"">+</div>",,html-keyboard-response,254,1367068,0.0-17.0-0.7,44324,List2A,black,woman,,,,null,,,,,,,,,
null,"<img src=""stim_listA/look6.gif""style=""height:400px;""></stim_listA>",,html-keyboard-response,255,1369080,0.0-17.0-1.7,44324,List2A,black,woman,,,,null,,,,,,,,,
null,is being looked at by,,html-keyboard-response,256,1371086,0.0-17.0-2.7,44324,List2A,black,woman,,,,null,,,,,,,,,
9246.5,,,survey-text,257,1380334,0.0-17.0-3.7,44324,List2A,black,woman,,,,,"{""Q0"":""dave is being looked at by mike""}","<img src=""stim_listA/look6.gif""style=""height:400px;""></stim_listA>",is being looked at by,,,,,,
null,"<div style=""font-size:60px;"">+</div>",,html-keyboard-response,258,1380841,0.0-17.0-0.8,44324,List2A,black,woman,,,,null,,,,,,,,,
null,"<img src=""stim_listA/seduce8.gif""style=""height:400px;""></stim_listA>",,html-keyboard-response,259,1382856,0.0-17.0-1.8,44324,List2A,black,woman,,,,null,,,,,,,,,
null,is being seduced by,,html-keyboard-response,260,1384866,0.0-17.0-2.8,44324,List2A,black,woman,,,,null,,,,,,,,,
10293.2,,,survey-text,261,1395162,0.0-17.0-3.8,44324,List2A,black,woman,,,,,"{""Q0"":""beth is being seduced by jane""}","<img src=""stim_listA/seduce8.gif""style=""height:400px;""></stim_listA>",is being seduced by,,,,,,
null,"<div style=""font-size:60px;"">+</div>",,html-keyboard-response,262,1395675,0.0-17.0-0.9,44324,List2A,black,woman,,,,null,,,,,,,,,
null,"<img src=""stim_listA/kiss1.gif""style=""height:400px;""></stim_listA>",,html-keyboard-response,263,1397684,0.0-17.0-1.9,44324,List2A,black,woman,,,,null,,,,,,,,,
null,is kissing,,html-keyboard-response,264,1399692,0.0-17.0-2.9,44324,List2A,black,woman,,,,null,,,,,,,,,
5665.7,,,survey-text,265,1405360,0.0-17.0-3.9,44324,List2A,black,woman,,,,,"{""Q0"":""luke is kissing ruth""}","<img src=""stim_listA/kiss1.gif""style=""height:400px;""></stim_listA>",is kissing,,,,,,
null,"<div style=""font-size:60px;"">+</div>",,html-keyboard-response,266,1405862,0.0-17.0-0.10,44324,List2A,black,woman,,,,null,,,,,,,,,
null,"<img src=""stim_listA/oppose2.gif""style=""height:400px;""></stim_listA>",,html-keyboard-response,267,1407873,0.0-17.0-1.10,44324,List2A,black,woman,,,,null,,,,,,,,,
null,is being opposed by,,html-keyboard-response,268,1409881,0.0-17.0-2.10,44324,List2A,black,woman,,,,null,,,,,,,,,
7676.9,,,survey-text,269,1417561,0.0-17.0-3.10,44324,List2A,black,woman,,,,,"{""Q0"":""luke is opposed by ruth""}","<img src=""stim_listA/oppose2.gif""style=""height:400px;""></stim_listA>",is being opposed by,,,,,,
null,"<div style=""font-size:60px;"">+</div>",,html-keyboard-response,270,1418076,0.0-17.0-0.11,44324,List2A,black,woman,,,,null,,,,,,,,,
null,"<img src=""stim_listA/seduce7.gif""style=""height:400px;""></stim_listA>",,html-keyboard-response,271,1420092,0.0-17.0-1.11,44324,List2A,black,woman,,,,null,,,,,,,,,
null,is seducing,,html-keyboard-response,272,1422095,0.0-17.0-2.11,44324,List2A,black,woman,,,,null,,,,,,,,,
8287.7,,,survey-text,273,1430386,0.0-17.0-3.11,44324,List2A,black,woman,,,,,"{""Q0"":""ruth is seducing kate""}","<img src=""stim_listA/seduce7.gif""style=""height:400px;""></stim_listA>",is seducing,,,,,,
null,"<div style=""font-size:60px;"">+</div>",,html-keyboard-response,274,1430899,0.0-17.0-0.12,44324,List2A,black,woman,,,,null,,,,,,,,,
null,"<img src=""stim_listA/greet4.gif""style=""height:400px;""></stim_listA>",,html-keyboard-response,275,1432912,0.0-17.0-1.12,44324,List2A,black,woman,,,,null,,,,,,,,,
null,is being greeted by,,html-keyboard-response,276,1434924,0.0-17.0-2.12,44324,List2A,black,woman,,,,null,,,,,,,,,
9564.3,,,survey-text,277,1444491,0.0-17.0-3.12,44324,List2A,black,woman,,,,,"{""Q0"":""fred is being greeted by kate""}","<img src=""stim_listA/greet4.gif""style=""height:400px;""></stim_listA>",is being greeted by,,,,,,
null,"<div style=""font-size:60px;"">+</div>",,html-keyboard-response,278,1444995,0.0-17.0-0.13,44324,List2A,black,woman,,,,null,,,,,,,,,
null,"<img src=""stim_listA/look4.gif""style=""height:400px;""></stim_listA>",,html-keyboard-response,279,1447008,0.0-17.0-1.13,44324,List2A,black,woman,,,,null,,,,,,,,,
null,is being looked at by,,html-keyboard-response,280,1449014,0.0-17.0-2.13,44324,List2A,black,woman,,,,null,,,,,,,,,
9483.9,,,survey-text,281,1458500,0.0-17.0-3.13,44324,List2A,black,woman,,,,,"{""Q0"":""kate is being looked at by mike""}","<img src=""stim_listA/look4.gif""style=""height:400px;""></stim_listA>",is being looked at by,,,,,,
null,"<div style=""font-size:60px;"">+</div>",,html-keyboard-response,282,1459005,0.0-17.0-0.14,44324,List2A,black,woman,,,,null,,,,,,,,,
null,"<img src=""stim_listA/seduce1.gif""style=""height:400px;""></stim_listA>",,html-keyboard-response,283,1461017,0.0-17.0-1.14,44324,List2A,black,woman,,,,null,,,,,,,,,
null,is seducing,,html-keyboard-response,284,1463033,0.0-17.0-2.14,44324,List2A,black,woman,,,,null,,,,,,,,,
7629.8,,,survey-text,285,1470664,0.0-17.0-3.14,44324,List2A,black,woman,,,,,"{""Q0"":""luke is seducing jane""}","<img src=""stim_listA/seduce1.gif""style=""height:400px;""></stim_listA>",is seducing,,,,,,
null,"<div style=""font-size:60px;"">+</div>",,html-keyboard-response,286,1471167,0.0-17.0-0.15,44324,List2A,black,woman,,,,null,,,,,,,,,
null,"<img src=""stim_listA/kiss2.gif""style=""height:400px;""></stim_listA>",,html-keyboard-response,287,1473173,0.0-17.0-1.15,44324,List2A,black,woman,,,,null,,,,,,,,,
null,is being kissed by,,html-keyboard-response,288,1475186,0.0-17.0-2.15,44324,List2A,black,woman,,,,null,,,,,,,,,
20530.4,,,survey-text,289,1495719,0.0-17.0-3.15,44324,List2A,black,woman,,,,,"{""Q0"":""dave is being kissed by jane""}","<img src=""stim_listA/kiss2.gif""style=""height:400px;""></stim_listA>",is being kissed by,,,,,,
null,"<div style=""font-size:60px;"">+</div>",,html-keyboard-response,290,1496232,0.0-17.0-0.16,44324,List2A,black,woman,,,,null,,,,,,,,,
null,"<img src=""stim_listA/oppose8.gif""style=""height:400px;""></stim_listA>",,html-keyboard-response,291,1498243,0.0-17.0-1.16,44324,List2A,black,woman,,,,null,,,,,,,,,
null,is being opposed by,,html-keyboard-response,292,1500246,0.0-17.0-2.16,44324,List2A,black,woman,,,,null,,,,,,,,,
8824.7,,,survey-text,293,1509074,0.0-17.0-3.16,44324,List2A,black,woman,,,,,"{""Q0"":""beth is being opposed by ruth""}","<img src=""stim_listA/oppose8.gif""style=""height:400px;""></stim_listA>",is being opposed by,,,,,,
null,"<div style=""font-size:60px;"">+</div>",,html-keyboard-response,294,1509588,0.0-17.0-0.17,44324,List2A,black,woman,,,,null,,,,,,,,,
null,"<img src=""stim_listA/seduce3.gif""style=""height:400px;""></stim_listA>",,html-keyboard-response,295,1511605,0.0-17.0-1.17,44324,List2A,black,woman,,,,null,,,,,,,,,
null,is seducing,,html-keyboard-response,296,1513606,0.0-17.0-2.17,44324,List2A,black,woman,,,,null,,,,,,,,,
10561.8,,,survey-text,297,1524170,0.0-17.0-3.17,44324,List2A,black,woman,,,,,"{""Q0"":""fred is seducing kate""}","<img src=""stim_listA/seduce3.gif""style=""height:400px;""></stim_listA>",is seducing,,,,,,
null,"<div style=""font-size:60px;"">+</div>",,html-keyboard-response,298,1524680,0.0-17.0-0.18,44324,List2A,black,woman,,,,null,,,,,,,,,
null,"<img src=""stim_listA/greet8.gif""style=""height:400px;""></stim_listA>",,html-keyboard-response,299,1526688,0.0-17.0-1.18,44324,List2A,black,woman,,,,null,,,,,,,,,
null,is being greeted by,,html-keyboard-response,300,1528697,0.0-17.0-2.18,44324,List2A,black,woman,,,,null,,,,,,,,,
8845.9,,,survey-text,301,1537546,0.0-17.0-3.18,44324,List2A,black,woman,,,,,"{""Q0"":""ruth is being greeted by kate""}","<img src=""stim_listA/greet8.gif""style=""height:400px;""></stim_listA>",is being greeted by,,,,,,
null,"<div style=""font-size:60px;"">+</div>",,html-keyboard-response,302,1538061,0.0-17.0-0.19,44324,List2A,black,woman,,,,null,,,,,,,,,
null,"<img src=""stim_listA/challenge2.gif""style=""height:400px;""></stim_listA>",,html-keyboard-response,303,1540066,0.0-17.0-1.19,44324,List2A,black,woman,,,,null,,,,,,,,,
null,is being challenged by,,html-keyboard-response,304,1542077,0.0-17.0-2.19,44324,List2A,black,woman,,,,null,,,,,,,,,
9186,,,survey-text,305,1551265,0.0-17.0-3.19,44324,List2A,black,woman,,,,,"{""Q0"":""luke is being challenged by jane""}","<img src=""stim_listA/challenge2.gif""style=""height:400px;""></stim_listA>",is being challenged by,,,,,,
12206.1,"<img src='img/portrait_matrix_list2.jpg' style='width:900px;height:500px;''></img><p>If you have memorised all the portraits and names and are ready to start, press Continue.</p><p><strong>Please note: Your memory of these faces will be tested 4 times during this experiment.</strong></p>",0,html-button-response,306,1563473,0.0-18.0-0.0,44324,List2A,black,woman,,,,,,,,,,,,,
3037.1,"<img src=""portrait/WW1.jpg""style=""height:400px;""></img>",1,html-button-response,307,1567522,0.0-18.0-1.0,44324,List2A,black,woman,,TRUE,1,,,,,,,,,,
null,CORRECT,,html-keyboard-response,308,1569050,0.0-18.0-2.0-0.0,44324,List2A,black,woman,,,,null,,,,,,,,,
1841.9,"<img src=""portrait/BM2.jpg""style=""height:400px;""></img>",5,html-button-response,309,1570895,0.0-18.0-4.0,44324,List2A,black,woman,,TRUE,5,,,,,,,,,,
null,CORRECT,,html-keyboard-response,310,1572404,0.0-18.0-5.0-0.0,44324,List2A,black,woman,,,,null,,,,,,,,,
2017.1,"<img src=""portrait/WM1.jpg""style=""height:400px;""></img>",6,html-button-response,311,1574422,0.0-18.0-7.0,44324,List2A,black,woman,,TRUE,6,,,,,,,,,,
null,CORRECT,,html-keyboard-response,312,1575952,0.0-18.0-8.0-0.0,44324,List2A,black,woman,,,,null,,,,,,,,,
2049.1,"<img src=""portrait/WM2.jpg""style=""height:400px;""></img>",7,html-button-response,313,1578003,0.0-18.0-10.0,44324,List2A,black,woman,,TRUE,7,,,,,,,,,,
null,CORRECT,,html-keyboard-response,314,1579521,0.0-18.0-11.0-0.0,44324,List2A,black,woman,,,,null,,,,,,,,,
1911.9,"<img src=""portrait/BW1.jpg""style=""height:400px;""></img>",0,html-button-response,315,1581434,0.0-18.0-13.0,44324,List2A,black,woman,,TRUE,0,,,,,,,,,,
null,CORRECT,,html-keyboard-response,316,1582962,0.0-18.0-14.0-0.0,44324,List2A,black,woman,,,,null,,,,,,,,,
1530.2,"<img src=""portrait/BW2.jpg""style=""height:400px;""></img>",2,html-button-response,317,1584494,0.0-18.0-16.0,44324,List2A,black,woman,,TRUE,2,,,,,,,,,,
null,CORRECT,,html-keyboard-response,318,1586004,0.0-18.0-17.0-0.0,44324,List2A,black,woman,,,,null,,,,,,,,,
2195.5,"<img src=""portrait/WW2.jpg""style=""height:400px;""></img>",3,html-button-response,319,1588201,0.0-18.0-19.0,44324,List2A,black,woman,,TRUE,3,,,,,,,,,,
null,CORRECT,,html-keyboard-response,320,1589724,0.0-18.0-20.0-0.0,44324,List2A,black,woman,,,,null,,,,,,,,,
1453,"<img src=""portrait/BM1.jpg""style=""height:400px;""></img>",4,html-button-response,321,1591178,0.0-18.0-22.0,44324,List2A,black,woman,,TRUE,4,,,,,,,,,,
null,CORRECT,,html-keyboard-response,322,1592703,0.0-18.0-23.0-0.0,44324,List2A,black,woman,,,,null,,,,,,,,,
1964.5,<p>You got 8 out of 8 right first time. Press Continue.</p>,0,html-button-response,323,1594669,0.0-18.0-25.0,44324,List2A,black,woman,,,,,,,,,,,,,
null,"<div style=""font-size:60px;"">+</div>",,html-keyboard-response,324,1596198,0.0-19.0-0.0,44324,List2A,black,woman,,,,null,,,,,,,,,
null,"<img src=""stim_listA/hug2.gif""style=""height:400px;""></stim_listA>",,html-keyboard-response,325,1598203,0.0-19.0-1.0,44324,List2A,black,woman,,,,null,,,,,,,,,
null,is being hugged by,,html-keyboard-response,326,1600205,0.0-19.0-2.0,44324,List2A,black,woman,,,,null,,,,,,,,,
8896.9,,,survey-text,327,1609103,0.0-19.0-3.0,44324,List2A,black,woman,,,,,"{""Q0"":""dave is being hugged by jane""}","<img src=""stim_listA/hug2.gif""style=""height:400px;""></stim_listA>",is being hugged by,,,,,,
null,"<div style=""font-size:60px;"">+</div>",,html-keyboard-response,328,1609619,0.0-19.0-0.1,44324,List2A,black,woman,,,,null,,,,,,,,,
null,"<img src=""stim_listA/touch4.gif""style=""height:400px;""></stim_listA>",,html-keyboard-response,329,1611627,0.0-19.0-1.1,44324,List2A,black,woman,,,,null,,,,,,,,,
null,is being touched by,,html-keyboard-response,330,1613629,0.0-19.0-2.1,44324,List2A,black,woman,,,,null,,,,,,,,,
9936.9,,,survey-text,331,1623567,0.0-19.0-3.1,44324,List2A,black,woman,,,,,"{""Q0"":""beth is being touched by fred""}","<img src=""stim_listA/touch4.gif""style=""height:400px;""></stim_listA>",is being touched by,,,,,,
null,"<div style=""font-size:60px;"">+</div>",,html-keyboard-response,332,1624075,0.0-19.0-0.2,44324,List2A,black,woman,,,,null,,,,,,,,,
null,"<img src=""stim_listA/hug3.gif""style=""height:400px;""></stim_listA>",,html-keyboard-response,333,1626088,0.0-19.0-1.2,44324,List2A,black,woman,,,,null,,,,,,,,,
null,is hugging,,html-keyboard-response,334,1628096,0.0-19.0-2.2,44324,List2A,black,woman,,,,null,,,,,,,,,
5599.6,,,survey-text,335,1633697,0.0-19.0-3.2,44324,List2A,black,woman,,,,,"{""Q0"":""fred is hugging beth""}","<img src=""stim_listA/hug3.gif""style=""height:400px;""></stim_listA>",is hugging,,,,,,
null,"<div style=""font-size:60px;"">+</div>",,html-keyboard-response,336,1634203,0.0-19.0-0.3,44324,List2A,black,woman,,,,null,,,,,,,,,
null,"<img src=""stim_listA/kiss3.gif""style=""height:400px;""></stim_listA>",,html-keyboard-response,337,1636219,0.0-19.0-1.3,44324,List2A,black,woman,,,,null,,,,,,,,,
null,is kissing,,html-keyboard-response,338,1638229,0.0-19.0-2.3,44324,List2A,black,woman,,,,null,,,,,,,,,
15082.6,,,survey-text,339,1653314,0.0-19.0-3.3,44324,List2A,black,woman,,,,,"{""Q0"":""fred is kissing beth""}","<img src=""stim_listA/kiss3.gif""style=""height:400px;""></stim_listA>",is kissing,,,,,,
null,"<div style=""font-size:60px;"">+</div>",,html-keyboard-response,340,1653821,0.0-19.0-0.4,44324,List2A,black,woman,,,,null,,,,,,,,,
null,"<img src=""stim_listA/seduce5.gif""style=""height:400px;""></stim_listA>",,html-keyboard-response,341,1655825,0.0-19.0-1.4,44324,List2A,black,woman,,,,null,,,,,,,,,
null,is seducing,,html-keyboard-response,342,1657827,0.0-19.0-2.4,44324,List2A,black,woman,,,,null,,,,,,,,,
9330,,,survey-text,343,1667160,0.0-19.0-3.4,44324,List2A,black,woman,,,,,"{""Q0"":""mike is seducing luke ""}","<img src=""stim_listA/seduce5.gif""style=""height:400px;""></stim_listA>",is seducing,,,,,,
null,"<div style=""font-size:60px;"">+</div>",,html-keyboard-response,344,1667662,0.0-19.0-0.5,44324,List2A,black,woman,,,,null,,,,,,,,,
null,"<img src=""stim_listA/seduce2.gif""style=""height:400px;""></stim_listA>",,html-keyboard-response,345,1669679,0.0-19.0-1.5,44324,List2A,black,woman,,,,null,,,,,,,,,
null,is being seduced by,,html-keyboard-response,346,1671684,0.0-19.0-2.5,44324,List2A,black,woman,,,,null,,,,,,,,,
8524.6,,,survey-text,347,1680211,0.0-19.0-3.5,44324,List2A,black,woman,,,,,"{""Q0"":""dave is being seduced by ruth""}","<img src=""stim_listA/seduce2.gif""style=""height:400px;""></stim_listA>",is being seduced by,,,,,,
null,"<div style=""font-size:60px;"">+</div>",,html-keyboard-response,348,1680725,0.0-19.0-0.6,44324,List2A,black,woman,,,,null,,,,,,,,,
null,"<img src=""stim_listA/shout3.gif""style=""height:400px;""></stim_listA>",,html-keyboard-response,349,1682741,0.0-19.0-1.6,44324,List2A,black,woman,,,,null,,,,,,,,,
null,is shouting at,,html-keyboard-response,350,1684752,0.0-19.0-2.6,44324,List2A,black,woman,,,,null,,,,,,,,,
7659.2,,,survey-text,351,1692413,0.0-19.0-3.6,44324,List2A,black,woman,,,,,"{""Q0"":""fred is shouting at ruth""}","<img src=""stim_listA/shout3.gif""style=""height:400px;""></stim_listA>",is shouting at,,,,,,
null,"<div style=""font-size:60px;"">+</div>",,html-keyboard-response,352,1692922,0.0-19.0-0.7,44324,List2A,black,woman,,,,null,,,,,,,,,
null,"<img src=""stim_listA/shout1.gif""style=""height:400px;""></stim_listA>",,html-keyboard-response,353,1694928,0.0-19.0-1.7,44324,List2A,black,woman,,,,null,,,,,,,,,
null,is shouting at,,html-keyboard-response,354,1696940,0.0-19.0-2.7,44324,List2A,black,woman,,,,null,,,,,,,,,
9889.3,,,survey-text,355,1706831,0.0-19.0-3.7,44324,List2A,black,woman,,,,,"{""Q0"":""luke is shouting at ruth""}","<img src=""stim_listA/shout1.gif""style=""height:400px;""></stim_listA>",is shouting at,,,,,,
null,"<div style=""font-size:60px;"">+</div>",,html-keyboard-response,356,1707343,0.0-19.0-0.8,44324,List2A,black,woman,,,,null,,,,,,,,,
null,"<img src=""stim_listA/kiss8.gif""style=""height:400px;""></stim_listA>",,html-keyboard-response,357,1709359,0.0-19.0-1.8,44324,List2A,black,woman,,,,null,,,,,,,,,
null,is being kissed by,,html-keyboard-response,358,1711361,0.0-19.0-2.8,44324,List2A,black,woman,,,,null,,,,,,,,,
8518.7,,,survey-text,359,1719882,0.0-19.0-3.8,44324,List2A,black,woman,,,,,"{""Q0"":""jane is being kissed by kate""}","<img src=""stim_listA/kiss8.gif""style=""height:400px;""></stim_listA>",is being kissed by,,,,,,
null,"<div style=""font-size:60px;"">+</div>",,html-keyboard-response,360,1720398,0.0-19.0-0.9,44324,List2A,black,woman,,,,null,,,,,,,,,
null,"<img src=""stim_listA/kiss4.gif""style=""height:400px;""></stim_listA>",,html-keyboard-response,361,1722407,0.0-19.0-1.9,44324,List2A,black,woman,,,,null,,,,,,,,,
null,is being kissed by,,html-keyboard-response,362,1724417,0.0-19.0-2.9,44324,List2A,black,woman,,,,null,,,,,,,,,
7650.7,,,survey-text,363,1732070,0.0-19.0-3.9,44324,List2A,black,woman,,,,,"{""Q0"":""mike is being kissed by kate""}","<img src=""stim_listA/kiss4.gif""style=""height:400px;""></stim_listA>",is being kissed by,,,,,,
null,"<div style=""font-size:60px;"">+</div>",,html-keyboard-response,364,1732587,0.0-19.0-0.10,44324,List2A,black,woman,,,,null,,,,,,,,,
null,"<img src=""stim_listA/challenge6.gif""style=""height:400px;""></stim_listA>",,html-keyboard-response,365,1734601,0.0-19.0-1.10,44324,List2A,black,woman,,,,null,,,,,,,,,
null,is being challenged by,,html-keyboard-response,366,1736606,0.0-19.0-2.10,44324,List2A,black,woman,,,,null,,,,,,,,,
9827.6,,,survey-text,367,1746436,0.0-19.0-3.10,44324,List2A,black,woman,,,,,"{""Q0"":""luke is challenged by mike""}","<img src=""stim_listA/challenge6.gif""style=""height:400px;""></stim_listA>",is being challenged by,,,,,,
null,"<div style=""font-size:60px;"">+</div>",,html-keyboard-response,368,1746941,0.0-19.0-0.11,44324,List2A,black,woman,,,,null,,,,,,,,,
null,"<img src=""stim_listA/touch5.gif""style=""height:400px;""></stim_listA>",,html-keyboard-response,369,1748945,0.0-19.0-1.11,44324,List2A,black,woman,,,,null,,,,,,,,,
null,is touching,,html-keyboard-response,370,1750954,0.0-19.0-2.11,44324,List2A,black,woman,,,,null,,,,,,,,,
7750.3,,,survey-text,371,1758706,0.0-19.0-3.11,44324,List2A,black,woman,,,,,"{""Q0"":""mike is touching dave""}","<img src=""stim_listA/touch5.gif""style=""height:400px;""></stim_listA>",is touching,,,,,,
null,"<div style=""font-size:60px;"">+</div>",,html-keyboard-response,372,1759220,0.0-19.0-0.12,44324,List2A,black,woman,,,,null,,,,,,,,,
null,"<img src=""stim_listA/oppose7.gif""style=""height:400px;""></stim_listA>",,html-keyboard-response,373,1761238,0.0-19.0-1.12,44324,List2A,black,woman,,,,null,,,,,,,,,
null,is opposing,,html-keyboard-response,374,1763248,0.0-19.0-2.12,44324,List2A,black,woman,,,,null,,,,,,,,,
7313.5,,,survey-text,375,1770564,0.0-19.0-3.12,44324,List2A,black,woman,,,,,"{""Q0"":""jane is opposing kate""}","<img src=""stim_listA/oppose7.gif""style=""height:400px;""></stim_listA>",is opposing,,,,,,
null,"<div style=""font-size:60px;"">+</div>",,html-keyboard-response,376,1771074,0.0-19.0-0.13,44324,List2A,black,woman,,,,null,,,,,,,,,
null,"<img src=""stim_listA/touch3.gif""style=""height:400px;""></stim_listA>",,html-keyboard-response,377,1773087,0.0-19.0-1.13,44324,List2A,black,woman,,,,null,,,,,,,,,
null,is touching,,html-keyboard-response,378,1775090,0.0-19.0-2.13,44324,List2A,black,woman,,,,null,,,,,,,,,
10251,,,survey-text,379,1785343,0.0-19.0-3.13,44324,List2A,black,woman,,,,,"{""Q0"":""mike is touching kate""}","<img src=""stim_listA/touch3.gif""style=""height:400px;""></stim_listA>",is touching,,,,,,
null,"<div style=""font-size:60px;"">+</div>",,html-keyboard-response,380,1785849,0.0-19.0-0.14,44324,List2A,black,woman,,,,null,,,,,,,,,
null,"<img src=""stim_listA/copy8.gif""style=""height:400px;""></stim_listA>",,html-keyboard-response,381,1787859,0.0-19.0-1.14,44324,List2A,black,woman,,,,null,,,,,,,,,
null,is being copied by,,html-keyboard-response,382,1789867,0.0-19.0-2.14,44324,List2A,black,woman,,,,null,,,,,,,,,
7841.8,,,survey-text,383,1797712,0.0-19.0-3.14,44324,List2A,black,woman,,,,,"{""Q0"":""jane is being copied by ruth""}","<img src=""stim_listA/copy8.gif""style=""height:400px;""></stim_listA>",is being copied by,,,,,,
null,"<div style=""font-size:60px;"">+</div>",,html-keyboard-response,384,1798221,0.0-19.0-0.15,44324,List2A,black,woman,,,,null,,,,,,,,,
null,"<img src=""stim_listA/oppose4.gif""style=""height:400px;""></stim_listA>",,html-keyboard-response,385,1800235,0.0-19.0-1.15,44324,List2A,black,woman,,,,null,,,,,,,,,
null,is being opposed by,,html-keyboard-response,386,1802247,0.0-19.0-2.15,44324,List2A,black,woman,,,,null,,,,,,,,,
7493.2,,,survey-text,387,1809742,0.0-19.0-3.15,44324,List2A,black,woman,,,,,"{""Q0"":""fred is being opposed by beth""}","<img src=""stim_listA/oppose4.gif""style=""height:400px;""></stim_listA>",is being opposed by,,,,,,
null,"<div style=""font-size:60px;"">+</div>",,html-keyboard-response,388,1810252,0.0-19.0-0.16,44324,List2A,black,woman,,,,null,,,,,,,,,
null,"<img src=""stim_listA/kiss6.gif""style=""height:400px;""></stim_listA>",,html-keyboard-response,389,1812266,0.0-19.0-1.16,44324,List2A,black,woman,,,,null,,,,,,,,,
null,is being kissed by,,html-keyboard-response,390,1814276,0.0-19.0-2.16,44324,List2A,black,woman,,,,null,,,,,,,,,
10693.3,,,survey-text,391,1824973,0.0-19.0-3.16,44324,List2A,black,woman,,,,,"{""Q0"":""dave is being kissed by mike""}","<img src=""stim_listA/kiss6.gif""style=""height:400px;""></stim_listA>",is being kissed by,,,,,,
null,"<div style=""font-size:60px;"">+</div>",,html-keyboard-response,392,1825480,0.0-19.0-0.17,44324,List2A,black,woman,,,,null,,,,,,,,,
null,"<img src=""stim_listA/shout2.gif""style=""height:400px;""></stim_listA>",,html-keyboard-response,393,1827483,0.0-19.0-1.17,44324,List2A,black,woman,,,,null,,,,,,,,,
null,is being shouted at by,,html-keyboard-response,394,1829495,0.0-19.0-2.17,44324,List2A,black,woman,,,,null,,,,,,,,,
16517.2,,,survey-text,395,1846014,0.0-19.0-3.17,44324,List2A,black,woman,,,,,"{""Q0"":""dave is being shouted at by jane""}","<img src=""stim_listA/shout2.gif""style=""height:400px;""></stim_listA>",is being shouted at by,,,,,,
null,"<div style=""font-size:60px;"">+</div>",,html-keyboard-response,396,1846517,0.0-19.0-0.18,44324,List2A,black,woman,,,,null,,,,,,,,,
null,"<img src=""stim_listA/copy6.gif""style=""height:400px;""></stim_listA>",,html-keyboard-response,397,1848527,0.0-19.0-1.18,44324,List2A,black,woman,,,,null,,,,,,,,,
null,is being copied by,,html-keyboard-response,398,1850542,0.0-19.0-2.18,44324,List2A,black,woman,,,,null,,,,,,,,,
9166.7,,,survey-text,399,1859711,0.0-19.0-3.18,44324,List2A,black,woman,,,,,"{""Q0"":""mike is being copied by luke""}","<img src=""stim_listA/copy6.gif""style=""height:400px;""></stim_listA>",is being copied by,,,,,,
null,"<div style=""font-size:60px;"">+</div>",,html-keyboard-response,400,1860223,0.0-19.0-0.19,44324,List2A,black,woman,,,,null,,,,,,,,,
null,"<img src=""stim_listA/oppose5.gif""style=""height:400px;""></stim_listA>",,html-keyboard-response,401,1862239,0.0-19.0-1.19,44324,List2A,black,woman,,,,null,,,,,,,,,
null,is opposing,,html-keyboard-response,402,1864248,0.0-19.0-2.19,44324,List2A,black,woman,,,,null,,,,,,,,,
6872,,,survey-text,403,1871124,0.0-19.0-3.19,44324,List2A,black,woman,,,,,"{""Q0"":""dave is opposing mike""}","<img src=""stim_listA/oppose5.gif""style=""height:400px;""></stim_listA>",is opposing,,,,,,
5285.8,<p>Thank you for completing that task.</p><p>The final part of this session is a questionnaire that will take about 4 minutes.</p><p>Press Continue.</p>,0,html-button-response,404,1876411,0.0-20.0,44324,List2A,black,woman,,,,,,,,,,,,,
45999.9,,,survey-text,405,1923427,0.0-21.0,44324,List2A,black,woman,,,,,"{""Q0"":""21"",""Q1"":""english"",""Q2"":""english"",""Q3"":""United States"",""Q4"":""American "",""Q5"":""Black/African American"",""Q6"":""Female ""}",,,demographics,,,,,
5883.5,<p>Have you lived in the USA for the last 5 years or more?</p>,0,html-button-response,406,1929313,0.0-22.0,44324,List2A,black,woman,,,,,,,,fiveyears,,,,,
3238.6,<p>Move the slider to show the extent to which you agree with the following statements.</p>,0,html-button-response,407,1933563,0.0-23.0,44324,List2A,black,woman,,,,,,,,,,,,,
6134.9,,,html-slider-response,408,1940706,0.0-24.0-0.0-0.0,44324,List2A,black,woman,,,,,,,,survey_gender,90,,,I feel solidarity with my friends.,filler
4832,,,html-slider-response,409,1945540,0.0-24.0-0.0-0.1,44324,List2A,black,woman,,,,,,,,survey_gender,78,,,My friends have a lot in common with each other.,filler
3702.1,,,html-slider-response,410,1949243,0.0-24.0-0.0-0.2,44324,List2A,black,woman,,,,,,,,survey_gender,14,,,Routine is not important to me.,filler
4076.2,,,html-slider-response,411,1953321,0.0-24.0-0.0-0.3,44324,List2A,black,woman,,,,,,,,survey_gender,82,,,I feel a bond with my friends.,filler
3881.2,,,html-slider-response,412,1957203,0.0-24.0-0.0-0.4,44324,List2A,black,woman,,,,,,,,survey_gender,81,,,I have a lot in common with my friends.,filler
5156,,,html-slider-response,413,1962361,0.0-24.0-0.0-0.5,44324,List2A,black,woman,,,,,,,,survey_gender,100,,,Being my gender gives me a good feeling.,feeling
4796,,,html-slider-response,414,1967159,0.0-24.0-0.0-0.6,44324,List2A,black,woman,,,,,,,,survey_gender,35,,,I would say I am an animal person.,filler
5042.3,,,html-slider-response,415,1972203,0.0-24.0-0.0-0.7,44324,List2A,black,woman,,,,,,,,survey_gender,72,,,I have a lot in common with the average person of my gender.,average
6284,,,html-slider-response,416,1978488,0.0-24.0-0.0-0.8,44324,List2A,black,woman,,,,,,,,survey_gender,83,,,I think that my gender has a lot to be proud of.,proud
8408.9,,,html-slider-response,417,1986899,0.0-24.0-0.0-0.9,44324,List2A,black,woman,,,,,,,,survey_gender,67,,,People of my gender have a lot in common with each other.,common
5086,,,html-slider-response,418,1991986,0.0-24.0-0.0-0.10,44324,List2A,black,woman,,,,,,,,survey_gender,34,,,People of my gender are very similar to each other.,verysimilar
3693.2,,,html-slider-response,419,1995681,0.0-24.0-0.0-0.11,44324,List2A,black,woman,,,,,,,,survey_gender,89,,,I feel committed to my gender.,committed
3373.2,,,html-slider-response,420,1999056,0.0-24.0-0.0-0.12,44324,List2A,black,woman,,,,,,,,survey_gender,90,,,Being around my friends gives me a good feeling.,filler
6600,,,html-slider-response,421,2005657,0.0-24.0-0.0-0.13,44324,List2A,black,woman,,,,,,,,survey_gender,39,,,It is not always easy for people to know what I am thinking.,filler
3731.5,,,html-slider-response,422,2009389,0.0-24.0-0.0-0.14,44324,List2A,black,woman,,,,,,,,survey_gender,100,,,I am glad to be my gender.,glad
2926.5,,,html-slider-response,423,2012317,0.0-24.0-0.0-0.15,44324,List2A,black,woman,,,,,,,,survey_gender,69,,,My friends understand me.,filler
8403.9,,,html-slider-response,424,2020722,0.0-24.0-0.0-0.16,44324,List2A,black,woman,,,,,,,,survey_gender,65,,,I often think about the fact that I am my gender.,often
4773.8,,,html-slider-response,425,2025497,0.0-24.0-0.0-0.17,44324,List2A,black,woman,,,,,,,,survey_gender,73,,,It is pleasant to be my gender.,pleasant
4997.4,,,html-slider-response,426,2030496,0.0-24.0-0.0-0.18,44324,List2A,black,woman,,,,,,,,survey_gender,79,,,I often think about my actions.,filler
4133.9,,,html-slider-response,427,2034632,0.0-24.0-0.0-0.19,44324,List2A,black,woman,,,,,,,,survey_gender,79,,,I feel a bond with my gender.,bond
9611.6,,,html-slider-response,428,2044245,0.0-24.0-0.0-0.20,44324,List2A,black,woman,,,,,,,,survey_gender,66,,,I am glad to have the friends that I have.,filler
8856.5,,,html-slider-response,429,2053102,0.0-24.0-0.0-0.21,44324,List2A,black,woman,,,,,,,,survey_gender,29,,,Family is not more important to me than friendship.,filler
5987.5,,,html-slider-response,430,2059091,0.0-24.0-0.0-0.22,44324,List2A,black,woman,,,,,,,,survey_gender,78,,,I am similar to the average person of my gender.,similar
4342.6,,,html-slider-response,431,2063436,0.0-24.0-0.0-0.23,44324,List2A,black,woman,,,,,,,,survey_gender,100,,,Being my gender is an important part of how I see myself.,important
3775.3,,,html-slider-response,432,2067212,0.0-24.0-0.0-0.24,44324,List2A,black,woman,,,,,,,,survey_gender,65,,,Most of the friends in my life are very similar to me.,filler
3917.3,,,html-slider-response,433,2071131,0.0-24.0-0.0-0.25,44324,List2A,black,woman,,,,,,,,survey_gender,82,,,I consider myself a highly empathetic person.,filler
3605.3,,,html-slider-response,434,2074737,0.0-24.0-0.0-0.26,44324,List2A,black,woman,,,,,,,,survey_gender,74,,,I feel solidarity with my gender.,solidarity
6763.6,,,html-slider-response,435,2081503,0.0-24.0-0.0-0.27,44324,List2A,black,woman,,,,,,,,survey_gender,98,,,The fact that I am my gender is an important part of my identity.,identity
4274.3,,,html-slider-response,436,2085779,0.0-24.0-1.0-0.0,44324,List2A,black,woman,,,,,,,,survey_race,71,,,I feel solidarity with my race.,solidarity
3523.2,,,html-slider-response,437,2089303,0.0-24.0-1.0-0.1,44324,List2A,black,woman,,,,,,,,survey_race,100,,,I am glad to be my race.,glad
5146.3,,,html-slider-response,438,2094451,0.0-24.0-1.0-0.2,44324,List2A,black,woman,,,,,,,,survey_race,70,,,I feel a bond with my race.,bond
15806.5,,,html-slider-response,439,2110260,0.0-24.0-1.0-0.3,44324,List2A,black,woman,,,,,,,,survey_race,44,,,People of my race have a lot in common with each other.,common
3575,,,html-slider-response,440,2113836,0.0-24.0-1.0-0.4,44324,List2A,black,woman,,,,,,,,survey_race,100,,,I am glad to be my age.,filler
5371.5,,,html-slider-response,441,2119208,0.0-24.0-1.0-0.5,44324,List2A,black,woman,,,,,,,,survey_race,67,,,"The older I get, the wiser I feel.",filler
7457.2,,,html-slider-response,442,2126667,0.0-24.0-1.0-0.6,44324,List2A,black,woman,,,,,,,,survey_race,62,,,Being my race gives me a good feeling.,feeling
6525.9,,,html-slider-response,443,2133194,0.0-24.0-1.0-0.7,44324,List2A,black,woman,,,,,,,,survey_race,53,,,I am similar to the average person of my race.,similar
3813.4,,,html-slider-response,444,2137009,0.0-24.0-1.0-0.8,44324,List2A,black,woman,,,,,,,,survey_race,72,,,Being my race is an important part of how I see myself.,important
6033.3,,,html-slider-response,445,2143043,0.0-24.0-1.0-0.9,44324,List2A,black,woman,,,,,,,,survey_race,23,,,People of my race are very similar to each other.,verysimilar
3477.5,,,html-slider-response,446,2146522,0.0-24.0-1.0-0.10,44324,List2A,black,woman,,,,,,,,survey_race,90,,,Being my age gives me a good feeling.,filler
4402,,,html-slider-response,447,2150926,0.0-24.0-1.0-0.11,44324,List2A,black,woman,,,,,,,,survey_race,86,,,I consider myself an introvert.,filler
5206.6,,,html-slider-response,448,2156134,0.0-24.0-1.0-0.12,44324,List2A,black,woman,,,,,,,,survey_race,89,,,I have a lot in common with people of a similar age to me.,filler
6593.1,,,html-slider-response,449,2162728,0.0-24.0-1.0-0.13,44324,List2A,black,woman,,,,,,,,survey_race,59,,,I have a lot in common with the average person of my race.,average
4244.4,,,html-slider-response,450,2166974,0.0-24.0-1.0-0.14,44324,List2A,black,woman,,,,,,,,survey_race,71,,,I often think about the fact that I am my age.,filler
3589.3,,,html-slider-response,451,2170565,0.0-24.0-1.0-0.15,44324,List2A,black,woman,,,,,,,,survey_race,100,,,I think that my race has a lot to be proud of.,proud
4624.8,,,html-slider-response,452,2175191,0.0-24.0-1.0-0.16,44324,List2A,black,woman,,,,,,,,survey_race,83,,,The fact that I am my race is an important part of my identity.,identity
4998.1,,,html-slider-response,453,2180190,0.0-24.0-1.0-0.17,44324,List2A,black,woman,,,,,,,,survey_race,89,,,I feel solidarity with people the same age as me.,filler
3239.5,,,html-slider-response,454,2183431,0.0-24.0-1.0-0.18,44324,List2A,black,woman,,,,,,,,survey_race,91,,,I feel a bond with people the same age as me.,filler
3403.9,,,html-slider-response,455,2186836,0.0-24.0-1.0-0.19,44324,List2A,black,woman,,,,,,,,survey_race,84,,,I feel committed to my race.,committed
4379,,,html-slider-response,456,2191217,0.0-24.0-1.0-0.20,44324,List2A,black,woman,,,,,,,,survey_race,87,,,I often think about the fact that I am my race.,often
5072.1,,,html-slider-response,457,2196291,0.0-24.0-1.0-0.21,44324,List2A,black,woman,,,,,,,,survey_race,48,,,It is pleasant to be my race.,pleasant
5503.6,,,html-slider-response,458,2201796,0.0-24.0-1.0-0.22,44324,List2A,black,woman,,,,,,,,survey_race,55,,,I consider myself an extrovert.,filler
3962.7,,,html-slider-response,459,2205760,0.0-24.0-1.0-0.23,44324,List2A,black,woman,,,,,,,,survey_race,94,,,I am glad to be the age I am.,filler
5259.3,,,html-slider-response,460,2211021,0.0-24.0-1.0-0.24,44324,List2A,black,woman,,,,,,,,survey_race,31,,,My age is not an important part of who I am.,filler
3947.4,,,html-slider-response,461,2214969,0.0-24.0-1.0-0.25,44324,List2A,black,woman,,,,,,,,survey_race,38,,,People my age have a lot in common with each other.,filler
3610.8,,,html-slider-response,462,2218582,0.0-24.0-1.0-0.26,44324,List2A,black,woman,,,,,,,,survey_race,33,,,I enjoy being in large groups.,filler
5296.2,,,html-slider-response,463,2223879,0.0-24.0-1.0-0.27,44324,List2A,black,woman,,,,,,,,survey_race,38,,,Getting older does not worry me.,filler
10984.9,,,survey-text,464,2234867,0.0-25.0,44324,List2A,black,woman,,,,,"{""Q0"":""ccc""}",,,worker_id,,,,,
32854.6,,,external-html,465,2268115,0.0-26.0,44324,List2A,black,woman,debrief.html,,,,,,,,,,,,
