"rt","stimulus","button_pressed","trial_type","trial_index","time_elapsed","internal_node_id","subject","list","ppt_race","ppt_gender","url","first_guess","correct","key_press","responses","image_type","phrase_type","test_part","response","stimulus1","stimulus2","question_type","survey_item"
"17930.80000001192","Welcome to the experiment. Press Continue to begin.","0","html-button-response","0","17935","0.0-0.0","44605","List1A","black","woman","","","","","","","","","","","","",""
"58612.19999998808","","","external-html","1","77868","0.0-1.0","44605","List1A","black","woman","consent.html","","","","","","","","","","","",""
"22048","<p>On the next page, you will see portraits of 8 people and their names.</p><p>Your first task is to take a few minutes to memorise the names of these people.</p><p>You will have to recall their names during the rest of the experiment, so it is</p><p>essential that you try to memorise these people and their names as best as you can.</p><br><p><strong>You will then be tested on your memory of these names and portraits.</strong></p><br><p>The experiment will start after you have completed this memory test.</p><br><p>Ready?</p>","0","html-button-response","2","99918","0.0-2.0","44605","List1A","black","woman","","","","","","","","","","","","",""
"74074.59999999404","<img src='img/portrait_matrix_list1.jpg' style='width:900px;height:500px;''></img><p>If you have memorised all the portraits and names and are ready to start, press Continue.</p><p><strong>Please note: Your memory of these faces will be tested 4 times during this experiment.</strong></p>","0","html-button-response","3","175000","0.0-3.0-0.0","44605","List1A","black","woman","","","","","","","","","","","","",""
"3471.300000011921","<img src=""portrait/BW2.jpg""style=""height:400px;""></img>","2","html-button-response","4","179477","0.0-3.0-1.0","44605","List1A","black","woman","","true","2","","","","","","","","","",""
"null","CORRECT","","html-keyboard-response","5","180987","0.0-3.0-2.0-0.0","44605","List1A","black","woman","","","","null","","","","","","","","",""
"4259.300000011921","<img src=""portrait/WW1.jpg""style=""height:400px;""></img>","1","html-button-response","6","185248","0.0-3.0-4.0","44605","List1A","black","woman","","true","1","","","","","","","","","",""
"null","CORRECT","","html-keyboard-response","7","186756","0.0-3.0-5.0-0.0","44605","List1A","black","woman","","","","null","","","","","","","","",""
"2201.4000000059605","<img src=""portrait/BM1.jpg""style=""height:400px;""></img>","4","html-button-response","8","188959","0.0-3.0-7.0","44605","List1A","black","woman","","true","4","","","","","","","","","",""
"null","CORRECT","","html-keyboard-response","9","190465","0.0-3.0-8.0-0.0","44605","List1A","black","woman","","","","null","","","","","","","","",""
"3468.4000000059605","<img src=""portrait/WM1.jpg""style=""height:400px;""></img>","6","html-button-response","10","193934","0.0-3.0-10.0","44605","List1A","black","woman","","true","6","","","","","","","","","",""
"null","CORRECT","","html-keyboard-response","11","195444","0.0-3.0-11.0-0.0","44605","List1A","black","woman","","","","null","","","","","","","","",""
"1967.300000011921","<img src=""portrait/WM2.jpg""style=""height:400px;""></img>","7","html-button-response","12","197412","0.0-3.0-13.0","44605","List1A","black","woman","","true","7","","","","","","","","","",""
"null","CORRECT","","html-keyboard-response","13","198917","0.0-3.0-14.0-0.0","44605","List1A","black","woman","","","","null","","","","","","","","",""
"2818.0999999940395","<img src=""portrait/WW2.jpg""style=""height:400px;""></img>","3","html-button-response","14","201736","0.0-3.0-16.0","44605","List1A","black","woman","","true","3","","","","","","","","","",""
"null","CORRECT","","html-keyboard-response","15","203246","0.0-3.0-17.0-0.0","44605","List1A","black","woman","","","","null","","","","","","","","",""
"3473.0999999940395","<img src=""portrait/BM2.jpg""style=""height:400px;""></img>","5","html-button-response","16","206721","0.0-3.0-19.0","44605","List1A","black","woman","","true","5","","","","","","","","","",""
"null","CORRECT","","html-keyboard-response","17","208225","0.0-3.0-20.0-0.0","44605","List1A","black","woman","","","","null","","","","","","","","",""
"1968","<img src=""portrait/BW1.jpg""style=""height:400px;""></img>","0","html-button-response","18","210194","0.0-3.0-22.0","44605","List1A","black","woman","","true","0","","","","","","","","","",""
"null","CORRECT","","html-keyboard-response","19","211701","0.0-3.0-23.0-0.0","44605","List1A","black","woman","","","","null","","","","","","","","",""
"2394.5","<p>You got 8 out of 8 right first time. Press Continue.</p>","0","html-button-response","20","214097","0.0-3.0-25.0","44605","List1A","black","woman","","","","","","","","","","","","",""
"50294","<p>In this experiment, you will view photographs of the people from the memory game interacting.</p><p>By using the <strong>exact</strong> phrase given <i>after</i> the photograph appears and recalling the correct names of the people in the photographs, form a sentence describing the interaction. You do not need to capitalise names.</p><p>Type your answer in the space provided. Please complete every sentence before moving onto the next trial.</p><p>You will only have a few seconds to memorise each given photograph and phrase before you can respond, so try your best to focus.</p><p>An example is given below. Press 'Continue' when you are ready.</p><img src='img/speaking_example.jpg' style='width:800px;height:460px;''></img>","0","html-button-response","21","265399","0.0-4.0","44605","List1A","black","woman","","","","","","","","","","","","",""
"4079.800000011921","<p>Before the experiment starts, you will watch two example trials. Press 'Continue'.</p>","0","html-button-response","22","270481","0.0-5.0","44605","List1A","black","woman","","","","","","","","","","","","",""
"null","<img src='img/play_eg.gif' style='height:400px;''></img>","","html-keyboard-response","23","273486","0.0-6.0","44605","List1A","black","woman","","","","null","","","","","","","","",""
"null","<p>is playing with</p>","","html-keyboard-response","24","275491","0.0-7.0","44605","List1A","black","woman","","","","null","","","","","","","","",""
"14432.90000000596","<p><b>Answer:</b> kate is playing with beth</p>","0","html-button-response","25","289925","0.0-8.0","44605","List1A","black","woman","","","","","","","","","","","","",""
"null","<img src='img/dance_eg.gif' style='height:400px;''></img>","","html-keyboard-response","26","292933","0.0-9.0","44605","List1A","black","woman","","","","null","","","","","","","","",""
"null","<p>is being entertained by</p>","","html-keyboard-response","27","294938","0.0-10.0","44605","List1A","black","woman","","","","null","","","","","","","","",""
"2862.800000011921","<p><b>Answer:</b> luke is being entertained by dave</p>","0","html-button-response","28","297802","0.0-11.0","44605","List1A","black","woman","","","","","","","","","","","","",""
"8742.40000000596","<p>Ready to start the experiment?</p><br><p><strong>Remember to describe the picture using a full sentence,</strong></p><p><strong>that combines the names of the people with the <i>exact</i> phrase given.</strong></p><p><strong>To receive full payment you must do this correctly.</strong></p><p><strong> You do not need to capitalise names or use punctuation.</strong></p><br><p>Press 'Continue' to begin.</p>","0","html-button-response","29","307550","0.0-12.0","44605","List1A","black","woman","","","","","","","","","","","","",""
"null","<div style=""font-size:60px;"">+</div>","","html-keyboard-response","30","309056","0.0-13.0-0.0","44605","List1A","black","woman","","","","null","","","","","","","","",""
"null","<img src=""stim_listA/challenge6.gif""style=""height:400px;""></stim_listA>","","html-keyboard-response","31","311061","0.0-13.0-1.0","44605","List1A","black","woman","","","","null","","","","","","","","",""
"null","is being challenged by","","html-keyboard-response","32","313061","0.0-13.0-2.0","44605","List1A","black","woman","","","","null","","","","","","","","",""
"11380.200000017881","","","survey-text","33","324444","0.0-13.0-3.0","44605","List1A","black","woman","","","","","{""Q0"":""fred is being challenged by dave""}","<img src=""stim_listA/challenge6.gif""style=""height:400px;""></stim_listA>","is being challenged by","","","","","",""
"null","<div style=""font-size:60px;"">+</div>","","html-keyboard-response","34","324949","0.0-13.0-0.1","44605","List1A","black","woman","","","","null","","","","","","","","",""
"null","<img src=""stim_listA/hug1.gif""style=""height:400px;""></stim_listA>","","html-keyboard-response","35","326951","0.0-13.0-1.1","44605","List1A","black","woman","","","","null","","","","","","","","",""
"null","is hugging","","html-keyboard-response","36","328957","0.0-13.0-2.1","44605","List1A","black","woman","","","","null","","","","","","","","",""
"22748.80000001192","","","survey-text","37","351708","0.0-13.0-3.1","44605","List1A","black","woman","","","","","{""Q0"":""beth is hugging fred""}","<img src=""stim_listA/hug1.gif""style=""height:400px;""></stim_listA>","is hugging","","","","","",""
"null","<div style=""font-size:60px;"">+</div>","","html-keyboard-response","38","352209","0.0-13.0-0.2","44605","List1A","black","woman","","","","null","","","","","","","","",""
"null","<img src=""stim_listA/touch5.gif""style=""height:400px;""></stim_listA>","","html-keyboard-response","39","354215","0.0-13.0-1.2","44605","List1A","black","woman","","","","null","","","","","","","","",""
"null","is touching","","html-keyboard-response","40","356215","0.0-13.0-2.2","44605","List1A","black","woman","","","","null","","","","","","","","",""
"9134.300000011921","","","survey-text","41","365352","0.0-13.0-3.2","44605","List1A","black","woman","","","","","{""Q0"":""mike is touching dave""}","<img src=""stim_listA/touch5.gif""style=""height:400px;""></stim_listA>","is touching","","","","","",""
"null","<div style=""font-size:60px;"">+</div>","","html-keyboard-response","42","365853","0.0-13.0-0.3","44605","List1A","black","woman","","","","null","","","","","","","","",""
"null","<img src=""stim_listA/oppose8.gif""style=""height:400px;""></stim_listA>","","html-keyboard-response","43","367858","0.0-13.0-1.3","44605","List1A","black","woman","","","","null","","","","","","","","",""
"null","is being opposed by","","html-keyboard-response","44","369861","0.0-13.0-2.3","44605","List1A","black","woman","","","","null","","","","","","","","",""
"14442","","","survey-text","45","384305","0.0-13.0-3.3","44605","List1A","black","woman","","","","","{""Q0"":""ruth is being opposed by beth ""}","<img src=""stim_listA/oppose8.gif""style=""height:400px;""></stim_listA>","is being opposed by","","","","","",""
"null","<div style=""font-size:60px;"">+</div>","","html-keyboard-response","46","384809","0.0-13.0-0.4","44605","List1A","black","woman","","","","null","","","","","","","","",""
"null","<img src=""stim_listA/shout8.gif""style=""height:400px;""></stim_listA>","","html-keyboard-response","47","386813","0.0-13.0-1.4","44605","List1A","black","woman","","","","null","","","","","","","","",""
"null","is being shouted at by","","html-keyboard-response","48","388818","0.0-13.0-2.4","44605","List1A","black","woman","","","","null","","","","","","","","",""
"15683.5","","","survey-text","49","404504","0.0-13.0-3.4","44605","List1A","black","woman","","","","","{""Q0"":""kate is being shouted at by jane ""}","<img src=""stim_listA/shout8.gif""style=""height:400px;""></stim_listA>","is being shouted at by","","","","","",""
"null","<div style=""font-size:60px;"">+</div>","","html-keyboard-response","50","405004","0.0-13.0-0.5","44605","List1A","black","woman","","","","null","","","","","","","","",""
"null","<img src=""stim_listA/copy7.gif""style=""height:400px;""></stim_listA>","","html-keyboard-response","51","407010","0.0-13.0-1.5","44605","List1A","black","woman","","","","null","","","","","","","","",""
"null","is copying","","html-keyboard-response","52","409012","0.0-13.0-2.5","44605","List1A","black","woman","","","","null","","","","","","","","",""
"9362.799999982119","","","survey-text","53","418377","0.0-13.0-3.5","44605","List1A","black","woman","","","","","{""Q0"":""kate is copying ruth ""}","<img src=""stim_listA/copy7.gif""style=""height:400px;""></stim_listA>","is copying","","","","","",""
"null","<div style=""font-size:60px;"">+</div>","","html-keyboard-response","54","418881","0.0-13.0-0.6","44605","List1A","black","woman","","","","null","","","","","","","","",""
"null","<img src=""stim_listA/hug4.gif""style=""height:400px;""></stim_listA>","","html-keyboard-response","55","420887","0.0-13.0-1.6","44605","List1A","black","woman","","","","null","","","","","","","","",""
"null","is being hugged by","","html-keyboard-response","56","422888","0.0-13.0-2.6","44605","List1A","black","woman","","","","null","","","","","","","","",""
"19020.59999999404","","","survey-text","57","441911","0.0-13.0-3.6","44605","List1A","black","woman","","","","","{""Q0"":""dave is being hugged by jane""}","<img src=""stim_listA/hug4.gif""style=""height:400px;""></stim_listA>","is being hugged by","","","","","",""
"null","<div style=""font-size:60px;"">+</div>","","html-keyboard-response","58","442412","0.0-13.0-0.7","44605","List1A","black","woman","","","","null","","","","","","","","",""
"null","<img src=""stim_listA/greet1.gif""style=""height:400px;""></stim_listA>","","html-keyboard-response","59","444414","0.0-13.0-1.7","44605","List1A","black","woman","","","","null","","","","","","","","",""
"null","is greeting","","html-keyboard-response","60","446426","0.0-13.0-2.7","44605","List1A","black","woman","","","","null","","","","","","","","",""
"7571.200000017881","","","survey-text","61","454000","0.0-13.0-3.7","44605","List1A","black","woman","","","","","{""Q0"":""beth is greeting mike""}","<img src=""stim_listA/greet1.gif""style=""height:400px;""></stim_listA>","is greeting","","","","","",""
"null","<div style=""font-size:60px;"">+</div>","","html-keyboard-response","62","454501","0.0-13.0-0.8","44605","List1A","black","woman","","","","null","","","","","","","","",""
"null","<img src=""stim_listA/shout5.gif""style=""height:400px;""></stim_listA>","","html-keyboard-response","63","456506","0.0-13.0-1.8","44605","List1A","black","woman","","","","null","","","","","","","","",""
"null","is shouting at","","html-keyboard-response","64","458509","0.0-13.0-2.8","44605","List1A","black","woman","","","","null","","","","","","","","",""
"15722.299999982119","","","survey-text","65","474233","0.0-13.0-3.8","44605","List1A","black","woman","","","","","{""Q0"":""fred is shouting at luke ""}","<img src=""stim_listA/shout5.gif""style=""height:400px;""></stim_listA>","is shouting at","","","","","",""
"null","<div style=""font-size:60px;"">+</div>","","html-keyboard-response","66","474734","0.0-13.0-0.9","44605","List1A","black","woman","","","","null","","","","","","","","",""
"null","<img src=""stim_listA/challenge1.gif""style=""height:400px;""></stim_listA>","","html-keyboard-response","67","476737","0.0-13.0-1.9","44605","List1A","black","woman","","","","null","","","","","","","","",""
"null","is challenging","","html-keyboard-response","68","478741","0.0-13.0-2.9","44605","List1A","black","woman","","","","null","","","","","","","","",""
"6977.4000000059605","","","survey-text","69","485720","0.0-13.0-3.9","44605","List1A","black","woman","","","","","{""Q0"":""mike is challenging beth ""}","<img src=""stim_listA/challenge1.gif""style=""height:400px;""></stim_listA>","is challenging","","","","","",""
"null","<div style=""font-size:60px;"">+</div>","","html-keyboard-response","70","486221","0.0-13.0-0.10","44605","List1A","black","woman","","","","null","","","","","","","","",""
"null","<img src=""stim_listA/shout1.gif""style=""height:400px;""></stim_listA>","","html-keyboard-response","71","488228","0.0-13.0-1.10","44605","List1A","black","woman","","","","null","","","","","","","","",""
"null","is shouting at","","html-keyboard-response","72","490231","0.0-13.0-2.10","44605","List1A","black","woman","","","","null","","","","","","","","",""
"13244.700000017881","","","survey-text","73","503478","0.0-13.0-3.10","44605","List1A","black","woman","","","","","{""Q0"":""beth is shouting at fred ""}","<img src=""stim_listA/shout1.gif""style=""height:400px;""></stim_listA>","is shouting at","","","","","",""
"null","<div style=""font-size:60px;"">+</div>","","html-keyboard-response","74","503980","0.0-13.0-0.11","44605","List1A","black","woman","","","","null","","","","","","","","",""
"null","<img src=""stim_listA/touch8.gif""style=""height:400px;""></stim_listA>","","html-keyboard-response","75","505984","0.0-13.0-1.11","44605","List1A","black","woman","","","","null","","","","","","","","",""
"null","is being touched by","","html-keyboard-response","76","507986","0.0-13.0-2.11","44605","List1A","black","woman","","","","null","","","","","","","","",""
"15338.300000011921","","","survey-text","77","523326","0.0-13.0-3.11","44605","List1A","black","woman","","","","","{""Q0"":""ruth is being touched by beth ""}","<img src=""stim_listA/touch8.gif""style=""height:400px;""></stim_listA>","is being touched by","","","","","",""
"null","<div style=""font-size:60px;"">+</div>","","html-keyboard-response","78","523829","0.0-13.0-0.12","44605","List1A","black","woman","","","","null","","","","","","","","",""
"null","<img src=""stim_listA/greet3.gif""style=""height:400px;""></stim_listA>","","html-keyboard-response","79","525833","0.0-13.0-1.12","44605","List1A","black","woman","","","","null","","","","","","","","",""
"null","is greeting","","html-keyboard-response","80","527836","0.0-13.0-2.12","44605","List1A","black","woman","","","","null","","","","","","","","",""
"10242.199999988079","","","survey-text","81","538083","0.0-13.0-3.12","44605","List1A","black","woman","","","","","{""Q0"":""ruth is greeting dave ""}","<img src=""stim_listA/greet3.gif""style=""height:400px;""></stim_listA>","is greeting","","","","","",""
"null","<div style=""font-size:60px;"">+</div>","","html-keyboard-response","82","538590","0.0-13.0-0.13","44605","List1A","black","woman","","","","null","","","","","","","","",""
"null","<img src=""stim_listA/oppose4.gif""style=""height:400px;""></stim_listA>","","html-keyboard-response","83","540592","0.0-13.0-1.13","44605","List1A","black","woman","","","","null","","","","","","","","",""
"null","is being opposed by","","html-keyboard-response","84","542595","0.0-13.0-2.13","44605","List1A","black","woman","","","","null","","","","","","","","",""
"9099.899999976158","","","survey-text","85","551699","0.0-13.0-3.13","44605","List1A","black","woman","","","","","{""Q0"":""luke is being opposed by ruth ""}","<img src=""stim_listA/oppose4.gif""style=""height:400px;""></stim_listA>","is being opposed by","","","","","",""
"null","<div style=""font-size:60px;"">+</div>","","html-keyboard-response","86","552201","0.0-13.0-0.14","44605","List1A","black","woman","","","","null","","","","","","","","",""
"null","<img src=""stim_listA/greet6.gif""style=""height:400px;""></stim_listA>","","html-keyboard-response","87","554202","0.0-13.0-1.14","44605","List1A","black","woman","","","","null","","","","","","","","",""
"null","is being greeted by","","html-keyboard-response","88","556205","0.0-13.0-2.14","44605","List1A","black","woman","","","","null","","","","","","","","",""
"8699.699999988079","","","survey-text","89","564907","0.0-13.0-3.14","44605","List1A","black","woman","","","","","{""Q0"":""fred is being greeted by dave""}","<img src=""stim_listA/greet6.gif""style=""height:400px;""></stim_listA>","is being greeted by","","","","","",""
"null","<div style=""font-size:60px;"">+</div>","","html-keyboard-response","90","565410","0.0-13.0-0.15","44605","List1A","black","woman","","","","null","","","","","","","","",""
"null","<img src=""stim_listA/look5.gif""style=""height:400px;""></stim_listA>","","html-keyboard-response","91","567415","0.0-13.0-1.15","44605","List1A","black","woman","","","","null","","","","","","","","",""
"null","is looking at","","html-keyboard-response","92","569417","0.0-13.0-2.15","44605","List1A","black","woman","","","","null","","","","","","","","",""
"9347.700000017881","","","survey-text","93","578767","0.0-13.0-3.15","44605","List1A","black","woman","","","","","{""Q0"":""fred is looking at luke ""}","<img src=""stim_listA/look5.gif""style=""height:400px;""></stim_listA>","is looking at","","","","","",""
"null","<div style=""font-size:60px;"">+</div>","","html-keyboard-response","94","579267","0.0-13.0-0.16","44605","List1A","black","woman","","","","null","","","","","","","","",""
"null","<img src=""stim_listA/look4.gif""style=""height:400px;""></stim_listA>","","html-keyboard-response","95","581270","0.0-13.0-1.16","44605","List1A","black","woman","","","","null","","","","","","","","",""
"null","is being looked at by","","html-keyboard-response","96","583275","0.0-13.0-2.16","44605","List1A","black","woman","","","","null","","","","","","","","",""
"18533.399999976158","","","survey-text","97","601811","0.0-13.0-3.16","44605","List1A","black","woman","","","","","{""Q0"":""jane is being looked at by dave""}","<img src=""stim_listA/look4.gif""style=""height:400px;""></stim_listA>","is being looked at by","","","","","",""
"null","<div style=""font-size:60px;"">+</div>","","html-keyboard-response","98","602314","0.0-13.0-0.17","44605","List1A","black","woman","","","","null","","","","","","","","",""
"null","<img src=""stim_listA/kiss6.gif""style=""height:400px;""></stim_listA>","","html-keyboard-response","99","604320","0.0-13.0-1.17","44605","List1A","black","woman","","","","null","","","","","","","","",""
"null","is being kissed by","","html-keyboard-response","100","606323","0.0-13.0-2.17","44605","List1A","black","woman","","","","null","","","","","","","","",""
"10783.5","","","survey-text","101","617109","0.0-13.0-3.17","44605","List1A","black","woman","","","","","{""Q0"":""dave is being kissed by mike ""}","<img src=""stim_listA/kiss6.gif""style=""height:400px;""></stim_listA>","is being kissed by","","","","","",""
"null","<div style=""font-size:60px;"">+</div>","","html-keyboard-response","102","617613","0.0-13.0-0.18","44605","List1A","black","woman","","","","null","","","","","","","","",""
"null","<img src=""stim_listA/oppose6.gif""style=""height:400px;""></stim_listA>","","html-keyboard-response","103","619616","0.0-13.0-1.18","44605","List1A","black","woman","","","","null","","","","","","","","",""
"null","is being opposed by","","html-keyboard-response","104","621617","0.0-13.0-2.18","44605","List1A","black","woman","","","","null","","","","","","","","",""
"11881.399999976158","","","survey-text","105","633501","0.0-13.0-3.18","44605","List1A","black","woman","","","","","{""Q0"":""luke is being opposed by fred""}","<img src=""stim_listA/oppose6.gif""style=""height:400px;""></stim_listA>","is being opposed by","","","","","",""
"null","<div style=""font-size:60px;"">+</div>","","html-keyboard-response","106","634002","0.0-13.0-0.19","44605","List1A","black","woman","","","","null","","","","","","","","",""
"null","<img src=""stim_listA/touch4.gif""style=""height:400px;""></stim_listA>","","html-keyboard-response","107","636007","0.0-13.0-1.19","44605","List1A","black","woman","","","","null","","","","","","","","",""
"null","is being touched by","","html-keyboard-response","108","638009","0.0-13.0-2.19","44605","List1A","black","woman","","","","null","","","","","","","","",""
"9691.300000011921","","","survey-text","109","647702","0.0-13.0-3.19","44605","List1A","black","woman","","","","","{""Q0"":""luke is being touched by ruth ""}","<img src=""stim_listA/touch4.gif""style=""height:400px;""></stim_listA>","is being touched by","","","","","",""
"31095.30000001192","<img src='img/portrait_matrix_list1.jpg' style='width:900px;height:500px;''></img><p>If you have memorised all the portraits and names and are ready to start, press Continue.</p><p><strong>Please note: Your memory of these faces will be tested 4 times during this experiment.</strong></p>","0","html-button-response","110","678800","0.0-14.0-0.0","44605","List1A","black","woman","","","","","","","","","","","","",""
"5002.4000000059605","<img src=""portrait/BM1.jpg""style=""height:400px;""></img>","4","html-button-response","111","684806","0.0-14.0-1.0","44605","List1A","black","woman","","true","4","","","","","","","","","",""
"null","CORRECT","","html-keyboard-response","112","686314","0.0-14.0-2.0-0.0","44605","List1A","black","woman","","","","null","","","","","","","","",""
"2047.2999999821186","<img src=""portrait/BM2.jpg""style=""height:400px;""></img>","5","html-button-response","113","688363","0.0-14.0-4.0","44605","List1A","black","woman","","true","5","","","","","","","","","",""
"null","CORRECT","","html-keyboard-response","114","689873","0.0-14.0-5.0-0.0","44605","List1A","black","woman","","","","null","","","","","","","","",""
"3165","<img src=""portrait/BW1.jpg""style=""height:400px;""></img>","0","html-button-response","115","693040","0.0-14.0-7.0","44605","List1A","black","woman","","true","0","","","","","","","","","",""
"null","CORRECT","","html-keyboard-response","116","694543","0.0-14.0-8.0-0.0","44605","List1A","black","woman","","","","null","","","","","","","","",""
"2931.7999999821186","<img src=""portrait/BW2.jpg""style=""height:400px;""></img>","2","html-button-response","117","697477","0.0-14.0-10.0","44605","List1A","black","woman","","true","2","","","","","","","","","",""
"null","CORRECT","","html-keyboard-response","118","698981","0.0-14.0-11.0-0.0","44605","List1A","black","woman","","","","null","","","","","","","","",""
"2175.2999999821186","<img src=""portrait/WM1.jpg""style=""height:400px;""></img>","6","html-button-response","119","701158","0.0-14.0-13.0","44605","List1A","black","woman","","true","6","","","","","","","","","",""
"null","CORRECT","","html-keyboard-response","120","702668","0.0-14.0-14.0-0.0","44605","List1A","black","woman","","","","null","","","","","","","","",""
"1277.800000011921","<img src=""portrait/WM2.jpg""style=""height:400px;""></img>","7","html-button-response","121","703947","0.0-14.0-16.0","44605","List1A","black","woman","","true","7","","","","","","","","","",""
"null","CORRECT","","html-keyboard-response","122","705458","0.0-14.0-17.0-0.0","44605","List1A","black","woman","","","","null","","","","","","","","",""
"1921.4000000059605","<img src=""portrait/WW2.jpg""style=""height:400px;""></img>","3","html-button-response","123","707381","0.0-14.0-19.0","44605","List1A","black","woman","","true","3","","","","","","","","","",""
"null","CORRECT","","html-keyboard-response","124","708887","0.0-14.0-20.0-0.0","44605","List1A","black","woman","","","","null","","","","","","","","",""
"1970.0999999940395","<img src=""portrait/WW1.jpg""style=""height:400px;""></img>","1","html-button-response","125","710859","0.0-14.0-22.0","44605","List1A","black","woman","","true","1","","","","","","","","","",""
"null","CORRECT","","html-keyboard-response","126","712366","0.0-14.0-23.0-0.0","44605","List1A","black","woman","","","","null","","","","","","","","",""
"2117.5999999940395","<p>You got 8 out of 8 right first time. Press Continue.</p>","0","html-button-response","127","714485","0.0-14.0-25.0","44605","List1A","black","woman","","","","","","","","","","","","",""
"null","<div style=""font-size:60px;"">+</div>","","html-keyboard-response","128","715992","0.0-15.0-0.0","44605","List1A","black","woman","","","","null","","","","","","","","",""
"null","<img src=""stim_listA/look6.gif""style=""height:400px;""></stim_listA>","","html-keyboard-response","129","717998","0.0-15.0-1.0","44605","List1A","black","woman","","","","null","","","","","","","","",""
"null","is being looked at by","","html-keyboard-response","130","720001","0.0-15.0-2.0","44605","List1A","black","woman","","","","null","","","","","","","","",""
"8971.600000023842","","","survey-text","131","728975","0.0-15.0-3.0","44605","List1A","black","woman","","","","","{""Q0"":""mike is being looked at by dave""}","<img src=""stim_listA/look6.gif""style=""height:400px;""></stim_listA>","is being looked at by","","","","","",""
"null","<div style=""font-size:60px;"">+</div>","","html-keyboard-response","132","729477","0.0-15.0-0.1","44605","List1A","black","woman","","","","null","","","","","","","","",""
"null","<img src=""stim_listA/seduce4.gif""style=""height:400px;""></stim_listA>","","html-keyboard-response","133","731483","0.0-15.0-1.1","44605","List1A","black","woman","","","","null","","","","","","","","",""
"null","is being seduced by","","html-keyboard-response","134","733487","0.0-15.0-2.1","44605","List1A","black","woman","","","","null","","","","","","","","",""
"11929.5","","","survey-text","135","745419","0.0-15.0-3.1","44605","List1A","black","woman","","","","","{""Q0"":""dave is being seduced by ruth ""}","<img src=""stim_listA/seduce4.gif""style=""height:400px;""></stim_listA>","is being seduced by","","","","","",""
"null","<div style=""font-size:60px;"">+</div>","","html-keyboard-response","136","745924","0.0-15.0-0.2","44605","List1A","black","woman","","","","null","","","","","","","","",""
"null","<img src=""stim_listA/copy6.gif""style=""height:400px;""></stim_listA>","","html-keyboard-response","137","747929","0.0-15.0-1.2","44605","List1A","black","woman","","","","null","","","","","","","","",""
"null","is being copied by","","html-keyboard-response","138","749930","0.0-15.0-2.2","44605","List1A","black","woman","","","","null","","","","","","","","",""
"14339.799999982119","","","survey-text","139","764273","0.0-15.0-3.2","44605","List1A","black","woman","","","","","{""Q0"":""dave is being copied by fred ""}","<img src=""stim_listA/copy6.gif""style=""height:400px;""></stim_listA>","is being copied by","","","","","",""
"null","<div style=""font-size:60px;"">+</div>","","html-keyboard-response","140","764777","0.0-15.0-0.3","44605","List1A","black","woman","","","","null","","","","","","","","",""
"null","<img src=""stim_listA/touch6.gif""style=""height:400px;""></stim_listA>","","html-keyboard-response","141","766781","0.0-15.0-1.3","44605","List1A","black","woman","","","","null","","","","","","","","",""
"null","is being touched by","","html-keyboard-response","142","768782","0.0-15.0-2.3","44605","List1A","black","woman","","","","null","","","","","","","","",""
"10747.300000011921","","","survey-text","143","779532","0.0-15.0-3.3","44605","List1A","black","woman","","","","","{""Q0"":""luke is being touched by fred ""}","<img src=""stim_listA/touch6.gif""style=""height:400px;""></stim_listA>","is being touched by","","","","","",""
"null","<div style=""font-size:60px;"">+</div>","","html-keyboard-response","144","780034","0.0-15.0-0.4","44605","List1A","black","woman","","","","null","","","","","","","","",""
"null","<img src=""stim_listA/touch3.gif""style=""height:400px;""></stim_listA>","","html-keyboard-response","145","782040","0.0-15.0-1.4","44605","List1A","black","woman","","","","null","","","","","","","","",""
"null","is touching","","html-keyboard-response","146","784045","0.0-15.0-2.4","44605","List1A","black","woman","","","","null","","","","","","","","",""
"8803.800000011921","","","survey-text","147","792851","0.0-15.0-3.4","44605","List1A","black","woman","","","","","{""Q0"":""jane is touching dave""}","<img src=""stim_listA/touch3.gif""style=""height:400px;""></stim_listA>","is touching","","","","","",""
"null","<div style=""font-size:60px;"">+</div>","","html-keyboard-response","148","793354","0.0-15.0-0.5","44605","List1A","black","woman","","","","null","","","","","","","","",""
"null","<img src=""stim_listA/look3.gif""style=""height:400px;""></stim_listA>","","html-keyboard-response","149","795358","0.0-15.0-1.5","44605","List1A","black","woman","","","","null","","","","","","","","",""
"null","is looking at","","html-keyboard-response","150","797362","0.0-15.0-2.5","44605","List1A","black","woman","","","","null","","","","","","","","",""
"8655.700000017881","","","survey-text","151","806020","0.0-15.0-3.5","44605","List1A","black","woman","","","","","{""Q0"":""ruth is looking at luke ""}","<img src=""stim_listA/look3.gif""style=""height:400px;""></stim_listA>","is looking at","","","","","",""
"null","<div style=""font-size:60px;"">+</div>","","html-keyboard-response","152","806525","0.0-15.0-0.6","44605","List1A","black","woman","","","","null","","","","","","","","",""
"null","<img src=""stim_listA/touch1.gif""style=""height:400px;""></stim_listA>","","html-keyboard-response","153","808529","0.0-15.0-1.6","44605","List1A","black","woman","","","","null","","","","","","","","",""
"null","is touching","","html-keyboard-response","154","810534","0.0-15.0-2.6","44605","List1A","black","woman","","","","null","","","","","","","","",""
"8686.5","","","survey-text","155","819223","0.0-15.0-3.6","44605","List1A","black","woman","","","","","{""Q0"":""mike is touching kate ""}","<img src=""stim_listA/touch1.gif""style=""height:400px;""></stim_listA>","is touching","","","","","",""
"null","<div style=""font-size:60px;"">+</div>","","html-keyboard-response","156","819728","0.0-15.0-0.7","44605","List1A","black","woman","","","","null","","","","","","","","",""
"null","<img src=""stim_listA/hug5.gif""style=""height:400px;""></stim_listA>","","html-keyboard-response","157","821730","0.0-15.0-1.7","44605","List1A","black","woman","","","","null","","","","","","","","",""
"null","is hugging","","html-keyboard-response","158","823735","0.0-15.0-2.7","44605","List1A","black","woman","","","","null","","","","","","","","",""
"7782","","","survey-text","159","831520","0.0-15.0-3.7","44605","List1A","black","woman","","","","","{""Q0"":""luke is hugging fred""}","<img src=""stim_listA/hug5.gif""style=""height:400px;""></stim_listA>","is hugging","","","","","",""
"null","<div style=""font-size:60px;"">+</div>","","html-keyboard-response","160","832021","0.0-15.0-0.8","44605","List1A","black","woman","","","","null","","","","","","","","",""
"null","<img src=""stim_listA/kiss5.gif""style=""height:400px;""></stim_listA>","","html-keyboard-response","161","834026","0.0-15.0-1.8","44605","List1A","black","woman","","","","null","","","","","","","","",""
"null","is kissing","","html-keyboard-response","162","836031","0.0-15.0-2.8","44605","List1A","black","woman","","","","null","","","","","","","","",""
"7253.800000011921","","","survey-text","163","843287","0.0-15.0-3.8","44605","List1A","black","woman","","","","","{""Q0"":""fred is kissing luke ""}","<img src=""stim_listA/kiss5.gif""style=""height:400px;""></stim_listA>","is kissing","","","","","",""
"null","<div style=""font-size:60px;"">+</div>","","html-keyboard-response","164","843788","0.0-15.0-0.9","44605","List1A","black","woman","","","","null","","","","","","","","",""
"null","<img src=""stim_listA/greet8.gif""style=""height:400px;""></stim_listA>","","html-keyboard-response","165","845792","0.0-15.0-1.9","44605","List1A","black","woman","","","","null","","","","","","","","",""
"null","is being greeted by","","html-keyboard-response","166","847795","0.0-15.0-2.9","44605","List1A","black","woman","","","","null","","","","","","","","",""
"12050","","","survey-text","167","859847","0.0-15.0-3.9","44605","List1A","black","woman","","","","","{""Q0"":""jane is being greeted by beth ""}","<img src=""stim_listA/greet8.gif""style=""height:400px;""></stim_listA>","is being greeted by","","","","","",""
"null","<div style=""font-size:60px;"">+</div>","","html-keyboard-response","168","860352","0.0-15.0-0.10","44605","List1A","black","woman","","","","null","","","","","","","","",""
"null","<img src=""stim_listA/challenge4.gif""style=""height:400px;""></stim_listA>","","html-keyboard-response","169","862357","0.0-15.0-1.10","44605","List1A","black","woman","","","","null","","","","","","","","",""
"null","is being challenged by","","html-keyboard-response","170","864357","0.0-15.0-2.10","44605","List1A","black","woman","","","","null","","","","","","","","",""
"12711","","","survey-text","171","877070","0.0-15.0-3.10","44605","List1A","black","woman","","","","","{""Q0"":""luke is being challenged by jane ""}","<img src=""stim_listA/challenge4.gif""style=""height:400px;""></stim_listA>","is being challenged by","","","","","",""
"null","<div style=""font-size:60px;"">+</div>","","html-keyboard-response","172","877575","0.0-15.0-0.11","44605","List1A","black","woman","","","","null","","","","","","","","",""
"null","<img src=""stim_listA/kiss3.gif""style=""height:400px;""></stim_listA>","","html-keyboard-response","173","879578","0.0-15.0-1.11","44605","List1A","black","woman","","","","null","","","","","","","","",""
"null","is kissing","","html-keyboard-response","174","881582","0.0-15.0-2.11","44605","List1A","black","woman","","","","null","","","","","","","","",""
"9092.5","","","survey-text","175","890676","0.0-15.0-3.11","44605","List1A","black","woman","","","","","{""Q0"":""ruth is kissing luke ""}","<img src=""stim_listA/kiss3.gif""style=""height:400px;""></stim_listA>","is kissing","","","","","",""
"null","<div style=""font-size:60px;"">+</div>","","html-keyboard-response","176","891179","0.0-15.0-0.12","44605","List1A","black","woman","","","","null","","","","","","","","",""
"null","<img src=""stim_listA/touch7.gif""style=""height:400px;""></stim_listA>","","html-keyboard-response","177","893180","0.0-15.0-1.12","44605","List1A","black","woman","","","","null","","","","","","","","",""
"null","is touching","","html-keyboard-response","178","895183","0.0-15.0-2.12","44605","List1A","black","woman","","","","null","","","","","","","","",""
"7329.200000017881","","","survey-text","179","902514","0.0-15.0-3.12","44605","List1A","black","woman","","","","","{""Q0"":""kate is touching jane ""}","<img src=""stim_listA/touch7.gif""style=""height:400px;""></stim_listA>","is touching","","","","","",""
"null","<div style=""font-size:60px;"">+</div>","","html-keyboard-response","180","903017","0.0-15.0-0.13","44605","List1A","black","woman","","","","null","","","","","","","","",""
"null","<img src=""stim_listA/hug6.gif""style=""height:400px;""></stim_listA>","","html-keyboard-response","181","905021","0.0-15.0-1.13","44605","List1A","black","woman","","","","null","","","","","","","","",""
"null","is being hugged by","","html-keyboard-response","182","907022","0.0-15.0-2.13","44605","List1A","black","woman","","","","null","","","","","","","","",""
"9445.90000000596","","","survey-text","183","916470","0.0-15.0-3.13","44605","List1A","black","woman","","","","","{""Q0"":""mike is being hugged by dave""}","<img src=""stim_listA/hug6.gif""style=""height:400px;""></stim_listA>","is being hugged by","","","","","",""
"null","<div style=""font-size:60px;"">+</div>","","html-keyboard-response","184","916973","0.0-15.0-0.14","44605","List1A","black","woman","","","","null","","","","","","","","",""
"null","<img src=""stim_listA/seduce6.gif""style=""height:400px;""></stim_listA>","","html-keyboard-response","185","918978","0.0-15.0-1.14","44605","List1A","black","woman","","","","null","","","","","","","","",""
"null","is being seduced by","","html-keyboard-response","186","920979","0.0-15.0-2.14","44605","List1A","black","woman","","","","null","","","","","","","","",""
"7873.699999988079","","","survey-text","187","928855","0.0-15.0-3.14","44605","List1A","black","woman","","","","","{""Q0"":""luke is being seduced by mike ""}","<img src=""stim_listA/seduce6.gif""style=""height:400px;""></stim_listA>","is being seduced by","","","","","",""
"null","<div style=""font-size:60px;"">+</div>","","html-keyboard-response","188","929359","0.0-15.0-0.15","44605","List1A","black","woman","","","","null","","","","","","","","",""
"null","<img src=""stim_listA/challenge8.gif""style=""height:400px;""></stim_listA>","","html-keyboard-response","189","931363","0.0-15.0-1.15","44605","List1A","black","woman","","","","null","","","","","","","","",""
"null","is being challenged by","","html-keyboard-response","190","933366","0.0-15.0-2.15","44605","List1A","black","woman","","","","null","","","","","","","","",""
"9160.799999982119","","","survey-text","191","942529","0.0-15.0-3.15","44605","List1A","black","woman","","","","","{""Q0"":""beth is being challenged by jane ""}","<img src=""stim_listA/challenge8.gif""style=""height:400px;""></stim_listA>","is being challenged by","","","","","",""
"null","<div style=""font-size:60px;"">+</div>","","html-keyboard-response","192","943031","0.0-15.0-0.16","44605","List1A","black","woman","","","","null","","","","","","","","",""
"null","<img src=""stim_listA/seduce3.gif""style=""height:400px;""></stim_listA>","","html-keyboard-response","193","945037","0.0-15.0-1.16","44605","List1A","black","woman","","","","null","","","","","","","","",""
"null","is seducing","","html-keyboard-response","194","947042","0.0-15.0-2.16","44605","List1A","black","woman","","","","null","","","","","","","","",""
"8334.90000000596","","","survey-text","195","955380","0.0-15.0-3.16","44605","List1A","black","woman","","","","","{""Q0"":""jane is seducing luke ""}","<img src=""stim_listA/seduce3.gif""style=""height:400px;""></stim_listA>","is seducing","","","","","",""
"null","<div style=""font-size:60px;"">+</div>","","html-keyboard-response","196","955882","0.0-15.0-0.17","44605","List1A","black","woman","","","","null","","","","","","","","",""
"null","<img src=""stim_listA/seduce7.gif""style=""height:400px;""></stim_listA>","","html-keyboard-response","197","957885","0.0-15.0-1.17","44605","List1A","black","woman","","","","null","","","","","","","","",""
"null","is seducing","","html-keyboard-response","198","959888","0.0-15.0-2.17","44605","List1A","black","woman","","","","null","","","","","","","","",""
"8778.300000011921","","","survey-text","199","968668","0.0-15.0-3.17","44605","List1A","black","woman","","","","","{""Q0"":""jane is seducing beth ""}","<img src=""stim_listA/seduce7.gif""style=""height:400px;""></stim_listA>","is seducing","","","","","",""
"null","<div style=""font-size:60px;"">+</div>","","html-keyboard-response","200","969172","0.0-15.0-0.18","44605","List1A","black","woman","","","","null","","","","","","","","",""
"null","<img src=""stim_listA/copy8.gif""style=""height:400px;""></stim_listA>","","html-keyboard-response","201","971175","0.0-15.0-1.18","44605","List1A","black","woman","","","","null","","","","","","","","",""
"null","is being copied by","","html-keyboard-response","202","973176","0.0-15.0-2.18","44605","List1A","black","woman","","","","null","","","","","","","","",""
"11623.600000023842","","","survey-text","203","984802","0.0-15.0-3.18","44605","List1A","black","woman","","","","","{""Q0"":""jane is being copied by beth ""}","<img src=""stim_listA/copy8.gif""style=""height:400px;""></stim_listA>","is being copied by","","","","","",""
"null","<div style=""font-size:60px;"">+</div>","","html-keyboard-response","204","985303","0.0-15.0-0.19","44605","List1A","black","woman","","","","null","","","","","","","","",""
"null","<img src=""stim_listA/oppose7.gif""style=""height:400px;""></stim_listA>","","html-keyboard-response","205","987309","0.0-15.0-1.19","44605","List1A","black","woman","","","","null","","","","","","","","",""
"null","is opposing","","html-keyboard-response","206","989312","0.0-15.0-2.19","44605","List1A","black","woman","","","","null","","","","","","","","",""
"8271.90000000596","","","survey-text","207","997586","0.0-15.0-3.19","44605","List1A","black","woman","","","","","{""Q0"":""kate is opposing jane""}","<img src=""stim_listA/oppose7.gif""style=""height:400px;""></stim_listA>","is opposing","","","","","",""
"4440.699999988079","<img src='img/portrait_matrix_list1.jpg' style='width:900px;height:500px;''></img><p>If you have memorised all the portraits and names and are ready to start, press Continue.</p><p><strong>Please note: Your memory of these faces will be tested 4 times during this experiment.</strong></p>","0","html-button-response","208","1002029","0.0-16.0-0.0","44605","List1A","black","woman","","","","","","","","","","","","",""
"2058.5","<img src=""portrait/BM2.jpg""style=""height:400px;""></img>","5","html-button-response","209","1005091","0.0-16.0-1.0","44605","List1A","black","woman","","true","5","","","","","","","","","",""
"null","CORRECT","","html-keyboard-response","210","1006602","0.0-16.0-2.0-0.0","44605","List1A","black","woman","","","","null","","","","","","","","",""
"2621.300000011921","<img src=""portrait/BW1.jpg""style=""height:400px;""></img>","0","html-button-response","211","1009225","0.0-16.0-4.0","44605","List1A","black","woman","","true","0","","","","","","","","","",""
"null","CORRECT","","html-keyboard-response","212","1010736","0.0-16.0-5.0-0.0","44605","List1A","black","woman","","","","null","","","","","","","","",""
"1808.800000011921","<img src=""portrait/BM1.jpg""style=""height:400px;""></img>","4","html-button-response","213","1012547","0.0-16.0-7.0","44605","List1A","black","woman","","true","4","","","","","","","","","",""
"null","CORRECT","","html-keyboard-response","214","1014053","0.0-16.0-8.0-0.0","44605","List1A","black","woman","","","","null","","","","","","","","",""
"2739.7999999821186","<img src=""portrait/WM1.jpg""style=""height:400px;""></img>","6","html-button-response","215","1016795","0.0-16.0-10.0","44605","List1A","black","woman","","true","6","","","","","","","","","",""
"null","CORRECT","","html-keyboard-response","216","1018305","0.0-16.0-11.0-0.0","44605","List1A","black","woman","","","","null","","","","","","","","",""
"2629.5","<img src=""portrait/BW2.jpg""style=""height:400px;""></img>","2","html-button-response","217","1020936","0.0-16.0-13.0","44605","List1A","black","woman","","true","2","","","","","","","","","",""
"null","CORRECT","","html-keyboard-response","218","1022445","0.0-16.0-14.0-0.0","44605","List1A","black","woman","","","","null","","","","","","","","",""
"1972.5","<img src=""portrait/WW1.jpg""style=""height:400px;""></img>","1","html-button-response","219","1024418","0.0-16.0-16.0","44605","List1A","black","woman","","true","1","","","","","","","","","",""
"null","CORRECT","","html-keyboard-response","220","1025926","0.0-16.0-17.0-0.0","44605","List1A","black","woman","","","","null","","","","","","","","",""
"1660.300000011921","<img src=""portrait/WM2.jpg""style=""height:400px;""></img>","7","html-button-response","221","1027588","0.0-16.0-19.0","44605","List1A","black","woman","","true","7","","","","","","","","","",""
"null","CORRECT","","html-keyboard-response","222","1029092","0.0-16.0-20.0-0.0","44605","List1A","black","woman","","","","null","","","","","","","","",""
"2067.5","<img src=""portrait/WW2.jpg""style=""height:400px;""></img>","3","html-button-response","223","1031161","0.0-16.0-22.0","44605","List1A","black","woman","","true","3","","","","","","","","","",""
"null","CORRECT","","html-keyboard-response","224","1032671","0.0-16.0-23.0-0.0","44605","List1A","black","woman","","","","null","","","","","","","","",""
"1669.2999999821186","<p>You got 8 out of 8 right first time. Press Continue.</p>","0","html-button-response","225","1034342","0.0-16.0-25.0","44605","List1A","black","woman","","","","","","","","","","","","",""
"null","<div style=""font-size:60px;"">+</div>","","html-keyboard-response","226","1035848","0.0-17.0-0.0","44605","List1A","black","woman","","","","null","","","","","","","","",""
"null","<img src=""stim_listA/copy1.gif""style=""height:400px;""></stim_listA>","","html-keyboard-response","227","1037855","0.0-17.0-1.0","44605","List1A","black","woman","","","","null","","","","","","","","",""
"null","is copying","","html-keyboard-response","228","1039857","0.0-17.0-2.0","44605","List1A","black","woman","","","","null","","","","","","","","",""
"7864.5999999940395","","","survey-text","229","1047725","0.0-17.0-3.0","44605","List1A","black","woman","","","","","{""Q0"":""mike is copying beth ""}","<img src=""stim_listA/copy1.gif""style=""height:400px;""></stim_listA>","is copying","","","","","",""
"null","<div style=""font-size:60px;"">+</div>","","html-keyboard-response","230","1048230","0.0-17.0-0.1","44605","List1A","black","woman","","","","null","","","","","","","","",""
"null","<img src=""stim_listA/kiss2.gif""style=""height:400px;""></stim_listA>","","html-keyboard-response","231","1050235","0.0-17.0-1.1","44605","List1A","black","woman","","","","null","","","","","","","","",""
"null","is being kissed by","","html-keyboard-response","232","1052240","0.0-17.0-2.1","44605","List1A","black","woman","","","","null","","","","","","","","",""
"10790.59999999404","","","survey-text","233","1063033","0.0-17.0-3.1","44605","List1A","black","woman","","","","","{""Q0"":""mike is being kissed by kate""}","<img src=""stim_listA/kiss2.gif""style=""height:400px;""></stim_listA>","is being kissed by","","","","","",""
"null","<div style=""font-size:60px;"">+</div>","","html-keyboard-response","234","1063534","0.0-17.0-0.2","44605","List1A","black","woman","","","","null","","","","","","","","",""
"null","<img src=""stim_listA/copy5.gif""style=""height:400px;""></stim_listA>","","html-keyboard-response","235","1065536","0.0-17.0-1.2","44605","List1A","black","woman","","","","null","","","","","","","","",""
"null","is copying","","html-keyboard-response","236","1067541","0.0-17.0-2.2","44605","List1A","black","woman","","","","null","","","","","","","","",""
"8678.59999999404","","","survey-text","237","1076222","0.0-17.0-3.2","44605","List1A","black","woman","","","","","{""Q0"":""mike is copying luke ""}","<img src=""stim_listA/copy5.gif""style=""height:400px;""></stim_listA>","is copying","","","","","",""
"null","<div style=""font-size:60px;"">+</div>","","html-keyboard-response","238","1076725","0.0-17.0-0.3","44605","List1A","black","woman","","","","null","","","","","","","","",""
"null","<img src=""stim_listA/hug8.gif""style=""height:400px;""></stim_listA>","","html-keyboard-response","239","1078728","0.0-17.0-1.3","44605","List1A","black","woman","","","","null","","","","","","","","",""
"null","is being hugged by","","html-keyboard-response","240","1080729","0.0-17.0-2.3","44605","List1A","black","woman","","","","null","","","","","","","","",""
"9216.300000011921","","","survey-text","241","1089948","0.0-17.0-3.3","44605","List1A","black","woman","","","","","{""Q0"":""jane is being hugged by kate ""}","<img src=""stim_listA/hug8.gif""style=""height:400px;""></stim_listA>","is being hugged by","","","","","",""
"null","<div style=""font-size:60px;"">+</div>","","html-keyboard-response","242","1090450","0.0-17.0-0.4","44605","List1A","black","woman","","","","null","","","","","","","","",""
"null","<img src=""stim_listA/copy3.gif""style=""height:400px;""></stim_listA>","","html-keyboard-response","243","1092454","0.0-17.0-1.4","44605","List1A","black","woman","","","","null","","","","","","","","",""
"null","is copying","","html-keyboard-response","244","1094459","0.0-17.0-2.4","44605","List1A","black","woman","","","","null","","","","","","","","",""
"7911.9000000059605","","","survey-text","245","1102373","0.0-17.0-3.4","44605","List1A","black","woman","","","","","{""Q0"":""ruth is copying dave""}","<img src=""stim_listA/copy3.gif""style=""height:400px;""></stim_listA>","is copying","","","","","",""
"null","<div style=""font-size:60px;"">+</div>","","html-keyboard-response","246","1102876","0.0-17.0-0.5","44605","List1A","black","woman","","","","null","","","","","","","","",""
"null","<img src=""stim_listA/challenge7.gif""style=""height:400px;""></stim_listA>","","html-keyboard-response","247","1104880","0.0-17.0-1.5","44605","List1A","black","woman","","","","null","","","","","","","","",""
"null","is challenging","","html-keyboard-response","248","1106883","0.0-17.0-2.5","44605","List1A","black","woman","","","","null","","","","","","","","",""
"8055.9000000059605","","","survey-text","249","1114941","0.0-17.0-3.5","44605","List1A","black","woman","","","","","{""Q0"":""ruth is challenging kate""}","<img src=""stim_listA/challenge7.gif""style=""height:400px;""></stim_listA>","is challenging","","","","","",""
"null","<div style=""font-size:60px;"">+</div>","","html-keyboard-response","250","1115443","0.0-17.0-0.6","44605","List1A","black","woman","","","","null","","","","","","","","",""
"null","<img src=""stim_listA/kiss7.gif""style=""height:400px;""></stim_listA>","","html-keyboard-response","251","1117448","0.0-17.0-1.6","44605","List1A","black","woman","","","","null","","","","","","","","",""
"null","is kissing","","html-keyboard-response","252","1119451","0.0-17.0-2.6","44605","List1A","black","woman","","","","null","","","","","","","","",""
"5714.5999999940395","","","survey-text","253","1125168","0.0-17.0-3.6","44605","List1A","black","woman","","","","","{""Q0"":""beth is kissing ruth ""}","<img src=""stim_listA/kiss7.gif""style=""height:400px;""></stim_listA>","is kissing","","","","","",""
"null","<div style=""font-size:60px;"">+</div>","","html-keyboard-response","254","1125672","0.0-17.0-0.7","44605","List1A","black","woman","","","","null","","","","","","","","",""
"null","<img src=""stim_listA/oppose2.gif""style=""height:400px;""></stim_listA>","","html-keyboard-response","255","1127675","0.0-17.0-1.7","44605","List1A","black","woman","","","","null","","","","","","","","",""
"null","is being opposed by","","html-keyboard-response","256","1129681","0.0-17.0-2.7","44605","List1A","black","woman","","","","null","","","","","","","","",""
"13235.899999976158","","","survey-text","257","1142919","0.0-17.0-3.7","44605","List1A","black","woman","","","","","{""Q0"":""fred is being opposed by beth ""}","<img src=""stim_listA/oppose2.gif""style=""height:400px;""></stim_listA>","is being opposed by","","","","","",""
"null","<div style=""font-size:60px;"">+</div>","","html-keyboard-response","258","1143424","0.0-17.0-0.8","44605","List1A","black","woman","","","","null","","","","","","","","",""
"null","<img src=""stim_listA/look1.gif""style=""height:400px;""></stim_listA>","","html-keyboard-response","259","1145428","0.0-17.0-1.8","44605","List1A","black","woman","","","","null","","","","","","","","",""
"null","is looking at","","html-keyboard-response","260","1147431","0.0-17.0-2.8","44605","List1A","black","woman","","","","null","","","","","","","","",""
"7031.0999999940395","","","survey-text","261","1154464","0.0-17.0-3.8","44605","List1A","black","woman","","","","","{""Q0"":""beth is looking at fred""}","<img src=""stim_listA/look1.gif""style=""height:400px;""></stim_listA>","is looking at","","","","","",""
"null","<div style=""font-size:60px;"">+</div>","","html-keyboard-response","262","1154968","0.0-17.0-0.9","44605","List1A","black","woman","","","","null","","","","","","","","",""
"null","<img src=""stim_listA/seduce2.gif""style=""height:400px;""></stim_listA>","","html-keyboard-response","263","1156974","0.0-17.0-1.9","44605","List1A","black","woman","","","","null","","","","","","","","",""
"null","is being seduced by","","html-keyboard-response","264","1158979","0.0-17.0-2.9","44605","List1A","black","woman","","","","null","","","","","","","","",""
"7810.9000000059605","","","survey-text","265","1166791","0.0-17.0-3.9","44605","List1A","black","woman","","","","","{""Q0"":""mike is being seduced by beth ""}","<img src=""stim_listA/seduce2.gif""style=""height:400px;""></stim_listA>","is being seduced by","","","","","",""
"null","<div style=""font-size:60px;"">+</div>","","html-keyboard-response","266","1167293","0.0-17.0-0.10","44605","List1A","black","woman","","","","null","","","","","","","","",""
"null","<img src=""stim_listA/oppose3.gif""style=""height:400px;""></stim_listA>","","html-keyboard-response","267","1169295","0.0-17.0-1.10","44605","List1A","black","woman","","","","null","","","","","","","","",""
"null","is opposing","","html-keyboard-response","268","1171295","0.0-17.0-2.10","44605","List1A","black","woman","","","","null","","","","","","","","",""
"8352.799999982119","","","survey-text","269","1179650","0.0-17.0-3.10","44605","List1A","black","woman","","","","","{""Q0"":""dave is opposing jane ""}","<img src=""stim_listA/oppose3.gif""style=""height:400px;""></stim_listA>","is opposing","","","","","",""
"null","<div style=""font-size:60px;"">+</div>","","html-keyboard-response","270","1180154","0.0-17.0-0.11","44605","List1A","black","woman","","","","null","","","","","","","","",""
"null","<img src=""stim_listA/hug7.gif""style=""height:400px;""></stim_listA>","","html-keyboard-response","271","1182158","0.0-17.0-1.11","44605","List1A","black","woman","","","","null","","","","","","","","",""
"null","is hugging","","html-keyboard-response","272","1184163","0.0-17.0-2.11","44605","List1A","black","woman","","","","null","","","","","","","","",""
"7464.700000017881","","","survey-text","273","1191629","0.0-17.0-3.11","44605","List1A","black","woman","","","","","{""Q0"":""ruth is hugging beth ""}","<img src=""stim_listA/hug7.gif""style=""height:400px;""></stim_listA>","is hugging","","","","","",""
"null","<div style=""font-size:60px;"">+</div>","","html-keyboard-response","274","1192131","0.0-17.0-0.12","44605","List1A","black","woman","","","","null","","","","","","","","",""
"null","<img src=""stim_listA/seduce5.gif""style=""height:400px;""></stim_listA>","","html-keyboard-response","275","1194136","0.0-17.0-1.12","44605","List1A","black","woman","","","","null","","","","","","","","",""
"null","is seducing","","html-keyboard-response","276","1196139","0.0-17.0-2.12","44605","List1A","black","woman","","","","null","","","","","","","","",""
"6792.300000011921","","","survey-text","277","1202933","0.0-17.0-3.12","44605","List1A","black","woman","","","","","{""Q0"":""dave is seducing fred""}","<img src=""stim_listA/seduce5.gif""style=""height:400px;""></stim_listA>","is seducing","","","","","",""
"null","<div style=""font-size:60px;"">+</div>","","html-keyboard-response","278","1203434","0.0-17.0-0.13","44605","List1A","black","woman","","","","null","","","","","","","","",""
"null","<img src=""stim_listA/copy2.gif""style=""height:400px;""></stim_listA>","","html-keyboard-response","279","1205440","0.0-17.0-1.13","44605","List1A","black","woman","","","","null","","","","","","","","",""
"null","is being copied by","","html-keyboard-response","280","1207441","0.0-17.0-2.13","44605","List1A","black","woman","","","","null","","","","","","","","",""
"25085.19999998808","","","survey-text","281","1232529","0.0-17.0-3.13","44605","List1A","black","woman","","","","","{""Q0"":""kate is being copied by fred ""}","<img src=""stim_listA/copy2.gif""style=""height:400px;""></stim_listA>","is being copied by","","","","","",""
"null","<div style=""font-size:60px;"">+</div>","","html-keyboard-response","282","1233033","0.0-17.0-0.14","44605","List1A","black","woman","","","","null","","","","","","","","",""
"null","<img src=""stim_listA/shout2.gif""style=""height:400px;""></stim_listA>","","html-keyboard-response","283","1235038","0.0-17.0-1.14","44605","List1A","black","woman","","","","null","","","","","","","","",""
"null","is being shouted at by","","html-keyboard-response","284","1237043","0.0-17.0-2.14","44605","List1A","black","woman","","","","null","","","","","","","","",""
"13061.199999988079","","","survey-text","285","1250107","0.0-17.0-3.14","44605","List1A","black","woman","","","","","{""Q0"":""mike is being shouted at by kate""}","<img src=""stim_listA/shout2.gif""style=""height:400px;""></stim_listA>","is being shouted at by","","","","","",""
"null","<div style=""font-size:60px;"">+</div>","","html-keyboard-response","286","1250611","0.0-17.0-0.15","44605","List1A","black","woman","","","","null","","","","","","","","",""
"null","<img src=""stim_listA/kiss1.gif""style=""height:400px;""></stim_listA>","","html-keyboard-response","287","1252612","0.0-17.0-1.15","44605","List1A","black","woman","","","","null","","","","","","","","",""
"null","is kissing","","html-keyboard-response","288","1254618","0.0-17.0-2.15","44605","List1A","black","woman","","","","null","","","","","","","","",""
"7054.699999988079","","","survey-text","289","1261674","0.0-17.0-3.15","44605","List1A","black","woman","","","","","{""Q0"":""fred is kissing beth ""}","<img src=""stim_listA/kiss1.gif""style=""height:400px;""></stim_listA>","is kissing","","","","","",""
"null","<div style=""font-size:60px;"">+</div>","","html-keyboard-response","290","1262179","0.0-17.0-0.16","44605","List1A","black","woman","","","","null","","","","","","","","",""
"null","<img src=""stim_listA/oppose5.gif""style=""height:400px;""></stim_listA>","","html-keyboard-response","291","1264180","0.0-17.0-1.16","44605","List1A","black","woman","","","","null","","","","","","","","",""
"null","is opposing","","html-keyboard-response","292","1266181","0.0-17.0-2.16","44605","List1A","black","woman","","","","null","","","","","","","","",""
"7772.199999988079","","","survey-text","293","1273956","0.0-17.0-3.16","44605","List1A","black","woman","","","","","{""Q0"":""mike is opposing dave ""}","<img src=""stim_listA/oppose5.gif""style=""height:400px;""></stim_listA>","is opposing","","","","","",""
"null","<div style=""font-size:60px;"">+</div>","","html-keyboard-response","294","1274457","0.0-17.0-0.17","44605","List1A","black","woman","","","","null","","","","","","","","",""
"null","<img src=""stim_listA/hug2.gif""style=""height:400px;""></stim_listA>","","html-keyboard-response","295","1276463","0.0-17.0-1.17","44605","List1A","black","woman","","","","null","","","","","","","","",""
"null","is being hugged by","","html-keyboard-response","296","1278464","0.0-17.0-2.17","44605","List1A","black","woman","","","","null","","","","","","","","",""
"10026.40000000596","","","survey-text","297","1288492","0.0-17.0-3.17","44605","List1A","black","woman","","","","","{""Q0"":""kate is being hugged by mike ""}","<img src=""stim_listA/hug2.gif""style=""height:400px;""></stim_listA>","is being hugged by","","","","","",""
"null","<div style=""font-size:60px;"">+</div>","","html-keyboard-response","298","1288997","0.0-17.0-0.18","44605","List1A","black","woman","","","","null","","","","","","","","",""
"null","<img src=""stim_listA/shout6.gif""style=""height:400px;""></stim_listA>","","html-keyboard-response","299","1290998","0.0-17.0-1.18","44605","List1A","black","woman","","","","null","","","","","","","","",""
"null","is being shouted at by","","html-keyboard-response","300","1292999","0.0-17.0-2.18","44605","List1A","black","woman","","","","null","","","","","","","","",""
"8794.700000017881","","","survey-text","301","1301796","0.0-17.0-3.18","44605","List1A","black","woman","","","","","{""Q0"":""dave is being shouted at by mike ""}","<img src=""stim_listA/shout6.gif""style=""height:400px;""></stim_listA>","is being shouted at by","","","","","",""
"null","<div style=""font-size:60px;"">+</div>","","html-keyboard-response","302","1302299","0.0-17.0-0.19","44605","List1A","black","woman","","","","null","","","","","","","","",""
"null","<img src=""stim_listA/hug3.gif""style=""height:400px;""></stim_listA>","","html-keyboard-response","303","1304305","0.0-17.0-1.19","44605","List1A","black","woman","","","","null","","","","","","","","",""
"null","is hugging","","html-keyboard-response","304","1306307","0.0-17.0-2.19","44605","List1A","black","woman","","","","null","","","","","","","","",""
"9484.5","","","survey-text","305","1315793","0.0-17.0-3.19","44605","List1A","black","woman","","","","","{""Q0"":""luke is hugging ruth ""}","<img src=""stim_listA/hug3.gif""style=""height:400px;""></stim_listA>","is hugging","","","","","",""
"3455.7000000178814","<img src='img/portrait_matrix_list1.jpg' style='width:900px;height:500px;''></img><p>If you have memorised all the portraits and names and are ready to start, press Continue.</p><p><strong>Please note: Your memory of these faces will be tested 4 times during this experiment.</strong></p>","0","html-button-response","306","1319250","0.0-18.0-0.0","44605","List1A","black","woman","","","","","","","","","","","","",""
"2247.800000011921","<img src=""portrait/BM1.jpg""style=""height:400px;""></img>","4","html-button-response","307","1322500","0.0-18.0-1.0","44605","List1A","black","woman","","true","4","","","","","","","","","",""
"null","CORRECT","","html-keyboard-response","308","1324007","0.0-18.0-2.0-0.0","44605","List1A","black","woman","","","","null","","","","","","","","",""
"2759.699999988079","<img src=""portrait/BM2.jpg""style=""height:400px;""></img>","5","html-button-response","309","1326769","0.0-18.0-4.0","44605","List1A","black","woman","","true","5","","","","","","","","","",""
"null","CORRECT","","html-keyboard-response","310","1328274","0.0-18.0-5.0-0.0","44605","List1A","black","woman","","","","null","","","","","","","","",""
"2576.699999988079","<img src=""portrait/WW1.jpg""style=""height:400px;""></img>","1","html-button-response","311","1330853","0.0-18.0-7.0","44605","List1A","black","woman","","true","1","","","","","","","","","",""
"null","CORRECT","","html-keyboard-response","312","1332363","0.0-18.0-8.0-0.0","44605","List1A","black","woman","","","","null","","","","","","","","",""
"1937.5999999940395","<img src=""portrait/WM2.jpg""style=""height:400px;""></img>","7","html-button-response","313","1334302","0.0-18.0-10.0","44605","List1A","black","woman","","true","7","","","","","","","","","",""
"null","CORRECT","","html-keyboard-response","314","1335810","0.0-18.0-11.0-0.0","44605","List1A","black","woman","","","","null","","","","","","","","",""
"2066.9000000059605","<img src=""portrait/WW2.jpg""style=""height:400px;""></img>","3","html-button-response","315","1337879","0.0-18.0-13.0","44605","List1A","black","woman","","true","3","","","","","","","","","",""
"null","CORRECT","","html-keyboard-response","316","1339386","0.0-18.0-14.0-0.0","44605","List1A","black","woman","","","","null","","","","","","","","",""
"2164.9000000059605","<img src=""portrait/WM1.jpg""style=""height:400px;""></img>","6","html-button-response","317","1341553","0.0-18.0-16.0","44605","List1A","black","woman","","true","6","","","","","","","","","",""
"null","CORRECT","","html-keyboard-response","318","1343063","0.0-18.0-17.0-0.0","44605","List1A","black","woman","","","","null","","","","","","","","",""
"2448.2000000178814","<img src=""portrait/BW1.jpg""style=""height:400px;""></img>","0","html-button-response","319","1345513","0.0-18.0-19.0","44605","List1A","black","woman","","true","0","","","","","","","","","",""
"null","CORRECT","","html-keyboard-response","320","1347021","0.0-18.0-20.0-0.0","44605","List1A","black","woman","","","","null","","","","","","","","",""
"1979","<img src=""portrait/BW2.jpg""style=""height:400px;""></img>","2","html-button-response","321","1349001","0.0-18.0-22.0","44605","List1A","black","woman","","true","2","","","","","","","","","",""
"null","CORRECT","","html-keyboard-response","322","1350510","0.0-18.0-23.0-0.0","44605","List1A","black","woman","","","","null","","","","","","","","",""
"10842.799999982119","<p>You got 8 out of 8 right first time. Press Continue.</p>","0","html-button-response","323","1361354","0.0-18.0-25.0","44605","List1A","black","woman","","","","","","","","","","","","",""
"null","<div style=""font-size:60px;"">+</div>","","html-keyboard-response","324","1362858","0.0-19.0-0.0","44605","List1A","black","woman","","","","null","","","","","","","","",""
"null","<img src=""stim_listA/look7.gif""style=""height:400px;""></stim_listA>","","html-keyboard-response","325","1364864","0.0-19.0-1.0","44605","List1A","black","woman","","","","null","","","","","","","","",""
"null","is looking at","","html-keyboard-response","326","1366865","0.0-19.0-2.0","44605","List1A","black","woman","","","","null","","","","","","","","",""
"6976.5999999940395","","","survey-text","327","1373844","0.0-19.0-3.0","44605","List1A","black","woman","","","","","{""Q0"":""beth is looking at ruth ""}","<img src=""stim_listA/look7.gif""style=""height:400px;""></stim_listA>","is looking at","","","","","",""
"null","<div style=""font-size:60px;"">+</div>","","html-keyboard-response","328","1374345","0.0-19.0-0.1","44605","List1A","black","woman","","","","null","","","","","","","","",""
"null","<img src=""stim_listA/shout4.gif""style=""height:400px;""></stim_listA>","","html-keyboard-response","329","1376349","0.0-19.0-1.1","44605","List1A","black","woman","","","","null","","","","","","","","",""
"null","is being shouted at by","","html-keyboard-response","330","1378353","0.0-19.0-2.1","44605","List1A","black","woman","","","","null","","","","","","","","",""
"11549.300000011921","","","survey-text","331","1389905","0.0-19.0-3.1","44605","List1A","black","woman","","","","","{""Q0"":""jane is being shouted at by dave ""}","<img src=""stim_listA/shout4.gif""style=""height:400px;""></stim_listA>","is being shouted at by","","","","","",""
"null","<div style=""font-size:60px;"">+</div>","","html-keyboard-response","332","1390406","0.0-19.0-0.2","44605","List1A","black","woman","","","","null","","","","","","","","",""
"null","<img src=""stim_listA/kiss4.gif""style=""height:400px;""></stim_listA>","","html-keyboard-response","333","1392408","0.0-19.0-1.2","44605","List1A","black","woman","","","","null","","","","","","","","",""
"null","is being kissed by","","html-keyboard-response","334","1394410","0.0-19.0-2.2","44605","List1A","black","woman","","","","null","","","","","","","","",""
"6405","","","survey-text","335","1400817","0.0-19.0-3.2","44605","List1A","black","woman","","","","","{""Q0"":""jane is being kissed by dave ""}","<img src=""stim_listA/kiss4.gif""style=""height:400px;""></stim_listA>","is being kissed by","","","","","",""
"null","<div style=""font-size:60px;"">+</div>","","html-keyboard-response","336","1401321","0.0-19.0-0.3","44605","List1A","black","woman","","","","null","","","","","","","","",""
"null","<img src=""stim_listA/seduce1.gif""style=""height:400px;""></stim_listA>","","html-keyboard-response","337","1403326","0.0-19.0-1.3","44605","List1A","black","woman","","","","null","","","","","","","","",""
"null","is seducing","","html-keyboard-response","338","1405332","0.0-19.0-2.3","44605","List1A","black","woman","","","","null","","","","","","","","",""
"9714.90000000596","","","survey-text","339","1415050","0.0-19.0-3.3","44605","List1A","black","woman","","","","","{""Q0"":""fred is seducing kate""}","<img src=""stim_listA/seduce1.gif""style=""height:400px;""></stim_listA>","is seducing","","","","","",""
"null","<div style=""font-size:60px;"">+</div>","","html-keyboard-response","340","1415553","0.0-19.0-0.4","44605","List1A","black","woman","","","","null","","","","","","","","",""
"null","<img src=""stim_listA/greet5.gif""style=""height:400px;""></stim_listA>","","html-keyboard-response","341","1417555","0.0-19.0-1.4","44605","List1A","black","woman","","","","null","","","","","","","","",""
"null","is greeting","","html-keyboard-response","342","1419557","0.0-19.0-2.4","44605","List1A","black","woman","","","","null","","","","","","","","",""
"7705.700000017881","","","survey-text","343","1427265","0.0-19.0-3.4","44605","List1A","black","woman","","","","","{""Q0"":""mike is greeting luke ""}","<img src=""stim_listA/greet5.gif""style=""height:400px;""></stim_listA>","is greeting","","","","","",""
"null","<div style=""font-size:60px;"">+</div>","","html-keyboard-response","344","1427766","0.0-19.0-0.5","44605","List1A","black","woman","","","","null","","","","","","","","",""
"null","<img src=""stim_listA/challenge5.gif""style=""height:400px;""></stim_listA>","","html-keyboard-response","345","1429771","0.0-19.0-1.5","44605","List1A","black","woman","","","","null","","","","","","","","",""
"null","is challenging","","html-keyboard-response","346","1431772","0.0-19.0-2.5","44605","List1A","black","woman","","","","null","","","","","","","","",""
"7062","","","survey-text","347","1438836","0.0-19.0-3.5","44605","List1A","black","woman","","","","","{""Q0"":""mike is challenging luke ""}","<img src=""stim_listA/challenge5.gif""style=""height:400px;""></stim_listA>","is challenging","","","","","",""
"null","<div style=""font-size:60px;"">+</div>","","html-keyboard-response","348","1439338","0.0-19.0-0.6","44605","List1A","black","woman","","","","null","","","","","","","","",""
"null","<img src=""stim_listA/kiss8.gif""style=""height:400px;""></stim_listA>","","html-keyboard-response","349","1441345","0.0-19.0-1.6","44605","List1A","black","woman","","","","null","","","","","","","","",""
"null","is being kissed by","","html-keyboard-response","350","1443347","0.0-19.0-2.6","44605","List1A","black","woman","","","","null","","","","","","","","",""
"7259.5999999940395","","","survey-text","351","1450609","0.0-19.0-3.6","44605","List1A","black","woman","","","","","{""Q0"":""jane is being kissed by kate ""}","<img src=""stim_listA/kiss8.gif""style=""height:400px;""></stim_listA>","is being kissed by","","","","","",""
"null","<div style=""font-size:60px;"">+</div>","","html-keyboard-response","352","1451112","0.0-19.0-0.7","44605","List1A","black","woman","","","","null","","","","","","","","",""
"null","<img src=""stim_listA/oppose1.gif""style=""height:400px;""></stim_listA>","","html-keyboard-response","353","1453118","0.0-19.0-1.7","44605","List1A","black","woman","","","","null","","","","","","","","",""
"null","is opposing","","html-keyboard-response","354","1455119","0.0-19.0-2.7","44605","List1A","black","woman","","","","null","","","","","","","","",""
"5072.5","","","survey-text","355","1460194","0.0-19.0-3.7","44605","List1A","black","woman","","","","","{""Q0"":""kate is opposing mike ""}","<img src=""stim_listA/oppose1.gif""style=""height:400px;""></stim_listA>","is opposing","","","","","",""
"null","<div style=""font-size:60px;"">+</div>","","html-keyboard-response","356","1460698","0.0-19.0-0.8","44605","List1A","black","woman","","","","null","","","","","","","","",""
"null","<img src=""stim_listA/challenge2.gif""style=""height:400px;""></stim_listA>","","html-keyboard-response","357","1462701","0.0-19.0-1.8","44605","List1A","black","woman","","","","null","","","","","","","","",""
"null","is being challenged by","","html-keyboard-response","358","1464703","0.0-19.0-2.8","44605","List1A","black","woman","","","","null","","","","","","","","",""
"9906.300000011921","","","survey-text","359","1474612","0.0-19.0-3.8","44605","List1A","black","woman","","","","","{""Q0"":""kate is being challenged by fred""}","<img src=""stim_listA/challenge2.gif""style=""height:400px;""></stim_listA>","is being challenged by","","","","","",""
"null","<div style=""font-size:60px;"">+</div>","","html-keyboard-response","360","1475116","0.0-19.0-0.9","44605","List1A","black","woman","","","","null","","","","","","","","",""
"null","<img src=""stim_listA/challenge3.gif""style=""height:400px;""></stim_listA>","","html-keyboard-response","361","1477119","0.0-19.0-1.9","44605","List1A","black","woman","","","","null","","","","","","","","",""
"null","is challenging","","html-keyboard-response","362","1479121","0.0-19.0-2.9","44605","List1A","black","woman","","","","null","","","","","","","","",""
"6261.0999999940395","","","survey-text","363","1485384","0.0-19.0-3.9","44605","List1A","black","woman","","","","","{""Q0"":""ruth is challenging dave ""}","<img src=""stim_listA/challenge3.gif""style=""height:400px;""></stim_listA>","is challenging","","","","","",""
"null","<div style=""font-size:60px;"">+</div>","","html-keyboard-response","364","1485885","0.0-19.0-0.10","44605","List1A","black","woman","","","","null","","","","","","","","",""
"null","<img src=""stim_listA/greet4.gif""style=""height:400px;""></stim_listA>","","html-keyboard-response","365","1487888","0.0-19.0-1.10","44605","List1A","black","woman","","","","null","","","","","","","","",""
"null","is being greeted by","","html-keyboard-response","366","1489889","0.0-19.0-2.10","44605","List1A","black","woman","","","","null","","","","","","","","",""
"16867.20000001788","","","survey-text","367","1506758","0.0-19.0-3.10","44605","List1A","black","woman","","","","","{""Q0"":""luke is being greeted by jane ""}","<img src=""stim_listA/greet4.gif""style=""height:400px;""></stim_listA>","is being greeted by","","","","","",""
"null","<div style=""font-size:60px;"">+</div>","","html-keyboard-response","368","1507263","0.0-19.0-0.11","44605","List1A","black","woman","","","","null","","","","","","","","",""
"null","<img src=""stim_listA/greet7.gif""style=""height:400px;""></stim_listA>","","html-keyboard-response","369","1509268","0.0-19.0-1.11","44605","List1A","black","woman","","","","null","","","","","","","","",""
"null","is greeting","","html-keyboard-response","370","1511270","0.0-19.0-2.11","44605","List1A","black","woman","","","","null","","","","","","","","",""
"6364.9000000059605","","","survey-text","371","1517637","0.0-19.0-3.11","44605","List1A","black","woman","","","","","{""Q0"":""ruth is greeting kate ""}","<img src=""stim_listA/greet7.gif""style=""height:400px;""></stim_listA>","is greeting","","","","","",""
"null","<div style=""font-size:60px;"">+</div>","","html-keyboard-response","372","1518138","0.0-19.0-0.12","44605","List1A","black","woman","","","","null","","","","","","","","",""
"null","<img src=""stim_listA/seduce8.gif""style=""height:400px;""></stim_listA>","","html-keyboard-response","373","1520143","0.0-19.0-1.12","44605","List1A","black","woman","","","","null","","","","","","","","",""
"null","is being seduced by","","html-keyboard-response","374","1522145","0.0-19.0-2.12","44605","List1A","black","woman","","","","null","","","","","","","","",""
"11418.800000011921","","","survey-text","375","1533566","0.0-19.0-3.12","44605","List1A","black","woman","","","","","{""Q0"":""ruth is being seduced by kate""}","<img src=""stim_listA/seduce8.gif""style=""height:400px;""></stim_listA>","is being seduced by","","","","","",""
"null","<div style=""font-size:60px;"">+</div>","","html-keyboard-response","376","1534070","0.0-19.0-0.13","44605","List1A","black","woman","","","","null","","","","","","","","",""
"null","<img src=""stim_listA/shout3.gif""style=""height:400px;""></stim_listA>","","html-keyboard-response","377","1536072","0.0-19.0-1.13","44605","List1A","black","woman","","","","null","","","","","","","","",""
"null","is shouting at","","html-keyboard-response","378","1538073","0.0-19.0-2.13","44605","List1A","black","woman","","","","null","","","","","","","","",""
"6923.800000011921","","","survey-text","379","1544999","0.0-19.0-3.13","44605","List1A","black","woman","","","","","{""Q0"":""ruth is shouting at luke ""}","<img src=""stim_listA/shout3.gif""style=""height:400px;""></stim_listA>","is shouting at","","","","","",""
"null","<div style=""font-size:60px;"">+</div>","","html-keyboard-response","380","1545500","0.0-19.0-0.14","44605","List1A","black","woman","","","","null","","","","","","","","",""
"null","<img src=""stim_listA/greet2.gif""style=""height:400px;""></stim_listA>","","html-keyboard-response","381","1547506","0.0-19.0-1.14","44605","List1A","black","woman","","","","null","","","","","","","","",""
"null","is being greeted by","","html-keyboard-response","382","1549507","0.0-19.0-2.14","44605","List1A","black","woman","","","","null","","","","","","","","",""
"12202.399999976158","","","survey-text","383","1561711","0.0-19.0-3.14","44605","List1A","black","woman","","","","","{""Q0"":""kate is being greeted by fred ""}","<img src=""stim_listA/greet2.gif""style=""height:400px;""></stim_listA>","is being greeted by","","","","","",""
"null","<div style=""font-size:60px;"">+</div>","","html-keyboard-response","384","1562216","0.0-19.0-0.15","44605","List1A","black","woman","","","","null","","","","","","","","",""
"null","<img src=""stim_listA/look2.gif""style=""height:400px;""></stim_listA>","","html-keyboard-response","385","1564218","0.0-19.0-1.15","44605","List1A","black","woman","","","","null","","","","","","","","",""
"null","is being looked at by","","html-keyboard-response","386","1566220","0.0-19.0-2.15","44605","List1A","black","woman","","","","null","","","","","","","","",""
"9421.5","","","survey-text","387","1575643","0.0-19.0-3.15","44605","List1A","black","woman","","","","","{""Q0"":""kate is being looked at by mike ""}","<img src=""stim_listA/look2.gif""style=""height:400px;""></stim_listA>","is being looked at by","","","","","",""
"null","<div style=""font-size:60px;"">+</div>","","html-keyboard-response","388","1576148","0.0-19.0-0.16","44605","List1A","black","woman","","","","null","","","","","","","","",""
"null","<img src=""stim_listA/look8.gif""style=""height:400px;""></stim_listA>","","html-keyboard-response","389","1578153","0.0-19.0-1.16","44605","List1A","black","woman","","","","null","","","","","","","","",""
"null","is being looked at by","","html-keyboard-response","390","1580154","0.0-19.0-2.16","44605","List1A","black","woman","","","","null","","","","","","","","",""
"7830.899999976158","","","survey-text","391","1587989","0.0-19.0-3.16","44605","List1A","black","woman","","","","","{""Q0"":""jane is being looked at by kate ""}","<img src=""stim_listA/look8.gif""style=""height:400px;""></stim_listA>","is being looked at by","","","","","",""
"null","<div style=""font-size:60px;"">+</div>","","html-keyboard-response","392","1588491","0.0-19.0-0.17","44605","List1A","black","woman","","","","null","","","","","","","","",""
"null","<img src=""stim_listA/touch2.gif""style=""height:400px;""></stim_listA>","","html-keyboard-response","393","1590494","0.0-19.0-1.17","44605","List1A","black","woman","","","","null","","","","","","","","",""
"null","is being touched by","","html-keyboard-response","394","1592500","0.0-19.0-2.17","44605","List1A","black","woman","","","","null","","","","","","","","",""
"10734.800000011921","","","survey-text","395","1603236","0.0-19.0-3.17","44605","List1A","black","woman","","","","","{""Q0"":""beth is being touched by fred ""}","<img src=""stim_listA/touch2.gif""style=""height:400px;""></stim_listA>","is being touched by","","","","","",""
"null","<div style=""font-size:60px;"">+</div>","","html-keyboard-response","396","1603740","0.0-19.0-0.18","44605","List1A","black","woman","","","","null","","","","","","","","",""
"null","<img src=""stim_listA/shout7.gif""style=""height:400px;""></stim_listA>","","html-keyboard-response","397","1605746","0.0-19.0-1.18","44605","List1A","black","woman","","","","null","","","","","","","","",""
"null","is shouting at","","html-keyboard-response","398","1607747","0.0-19.0-2.18","44605","List1A","black","woman","","","","null","","","","","","","","",""
"7355.800000011921","","","survey-text","399","1615105","0.0-19.0-3.18","44605","List1A","black","woman","","","","","{""Q0"":""beth is shouting at ruth ""}","<img src=""stim_listA/shout7.gif""style=""height:400px;""></stim_listA>","is shouting at","","","","","",""
"null","<div style=""font-size:60px;"">+</div>","","html-keyboard-response","400","1615609","0.0-19.0-0.19","44605","List1A","black","woman","","","","null","","","","","","","","",""
"null","<img src=""stim_listA/copy4.gif""style=""height:400px;""></stim_listA>","","html-keyboard-response","401","1617614","0.0-19.0-1.19","44605","List1A","black","woman","","","","null","","","","","","","","",""
"null","is being copied by","","html-keyboard-response","402","1619619","0.0-19.0-2.19","44605","List1A","black","woman","","","","null","","","","","","","","",""
"9393.200000017881","","","survey-text","403","1629015","0.0-19.0-3.19","44605","List1A","black","woman","","","","","{""Q0"":""jane is being copied by luke ""}","<img src=""stim_listA/copy4.gif""style=""height:400px;""></stim_listA>","is being copied by","","","","","",""
"58722.70000001788","<p>Thank you for completing that task.</p><p>The final part of this session is a questionnaire that will take about 4 minutes.</p><p>Press Continue.</p>","0","html-button-response","404","1687740","0.0-20.0","44605","List1A","black","woman","","","","","","","","","","","","",""
"45586.70000001788","","","survey-text","405","1734333","0.0-21.0","44605","List1A","black","woman","","","","","{""Q0"":""28"",""Q1"":""English "",""Q2"":""English "",""Q3"":""United States"",""Q4"":""US citizen "",""Q5"":""Black "",""Q6"":""Female ""}","","","demographics","","","","",""
"4087.0999999940395","<p>Have you lived in the USA for the last 5 years or more?</p>","0","html-button-response","406","1738422","0.0-22.0","44605","List1A","black","woman","","","","","","","","fiveyears","","","","",""
"5101.199999988079","<p>Move the slider to show the extent to which you agree with the following statements.</p>","0","html-button-response","407","1744529","0.0-23.0","44605","List1A","black","woman","","","","","","","","","","","","",""
"17197.30000001192","","","html-slider-response","408","1762730","0.0-24.0-0.0-0.0","44605","List1A","black","woman","","","","","","","","survey_race","49","","","People of my race are very similar to each other.","verysimilar"
"5842.0999999940395","","","html-slider-response","409","1768574","0.0-24.0-0.0-0.1","44605","List1A","black","woman","","","","","","","","survey_race","10","","","Getting older does not worry me.","filler"
"7769.5","","","html-slider-response","410","1776346","0.0-24.0-0.0-0.2","44605","List1A","black","woman","","","","","","","","survey_race","65","","","I consider myself an extrovert.","filler"
"4813.699999988079","","","html-slider-response","411","1781161","0.0-24.0-0.0-0.3","44605","List1A","black","woman","","","","","","","","survey_race","54","","","I have a lot in common with people of a similar age to me.","filler"
"5150.199999988079","","","html-slider-response","412","1786313","0.0-24.0-0.0-0.4","44605","List1A","black","woman","","","","","","","","survey_race","51","","","The older I get, the wiser I feel.","filler"
"4369","","","html-slider-response","413","1790684","0.0-24.0-0.0-0.5","44605","List1A","black","woman","","","","","","","","survey_race","66","","","I feel a bond with my race.","bond"
"5121.5999999940395","","","html-slider-response","414","1795807","0.0-24.0-0.0-0.6","44605","List1A","black","woman","","","","","","","","survey_race","39","","","Being my age gives me a good feeling.","filler"
"5001.5999999940395","","","html-slider-response","415","1800810","0.0-24.0-0.0-0.7","44605","List1A","black","woman","","","","","","","","survey_race","92","","","I often think about the fact that I am my race.","often"
"3323.2000000178814","","","html-slider-response","416","1804135","0.0-24.0-0.0-0.8","44605","List1A","black","woman","","","","","","","","survey_race","65","","","I am glad to be my race.","glad"
"4192.9000000059605","","","html-slider-response","417","1808330","0.0-24.0-0.0-0.9","44605","List1A","black","woman","","","","","","","","survey_race","69","","","I think that my race has a lot to be proud of.","proud"
"9267.40000000596","","","html-slider-response","418","1817599","0.0-24.0-0.0-0.10","44605","List1A","black","woman","","","","","","","","survey_race","47","","","It is pleasant to be my race.","pleasant"
"7161.199999988079","","","html-slider-response","419","1824762","0.0-24.0-0.0-0.11","44605","List1A","black","woman","","","","","","","","survey_race","49","","","People of my race have a lot in common with each other.","common"
"6080.4000000059605","","","html-slider-response","420","1830845","0.0-24.0-0.0-0.12","44605","List1A","black","woman","","","","","","","","survey_race","63","","","People my age have a lot in common with each other.","filler"
"8037.5999999940395","","","html-slider-response","421","1838884","0.0-24.0-0.0-0.13","44605","List1A","black","woman","","","","","","","","survey_race","45","","","I have a lot in common with the average person of my race.","average"
"4529","","","html-slider-response","422","1843415","0.0-24.0-0.0-0.14","44605","List1A","black","woman","","","","","","","","survey_race","49","","","I am similar to the average person of my race.","similar"
"5370.100000023842","","","html-slider-response","423","1848788","0.0-24.0-0.0-0.15","44605","List1A","black","woman","","","","","","","","survey_race","39","","","My age is not an important part of who I am.","filler"
"3434.7000000178814","","","html-slider-response","424","1852224","0.0-24.0-0.0-0.16","44605","List1A","black","woman","","","","","","","","survey_race","52","","","I feel a bond with people the same age as me.","filler"
"3783.699999988079","","","html-slider-response","425","1856010","0.0-24.0-0.0-0.17","44605","List1A","black","woman","","","","","","","","survey_race","45","","","Being my race gives me a good feeling.","feeling"
"3639.9000000059605","","","html-slider-response","426","1859652","0.0-24.0-0.0-0.18","44605","List1A","black","woman","","","","","","","","survey_race","43","","","I am glad to be my age.","filler"
"3807.7999999821186","","","html-slider-response","427","1863462","0.0-24.0-0.0-0.19","44605","List1A","black","woman","","","","","","","","survey_race","79","","","I often think about the fact that I am my age.","filler"
"4721.800000011921","","","html-slider-response","428","1868186","0.0-24.0-0.0-0.20","44605","List1A","black","woman","","","","","","","","survey_race","76","","","The fact that I am my race is an important part of my identity.","identity"
"3766.5","","","html-slider-response","429","1871955","0.0-24.0-0.0-0.21","44605","List1A","black","woman","","","","","","","","survey_race","83","","","Being my race is an important part of how I see myself.","important"
"3743.300000011921","","","html-slider-response","430","1875700","0.0-24.0-0.0-0.22","44605","List1A","black","woman","","","","","","","","survey_race","44","","","I feel solidarity with people the same age as me.","filler"
"3182.4000000059605","","","html-slider-response","431","1878885","0.0-24.0-0.0-0.23","44605","List1A","black","woman","","","","","","","","survey_race","62","","","I feel solidarity with my race.","solidarity"
"5426.300000011921","","","html-slider-response","432","1884313","0.0-24.0-0.0-0.24","44605","List1A","black","woman","","","","","","","","survey_race","30","","","I am glad to be the age I am.","filler"
"3799.2000000178814","","","html-slider-response","433","1888115","0.0-24.0-0.0-0.25","44605","List1A","black","woman","","","","","","","","survey_race","52","","","I consider myself an introvert.","filler"
"3835","","","html-slider-response","434","1891952","0.0-24.0-0.0-0.26","44605","List1A","black","woman","","","","","","","","survey_race","53","","","I enjoy being in large groups.","filler"
"3358.4000000059605","","","html-slider-response","435","1895312","0.0-24.0-0.0-0.27","44605","List1A","black","woman","","","","","","","","survey_race","68","","","I feel committed to my race.","committed"
"4327.5999999940395","","","html-slider-response","436","1899642","0.0-24.0-1.0-0.0","44605","List1A","black","woman","","","","","","","","survey_gender","68","","","I think that my gender has a lot to be proud of.","proud"
"3005.7999999821186","","","html-slider-response","437","1902650","0.0-24.0-1.0-0.1","44605","List1A","black","woman","","","","","","","","survey_gender","74","","","I often think about the fact that I am my gender.","often"
"3262.7000000178814","","","html-slider-response","438","1905915","0.0-24.0-1.0-0.2","44605","List1A","black","woman","","","","","","","","survey_gender","55","","","I feel solidarity with my gender.","solidarity"
"8709.09999999404","","","html-slider-response","439","1914627","0.0-24.0-1.0-0.3","44605","List1A","black","woman","","","","","","","","survey_gender","59","","","It is not always easy for people to know what I am thinking.","filler"
"5288.9000000059605","","","html-slider-response","440","1919918","0.0-24.0-1.0-0.4","44605","List1A","black","woman","","","","","","","","survey_gender","47","","","People of my gender are very similar to each other.","verysimilar"
"4239","","","html-slider-response","441","1924160","0.0-24.0-1.0-0.5","44605","List1A","black","woman","","","","","","","","survey_gender","56","","","My friends understand me.","filler"
"5200.9000000059605","","","html-slider-response","442","1929363","0.0-24.0-1.0-0.6","44605","List1A","black","woman","","","","","","","","survey_gender","44","","","I have a lot in common with the average person of my gender.","average"
"6314.5","","","html-slider-response","443","1935680","0.0-24.0-1.0-0.7","44605","List1A","black","woman","","","","","","","","survey_gender","55","","","Most of the friends in my life are very similar to me.","filler"
"7007.0999999940395","","","html-slider-response","444","1942690","0.0-24.0-1.0-0.8","44605","List1A","black","woman","","","","","","","","survey_gender","33","","","Family is not more important to me than friendship.","filler"
"6049.799999982119","","","html-slider-response","445","1948742","0.0-24.0-1.0-0.9","44605","List1A","black","woman","","","","","","","","survey_gender","82","","","I consider myself a highly empathetic person.","filler"
"4455.4000000059605","","","html-slider-response","446","1953201","0.0-24.0-1.0-0.10","44605","List1A","black","woman","","","","","","","","survey_gender","41","","","Being my gender gives me a good feeling.","feeling"
"4823.600000023842","","","html-slider-response","447","1958027","0.0-24.0-1.0-0.11","44605","List1A","black","woman","","","","","","","","survey_gender","48","","","I would say I am an animal person.","filler"
"3526.199999988079","","","html-slider-response","448","1961556","0.0-24.0-1.0-0.12","44605","List1A","black","woman","","","","","","","","survey_gender","34","","","Routine is not important to me.","filler"
"2937.800000011921","","","html-slider-response","449","1964497","0.0-24.0-1.0-0.13","44605","List1A","black","woman","","","","","","","","survey_gender","59","","","I feel solidarity with my friends.","filler"
"5016.4000000059605","","","html-slider-response","450","1969516","0.0-24.0-1.0-0.14","44605","List1A","black","woman","","","","","","","","survey_gender","75","","","I feel a bond with my friends.","filler"
"3486","","","html-slider-response","451","1973005","0.0-24.0-1.0-0.15","44605","List1A","black","woman","","","","","","","","survey_gender","77","","","I am glad to be my gender.","glad"
"3342","","","html-slider-response","452","1976349","0.0-24.0-1.0-0.16","44605","List1A","black","woman","","","","","","","","survey_gender","55","","","It is pleasant to be my gender.","pleasant"
"3518.5999999940395","","","html-slider-response","453","1979870","0.0-24.0-1.0-0.17","44605","List1A","black","woman","","","","","","","","survey_gender","89","","","I am glad to have the friends that I have.","filler"
"3790.899999976158","","","html-slider-response","454","1983664","0.0-24.0-1.0-0.18","44605","List1A","black","woman","","","","","","","","survey_gender","100","","","I often think about my actions.","filler"
"3369.4000000059605","","","html-slider-response","455","1987037","0.0-24.0-1.0-0.19","44605","List1A","black","woman","","","","","","","","survey_gender","59","","","The fact that I am my gender is an important part of my identity.","identity"
"3934.5","","","html-slider-response","456","1990974","0.0-24.0-1.0-0.20","44605","List1A","black","woman","","","","","","","","survey_gender","73","","","Being my gender is an important part of how I see myself.","important"
"3429.7999999821186","","","html-slider-response","457","1994407","0.0-24.0-1.0-0.21","44605","List1A","black","woman","","","","","","","","survey_gender","52","","","I feel a bond with my gender.","bond"
"4151.300000011921","","","html-slider-response","458","1998561","0.0-24.0-1.0-0.22","44605","List1A","black","woman","","","","","","","","survey_gender","53","","","I am similar to the average person of my gender.","similar"
"3197.5999999940395","","","html-slider-response","459","2001762","0.0-24.0-1.0-0.23","44605","List1A","black","woman","","","","","","","","survey_gender","75","","","Being around my friends gives me a good feeling.","filler"
"2821","","","html-slider-response","460","2004586","0.0-24.0-1.0-0.24","44605","List1A","black","woman","","","","","","","","survey_gender","56","","","I have a lot in common with my friends.","filler"
"2992.800000011921","","","html-slider-response","461","2007581","0.0-24.0-1.0-0.25","44605","List1A","black","woman","","","","","","","","survey_gender","55","","","My friends have a lot in common with each other.","filler"
"3846.4000000059605","","","html-slider-response","462","2011431","0.0-24.0-1.0-0.26","44605","List1A","black","woman","","","","","","","","survey_gender","48","","","People of my gender have a lot in common with each other.","common"
"2612.2999999821186","","","html-slider-response","463","2014046","0.0-24.0-1.0-0.27","44605","List1A","black","woman","","","","","","","","survey_gender","54","","","I feel committed to my gender.","committed"
"9132","","","survey-text","464","2023183","0.0-25.0","44605","List1A","black","woman","","","","","{""Q0"":""61036bace25dd6c4ed1c8abf""}","","","worker_id","","","","",""
"47052","","","external-html","465","2070885","0.0-26.0","44605","List1A","black","woman","debrief.html","","","","","","","","","","","",""
