rt,stimulus,button_pressed,trial_type,trial_index,time_elapsed,internal_node_id,subject,list,ppt_race,ppt_gender,url,first_guess,correct,key_press,responses,image_type,phrase_type,test_part,response,stimulus1,stimulus2,question_type,survey_item
2030.2,Welcome to the experiment. Press Continue to begin.,0,html-button-response,0,2058,0.0-0.0,44723,List2B,black,man,,,,,,,,,,,,,
4782,,,external-html,1,8543,0.0-1.0,44723,List2B,black,man,consent.html,,,,,,,,,,,,
24660.6,"<p>On the next page, you will see portraits of 8 people and their names.</p><p>Your first task is to take a few minutes to memorise the names of these people.</p><p>You will have to recall their names during the rest of the experiment, so it is</p><p>essential that you try to memorise these people and their names as best as you can.</p><br><p><strong>You will then be tested on your memory of these names and portraits.</strong></p><br><p>The experiment will start after you have completed this memory test.</p><br><p>Ready?</p>",0,html-button-response,2,33210,0.0-2.0,44723,List2B,black,man,,,,,,,,,,,,,
31070.8,"<img src='img/portrait_matrix_list2.jpg' style='width:900px;height:500px;''></img><p>If you have memorised all the portraits and names and are ready to start, press Continue.</p><p><strong>Please note: Your memory of these faces will be tested 4 times during this experiment.</strong></p>",0,html-button-response,3,65299,0.0-3.0-0.0,44723,List2B,black,man,,,,,,,,,,,,,
8482.8,"<img src=""portrait/BW2.jpg""style=""height:400px;""></img>",2,html-button-response,4,74789,0.0-3.0-1.0,44723,List2B,black,man,,TRUE,2,,,,,,,,,,
null,CORRECT,,html-keyboard-response,5,76307,0.0-3.0-2.0-0.0,44723,List2B,black,man,,,,null,,,,,,,,,
5895.2,"<img src=""portrait/WW2.jpg""style=""height:400px;""></img>",3,html-button-response,6,82217,0.0-3.0-4.0,44723,List2B,black,man,,TRUE,3,,,,,,,,,,
null,CORRECT,,html-keyboard-response,7,83726,0.0-3.0-5.0-0.0,44723,List2B,black,man,,,,null,,,,,,,,,
7377.5,"<img src=""portrait/BM2.jpg""style=""height:400px;""></img>",5,html-button-response,8,91113,0.0-3.0-7.0,44723,List2B,black,man,,TRUE,5,,,,,,,,,,
null,CORRECT,,html-keyboard-response,9,92620,0.0-3.0-8.0-0.0,44723,List2B,black,man,,,,null,,,,,,,,,
6374,"<img src=""portrait/WM2.jpg""style=""height:400px;""></img>",7,html-button-response,10,99004,0.0-3.0-10.0,44723,List2B,black,man,,TRUE,7,,,,,,,,,,
null,CORRECT,,html-keyboard-response,11,100512,0.0-3.0-11.0-0.0,44723,List2B,black,man,,,,null,,,,,,,,,
5710.8,"<img src=""portrait/WW1.jpg""style=""height:400px;""></img>",1,html-button-response,12,106230,0.0-3.0-13.0,44723,List2B,black,man,,TRUE,1,,,,,,,,,,
null,CORRECT,,html-keyboard-response,13,107739,0.0-3.0-14.0-0.0,44723,List2B,black,man,,,,null,,,,,,,,,
5758.2,"<img src=""portrait/BW1.jpg""style=""height:400px;""></img>",0,html-button-response,14,113508,0.0-3.0-16.0,44723,List2B,black,man,,TRUE,0,,,,,,,,,,
null,CORRECT,,html-keyboard-response,15,115020,0.0-3.0-17.0-0.0,44723,List2B,black,man,,,,null,,,,,,,,,
6368.6,"<img src=""portrait/BM1.jpg""style=""height:400px;""></img>",4,html-button-response,16,121404,0.0-3.0-19.0,44723,List2B,black,man,,TRUE,4,,,,,,,,,,
null,CORRECT,,html-keyboard-response,17,122910,0.0-3.0-20.0-0.0,44723,List2B,black,man,,,,null,,,,,,,,,
6828.8,"<img src=""portrait/WM1.jpg""style=""height:400px;""></img>",6,html-button-response,18,129745,0.0-3.0-22.0,44723,List2B,black,man,,TRUE,6,,,,,,,,,,
null,CORRECT,,html-keyboard-response,19,131251,0.0-3.0-23.0-0.0,44723,List2B,black,man,,,,null,,,,,,,,,
10855,<p>You got 8 out of 8 right first time. Press Continue.</p>,0,html-button-response,20,142112,0.0-3.0-25.0,44723,List2B,black,man,,,,,,,,,,,,,
22235,"<p>In this experiment, you will view photographs of the people from the memory game interacting.</p><p>By using the <strong>exact</strong> phrase given <i>after</i> the photograph appears and recalling the correct names of the people in the photographs, form a sentence describing the interaction. You do not need to capitalise names.</p><p>Type your answer in the space provided. Please complete every sentence before moving onto the next trial.</p><p>You will only have a few seconds to memorise each given photograph and phrase before you can respond, so try your best to focus.</p><p>An example is given below. Press 'Continue' when you are ready.</p><img src='img/speaking_example.jpg' style='width:800px;height:460px;''></img>",0,html-button-response,21,165370,0.0-4.0,44723,List2B,black,man,,,,,,,,,,,,,
2383,"<p>Before the experiment starts, you will watch two example trials. Press 'Continue'.</p>",0,html-button-response,22,168760,0.0-5.0,44723,List2B,black,man,,,,,,,,,,,,,
null,<img src='img/play_eg.gif' style='height:400px;''></img>,,html-keyboard-response,23,171772,0.0-6.0,44723,List2B,black,man,,,,null,,,,,,,,,
null,<p>is playing with</p>,,html-keyboard-response,24,173780,0.0-7.0,44723,List2B,black,man,,,,null,,,,,,,,,
2566.7,<p><b>Answer:</b> jane is playing with ruth</p>,0,html-button-response,25,176354,0.0-8.0,44723,List2B,black,man,,,,,,,,,,,,,
null,<img src='img/dance_eg.gif' style='height:400px;''></img>,,html-keyboard-response,26,179364,0.0-9.0,44723,List2B,black,man,,,,null,,,,,,,,,
null,<p>is being entertained by</p>,,html-keyboard-response,27,181382,0.0-10.0,44723,List2B,black,man,,,,null,,,,,,,,,
2108.9,<p><b>Answer:</b> fred is being entertained by mike</p>,0,html-button-response,28,183501,0.0-11.0,44723,List2B,black,man,,,,,,,,,,,,,
10865,"<p>Ready to start the experiment?</p><br><p><strong>Remember to describe the picture using a full sentence,</strong></p><p><strong>that combines the names of the people with the <i>exact</i> phrase given.</strong></p><p><strong>To receive full payment you must do this correctly.</strong></p><p><strong> You do not need to capitalise names or use punctuation.</strong></p><br><p>Press 'Continue' to begin.</p>",0,html-button-response,29,195374,0.0-12.0,44723,List2B,black,man,,,,,,,,,,,,,
null,"<div style=""font-size:60px;"">+</div>",,html-keyboard-response,30,196881,0.0-13.0-0.0,44723,List2B,black,man,,,,null,,,,,,,,,
null,"<img src=""stim_listB/challenge7.gif""style=""height:400px;""></stim_listB>",,html-keyboard-response,31,198898,0.0-13.0-1.0,44723,List2B,black,man,,,,null,,,,,,,,,
null,is challenging,,html-keyboard-response,32,200906,0.0-13.0-2.0,44723,List2B,black,man,,,,null,,,,,,,,,
17930.8,,,survey-text,33,218881,0.0-13.0-3.0,44723,List2B,black,man,,,,,"{""Q0"":""jane is challenging beth""}","<img src=""stim_listB/challenge7.gif""style=""height:400px;""></stim_listB>",is challenging,,,,,,
null,"<div style=""font-size:60px;"">+</div>",,html-keyboard-response,34,219388,0.0-13.0-0.1,44723,List2B,black,man,,,,null,,,,,,,,,
null,"<img src=""stim_listB/shout7.gif""style=""height:400px;""></stim_listB>",,html-keyboard-response,35,221397,0.0-13.0-1.1,44723,List2B,black,man,,,,null,,,,,,,,,
null,is shouting at,,html-keyboard-response,36,223403,0.0-13.0-2.1,44723,List2B,black,man,,,,null,,,,,,,,,
16640.4,,,survey-text,37,240069,0.0-13.0-3.1,44723,List2B,black,man,,,,,"{""Q0"":""Jane is shouting at beth""}","<img src=""stim_listB/shout7.gif""style=""height:400px;""></stim_listB>",is shouting at,,,,,,
null,"<div style=""font-size:60px;"">+</div>",,html-keyboard-response,38,240576,0.0-13.0-0.2,44723,List2B,black,man,,,,null,,,,,,,,,
null,"<img src=""stim_listB/touch5.gif""style=""height:400px;""></stim_listB>",,html-keyboard-response,39,242590,0.0-13.0-1.2,44723,List2B,black,man,,,,null,,,,,,,,,
null,is touching,,html-keyboard-response,40,244596,0.0-13.0-2.2,44723,List2B,black,man,,,,null,,,,,,,,,
14368,,,survey-text,41,258974,0.0-13.0-3.2,44723,List2B,black,man,,,,,"{""Q0"":""Mike is touching dave""}","<img src=""stim_listB/touch5.gif""style=""height:400px;""></stim_listB>",is touching,,,,,,
null,"<div style=""font-size:60px;"">+</div>",,html-keyboard-response,42,259479,0.0-13.0-0.3,44723,List2B,black,man,,,,null,,,,,,,,,
null,"<img src=""stim_listB/oppose2.gif""style=""height:400px;""></stim_listB>",,html-keyboard-response,43,261487,0.0-13.0-1.3,44723,List2B,black,man,,,,null,,,,,,,,,
null,is being opposed by,,html-keyboard-response,44,263492,0.0-13.0-2.3,44723,List2B,black,man,,,,null,,,,,,,,,
20681,,,survey-text,45,284186,0.0-13.0-3.3,44723,List2B,black,man,,,,,"{""Q0"":""Luke is opposed by jane""}","<img src=""stim_listB/oppose2.gif""style=""height:400px;""></stim_listB>",is being opposed by,,,,,,
null,"<div style=""font-size:60px;"">+</div>",,html-keyboard-response,46,284690,0.0-13.0-0.4,44723,List2B,black,man,,,,null,,,,,,,,,
null,"<img src=""stim_listB/hug3.gif""style=""height:400px;""></stim_listB>",,html-keyboard-response,47,286703,0.0-13.0-1.4,44723,List2B,black,man,,,,null,,,,,,,,,
null,is hugging,,html-keyboard-response,48,289358,0.0-13.0-2.4,44723,List2B,black,man,,,,null,,,,,,,,,
13255.4,,,survey-text,49,302628,0.0-13.0-3.4,44723,List2B,black,man,,,,,"{""Q0"":""Fred is hugging beth""}","<img src=""stim_listB/hug3.gif""style=""height:400px;""></stim_listB>",is hugging,,,,,,
null,"<div style=""font-size:60px;"">+</div>",,html-keyboard-response,50,303133,0.0-13.0-0.5,44723,List2B,black,man,,,,null,,,,,,,,,
null,"<img src=""stim_listB/copy7.gif""style=""height:400px;""></stim_listB>",,html-keyboard-response,51,305145,0.0-13.0-1.5,44723,List2B,black,man,,,,null,,,,,,,,,
null,is copying,,html-keyboard-response,52,307150,0.0-13.0-2.5,44723,List2B,black,man,,,,null,,,,,,,,,
14615.7,,,survey-text,53,321784,0.0-13.0-3.5,44723,List2B,black,man,,,,,"{""Q0"":""Jane is copying beth""}","<img src=""stim_listB/copy7.gif""style=""height:400px;""></stim_listB>",is copying,,,,,,
null,"<div style=""font-size:60px;"">+</div>",,html-keyboard-response,54,322289,0.0-13.0-0.6,44723,List2B,black,man,,,,null,,,,,,,,,
null,"<img src=""stim_listB/seduce5.gif""style=""height:400px;""></stim_listB>",,html-keyboard-response,55,324299,0.0-13.0-1.6,44723,List2B,black,man,,,,null,,,,,,,,,
null,is seducing,,html-keyboard-response,56,326305,0.0-13.0-2.6,44723,List2B,black,man,,,,null,,,,,,,,,
10735.5,,,survey-text,57,337056,0.0-13.0-3.6,44723,List2B,black,man,,,,,"{""Q0"":""Luke is seducing Mike""}","<img src=""stim_listB/seduce5.gif""style=""height:400px;""></stim_listB>",is seducing,,,,,,
null,"<div style=""font-size:60px;"">+</div>",,html-keyboard-response,58,337563,0.0-13.0-0.7,44723,List2B,black,man,,,,null,,,,,,,,,
null,"<img src=""stim_listB/greet8.gif""style=""height:400px;""></stim_listB>",,html-keyboard-response,59,339573,0.0-13.0-1.7,44723,List2B,black,man,,,,null,,,,,,,,,
null,is being greeted by,,html-keyboard-response,60,341599,0.0-13.0-2.7,44723,List2B,black,man,,,,null,,,,,,,,,
17936,,,survey-text,61,359547,0.0-13.0-3.7,44723,List2B,black,man,,,,,"{""Q0"":""Kate is being greeted by ruth""}","<img src=""stim_listB/greet8.gif""style=""height:400px;""></stim_listB>",is being greeted by,,,,,,
null,"<div style=""font-size:60px;"">+</div>",,html-keyboard-response,62,360053,0.0-13.0-0.8,44723,List2B,black,man,,,,null,,,,,,,,,
null,"<img src=""stim_listB/copy6.gif""style=""height:400px;""></stim_listB>",,html-keyboard-response,63,362069,0.0-13.0-1.8,44723,List2B,black,man,,,,null,,,,,,,,,
null,is being copied by,,html-keyboard-response,64,364358,0.0-13.0-2.8,44723,List2B,black,man,,,,null,,,,,,,,,
30021.1,,,survey-text,65,394390,0.0-13.0-3.8,44723,List2B,black,man,,,,,"{""Q0"":""Mike is being copied by dave""}","<img src=""stim_listB/copy6.gif""style=""height:400px;""></stim_listB>",is being copied by,,,,,,
null,"<div style=""font-size:60px;"">+</div>",,html-keyboard-response,66,394895,0.0-13.0-0.9,44723,List2B,black,man,,,,null,,,,,,,,,
null,"<img src=""stim_listB/copy2.gif""style=""height:400px;""></stim_listB>",,html-keyboard-response,67,396906,0.0-13.0-1.9,44723,List2B,black,man,,,,null,,,,,,,,,
null,is being copied by,,html-keyboard-response,68,398941,0.0-13.0-2.9,44723,List2B,black,man,,,,null,,,,,,,,,
14400.1,,,survey-text,69,413364,0.0-13.0-3.9,44723,List2B,black,man,,,,,"{""Q0"":""Luke is being copied by jane""}","<img src=""stim_listB/copy2.gif""style=""height:400px;""></stim_listB>",is being copied by,,,,,,
null,"<div style=""font-size:60px;"">+</div>",,html-keyboard-response,70,413870,0.0-13.0-0.10,44723,List2B,black,man,,,,null,,,,,,,,,
null,"<img src=""stim_listB/copy1.gif""style=""height:400px;""></stim_listB>",,html-keyboard-response,71,415885,0.0-13.0-1.10,44723,List2B,black,man,,,,null,,,,,,,,,
null,is copying,,html-keyboard-response,72,418359,0.0-13.0-2.10,44723,List2B,black,man,,,,null,,,,,,,,,
13836.8,,,survey-text,73,432208,0.0-13.0-3.10,44723,List2B,black,man,,,,,"{""Q0"":""Mike is copying jane""}","<img src=""stim_listB/copy1.gif""style=""height:400px;""></stim_listB>",is copying,,,,,,
null,"<div style=""font-size:60px;"">+</div>",,html-keyboard-response,74,432714,0.0-13.0-0.11,44723,List2B,black,man,,,,null,,,,,,,,,
null,"<img src=""stim_listB/greet7.gif""style=""height:400px;""></stim_listB>",,html-keyboard-response,75,434724,0.0-13.0-1.11,44723,List2B,black,man,,,,null,,,,,,,,,
null,is greeting,,html-keyboard-response,76,437343,0.0-13.0-2.11,44723,List2B,black,man,,,,null,,,,,,,,,
7944.1,,,survey-text,77,445302,0.0-13.0-3.11,44723,List2B,black,man,,,,,"{""Q0"":""Jane is greeting beth""}","<img src=""stim_listB/greet7.gif""style=""height:400px;""></stim_listB>",is greeting,,,,,,
null,"<div style=""font-size:60px;"">+</div>",,html-keyboard-response,78,445807,0.0-13.0-0.12,44723,List2B,black,man,,,,null,,,,,,,,,
null,"<img src=""stim_listB/look8.gif""style=""height:400px;""></stim_listB>",,html-keyboard-response,79,447819,0.0-13.0-1.12,44723,List2B,black,man,,,,null,,,,,,,,,
null,is being looked at by,,html-keyboard-response,80,449863,0.0-13.0-2.12,44723,List2B,black,man,,,,null,,,,,,,,,
15525.2,,,survey-text,81,465416,0.0-13.0-3.12,44723,List2B,black,man,,,,,"{""Q0"":""Kate is being looked at by beth""}","<img src=""stim_listB/look8.gif""style=""height:400px;""></stim_listB>",is being looked at by,,,,,,
null,"<div style=""font-size:60px;"">+</div>",,html-keyboard-response,82,465923,0.0-13.0-0.13,44723,List2B,black,man,,,,null,,,,,,,,,
null,"<img src=""stim_listB/oppose7.gif""style=""height:400px;""></stim_listB>",,html-keyboard-response,83,467933,0.0-13.0-1.13,44723,List2B,black,man,,,,null,,,,,,,,,
null,is opposing,,html-keyboard-response,84,469942,0.0-13.0-2.13,44723,List2B,black,man,,,,null,,,,,,,,,
32838.1,,,survey-text,85,502792,0.0-13.0-3.13,44723,List2B,black,man,,,,,"{""Q0"":""Jane is opposing kate""}","<img src=""stim_listB/oppose7.gif""style=""height:400px;""></stim_listB>",is opposing,,,,,,
null,"<div style=""font-size:60px;"">+</div>",,html-keyboard-response,86,503299,0.0-13.0-0.14,44723,List2B,black,man,,,,null,,,,,,,,,
null,"<img src=""stim_listB/copy8.gif""style=""height:400px;""></stim_listB>",,html-keyboard-response,87,505306,0.0-13.0-1.14,44723,List2B,black,man,,,,null,,,,,,,,,
null,is being copied by,,html-keyboard-response,88,507320,0.0-13.0-2.14,44723,List2B,black,man,,,,null,,,,,,,,,
17168.4,,,survey-text,89,524505,0.0-13.0-3.14,44723,List2B,black,man,,,,,"{""Q0"":""Luke is being copied by jane""}","<img src=""stim_listB/copy8.gif""style=""height:400px;""></stim_listB>",is being copied by,,,,,,
null,"<div style=""font-size:60px;"">+</div>",,html-keyboard-response,90,525012,0.0-13.0-0.15,44723,List2B,black,man,,,,null,,,,,,,,,
null,"<img src=""stim_listB/seduce3.gif""style=""height:400px;""></stim_listB>",,html-keyboard-response,91,527028,0.0-13.0-1.15,44723,List2B,black,man,,,,null,,,,,,,,,
null,is seducing,,html-keyboard-response,92,529324,0.0-13.0-2.15,44723,List2B,black,man,,,,null,,,,,,,,,
14338.5,,,survey-text,93,543676,0.0-13.0-3.15,44723,List2B,black,man,,,,,"{""Q0"":""Fred is seducing kate""}","<img src=""stim_listB/seduce3.gif""style=""height:400px;""></stim_listB>",is seducing,,,,,,
null,"<div style=""font-size:60px;"">+</div>",,html-keyboard-response,94,544184,0.0-13.0-0.16,44723,List2B,black,man,,,,null,,,,,,,,,
null,"<img src=""stim_listB/touch2.gif""style=""height:400px;""></stim_listB>",,html-keyboard-response,95,546191,0.0-13.0-1.16,44723,List2B,black,man,,,,null,,,,,,,,,
null,is being touched by,,html-keyboard-response,96,548202,0.0-13.0-2.16,44723,List2B,black,man,,,,null,,,,,,,,,
15141,,,survey-text,97,563363,0.0-13.0-3.16,44723,List2B,black,man,,,,,"{""Q0"":""Mike is being touched by luke""}","<img src=""stim_listB/touch2.gif""style=""height:400px;""></stim_listB>",is being touched by,,,,,,
null,"<div style=""font-size:60px;"">+</div>",,html-keyboard-response,98,563870,0.0-13.0-0.17,44723,List2B,black,man,,,,null,,,,,,,,,
null,"<img src=""stim_listB/kiss7.gif""style=""height:400px;""></stim_listB>",,html-keyboard-response,99,565879,0.0-13.0-1.17,44723,List2B,black,man,,,,null,,,,,,,,,
null,is kissing,,html-keyboard-response,100,568348,0.0-13.0-2.17,44723,List2B,black,man,,,,null,,,,,,,,,
8272.8,,,survey-text,101,576634,0.0-13.0-3.17,44723,List2B,black,man,,,,,"{""Q0"":""Jane is kissing beth""}","<img src=""stim_listB/kiss7.gif""style=""height:400px;""></stim_listB>",is kissing,,,,,,
null,"<div style=""font-size:60px;"">+</div>",,html-keyboard-response,102,577140,0.0-13.0-0.18,44723,List2B,black,man,,,,null,,,,,,,,,
null,"<img src=""stim_listB/touch1.gif""style=""height:400px;""></stim_listB>",,html-keyboard-response,103,579154,0.0-13.0-1.18,44723,List2B,black,man,,,,null,,,,,,,,,
null,is touching,,html-keyboard-response,104,581160,0.0-13.0-2.18,44723,List2B,black,man,,,,null,,,,,,,,,
15807,,,survey-text,105,596976,0.0-13.0-3.18,44723,List2B,black,man,,,,,"{""Q0"":""Dave is touching jane""}","<img src=""stim_listB/touch1.gif""style=""height:400px;""></stim_listB>",is touching,,,,,,
null,"<div style=""font-size:60px;"">+</div>",,html-keyboard-response,106,597481,0.0-13.0-0.19,44723,List2B,black,man,,,,null,,,,,,,,,
null,"<img src=""stim_listB/copy4.gif""style=""height:400px;""></stim_listB>",,html-keyboard-response,107,599490,0.0-13.0-1.19,44723,List2B,black,man,,,,null,,,,,,,,,
null,is being copied by,,html-keyboard-response,108,602358,0.0-13.0-2.19,44723,List2B,black,man,,,,null,,,,,,,,,
16784.3,,,survey-text,109,619157,0.0-13.0-3.19,44723,List2B,black,man,,,,,"{""Q0"":""Fred is being copied by kate""}","<img src=""stim_listB/copy4.gif""style=""height:400px;""></stim_listB>",is being copied by,,,,,,
6578.8,"<img src='img/portrait_matrix_list2.jpg' style='width:900px;height:500px;''></img><p>If you have memorised all the portraits and names and are ready to start, press Continue.</p><p><strong>Please note: Your memory of these faces will be tested 4 times during this experiment.</strong></p>",0,html-button-response,110,625743,0.0-14.0-0.0,44723,List2B,black,man,,,,,,,,,,,,,
5696.4,"<img src=""portrait/BM2.jpg""style=""height:400px;""></img>",5,html-button-response,111,632453,0.0-14.0-1.0,44723,List2B,black,man,,TRUE,5,,,,,,,,,,
null,CORRECT,,html-keyboard-response,112,633964,0.0-14.0-2.0-0.0,44723,List2B,black,man,,,,null,,,,,,,,,
6318.8,"<img src=""portrait/BM1.jpg""style=""height:400px;""></img>",4,html-button-response,113,640295,0.0-14.0-4.0,44723,List2B,black,man,,TRUE,4,,,,,,,,,,
null,CORRECT,,html-keyboard-response,114,641804,0.0-14.0-5.0-0.0,44723,List2B,black,man,,,,null,,,,,,,,,
4338.8,"<img src=""portrait/BW2.jpg""style=""height:400px;""></img>",2,html-button-response,115,646150,0.0-14.0-7.0,44723,List2B,black,man,,TRUE,2,,,,,,,,,,
null,CORRECT,,html-keyboard-response,116,647662,0.0-14.0-8.0-0.0,44723,List2B,black,man,,,,null,,,,,,,,,
5285,"<img src=""portrait/WW1.jpg""style=""height:400px;""></img>",1,html-button-response,117,652962,0.0-14.0-10.0,44723,List2B,black,man,,TRUE,1,,,,,,,,,,
null,CORRECT,,html-keyboard-response,118,654470,0.0-14.0-11.0-0.0,44723,List2B,black,man,,,,null,,,,,,,,,
6270.5,"<img src=""portrait/WM2.jpg""style=""height:400px;""></img>",7,html-button-response,119,660754,0.0-14.0-13.0,44723,List2B,black,man,,TRUE,7,,,,,,,,,,
null,CORRECT,,html-keyboard-response,120,662264,0.0-14.0-14.0-0.0,44723,List2B,black,man,,,,null,,,,,,,,,
7569,"<img src=""portrait/WM1.jpg""style=""height:400px;""></img>",6,html-button-response,121,669848,0.0-14.0-16.0,44723,List2B,black,man,,TRUE,6,,,,,,,,,,
null,CORRECT,,html-keyboard-response,122,671359,0.0-14.0-17.0-0.0,44723,List2B,black,man,,,,null,,,,,,,,,
7254.6,"<img src=""portrait/BW1.jpg""style=""height:400px;""></img>",0,html-button-response,123,678626,0.0-14.0-19.0,44723,List2B,black,man,,TRUE,0,,,,,,,,,,
null,CORRECT,,html-keyboard-response,124,680137,0.0-14.0-20.0-0.0,44723,List2B,black,man,,,,null,,,,,,,,,
7002.1,"<img src=""portrait/WW2.jpg""style=""height:400px;""></img>",3,html-button-response,125,687153,0.0-14.0-22.0,44723,List2B,black,man,,TRUE,3,,,,,,,,,,
null,CORRECT,,html-keyboard-response,126,688662,0.0-14.0-23.0-0.0,44723,List2B,black,man,,,,null,,,,,,,,,
4155.2,<p>You got 8 out of 8 right first time. Press Continue.</p>,0,html-button-response,127,692829,0.0-14.0-25.0,44723,List2B,black,man,,,,,,,,,,,,,
null,"<div style=""font-size:60px;"">+</div>",,html-keyboard-response,128,694345,0.0-15.0-0.0,44723,List2B,black,man,,,,null,,,,,,,,,
null,"<img src=""stim_listB/oppose1.gif""style=""height:400px;""></stim_listB>",,html-keyboard-response,129,696359,0.0-15.0-1.0,44723,List2B,black,man,,,,null,,,,,,,,,
null,is opposing,,html-keyboard-response,130,698366,0.0-15.0-2.0,44723,List2B,black,man,,,,null,,,,,,,,,
10068.4,,,survey-text,131,708449,0.0-15.0-3.0,44723,List2B,black,man,,,,,"{""Q0"":""Dave is opposing jane""}","<img src=""stim_listB/oppose1.gif""style=""height:400px;""></stim_listB>",is opposing,,,,,,
null,"<div style=""font-size:60px;"">+</div>",,html-keyboard-response,132,708956,0.0-15.0-0.1,44723,List2B,black,man,,,,null,,,,,,,,,
null,"<img src=""stim_listB/challenge5.gif""style=""height:400px;""></stim_listB>",,html-keyboard-response,133,710967,0.0-15.0-1.1,44723,List2B,black,man,,,,null,,,,,,,,,
null,is challenging,,html-keyboard-response,134,712975,0.0-15.0-2.1,44723,List2B,black,man,,,,null,,,,,,,,,
13754.6,,,survey-text,135,726739,0.0-15.0-3.1,44723,List2B,black,man,,,,,"{""Q0"":""Dave is challenging Fred""}","<img src=""stim_listB/challenge5.gif""style=""height:400px;""></stim_listB>",is challenging,,,,,,
null,"<div style=""font-size:60px;"">+</div>",,html-keyboard-response,136,727245,0.0-15.0-0.2,44723,List2B,black,man,,,,null,,,,,,,,,
null,"<img src=""stim_listB/shout5.gif""style=""height:400px;""></stim_listB>",,html-keyboard-response,137,729254,0.0-15.0-1.2,44723,List2B,black,man,,,,null,,,,,,,,,
null,is shouting at,,html-keyboard-response,138,731286,0.0-15.0-2.2,44723,List2B,black,man,,,,null,,,,,,,,,
18563.4,,,survey-text,139,749866,0.0-15.0-3.2,44723,List2B,black,man,,,,,"{""Q0"":""Fred is shouting at luke""}","<img src=""stim_listB/shout5.gif""style=""height:400px;""></stim_listB>",is shouting at,,,,,,
null,"<div style=""font-size:60px;"">+</div>",,html-keyboard-response,140,750374,0.0-15.0-0.3,44723,List2B,black,man,,,,null,,,,,,,,,
null,"<img src=""stim_listB/shout2.gif""style=""height:400px;""></stim_listB>",,html-keyboard-response,141,752382,0.0-15.0-1.3,44723,List2B,black,man,,,,null,,,,,,,,,
null,is being shouted at by,,html-keyboard-response,142,754388,0.0-15.0-2.3,44723,List2B,black,man,,,,null,,,,,,,,,
16462,,,survey-text,143,770875,0.0-15.0-3.3,44723,List2B,black,man,,,,,"{""Q0"":""Dave is being shouted at by Jane""}","<img src=""stim_listB/shout2.gif""style=""height:400px;""></stim_listB>",is being shouted at by,,,,,,
null,"<div style=""font-size:60px;"">+</div>",,html-keyboard-response,144,771384,0.0-15.0-0.4,44723,List2B,black,man,,,,null,,,,,,,,,
null,"<img src=""stim_listB/challenge8.gif""style=""height:400px;""></stim_listB>",,html-keyboard-response,145,773396,0.0-15.0-1.4,44723,List2B,black,man,,,,null,,,,,,,,,
null,is being challenged by,,html-keyboard-response,146,775405,0.0-15.0-2.4,44723,List2B,black,man,,,,null,,,,,,,,,
16792.7,,,survey-text,147,792218,0.0-15.0-3.4,44723,List2B,black,man,,,,,"{""Q0"":""Ruth is being challenged by kate""}","<img src=""stim_listB/challenge8.gif""style=""height:400px;""></stim_listB>",is being challenged by,,,,,,
null,"<div style=""font-size:60px;"">+</div>",,html-keyboard-response,148,792727,0.0-15.0-0.5,44723,List2B,black,man,,,,null,,,,,,,,,
null,"<img src=""stim_listB/seduce1.gif""style=""height:400px;""></stim_listB>",,html-keyboard-response,149,794749,0.0-15.0-1.5,44723,List2B,black,man,,,,null,,,,,,,,,
null,is seducing,,html-keyboard-response,150,796771,0.0-15.0-2.5,44723,List2B,black,man,,,,null,,,,,,,,,
11046.1,,,survey-text,151,807835,0.0-15.0-3.5,44723,List2B,black,man,,,,,"{""Q0"":""Jane is seducing luke""}","<img src=""stim_listB/seduce1.gif""style=""height:400px;""></stim_listB>",is seducing,,,,,,
null,"<div style=""font-size:60px;"">+</div>",,html-keyboard-response,152,808339,0.0-15.0-0.6,44723,List2B,black,man,,,,null,,,,,,,,,
null,"<img src=""stim_listB/shout8.gif""style=""height:400px;""></stim_listB>",,html-keyboard-response,153,810348,0.0-15.0-1.6,44723,List2B,black,man,,,,null,,,,,,,,,
null,is being shouted at by,,html-keyboard-response,154,813341,0.0-15.0-2.6,44723,List2B,black,man,,,,null,,,,,,,,,
14512,,,survey-text,155,827882,0.0-15.0-3.6,44723,List2B,black,man,,,,,"{""Q0"":""Jane is being shouted at by kate""}","<img src=""stim_listB/shout8.gif""style=""height:400px;""></stim_listB>",is being shouted at by,,,,,,
null,"<div style=""font-size:60px;"">+</div>",,html-keyboard-response,156,828388,0.0-15.0-0.7,44723,List2B,black,man,,,,null,,,,,,,,,
null,"<img src=""stim_listB/kiss6.gif""style=""height:400px;""></stim_listB>",,html-keyboard-response,157,830396,0.0-15.0-1.7,44723,List2B,black,man,,,,null,,,,,,,,,
null,is being kissed by,,html-keyboard-response,158,832403,0.0-15.0-2.7,44723,List2B,black,man,,,,null,,,,,,,,,
46945.5,,,survey-text,159,879362,0.0-15.0-3.7,44723,List2B,black,man,,,,,"{""Q0"":""Dave is being kissed by Mike""}","<img src=""stim_listB/kiss6.gif""style=""height:400px;""></stim_listB>",is being kissed by,,,,,,
null,"<div style=""font-size:60px;"">+</div>",,html-keyboard-response,160,879868,0.0-15.0-0.8,44723,List2B,black,man,,,,null,,,,,,,,,
null,"<img src=""stim_listB/kiss3.gif""style=""height:400px;""></stim_listB>",,html-keyboard-response,161,881882,0.0-15.0-1.8,44723,List2B,black,man,,,,null,,,,,,,,,
null,is kissing,,html-keyboard-response,162,883944,0.0-15.0-2.8,44723,List2B,black,man,,,,null,,,,,,,,,
14633.1,,,survey-text,163,898592,0.0-15.0-3.8,44723,List2B,black,man,,,,,"{""Q0"":""Fred is kissing beth""}","<img src=""stim_listB/kiss3.gif""style=""height:400px;""></stim_listB>",is kissing,,,,,,
null,"<div style=""font-size:60px;"">+</div>",,html-keyboard-response,164,899098,0.0-15.0-0.9,44723,List2B,black,man,,,,null,,,,,,,,,
null,"<img src=""stim_listB/hug8.gif""style=""height:400px;""></stim_listB>",,html-keyboard-response,165,901106,0.0-15.0-1.9,44723,List2B,black,man,,,,null,,,,,,,,,
null,is being hugged by,,html-keyboard-response,166,903112,0.0-15.0-2.9,44723,List2B,black,man,,,,null,,,,,,,,,
15087,,,survey-text,167,918224,0.0-15.0-3.9,44723,List2B,black,man,,,,,"{""Q0"":""Jane is being hugged by kate""}","<img src=""stim_listB/hug8.gif""style=""height:400px;""></stim_listB>",is being hugged by,,,,,,
null,"<div style=""font-size:60px;"">+</div>",,html-keyboard-response,168,918728,0.0-15.0-0.10,44723,List2B,black,man,,,,null,,,,,,,,,
null,"<img src=""stim_listB/greet1.gif""style=""height:400px;""></stim_listB>",,html-keyboard-response,169,920737,0.0-15.0-1.10,44723,List2B,black,man,,,,null,,,,,,,,,
null,is greeting,,html-keyboard-response,170,922746,0.0-15.0-2.10,44723,List2B,black,man,,,,null,,,,,,,,,
15458.9,,,survey-text,171,938227,0.0-15.0-3.10,44723,List2B,black,man,,,,,"{""Q0"":""Jane is greeting luke""}","<img src=""stim_listB/greet1.gif""style=""height:400px;""></stim_listB>",is greeting,,,,,,
null,"<div style=""font-size:60px;"">+</div>",,html-keyboard-response,172,938733,0.0-15.0-0.11,44723,List2B,black,man,,,,null,,,,,,,,,
null,"<img src=""stim_listB/hug7.gif""style=""height:400px;""></stim_listB>",,html-keyboard-response,173,940744,0.0-15.0-1.11,44723,List2B,black,man,,,,null,,,,,,,,,
null,is hugging,,html-keyboard-response,174,942751,0.0-15.0-2.11,44723,List2B,black,man,,,,null,,,,,,,,,
13529.4,,,survey-text,175,956300,0.0-15.0-3.11,44723,List2B,black,man,,,,,"{""Q0"":""Beth is hugging kate""}","<img src=""stim_listB/hug7.gif""style=""height:400px;""></stim_listB>",is hugging,,,,,,
null,"<div style=""font-size:60px;"">+</div>",,html-keyboard-response,176,956804,0.0-15.0-0.12,44723,List2B,black,man,,,,null,,,,,,,,,
null,"<img src=""stim_listB/challenge2.gif""style=""height:400px;""></stim_listB>",,html-keyboard-response,177,958815,0.0-15.0-1.12,44723,List2B,black,man,,,,null,,,,,,,,,
null,is being challenged by,,html-keyboard-response,178,961359,0.0-15.0-2.12,44723,List2B,black,man,,,,null,,,,,,,,,
13046.8,,,survey-text,179,974423,0.0-15.0-3.12,44723,List2B,black,man,,,,,"{""Q0"":""Luke is being challenged by Jane""}","<img src=""stim_listB/challenge2.gif""style=""height:400px;""></stim_listB>",is being challenged by,,,,,,
null,"<div style=""font-size:60px;"">+</div>",,html-keyboard-response,180,974928,0.0-15.0-0.13,44723,List2B,black,man,,,,null,,,,,,,,,
null,"<img src=""stim_listB/kiss5.gif""style=""height:400px;""></stim_listB>",,html-keyboard-response,181,976946,0.0-15.0-1.13,44723,List2B,black,man,,,,null,,,,,,,,,
null,is kissing,,html-keyboard-response,182,979358,0.0-15.0-2.13,44723,List2B,black,man,,,,null,,,,,,,,,
12710,,,survey-text,183,992078,0.0-15.0-3.13,44723,List2B,black,man,,,,,"{""Q0"":""Luke is kissing fred""}","<img src=""stim_listB/kiss5.gif""style=""height:400px;""></stim_listB>",is kissing,,,,,,
null,"<div style=""font-size:60px;"">+</div>",,html-keyboard-response,184,992583,0.0-15.0-0.14,44723,List2B,black,man,,,,null,,,,,,,,,
null,"<img src=""stim_listB/oppose6.gif""style=""height:400px;""></stim_listB>",,html-keyboard-response,185,994597,0.0-15.0-1.14,44723,List2B,black,man,,,,null,,,,,,,,,
null,is being opposed by,,html-keyboard-response,186,996604,0.0-15.0-2.14,44723,List2B,black,man,,,,null,,,,,,,,,
8031,,,survey-text,187,1004663,0.0-15.0-3.14,44723,List2B,black,man,,,,,"{""Q0"":""Fred is being opposed by luke""}","<img src=""stim_listB/oppose6.gif""style=""height:400px;""></stim_listB>",is being opposed by,,,,,,
null,"<div style=""font-size:60px;"">+</div>",,html-keyboard-response,188,1005168,0.0-15.0-0.15,44723,List2B,black,man,,,,null,,,,,,,,,
null,"<img src=""stim_listB/look3.gif""style=""height:400px;""></stim_listB>",,html-keyboard-response,189,1007183,0.0-15.0-1.15,44723,List2B,black,man,,,,null,,,,,,,,,
null,is looking at,,html-keyboard-response,190,1009358,0.0-15.0-2.15,44723,List2B,black,man,,,,null,,,,,,,,,
7829.7,,,survey-text,191,1017197,0.0-15.0-3.15,44723,List2B,black,man,,,,,"{""Q0"":""Fred is looking at beth""}","<img src=""stim_listB/look3.gif""style=""height:400px;""></stim_listB>",is looking at,,,,,,
null,"<div style=""font-size:60px;"">+</div>",,html-keyboard-response,192,1017704,0.0-15.0-0.16,44723,List2B,black,man,,,,null,,,,,,,,,
null,"<img src=""stim_listB/oppose5.gif""style=""height:400px;""></stim_listB>",,html-keyboard-response,193,1019720,0.0-15.0-1.16,44723,List2B,black,man,,,,null,,,,,,,,,
null,is opposing,,html-keyboard-response,194,1022359,0.0-15.0-2.16,44723,List2B,black,man,,,,null,,,,,,,,,
9372.9,,,survey-text,195,1031746,0.0-15.0-3.16,44723,List2B,black,man,,,,,"{""Q0"":""Mike is opposing dave""}","<img src=""stim_listB/oppose5.gif""style=""height:400px;""></stim_listB>",is opposing,,,,,,
null,"<div style=""font-size:60px;"">+</div>",,html-keyboard-response,196,1032251,0.0-15.0-0.17,44723,List2B,black,man,,,,null,,,,,,,,,
null,"<img src=""stim_listB/greet6.gif""style=""height:400px;""></stim_listB>",,html-keyboard-response,197,1034266,0.0-15.0-1.17,44723,List2B,black,man,,,,null,,,,,,,,,
null,is being greeted by,,html-keyboard-response,198,1036358,0.0-15.0-2.17,44723,List2B,black,man,,,,null,,,,,,,,,
9424.2,,,survey-text,199,1045794,0.0-15.0-3.17,44723,List2B,black,man,,,,,"{""Q0"":""Luke is being greeted by mike""}","<img src=""stim_listB/greet6.gif""style=""height:400px;""></stim_listB>",is being greeted by,,,,,,
null,"<div style=""font-size:60px;"">+</div>",,html-keyboard-response,200,1046302,0.0-15.0-0.18,44723,List2B,black,man,,,,null,,,,,,,,,
null,"<img src=""stim_listB/look1.gif""style=""height:400px;""></stim_listB>",,html-keyboard-response,201,1048314,0.0-15.0-1.18,44723,List2B,black,man,,,,null,,,,,,,,,
null,is looking at,,html-keyboard-response,202,1050346,0.0-15.0-2.18,44723,List2B,black,man,,,,null,,,,,,,,,
13332.7,,,survey-text,203,1063691,0.0-15.0-3.18,44723,List2B,black,man,,,,,"{""Q0"":""Ruth is being looked at by mile""}","<img src=""stim_listB/look1.gif""style=""height:400px;""></stim_listB>",is looking at,,,,,,
null,"<div style=""font-size:60px;"">+</div>",,html-keyboard-response,204,1064196,0.0-15.0-0.19,44723,List2B,black,man,,,,null,,,,,,,,,
null,"<img src=""stim_listB/challenge4.gif""style=""height:400px;""></stim_listB>",,html-keyboard-response,205,1066205,0.0-15.0-1.19,44723,List2B,black,man,,,,null,,,,,,,,,
null,is being challenged by,,html-keyboard-response,206,1068238,0.0-15.0-2.19,44723,List2B,black,man,,,,null,,,,,,,,,
10511.8,,,survey-text,207,1078768,0.0-15.0-3.19,44723,List2B,black,man,,,,,"{""Q0"":""Kate is being challenged by fred""}","<img src=""stim_listB/challenge4.gif""style=""height:400px;""></stim_listB>",is being challenged by,,,,,,
4871.2,"<img src='img/portrait_matrix_list2.jpg' style='width:900px;height:500px;''></img><p>If you have memorised all the portraits and names and are ready to start, press Continue.</p><p><strong>Please note: Your memory of these faces will be tested 4 times during this experiment.</strong></p>",0,html-button-response,208,1083645,0.0-16.0-0.0,44723,List2B,black,man,,,,,,,,,,,,,
5790.5,"<img src=""portrait/WM1.jpg""style=""height:400px;""></img>",6,html-button-response,209,1090450,0.0-16.0-1.0,44723,List2B,black,man,,TRUE,6,,,,,,,,,,
null,CORRECT,,html-keyboard-response,210,1091964,0.0-16.0-2.0-0.0,44723,List2B,black,man,,,,null,,,,,,,,,
3945.9,"<img src=""portrait/WW2.jpg""style=""height:400px;""></img>",3,html-button-response,211,1095923,0.0-16.0-4.0,44723,List2B,black,man,,TRUE,3,,,,,,,,,,
null,CORRECT,,html-keyboard-response,212,1097671,0.0-16.0-5.0-0.0,44723,List2B,black,man,,,,null,,,,,,,,,
5623.6,"<img src=""portrait/BM2.jpg""style=""height:400px;""></img>",5,html-button-response,213,1103301,0.0-16.0-7.0,44723,List2B,black,man,,TRUE,5,,,,,,,,,,
null,CORRECT,,html-keyboard-response,214,1104832,0.0-16.0-8.0-0.0,44723,List2B,black,man,,,,null,,,,,,,,,
7542.6,"<img src=""portrait/WW1.jpg""style=""height:400px;""></img>",1,html-button-response,215,1112382,0.0-16.0-10.0,44723,List2B,black,man,,TRUE,1,,,,,,,,,,
null,CORRECT,,html-keyboard-response,216,1113894,0.0-16.0-11.0-0.0,44723,List2B,black,man,,,,null,,,,,,,,,
5878.1,"<img src=""portrait/BW2.jpg""style=""height:400px;""></img>",2,html-button-response,217,1119786,0.0-16.0-13.0,44723,List2B,black,man,,TRUE,2,,,,,,,,,,
null,CORRECT,,html-keyboard-response,218,1121297,0.0-16.0-14.0-0.0,44723,List2B,black,man,,,,null,,,,,,,,,
4283.4,"<img src=""portrait/BW1.jpg""style=""height:400px;""></img>",0,html-button-response,219,1125593,0.0-16.0-16.0,44723,List2B,black,man,,TRUE,0,,,,,,,,,,
null,CORRECT,,html-keyboard-response,220,1127103,0.0-16.0-17.0-0.0,44723,List2B,black,man,,,,null,,,,,,,,,
6208.3,"<img src=""portrait/WM2.jpg""style=""height:400px;""></img>",7,html-button-response,221,1133322,0.0-16.0-19.0,44723,List2B,black,man,,TRUE,7,,,,,,,,,,
null,CORRECT,,html-keyboard-response,222,1134833,0.0-16.0-20.0-0.0,44723,List2B,black,man,,,,null,,,,,,,,,
3965.7,"<img src=""portrait/BM1.jpg""style=""height:400px;""></img>",4,html-button-response,223,1138810,0.0-16.0-22.0,44723,List2B,black,man,,TRUE,4,,,,,,,,,,
null,CORRECT,,html-keyboard-response,224,1140319,0.0-16.0-23.0-0.0,44723,List2B,black,man,,,,null,,,,,,,,,
26383.3,<p>You got 8 out of 8 right first time. Press Continue.</p>,0,html-button-response,225,1166716,0.0-16.0-25.0,44723,List2B,black,man,,,,,,,,,,,,,
null,"<div style=""font-size:60px;"">+</div>",,html-keyboard-response,226,1168230,0.0-17.0-0.0,44723,List2B,black,man,,,,null,,,,,,,,,
null,"<img src=""stim_listB/oppose4.gif""style=""height:400px;""></stim_listB>",,html-keyboard-response,227,1170240,0.0-17.0-1.0,44723,List2B,black,man,,,,null,,,,,,,,,
null,is being opposed by,,html-keyboard-response,228,1172246,0.0-17.0-2.0,44723,List2B,black,man,,,,null,,,,,,,,,
16090.1,,,survey-text,229,1188354,0.0-17.0-3.0,44723,List2B,black,man,,,,,"{""Q0"":""Fred is being opposed by Jane""}","<img src=""stim_listB/oppose4.gif""style=""height:400px;""></stim_listB>",is being opposed by,,,,,,
null,"<div style=""font-size:60px;"">+</div>",,html-keyboard-response,230,1188860,0.0-17.0-0.1,44723,List2B,black,man,,,,null,,,,,,,,,
null,"<img src=""stim_listB/copy5.gif""style=""height:400px;""></stim_listB>",,html-keyboard-response,231,1190878,0.0-17.0-1.1,44723,List2B,black,man,,,,null,,,,,,,,,
null,is copying,,html-keyboard-response,232,1192886,0.0-17.0-2.1,44723,List2B,black,man,,,,null,,,,,,,,,
6220.9,,,survey-text,233,1199135,0.0-17.0-3.1,44723,List2B,black,man,,,,,"{""Q0"":""Dave is copying fred""}","<img src=""stim_listB/copy5.gif""style=""height:400px;""></stim_listB>",is copying,,,,,,
null,"<div style=""font-size:60px;"">+</div>",,html-keyboard-response,234,1199639,0.0-17.0-0.2,44723,List2B,black,man,,,,null,,,,,,,,,
null,"<img src=""stim_listB/shout1.gif""style=""height:400px;""></stim_listB>",,html-keyboard-response,235,1201648,0.0-17.0-1.2,44723,List2B,black,man,,,,null,,,,,,,,,
null,is shouting at,,html-keyboard-response,236,1204358,0.0-17.0-2.2,44723,List2B,black,man,,,,null,,,,,,,,,
7822.1,,,survey-text,237,1212192,0.0-17.0-3.2,44723,List2B,black,man,,,,,"{""Q0"":""Luke is shouting at ruth""}","<img src=""stim_listB/shout1.gif""style=""height:400px;""></stim_listB>",is shouting at,,,,,,
null,"<div style=""font-size:60px;"">+</div>",,html-keyboard-response,238,1212699,0.0-17.0-0.3,44723,List2B,black,man,,,,null,,,,,,,,,
null,"<img src=""stim_listB/greet4.gif""style=""height:400px;""></stim_listB>",,html-keyboard-response,239,1214708,0.0-17.0-1.3,44723,List2B,black,man,,,,null,,,,,,,,,
null,is being greeted by,,html-keyboard-response,240,1217342,0.0-17.0-2.3,44723,List2B,black,man,,,,null,,,,,,,,,
9815.2,,,survey-text,241,1227169,0.0-17.0-3.3,44723,List2B,black,man,,,,,"{""Q0"":""Fred is being greeted by kate""}","<img src=""stim_listB/greet4.gif""style=""height:400px;""></stim_listB>",is being greeted by,,,,,,
null,"<div style=""font-size:60px;"">+</div>",,html-keyboard-response,242,1227676,0.0-17.0-0.4,44723,List2B,black,man,,,,null,,,,,,,,,
null,"<img src=""stim_listB/touch8.gif""style=""height:400px;""></stim_listB>",,html-keyboard-response,243,1229693,0.0-17.0-1.4,44723,List2B,black,man,,,,null,,,,,,,,,
null,is being touched by,,html-keyboard-response,244,1231722,0.0-17.0-2.4,44723,List2B,black,man,,,,null,,,,,,,,,
11942.4,,,survey-text,245,1243678,0.0-17.0-3.4,44723,List2B,black,man,,,,,"{""Q0"":""Ruth is being touched by kate""}","<img src=""stim_listB/touch8.gif""style=""height:400px;""></stim_listB>",is being touched by,,,,,,
null,"<div style=""font-size:60px;"">+</div>",,html-keyboard-response,246,1244184,0.0-17.0-0.5,44723,List2B,black,man,,,,null,,,,,,,,,
null,"<img src=""stim_listB/oppose3.gif""style=""height:400px;""></stim_listB>",,html-keyboard-response,247,1246194,0.0-17.0-1.5,44723,List2B,black,man,,,,null,,,,,,,,,
null,is opposing,,html-keyboard-response,248,1248358,0.0-17.0-2.5,44723,List2B,black,man,,,,null,,,,,,,,,
8608,,,survey-text,249,1256980,0.0-17.0-3.5,44723,List2B,black,man,,,,,"{""Q0"":""Mike is opposing kate""}","<img src=""stim_listB/oppose3.gif""style=""height:400px;""></stim_listB>",is opposing,,,,,,
null,"<div style=""font-size:60px;"">+</div>",,html-keyboard-response,250,1257487,0.0-17.0-0.6,44723,List2B,black,man,,,,null,,,,,,,,,
null,"<img src=""stim_listB/challenge3.gif""style=""height:400px;""></stim_listB>",,html-keyboard-response,251,1259498,0.0-17.0-1.6,44723,List2B,black,man,,,,null,,,,,,,,,
null,is challenging,,html-keyboard-response,252,1262328,0.0-17.0-2.6,44723,List2B,black,man,,,,null,,,,,,,,,
9666.9,,,survey-text,253,1272007,0.0-17.0-3.6,44723,List2B,black,man,,,,,"{""Q0"":""Beth is challenging Mike""}","<img src=""stim_listB/challenge3.gif""style=""height:400px;""></stim_listB>",is challenging,,,,,,
null,"<div style=""font-size:60px;"">+</div>",,html-keyboard-response,254,1272512,0.0-17.0-0.7,44723,List2B,black,man,,,,null,,,,,,,,,
null,"<img src=""stim_listB/shout3.gif""style=""height:400px;""></stim_listB>",,html-keyboard-response,255,1274532,0.0-17.0-1.7,44723,List2B,black,man,,,,null,,,,,,,,,
null,is shouting at,,html-keyboard-response,256,1276542,0.0-17.0-2.7,44723,List2B,black,man,,,,null,,,,,,,,,
7892.7,,,survey-text,257,1284462,0.0-17.0-3.7,44723,List2B,black,man,,,,,"{""Q0"":""Fred is shouting at beth""}","<img src=""stim_listB/shout3.gif""style=""height:400px;""></stim_listB>",is shouting at,,,,,,
null,"<div style=""font-size:60px;"">+</div>",,html-keyboard-response,258,1284967,0.0-17.0-0.8,44723,List2B,black,man,,,,null,,,,,,,,,
null,"<img src=""stim_listB/greet5.gif""style=""height:400px;""></stim_listB>",,html-keyboard-response,259,1286976,0.0-17.0-1.8,44723,List2B,black,man,,,,null,,,,,,,,,
null,is greeting,,html-keyboard-response,260,1288982,0.0-17.0-2.8,44723,List2B,black,man,,,,null,,,,,,,,,
19437.4,,,survey-text,261,1308435,0.0-17.0-3.8,44723,List2B,black,man,,,,,"{""Q0"":""Fred is being greeted by dave""}","<img src=""stim_listB/greet5.gif""style=""height:400px;""></stim_listB>",is greeting,,,,,,
null,"<div style=""font-size:60px;"">+</div>",,html-keyboard-response,262,1308941,0.0-17.0-0.9,44723,List2B,black,man,,,,null,,,,,,,,,
null,"<img src=""stim_listB/seduce6.gif""style=""height:400px;""></stim_listB>",,html-keyboard-response,263,1310959,0.0-17.0-1.9,44723,List2B,black,man,,,,null,,,,,,,,,
null,is being seduced by,,html-keyboard-response,264,1312968,0.0-17.0-2.9,44723,List2B,black,man,,,,null,,,,,,,,,
41742,,,survey-text,265,1354729,0.0-17.0-3.9,44723,List2B,black,man,,,,,"{""Q0"":""Fred is being seduced by dave""}","<img src=""stim_listB/seduce6.gif""style=""height:400px;""></stim_listB>",is being seduced by,,,,,,
null,"<div style=""font-size:60px;"">+</div>",,html-keyboard-response,266,1355235,0.0-17.0-0.10,44723,List2B,black,man,,,,null,,,,,,,,,
null,"<img src=""stim_listB/kiss1.gif""style=""height:400px;""></stim_listB>",,html-keyboard-response,267,1357248,0.0-17.0-1.10,44723,List2B,black,man,,,,null,,,,,,,,,
null,is kissing,,html-keyboard-response,268,1359255,0.0-17.0-2.10,44723,List2B,black,man,,,,null,,,,,,,,,
11420.2,,,survey-text,269,1370697,0.0-17.0-3.10,44723,List2B,black,man,,,,,"{""Q0"":""Luke is kissing Ruth""}","<img src=""stim_listB/kiss1.gif""style=""height:400px;""></stim_listB>",is kissing,,,,,,
null,"<div style=""font-size:60px;"">+</div>",,html-keyboard-response,270,1371203,0.0-17.0-0.11,44723,List2B,black,man,,,,null,,,,,,,,,
null,"<img src=""stim_listB/kiss8.gif""style=""height:400px;""></stim_listB>",,html-keyboard-response,271,1373219,0.0-17.0-1.11,44723,List2B,black,man,,,,null,,,,,,,,,
null,is being kissed by,,html-keyboard-response,272,1375321,0.0-17.0-2.11,44723,List2B,black,man,,,,null,,,,,,,,,
19580.7,,,survey-text,273,1394912,0.0-17.0-3.11,44723,List2B,black,man,,,,,"{""Q0"":""Kate is being kissed by jane""}","<img src=""stim_listB/kiss8.gif""style=""height:400px;""></stim_listB>",is being kissed by,,,,,,
null,"<div style=""font-size:60px;"">+</div>",,html-keyboard-response,274,1395418,0.0-17.0-0.12,44723,List2B,black,man,,,,null,,,,,,,,,
null,"<img src=""stim_listB/challenge6.gif""style=""height:400px;""></stim_listB>",,html-keyboard-response,275,1397435,0.0-17.0-1.12,44723,List2B,black,man,,,,null,,,,,,,,,
null,is being challenged by,,html-keyboard-response,276,1400358,0.0-17.0-2.12,44723,List2B,black,man,,,,null,,,,,,,,,
26566.2,,,survey-text,277,1426936,0.0-17.0-3.12,44723,List2B,black,man,,,,,"{""Q0"":""Luke is being challenged by mike""}","<img src=""stim_listB/challenge6.gif""style=""height:400px;""></stim_listB>",is being challenged by,,,,,,
null,"<div style=""font-size:60px;"">+</div>",,html-keyboard-response,278,1427443,0.0-17.0-0.13,44723,List2B,black,man,,,,null,,,,,,,,,
null,"<img src=""stim_listB/look2.gif""style=""height:400px;""></stim_listB>",,html-keyboard-response,279,1429460,0.0-17.0-1.13,44723,List2B,black,man,,,,null,,,,,,,,,
null,is being looked at by,,html-keyboard-response,280,1432358,0.0-17.0-2.13,44723,List2B,black,man,,,,null,,,,,,,,,
12661.7,,,survey-text,281,1445041,0.0-17.0-3.13,44723,List2B,black,man,,,,,"{""Q0"":""Dave is being looked at by Jane""}","<img src=""stim_listB/look2.gif""style=""height:400px;""></stim_listB>",is being looked at by,,,,,,
null,"<div style=""font-size:60px;"">+</div>",,html-keyboard-response,282,1445547,0.0-17.0-0.14,44723,List2B,black,man,,,,null,,,,,,,,,
null,"<img src=""stim_listB/kiss4.gif""style=""height:400px;""></stim_listB>",,html-keyboard-response,283,1447563,0.0-17.0-1.14,44723,List2B,black,man,,,,null,,,,,,,,,
null,is being kissed by,,html-keyboard-response,284,1450358,0.0-17.0-2.14,44723,List2B,black,man,,,,null,,,,,,,,,
7485.2,,,survey-text,285,1457856,0.0-17.0-3.14,44723,List2B,black,man,,,,,"{""Q0"":""Kate is being kissed by mike""}","<img src=""stim_listB/kiss4.gif""style=""height:400px;""></stim_listB>",is being kissed by,,,,,,
null,"<div style=""font-size:60px;"">+</div>",,html-keyboard-response,286,1458361,0.0-17.0-0.15,44723,List2B,black,man,,,,null,,,,,,,,,
null,"<img src=""stim_listB/shout4.gif""style=""height:400px;""></stim_listB>",,html-keyboard-response,287,1460369,0.0-17.0-1.15,44723,List2B,black,man,,,,null,,,,,,,,,
null,is being shouted at by,,html-keyboard-response,288,1462375,0.0-17.0-2.15,44723,List2B,black,man,,,,null,,,,,,,,,
15834.4,,,survey-text,289,1478230,0.0-17.0-3.15,44723,List2B,black,man,,,,,"{""Q0"":""Mike is being shouted at by Kate""}","<img src=""stim_listB/shout4.gif""style=""height:400px;""></stim_listB>",is being shouted at by,,,,,,
null,"<div style=""font-size:60px;"">+</div>",,html-keyboard-response,290,1478736,0.0-17.0-0.16,44723,List2B,black,man,,,,null,,,,,,,,,
null,"<img src=""stim_listB/greet2.gif""style=""height:400px;""></stim_listB>",,html-keyboard-response,291,1480753,0.0-17.0-1.16,44723,List2B,black,man,,,,null,,,,,,,,,
null,is being greeted by,,html-keyboard-response,292,1482798,0.0-17.0-2.16,44723,List2B,black,man,,,,null,,,,,,,,,
15355.2,,,survey-text,293,1498163,0.0-17.0-3.16,44723,List2B,black,man,,,,,"{""Q0"":""Luke is being greeted by jane""}","<img src=""stim_listB/greet2.gif""style=""height:400px;""></stim_listB>",is being greeted by,,,,,,
null,"<div style=""font-size:60px;"">+</div>",,html-keyboard-response,294,1498670,0.0-17.0-0.17,44723,List2B,black,man,,,,null,,,,,,,,,
null,"<img src=""stim_listB/greet3.gif""style=""height:400px;""></stim_listB>",,html-keyboard-response,295,1500681,0.0-17.0-1.17,44723,List2B,black,man,,,,null,,,,,,,,,
null,is greeting,,html-keyboard-response,296,1502690,0.0-17.0-2.17,44723,List2B,black,man,,,,null,,,,,,,,,
10195,,,survey-text,297,1512907,0.0-17.0-3.17,44723,List2B,black,man,,,,,"{""Q0"":""Luke is greeting jane""}","<img src=""stim_listB/greet3.gif""style=""height:400px;""></stim_listB>",is greeting,,,,,,
null,"<div style=""font-size:60px;"">+</div>",,html-keyboard-response,298,1513412,0.0-17.0-0.18,44723,List2B,black,man,,,,null,,,,,,,,,
null,"<img src=""stim_listB/look4.gif""style=""height:400px;""></stim_listB>",,html-keyboard-response,299,1515425,0.0-17.0-1.18,44723,List2B,black,man,,,,null,,,,,,,,,
null,is being looked at by,,html-keyboard-response,300,1517467,0.0-17.0-2.18,44723,List2B,black,man,,,,null,,,,,,,,,
11166.1,,,survey-text,301,1528647,0.0-17.0-3.18,44723,List2B,black,man,,,,,"{""Q0"":""Kate is being looked at by Mike""}","<img src=""stim_listB/look4.gif""style=""height:400px;""></stim_listB>",is being looked at by,,,,,,
null,"<div style=""font-size:60px;"">+</div>",,html-keyboard-response,302,1529152,0.0-17.0-0.19,44723,List2B,black,man,,,,null,,,,,,,,,
null,"<img src=""stim_listB/copy3.gif""style=""height:400px;""></stim_listB>",,html-keyboard-response,303,1531161,0.0-17.0-1.19,44723,List2B,black,man,,,,null,,,,,,,,,
null,is copying,,html-keyboard-response,304,1533339,0.0-17.0-2.19,44723,List2B,black,man,,,,null,,,,,,,,,
9711.4,,,survey-text,305,1543062,0.0-17.0-3.19,44723,List2B,black,man,,,,,"{""Q0"":""Beth is copying mike""}","<img src=""stim_listB/copy3.gif""style=""height:400px;""></stim_listB>",is copying,,,,,,
2378,"<img src='img/portrait_matrix_list2.jpg' style='width:900px;height:500px;''></img><p>If you have memorised all the portraits and names and are ready to start, press Continue.</p><p><strong>Please note: Your memory of these faces will be tested 4 times during this experiment.</strong></p>",0,html-button-response,306,1545445,0.0-18.0-0.0,44723,List2B,black,man,,,,,,,,,,,,,
6568.3,"<img src=""portrait/BM2.jpg""style=""height:400px;""></img>",5,html-button-response,307,1553024,0.0-18.0-1.0,44723,List2B,black,man,,TRUE,5,,,,,,,,,,
null,CORRECT,,html-keyboard-response,308,1554540,0.0-18.0-2.0-0.0,44723,List2B,black,man,,,,null,,,,,,,,,
2079.3,"<img src=""portrait/WM2.jpg""style=""height:400px;""></img>",7,html-button-response,309,1556633,0.0-18.0-4.0,44723,List2B,black,man,,TRUE,7,,,,,,,,,,
null,CORRECT,,html-keyboard-response,310,1558146,0.0-18.0-5.0-0.0,44723,List2B,black,man,,,,null,,,,,,,,,
6333.7,"<img src=""portrait/BW1.jpg""style=""height:400px;""></img>",0,html-button-response,311,1564494,0.0-18.0-7.0,44723,List2B,black,man,,TRUE,0,,,,,,,,,,
null,CORRECT,,html-keyboard-response,312,1566003,0.0-18.0-8.0-0.0,44723,List2B,black,man,,,,null,,,,,,,,,
6284,"<img src=""portrait/WW1.jpg""style=""height:400px;""></img>",1,html-button-response,313,1572297,0.0-18.0-10.0,44723,List2B,black,man,,TRUE,1,,,,,,,,,,
null,CORRECT,,html-keyboard-response,314,1573808,0.0-18.0-11.0-0.0,44723,List2B,black,man,,,,null,,,,,,,,,
6456.1,"<img src=""portrait/WW2.jpg""style=""height:400px;""></img>",3,html-button-response,315,1580279,0.0-18.0-13.0,44723,List2B,black,man,,TRUE,3,,,,,,,,,,
null,CORRECT,,html-keyboard-response,316,1581785,0.0-18.0-14.0-0.0,44723,List2B,black,man,,,,null,,,,,,,,,
4933.6,"<img src=""portrait/BM1.jpg""style=""height:400px;""></img>",4,html-button-response,317,1586731,0.0-18.0-16.0,44723,List2B,black,man,,TRUE,4,,,,,,,,,,
null,CORRECT,,html-keyboard-response,318,1588243,0.0-18.0-17.0-0.0,44723,List2B,black,man,,,,null,,,,,,,,,
5385.3,"<img src=""portrait/BW2.jpg""style=""height:400px;""></img>",2,html-button-response,319,1593641,0.0-18.0-19.0,44723,List2B,black,man,,TRUE,2,,,,,,,,,,
null,CORRECT,,html-keyboard-response,320,1595152,0.0-18.0-20.0-0.0,44723,List2B,black,man,,,,null,,,,,,,,,
6821.3,"<img src=""portrait/WM1.jpg""style=""height:400px;""></img>",6,html-button-response,321,1601987,0.0-18.0-22.0,44723,List2B,black,man,,TRUE,6,,,,,,,,,,
null,CORRECT,,html-keyboard-response,322,1603495,0.0-18.0-23.0-0.0,44723,List2B,black,man,,,,null,,,,,,,,,
1888.5,<p>You got 8 out of 8 right first time. Press Continue.</p>,0,html-button-response,323,1605396,0.0-18.0-25.0,44723,List2B,black,man,,,,,,,,,,,,,
null,"<div style=""font-size:60px;"">+</div>",,html-keyboard-response,324,1606912,0.0-19.0-0.0,44723,List2B,black,man,,,,null,,,,,,,,,
null,"<img src=""stim_listB/hug6.gif""style=""height:400px;""></stim_listB>",,html-keyboard-response,325,1608923,0.0-19.0-1.0,44723,List2B,black,man,,,,null,,,,,,,,,
null,is being hugged by,,html-keyboard-response,326,1611355,0.0-19.0-2.0,44723,List2B,black,man,,,,null,,,,,,,,,
35575.5,,,survey-text,327,1646941,0.0-19.0-3.0,44723,List2B,black,man,,,,,"{""Q0"":""Dave is being hugged by Mike""}","<img src=""stim_listB/hug6.gif""style=""height:400px;""></stim_listB>",is being hugged by,,,,,,
null,"<div style=""font-size:60px;"">+</div>",,html-keyboard-response,328,1647446,0.0-19.0-0.1,44723,List2B,black,man,,,,null,,,,,,,,,
null,"<img src=""stim_listB/touch4.gif""style=""height:400px;""></stim_listB>",,html-keyboard-response,329,1649455,0.0-19.0-1.1,44723,List2B,black,man,,,,null,,,,,,,,,
null,is being touched by,,html-keyboard-response,330,1651460,0.0-19.0-2.1,44723,List2B,black,man,,,,null,,,,,,,,,
13760.3,,,survey-text,331,1665232,0.0-19.0-3.1,44723,List2B,black,man,,,,,"{""Q0"":""Fred is being touched by Beth""}","<img src=""stim_listB/touch4.gif""style=""height:400px;""></stim_listB>",is being touched by,,,,,,
null,"<div style=""font-size:60px;"">+</div>",,html-keyboard-response,332,1665739,0.0-19.0-0.2,44723,List2B,black,man,,,,null,,,,,,,,,
null,"<img src=""stim_listB/kiss2.gif""style=""height:400px;""></stim_listB>",,html-keyboard-response,333,1667757,0.0-19.0-1.2,44723,List2B,black,man,,,,null,,,,,,,,,
null,is being kissed by,,html-keyboard-response,334,1669764,0.0-19.0-2.2,44723,List2B,black,man,,,,null,,,,,,,,,
10150.1,,,survey-text,335,1679935,0.0-19.0-3.2,44723,List2B,black,man,,,,,"{""Q0"":""Dave is being kissed by jane""}","<img src=""stim_listB/kiss2.gif""style=""height:400px;""></stim_listB>",is being kissed by,,,,,,
null,"<div style=""font-size:60px;"">+</div>",,html-keyboard-response,336,1680441,0.0-19.0-0.3,44723,List2B,black,man,,,,null,,,,,,,,,
null,"<img src=""stim_listB/hug1.gif""style=""height:400px;""></stim_listB>",,html-keyboard-response,337,1682449,0.0-19.0-1.3,44723,List2B,black,man,,,,null,,,,,,,,,
null,is hugging,,html-keyboard-response,338,1685358,0.0-19.0-2.3,44723,List2B,black,man,,,,null,,,,,,,,,
11881.4,,,survey-text,339,1697253,0.0-19.0-3.3,44723,List2B,black,man,,,,,"{""Q0"":""Luke is hugging Ruth""}","<img src=""stim_listB/hug1.gif""style=""height:400px;""></stim_listB>",is hugging,,,,,,
null,"<div style=""font-size:60px;"">+</div>",,html-keyboard-response,340,1697759,0.0-19.0-0.4,44723,List2B,black,man,,,,null,,,,,,,,,
null,"<img src=""stim_listB/challenge1.gif""style=""height:400px;""></stim_listB>",,html-keyboard-response,341,1699771,0.0-19.0-1.4,44723,List2B,black,man,,,,null,,,,,,,,,
null,is challenging,,html-keyboard-response,342,1701778,0.0-19.0-2.4,44723,List2B,black,man,,,,null,,,,,,,,,
14121,,,survey-text,343,1715926,0.0-19.0-3.4,44723,List2B,black,man,,,,,"{""Q0"":""Dave is being challenged by jane""}","<img src=""stim_listB/challenge1.gif""style=""height:400px;""></stim_listB>",is challenging,,,,,,
null,"<div style=""font-size:60px;"">+</div>",,html-keyboard-response,344,1716431,0.0-19.0-0.5,44723,List2B,black,man,,,,null,,,,,,,,,
null,"<img src=""stim_listB/shout6.gif""style=""height:400px;""></stim_listB>",,html-keyboard-response,345,1718441,0.0-19.0-1.5,44723,List2B,black,man,,,,null,,,,,,,,,
null,is being shouted at by,,html-keyboard-response,346,1721359,0.0-19.0-2.5,44723,List2B,black,man,,,,null,,,,,,,,,
12746.3,,,survey-text,347,1734115,0.0-19.0-3.5,44723,List2B,black,man,,,,,"{""Q0"":""Mike is being shouted at by dave""}","<img src=""stim_listB/shout6.gif""style=""height:400px;""></stim_listB>",is being shouted at by,,,,,,
null,"<div style=""font-size:60px;"">+</div>",,html-keyboard-response,348,1734621,0.0-19.0-0.6,44723,List2B,black,man,,,,null,,,,,,,,,
null,"<img src=""stim_listB/oppose8.gif""style=""height:400px;""></stim_listB>",,html-keyboard-response,349,1736639,0.0-19.0-1.6,44723,List2B,black,man,,,,null,,,,,,,,,
null,is being opposed by,,html-keyboard-response,350,1738647,0.0-19.0-2.6,44723,List2B,black,man,,,,null,,,,,,,,,
16421.7,,,survey-text,351,1755095,0.0-19.0-3.6,44723,List2B,black,man,,,,,"{""Q0"":""Ruth is being opposed by beth""}","<img src=""stim_listB/oppose8.gif""style=""height:400px;""></stim_listB>",is being opposed by,,,,,,
null,"<div style=""font-size:60px;"">+</div>",,html-keyboard-response,352,1755603,0.0-19.0-0.7,44723,List2B,black,man,,,,null,,,,,,,,,
null,"<img src=""stim_listB/seduce4.gif""style=""height:400px;""></stim_listB>",,html-keyboard-response,353,1757615,0.0-19.0-1.7,44723,List2B,black,man,,,,null,,,,,,,,,
null,is being seduced by,,html-keyboard-response,354,1759629,0.0-19.0-2.7,44723,List2B,black,man,,,,null,,,,,,,,,
15168.9,,,survey-text,355,1774820,0.0-19.0-3.7,44723,List2B,black,man,,,,,"{""Q0"":""Mike is being seduced by ruth""}","<img src=""stim_listB/seduce4.gif""style=""height:400px;""></stim_listB>",is being seduced by,,,,,,
null,"<div style=""font-size:60px;"">+</div>",,html-keyboard-response,356,1775326,0.0-19.0-0.8,44723,List2B,black,man,,,,null,,,,,,,,,
null,"<img src=""stim_listB/touch3.gif""style=""height:400px;""></stim_listB>",,html-keyboard-response,357,1777336,0.0-19.0-1.8,44723,List2B,black,man,,,,null,,,,,,,,,
null,is touching,,html-keyboard-response,358,1779343,0.0-19.0-2.8,44723,List2B,black,man,,,,null,,,,,,,,,
10729.8,,,survey-text,359,1790104,0.0-19.0-3.8,44723,List2B,black,man,,,,,"{""Q0"":""Mike is touching Kate""}","<img src=""stim_listB/touch3.gif""style=""height:400px;""></stim_listB>",is touching,,,,,,
null,"<div style=""font-size:60px;"">+</div>",,html-keyboard-response,360,1790611,0.0-19.0-0.9,44723,List2B,black,man,,,,null,,,,,,,,,
null,"<img src=""stim_listB/touch6.gif""style=""height:400px;""></stim_listB>",,html-keyboard-response,361,1792619,0.0-19.0-1.9,44723,List2B,black,man,,,,null,,,,,,,,,
null,is being touched by,,html-keyboard-response,362,1794631,0.0-19.0-2.9,44723,List2B,black,man,,,,null,,,,,,,,,
7821.4,,,survey-text,363,1802485,0.0-19.0-3.9,44723,List2B,black,man,,,,,"{""Q0"":""Luke is being touched by fred""}","<img src=""stim_listB/touch6.gif""style=""height:400px;""></stim_listB>",is being touched by,,,,,,
null,"<div style=""font-size:60px;"">+</div>",,html-keyboard-response,364,1802992,0.0-19.0-0.10,44723,List2B,black,man,,,,null,,,,,,,,,
null,"<img src=""stim_listB/look7.gif""style=""height:400px;""></stim_listB>",,html-keyboard-response,365,1805004,0.0-19.0-1.10,44723,List2B,black,man,,,,null,,,,,,,,,
null,is looking at,,html-keyboard-response,366,1807359,0.0-19.0-2.10,44723,List2B,black,man,,,,null,,,,,,,,,
11869.6,,,survey-text,367,1819252,0.0-19.0-3.10,44723,List2B,black,man,,,,,"{""Q0"":""Beth is looking at ruth""}","<img src=""stim_listB/look7.gif""style=""height:400px;""></stim_listB>",is looking at,,,,,,
null,"<div style=""font-size:60px;"">+</div>",,html-keyboard-response,368,1819758,0.0-19.0-0.11,44723,List2B,black,man,,,,null,,,,,,,,,
null,"<img src=""stim_listB/hug5.gif""style=""height:400px;""></stim_listB>",,html-keyboard-response,369,1821767,0.0-19.0-1.11,44723,List2B,black,man,,,,null,,,,,,,,,
null,is hugging,,html-keyboard-response,370,1823775,0.0-19.0-2.11,44723,List2B,black,man,,,,null,,,,,,,,,
10980.8,,,survey-text,371,1834778,0.0-19.0-3.11,44723,List2B,black,man,,,,,"{""Q0"":""Fred is Hugging luke""}","<img src=""stim_listB/hug5.gif""style=""height:400px;""></stim_listB>",is hugging,,,,,,
null,"<div style=""font-size:60px;"">+</div>",,html-keyboard-response,372,1835285,0.0-19.0-0.12,44723,List2B,black,man,,,,null,,,,,,,,,
null,"<img src=""stim_listB/seduce7.gif""style=""height:400px;""></stim_listB>",,html-keyboard-response,373,1837295,0.0-19.0-1.12,44723,List2B,black,man,,,,null,,,,,,,,,
null,is seducing,,html-keyboard-response,374,1839303,0.0-19.0-2.12,44723,List2B,black,man,,,,null,,,,,,,,,
12972.9,,,survey-text,375,1852295,0.0-19.0-3.12,44723,List2B,black,man,,,,,"{""Q0"":""Kate is seducing jane""}","<img src=""stim_listB/seduce7.gif""style=""height:400px;""></stim_listB>",is seducing,,,,,,
null,"<div style=""font-size:60px;"">+</div>",,html-keyboard-response,376,1852804,0.0-19.0-0.13,44723,List2B,black,man,,,,null,,,,,,,,,
null,"<img src=""stim_listB/hug4.gif""style=""height:400px;""></stim_listB>",,html-keyboard-response,377,1854820,0.0-19.0-1.13,44723,List2B,black,man,,,,null,,,,,,,,,
null,is being hugged by,,html-keyboard-response,378,1856830,0.0-19.0-2.13,44723,List2B,black,man,,,,null,,,,,,,,,
22158.9,,,survey-text,379,1879014,0.0-19.0-3.13,44723,List2B,black,man,,,,,"{""Q0"":""Kate is being hugged  byLuke""}","<img src=""stim_listB/hug4.gif""style=""height:400px;""></stim_listB>",is being hugged by,,,,,,
null,"<div style=""font-size:60px;"">+</div>",,html-keyboard-response,380,1879521,0.0-19.0-0.14,44723,List2B,black,man,,,,null,,,,,,,,,
null,"<img src=""stim_listB/seduce8.gif""style=""height:400px;""></stim_listB>",,html-keyboard-response,381,1881537,0.0-19.0-1.14,44723,List2B,black,man,,,,null,,,,,,,,,
null,is being seduced by,,html-keyboard-response,382,1883547,0.0-19.0-2.14,44723,List2B,black,man,,,,null,,,,,,,,,
85110.8,,,survey-text,383,1968677,0.0-19.0-3.14,44723,List2B,black,man,,,,,"{""Q0"":""Jane is being opposed by beth""}","<img src=""stim_listB/seduce8.gif""style=""height:400px;""></stim_listB>",is being seduced by,,,,,,
null,"<div style=""font-size:60px;"">+</div>",,html-keyboard-response,384,1969183,0.0-19.0-0.15,44723,List2B,black,man,,,,null,,,,,,,,,
null,"<img src=""stim_listB/hug2.gif""style=""height:400px;""></stim_listB>",,html-keyboard-response,385,1971192,0.0-19.0-1.15,44723,List2B,black,man,,,,null,,,,,,,,,
null,is being hugged by,,html-keyboard-response,386,1973200,0.0-19.0-2.15,44723,List2B,black,man,,,,null,,,,,,,,,
26206.7,,,survey-text,387,1999429,0.0-19.0-3.15,44723,List2B,black,man,,,,,"{""Q0"":""Dave is being hugged by jane""}","<img src=""stim_listB/hug2.gif""style=""height:400px;""></stim_listB>",is being hugged by,,,,,,
null,"<div style=""font-size:60px;"">+</div>",,html-keyboard-response,388,1999936,0.0-19.0-0.16,44723,List2B,black,man,,,,null,,,,,,,,,
null,"<img src=""stim_listB/seduce2.gif""style=""height:400px;""></stim_listB>",,html-keyboard-response,389,2001946,0.0-19.0-1.16,44723,List2B,black,man,,,,null,,,,,,,,,
null,is being seduced by,,html-keyboard-response,390,2003971,0.0-19.0-2.16,44723,List2B,black,man,,,,null,,,,,,,,,
11026.7,,,survey-text,391,2015031,0.0-19.0-3.16,44723,List2B,black,man,,,,,"{""Q0"":""Ruth is being seduced by dave""}","<img src=""stim_listB/seduce2.gif""style=""height:400px;""></stim_listB>",is being seduced by,,,,,,
null,"<div style=""font-size:60px;"">+</div>",,html-keyboard-response,392,2015535,0.0-19.0-0.17,44723,List2B,black,man,,,,null,,,,,,,,,
null,"<img src=""stim_listB/touch7.gif""style=""height:400px;""></stim_listB>",,html-keyboard-response,393,2017542,0.0-19.0-1.17,44723,List2B,black,man,,,,null,,,,,,,,,
null,is touching,,html-keyboard-response,394,2019579,0.0-19.0-2.17,44723,List2B,black,man,,,,null,,,,,,,,,
7237.9,,,survey-text,395,2026830,0.0-19.0-3.17,44723,List2B,black,man,,,,,"{""Q0"":""Kate is touching jane""}","<img src=""stim_listB/touch7.gif""style=""height:400px;""></stim_listB>",is touching,,,,,,
null,"<div style=""font-size:60px;"">+</div>",,html-keyboard-response,396,2027335,0.0-19.0-0.18,44723,List2B,black,man,,,,null,,,,,,,,,
null,"<img src=""stim_listB/look5.gif""style=""height:400px;""></stim_listB>",,html-keyboard-response,397,2029344,0.0-19.0-1.18,44723,List2B,black,man,,,,null,,,,,,,,,
null,is looking at,,html-keyboard-response,398,2031354,0.0-19.0-2.18,44723,List2B,black,man,,,,null,,,,,,,,,
5489.2,,,survey-text,399,2036876,0.0-19.0-3.18,44723,List2B,black,man,,,,,"{""Q0"":""Fred is looking at luke""}","<img src=""stim_listB/look5.gif""style=""height:400px;""></stim_listB>",is looking at,,,,,,
null,"<div style=""font-size:60px;"">+</div>",,html-keyboard-response,400,2037382,0.0-19.0-0.19,44723,List2B,black,man,,,,null,,,,,,,,,
null,"<img src=""stim_listB/look6.gif""style=""height:400px;""></stim_listB>",,html-keyboard-response,401,2039401,0.0-19.0-1.19,44723,List2B,black,man,,,,null,,,,,,,,,
null,is being looked at by,,html-keyboard-response,402,2041412,0.0-19.0-2.19,44723,List2B,black,man,,,,null,,,,,,,,,
13778.2,,,survey-text,403,2055213,0.0-19.0-3.19,44723,List2B,black,man,,,,,"{""Q0"":""Mike is being looked at by Dave""}","<img src=""stim_listB/look6.gif""style=""height:400px;""></stim_listB>",is being looked at by,,,,,,
3162.2,<p>Thank you for completing that task.</p><p>The final part of this session is a questionnaire that will take about 4 minutes.</p><p>Press Continue.</p>,0,html-button-response,404,2058380,0.0-20.0,44723,List2B,black,man,,,,,,,,,,,,,
29103.4,,,survey-text,405,2088543,0.0-21.0,44723,List2B,black,man,,,,,"{""Q0"":""33"",""Q1"":""English"",""Q2"":""English"",""Q3"":""United States of America"",""Q4"":""American"",""Q5"":""Black"",""Q6"":""Male""}",,,demographics,,,,,
2701.8,<p>Have you lived in the USA for the last 5 years or more?</p>,0,html-button-response,406,2091254,0.0-22.0,44723,List2B,black,man,,,,,,,,fiveyears,,,,,
4179.9,<p>Move the slider to show the extent to which you agree with the following statements.</p>,0,html-button-response,407,2096444,0.0-23.0,44723,List2B,black,man,,,,,,,,,,,,,
2997.5,,,html-slider-response,408,2100470,0.0-24.0-0.0-0.0,44723,List2B,black,man,,,,,,,,survey_gender,78,,,Being around my friends gives me a good feeling.,filler
1696.9,,,html-slider-response,409,2102174,0.0-24.0-0.0-0.1,44723,List2B,black,man,,,,,,,,survey_gender,75,,,Family is not more important to me than friendship.,filler
2239.8,,,html-slider-response,410,2104419,0.0-24.0-0.0-0.2,44723,List2B,black,man,,,,,,,,survey_gender,94,,,I often think about my actions.,filler
7344.5,,,html-slider-response,411,2111768,0.0-24.0-0.0-0.3,44723,List2B,black,man,,,,,,,,survey_gender,0,,,I would say I am an animal person.,filler
5627.9,,,html-slider-response,412,2117404,0.0-24.0-0.0-0.4,44723,List2B,black,man,,,,,,,,survey_gender,74,,,People of my gender are very similar to each other.,verysimilar
2643.8,,,html-slider-response,413,2120055,0.0-24.0-0.0-0.5,44723,List2B,black,man,,,,,,,,survey_gender,82,,,Most of the friends in my life are very similar to me.,filler
2484.1,,,html-slider-response,414,2122546,0.0-24.0-0.0-0.6,44723,List2B,black,man,,,,,,,,survey_gender,89,,,Being my gender gives me a good feeling.,feeling
1444,,,html-slider-response,415,2123996,0.0-24.0-0.0-0.7,44723,List2B,black,man,,,,,,,,survey_gender,83,,,I feel solidarity with my friends.,filler
2644.8,,,html-slider-response,416,2126646,0.0-24.0-0.0-0.8,44723,List2B,black,man,,,,,,,,survey_gender,91,,,It is pleasant to be my gender.,pleasant
4051.1,,,html-slider-response,417,2130703,0.0-24.0-0.0-0.9,44723,List2B,black,man,,,,,,,,survey_gender,92,,,I am similar to the average person of my gender.,similar
1495.9,,,html-slider-response,418,2132206,0.0-24.0-0.0-0.10,44723,List2B,black,man,,,,,,,,survey_gender,83,,,People of my gender have a lot in common with each other.,common
1845.9,,,html-slider-response,419,2134058,0.0-24.0-0.0-0.11,44723,List2B,black,man,,,,,,,,survey_gender,92,,,I have a lot in common with my friends.,filler
1644.9,,,html-slider-response,420,2135708,0.0-24.0-0.0-0.12,44723,List2B,black,man,,,,,,,,survey_gender,83,,,I feel a bond with my friends.,filler
2001.2,,,html-slider-response,421,2137714,0.0-24.0-0.0-0.13,44723,List2B,black,man,,,,,,,,survey_gender,100,,,I feel committed to my gender.,committed
1998.1,,,html-slider-response,422,2139718,0.0-24.0-0.0-0.14,44723,List2B,black,man,,,,,,,,survey_gender,95,,,My friends have a lot in common with each other.,filler
2209.5,,,html-slider-response,423,2141933,0.0-24.0-0.0-0.15,44723,List2B,black,man,,,,,,,,survey_gender,83,,,I am glad to have the friends that I have.,filler
2865.4,,,html-slider-response,424,2144804,0.0-24.0-0.0-0.16,44723,List2B,black,man,,,,,,,,survey_gender,16,,,Routine is not important to me.,filler
3146.7,,,html-slider-response,425,2147957,0.0-24.0-0.0-0.17,44723,List2B,black,man,,,,,,,,survey_gender,81,,,I think that my gender has a lot to be proud of.,proud
3547.2,,,html-slider-response,426,2151511,0.0-24.0-0.0-0.18,44723,List2B,black,man,,,,,,,,survey_gender,86,,,I have a lot in common with the average person of my gender.,average
2652.8,,,html-slider-response,427,2154169,0.0-24.0-0.0-0.19,44723,List2B,black,man,,,,,,,,survey_gender,94,,,I am glad to be my gender.,glad
2745.5,,,html-slider-response,428,2156920,0.0-24.0-0.0-0.20,44723,List2B,black,man,,,,,,,,survey_gender,100,,,Being my gender is an important part of how I see myself.,important
1731.9,,,html-slider-response,429,2158658,0.0-24.0-0.0-0.21,44723,List2B,black,man,,,,,,,,survey_gender,88,,,I consider myself a highly empathetic person.,filler
4315.6,,,html-slider-response,430,2162981,0.0-24.0-0.0-0.22,44723,List2B,black,man,,,,,,,,survey_gender,96,,,It is not always easy for people to know what I am thinking.,filler
3072.2,,,html-slider-response,431,2166061,0.0-24.0-0.0-0.23,44723,List2B,black,man,,,,,,,,survey_gender,10,,,I often think about the fact that I am my gender.,often
1861.1,,,html-slider-response,432,2167929,0.0-24.0-0.0-0.24,44723,List2B,black,man,,,,,,,,survey_gender,84,,,I feel solidarity with my gender.,solidarity
1601.6,,,html-slider-response,433,2169536,0.0-24.0-0.0-0.25,44723,List2B,black,man,,,,,,,,survey_gender,94,,,My friends understand me.,filler
1441.1,,,html-slider-response,434,2170984,0.0-24.0-0.0-0.26,44723,List2B,black,man,,,,,,,,survey_gender,89,,,I feel a bond with my gender.,bond
1310.9,,,html-slider-response,435,2172302,0.0-24.0-0.0-0.27,44723,List2B,black,man,,,,,,,,survey_gender,27,,,The fact that I am my gender is an important part of my identity.,identity
1481.6,,,html-slider-response,436,2173789,0.0-24.0-1.0-0.0,44723,List2B,black,man,,,,,,,,survey_race,81,,,People my age have a lot in common with each other.,filler
1346.5,,,html-slider-response,437,2175142,0.0-24.0-1.0-0.1,44723,List2B,black,man,,,,,,,,survey_race,92,,,I feel solidarity with my race.,solidarity
2066.3,,,html-slider-response,438,2177215,0.0-24.0-1.0-0.2,44723,List2B,black,man,,,,,,,,survey_race,96,,,The fact that I am my race is an important part of my identity.,identity
4062.6,,,html-slider-response,439,2181284,0.0-24.0-1.0-0.3,44723,List2B,black,man,,,,,,,,survey_race,91,,,I feel solidarity with people the same age as me.,filler
3628.3,,,html-slider-response,440,2184919,0.0-24.0-1.0-0.4,44723,List2B,black,man,,,,,,,,survey_race,18,,,My age is not an important part of who I am.,filler
1811.8,,,html-slider-response,441,2186738,0.0-24.0-1.0-0.5,44723,List2B,black,man,,,,,,,,survey_race,80,,,I think that my race has a lot to be proud of.,proud
2467,,,html-slider-response,442,2189211,0.0-24.0-1.0-0.6,44723,List2B,black,man,,,,,,,,survey_race,87,,,I am similar to the average person of my race.,similar
1341.9,,,html-slider-response,443,2190559,0.0-24.0-1.0-0.7,44723,List2B,black,man,,,,,,,,survey_race,84,,,I have a lot in common with the average person of my race.,average
2132.9,,,html-slider-response,444,2192697,0.0-24.0-1.0-0.8,44723,List2B,black,man,,,,,,,,survey_race,15,,,I consider myself an introvert.,filler
1910.6,,,html-slider-response,445,2194614,0.0-24.0-1.0-0.9,44723,List2B,black,man,,,,,,,,survey_race,94,,,People of my race are very similar to each other.,verysimilar
1362.2,,,html-slider-response,446,2195982,0.0-24.0-1.0-0.10,44723,List2B,black,man,,,,,,,,survey_race,91,,,I am glad to be the age I am.,filler
3368.9,,,html-slider-response,447,2199356,0.0-24.0-1.0-0.11,44723,List2B,black,man,,,,,,,,survey_race,82,,,I enjoy being in large groups.,filler
1747,,,html-slider-response,448,2201108,0.0-24.0-1.0-0.12,44723,List2B,black,man,,,,,,,,survey_race,94,,,I am glad to be my race.,glad
2412.3,,,html-slider-response,449,2203526,0.0-24.0-1.0-0.13,44723,List2B,black,man,,,,,,,,survey_race,100,,,I feel a bond with my race.,bond
3387.7,,,html-slider-response,450,2206919,0.0-24.0-1.0-0.14,44723,List2B,black,man,,,,,,,,survey_race,99,,,I am glad to be my age.,filler
5432,,,html-slider-response,451,2212359,0.0-24.0-1.0-0.15,44723,List2B,black,man,,,,,,,,survey_race,95,,,Being my race is an important part of how I see myself.,important
2574.8,,,html-slider-response,452,2214941,0.0-24.0-1.0-0.16,44723,List2B,black,man,,,,,,,,survey_race,19,,,Getting older does not worry me.,filler
2964.6,,,html-slider-response,453,2217911,0.0-24.0-1.0-0.17,44723,List2B,black,man,,,,,,,,survey_race,88,,,People of my race have a lot in common with each other.,common
3202.7,,,html-slider-response,454,2221121,0.0-24.0-1.0-0.18,44723,List2B,black,man,,,,,,,,survey_race,95,,,I often think about the fact that I am my age.,filler
2761.9,,,html-slider-response,455,2223890,0.0-24.0-1.0-0.19,44723,List2B,black,man,,,,,,,,survey_race,100,,,I feel committed to my race.,committed
1992.4,,,html-slider-response,456,2225889,0.0-24.0-1.0-0.20,44723,List2B,black,man,,,,,,,,survey_race,95,,,I have a lot in common with people of a similar age to me.,filler
1944.3,,,html-slider-response,457,2227839,0.0-24.0-1.0-0.21,44723,List2B,black,man,,,,,,,,survey_race,100,,,It is pleasant to be my race.,pleasant
2715.1,,,html-slider-response,458,2230560,0.0-24.0-1.0-0.22,44723,List2B,black,man,,,,,,,,survey_race,92,,,I often think about the fact that I am my race.,often
1983.4,,,html-slider-response,459,2232548,0.0-24.0-1.0-0.23,44723,List2B,black,man,,,,,,,,survey_race,100,,,Being my race gives me a good feeling.,feeling
1879.6,,,html-slider-response,460,2234434,0.0-24.0-1.0-0.24,44723,List2B,black,man,,,,,,,,survey_race,21,,,I consider myself an extrovert.,filler
1761.7,,,html-slider-response,461,2236202,0.0-24.0-1.0-0.25,44723,List2B,black,man,,,,,,,,survey_race,97,,,I feel a bond with people the same age as me.,filler
1567,,,html-slider-response,462,2237774,0.0-24.0-1.0-0.26,44723,List2B,black,man,,,,,,,,survey_race,95,,,Being my age gives me a good feeling.,filler
1654.2,,,html-slider-response,463,2239435,0.0-24.0-1.0-0.27,44723,List2B,black,man,,,,,,,,survey_race,100,,,"The older I get, the wiser I feel.",filler
9958.2,,,survey-text,464,2249405,0.0-25.0,44723,List2B,black,man,,,,,"{""Q0"":""ccc""}",,,worker_id,,,,,
5798.7,,,external-html,465,2255910,0.0-26.0,44723,List2B,black,man,debrief.html,,,,,,,,,,,,
