rt,stimulus,button_pressed,trial_type,trial_index,time_elapsed,internal_node_id,subject,list,ppt_race,ppt_gender,url,first_guess,correct,key_press,responses,image_type,phrase_type,test_part,response,stimulus1,stimulus2,question_type,survey_item
1393.7,Welcome to the experiment. Press Continue to begin.,0,html-button-response,0,1398,0.0-0.0,45033,List1B,white,woman,,,,,,,,,,,,,
85483.9,,,external-html,1,88028,0.0-1.0,45033,List1B,white,woman,consent.html,,,,,,,,,,,,
6731.5,"<p>On the next page, you will see portraits of 8 people and their names.</p><p>Your first task is to take a few minutes to memorise the names of these people.</p><p>You will have to recall their names during the rest of the experiment, so it is</p><p>essential that you try to memorise these people and their names as best as you can.</p><br><p><strong>You will then be tested on your memory of these names and portraits.</strong></p><br><p>The experiment will start after you have completed this memory test.</p><br><p>Ready?</p>",0,html-button-response,2,94761,0.0-2.0,45033,List1B,white,woman,,,,,,,,,,,,,
37230.9,"<img src='img/portrait_matrix_list1.jpg' style='width:900px;height:500px;''></img><p>If you have memorised all the portraits and names and are ready to start, press Continue.</p><p><strong>Please note: Your memory of these faces will be tested 4 times during this experiment.</strong></p>",0,html-button-response,3,132995,0.0-3.0-0.0,45033,List1B,white,woman,,,,,,,,,,,,,
5550.7,"<img src=""portrait/BM1.jpg""style=""height:400px;""></img>",4,html-button-response,4,139552,0.0-3.0-1.0,45033,List1B,white,woman,,TRUE,4,,,,,,,,,,
null,CORRECT,,html-keyboard-response,5,141068,0.0-3.0-2.0-0.0,45033,List1B,white,woman,,,,null,,,,,,,,,
2787.6,"<img src=""portrait/BW1.jpg""style=""height:400px;""></img>",0,html-button-response,6,143859,0.0-3.0-4.0,45033,List1B,white,woman,,TRUE,0,,,,,,,,,,
null,CORRECT,,html-keyboard-response,7,145382,0.0-3.0-5.0-0.0,45033,List1B,white,woman,,,,null,,,,,,,,,
4279.9,"<img src=""portrait/BM2.jpg""style=""height:400px;""></img>",5,html-button-response,8,149664,0.0-3.0-7.0,45033,List1B,white,woman,,TRUE,5,,,,,,,,,,
null,CORRECT,,html-keyboard-response,9,151183,0.0-3.0-8.0-0.0,45033,List1B,white,woman,,,,null,,,,,,,,,
6595,"<img src=""portrait/WW1.jpg""style=""height:400px;""></img>",1,html-button-response,10,157779,0.0-3.0-10.0,45033,List1B,white,woman,,TRUE,1,,,,,,,,,,
null,CORRECT,,html-keyboard-response,11,159300,0.0-3.0-11.0-0.0,45033,List1B,white,woman,,,,null,,,,,,,,,
3408.2,"<img src=""portrait/WM1.jpg""style=""height:400px;""></img>",6,html-button-response,12,162710,0.0-3.0-13.0,45033,List1B,white,woman,,TRUE,6,,,,,,,,,,
null,CORRECT,,html-keyboard-response,13,164225,0.0-3.0-14.0-0.0,45033,List1B,white,woman,,,,null,,,,,,,,,
1991.4,"<img src=""portrait/WW2.jpg""style=""height:400px;""></img>",3,html-button-response,14,166219,0.0-3.0-16.0,45033,List1B,white,woman,,TRUE,3,,,,,,,,,,
null,CORRECT,,html-keyboard-response,15,167732,0.0-3.0-17.0-0.0,45033,List1B,white,woman,,,,null,,,,,,,,,
4971.8,"<img src=""portrait/WM2.jpg""style=""height:400px;""></img>",5,html-button-response,16,172706,0.0-3.0-19.0,45033,List1B,white,woman,,TRUE,7,,,,,,,,,,
2305,"<img src=""portrait/WM2.jpg""style=""height:400px;""></img>",7,html-button-response,17,176021,0.0-3.0-21.0-0.0,45033,List1B,white,woman,,FALSE,7,,,,,,,,,,
null,CORRECT,,html-keyboard-response,18,177543,0.0-3.0-21.0-1.0-0.0,45033,List1B,white,woman,,,,null,,,,,,,,,
3270.2,"<img src=""portrait/BW2.jpg""style=""height:400px;""></img>",2,html-button-response,19,180816,0.0-3.0-22.0,45033,List1B,white,woman,,TRUE,2,,,,,,,,,,
null,CORRECT,,html-keyboard-response,20,182332,0.0-3.0-23.0-0.0,45033,List1B,white,woman,,,,null,,,,,,,,,
1478.2,<p>You got 7 out of 8 right first time. Press Continue.</p>,0,html-button-response,21,183813,0.0-3.0-25.0,45033,List1B,white,woman,,,,,,,,,,,,,
2507.8,"As you did not score 100%, the memory game will repeat. Press Continue.",0,html-button-response,22,187326,0.0-3.0-26.0-0.0,45033,List1B,white,woman,,,,,,,,,,,,,
61617,"<img src='img/portrait_matrix_list1.jpg' style='width:900px;height:500px;''></img><p>If you have memorised all the portraits and names and are ready to start, press Continue.</p><p><strong>Please note: Your memory of these faces will be tested 4 times during this experiment.</strong></p>",0,html-button-response,23,249943,0.0-3.1-0.1,45033,List1B,white,woman,,,,,,,,,,,,,
3446.5,"<img src=""portrait/BM1.jpg""style=""height:400px;""></img>",4,html-button-response,24,254395,0.0-3.1-1.1,45033,List1B,white,woman,,TRUE,4,,,,,,,,,,
null,CORRECT,,html-keyboard-response,25,255911,0.0-3.1-2.1-0.1,45033,List1B,white,woman,,,,null,,,,,,,,,
2913.6,"<img src=""portrait/BW1.jpg""style=""height:400px;""></img>",0,html-button-response,26,258828,0.0-3.1-4.1,45033,List1B,white,woman,,TRUE,0,,,,,,,,,,
null,CORRECT,,html-keyboard-response,27,260350,0.0-3.1-5.1-0.1,45033,List1B,white,woman,,,,null,,,,,,,,,
3090,"<img src=""portrait/BM2.jpg""style=""height:400px;""></img>",5,html-button-response,28,263443,0.0-3.1-7.1,45033,List1B,white,woman,,TRUE,5,,,,,,,,,,
null,CORRECT,,html-keyboard-response,29,264967,0.0-3.1-8.1-0.1,45033,List1B,white,woman,,,,null,,,,,,,,,
5495.5,"<img src=""portrait/WW1.jpg""style=""height:400px;""></img>",1,html-button-response,30,270465,0.0-3.1-10.1,45033,List1B,white,woman,,TRUE,1,,,,,,,,,,
null,CORRECT,,html-keyboard-response,31,271989,0.0-3.1-11.1-0.1,45033,List1B,white,woman,,,,null,,,,,,,,,
2922.4,"<img src=""portrait/WM1.jpg""style=""height:400px;""></img>",6,html-button-response,32,274914,0.0-3.1-13.1,45033,List1B,white,woman,,TRUE,6,,,,,,,,,,
null,CORRECT,,html-keyboard-response,33,276436,0.0-3.1-14.1-0.1,45033,List1B,white,woman,,,,null,,,,,,,,,
2021.6,"<img src=""portrait/WW2.jpg""style=""height:400px;""></img>",3,html-button-response,34,278459,0.0-3.1-16.1,45033,List1B,white,woman,,TRUE,3,,,,,,,,,,
null,CORRECT,,html-keyboard-response,35,279980,0.0-3.1-17.1-0.1,45033,List1B,white,woman,,,,null,,,,,,,,,
2616,"<img src=""portrait/WM2.jpg""style=""height:400px;""></img>",7,html-button-response,36,282598,0.0-3.1-19.1,45033,List1B,white,woman,,TRUE,7,,,,,,,,,,
null,CORRECT,,html-keyboard-response,37,284121,0.0-3.1-20.1-0.1,45033,List1B,white,woman,,,,null,,,,,,,,,
1961.4,"<img src=""portrait/BW2.jpg""style=""height:400px;""></img>",2,html-button-response,38,286084,0.0-3.1-22.1,45033,List1B,white,woman,,TRUE,2,,,,,,,,,,
null,CORRECT,,html-keyboard-response,39,287614,0.0-3.1-23.1-0.1,45033,List1B,white,woman,,,,null,,,,,,,,,
1260.4,<p>You got 8 out of 8 right first time. Press Continue.</p>,0,html-button-response,40,288877,0.0-3.1-25.1,45033,List1B,white,woman,,,,,,,,,,,,,
15012.1,"<p>In this experiment, you will view photographs of the people from the memory game interacting.</p><p>By using the <strong>exact</strong> phrase given <i>after</i> the photograph appears and recalling the correct names of the people in the photographs, form a sentence describing the interaction. You do not need to capitalise names.</p><p>Type your answer in the space provided. Please complete every sentence before moving onto the next trial.</p><p>You will only have a few seconds to memorise each given photograph and phrase before you can respond, so try your best to focus.</p><p>An example is given below. Press 'Continue' when you are ready.</p><img src='img/speaking_example.jpg' style='width:800px;height:460px;''></img>",0,html-button-response,41,304892,0.0-4.0,45033,List1B,white,woman,,,,,,,,,,,,,
1656,"<p>Before the experiment starts, you will watch two example trials. Press 'Continue'.</p>",0,html-button-response,42,307555,0.0-5.0,45033,List1B,white,woman,,,,,,,,,,,,,
null,<img src='img/play_eg.gif' style='height:400px;''></img>,,html-keyboard-response,43,310566,0.0-6.0,45033,List1B,white,woman,,,,null,,,,,,,,,
null,<p>is playing with</p>,,html-keyboard-response,44,312572,0.0-7.0,45033,List1B,white,woman,,,,null,,,,,,,,,
1314.3,<p><b>Answer:</b> kate is playing with beth</p>,0,html-button-response,45,313888,0.0-8.0,45033,List1B,white,woman,,,,,,,,,,,,,
null,<img src='img/dance_eg.gif' style='height:400px;''></img>,,html-keyboard-response,46,316902,0.0-9.0,45033,List1B,white,woman,,,,null,,,,,,,,,
null,<p>is being entertained by</p>,,html-keyboard-response,47,318911,0.0-10.0,45033,List1B,white,woman,,,,null,,,,,,,,,
2050.9,<p><b>Answer:</b> luke is being entertained by dave</p>,0,html-button-response,48,320964,0.0-11.0,45033,List1B,white,woman,,,,,,,,,,,,,
2221.1,"<p>Ready to start the experiment?</p><br><p><strong>Remember to describe the picture using a full sentence,</strong></p><p><strong>that combines the names of the people with the <i>exact</i> phrase given.</strong></p><p><strong>To receive full payment you must do this correctly.</strong></p><p><strong> You do not need to capitalise names or use punctuation.</strong></p><br><p>Press 'Continue' to begin.</p>",0,html-button-response,49,324190,0.0-12.0,45033,List1B,white,woman,,,,,,,,,,,,,
null,"<div style=""font-size:60px;"">+</div>",,html-keyboard-response,50,325705,0.0-13.0-0.0,45033,List1B,white,woman,,,,null,,,,,,,,,
null,"<img src=""stim_listB/seduce3.gif""style=""height:400px;""></stim_listB>",,html-keyboard-response,51,327709,0.0-13.0-1.0,45033,List1B,white,woman,,,,null,,,,,,,,,
null,is seducing,,html-keyboard-response,52,329724,0.0-13.0-2.0,45033,List1B,white,woman,,,,null,,,,,,,,,
7642.6,,,survey-text,53,337374,0.0-13.0-3.0,45033,List1B,white,woman,,,,,"{""Q0"":""Jane is seducing luke""}","<img src=""stim_listB/seduce3.gif""style=""height:400px;""></stim_listB>",is seducing,,,,,,
null,"<div style=""font-size:60px;"">+</div>",,html-keyboard-response,54,337876,0.0-13.0-0.1,45033,List1B,white,woman,,,,null,,,,,,,,,
null,"<img src=""stim_listB/copy8.gif""style=""height:400px;""></stim_listB>",,html-keyboard-response,55,339889,0.0-13.0-1.1,45033,List1B,white,woman,,,,null,,,,,,,,,
null,is being copied by,,html-keyboard-response,56,341901,0.0-13.0-2.1,45033,List1B,white,woman,,,,null,,,,,,,,,
3927.8,,,survey-text,57,345833,0.0-13.0-3.1,45033,List1B,white,woman,,,,,"{""Q0"":""jane is being copied by beth""}","<img src=""stim_listB/copy8.gif""style=""height:400px;""></stim_listB>",is being copied by,,,,,,
null,"<div style=""font-size:60px;"">+</div>",,html-keyboard-response,58,346336,0.0-13.0-0.2,45033,List1B,white,woman,,,,null,,,,,,,,,
null,"<img src=""stim_listB/look5.gif""style=""height:400px;""></stim_listB>",,html-keyboard-response,59,348344,0.0-13.0-1.2,45033,List1B,white,woman,,,,null,,,,,,,,,
null,is looking at,,html-keyboard-response,60,350351,0.0-13.0-2.2,45033,List1B,white,woman,,,,null,,,,,,,,,
3899.5,,,survey-text,61,354259,0.0-13.0-3.2,45033,List1B,white,woman,,,,,"{""Q0"":""fred is looking at luke""}","<img src=""stim_listB/look5.gif""style=""height:400px;""></stim_listB>",is looking at,,,,,,
null,"<div style=""font-size:60px;"">+</div>",,html-keyboard-response,62,354770,0.0-13.0-0.3,45033,List1B,white,woman,,,,null,,,,,,,,,
null,"<img src=""stim_listB/seduce7.gif""style=""height:400px;""></stim_listB>",,html-keyboard-response,63,356776,0.0-13.0-1.3,45033,List1B,white,woman,,,,null,,,,,,,,,
null,is seducing,,html-keyboard-response,64,358779,0.0-13.0-2.3,45033,List1B,white,woman,,,,null,,,,,,,,,
5083.6,,,survey-text,65,363881,0.0-13.0-3.3,45033,List1B,white,woman,,,,,"{""Q0"":""kate is seducing betj""}","<img src=""stim_listB/seduce7.gif""style=""height:400px;""></stim_listB>",is seducing,,,,,,
null,"<div style=""font-size:60px;"">+</div>",,html-keyboard-response,66,364384,0.0-13.0-0.4,45033,List1B,white,woman,,,,null,,,,,,,,,
null,"<img src=""stim_listB/seduce8.gif""style=""height:400px;""></stim_listB>",,html-keyboard-response,67,366401,0.0-13.0-1.4,45033,List1B,white,woman,,,,null,,,,,,,,,
null,is being seduced by,,html-keyboard-response,68,368405,0.0-13.0-2.4,45033,List1B,white,woman,,,,null,,,,,,,,,
7436.9,,,survey-text,69,375846,0.0-13.0-3.4,45033,List1B,white,woman,,,,,"{""Q0"":""kate is being seduced by jane""}","<img src=""stim_listB/seduce8.gif""style=""height:400px;""></stim_listB>",is being seduced by,,,,,,
null,"<div style=""font-size:60px;"">+</div>",,html-keyboard-response,70,376357,0.0-13.0-0.5,45033,List1B,white,woman,,,,null,,,,,,,,,
null,"<img src=""stim_listB/seduce6.gif""style=""height:400px;""></stim_listB>",,html-keyboard-response,71,378361,0.0-13.0-1.5,45033,List1B,white,woman,,,,null,,,,,,,,,
null,is being seduced by,,html-keyboard-response,72,380368,0.0-13.0-2.5,45033,List1B,white,woman,,,,null,,,,,,,,,
6142.4,,,survey-text,73,386514,0.0-13.0-3.5,45033,List1B,white,woman,,,,,"{""Q0"":""luke is being seduced by mike""}","<img src=""stim_listB/seduce6.gif""style=""height:400px;""></stim_listB>",is being seduced by,,,,,,
null,"<div style=""font-size:60px;"">+</div>",,html-keyboard-response,74,387017,0.0-13.0-0.6,45033,List1B,white,woman,,,,null,,,,,,,,,
null,"<img src=""stim_listB/touch5.gif""style=""height:400px;""></stim_listB>",,html-keyboard-response,75,389031,0.0-13.0-1.6,45033,List1B,white,woman,,,,null,,,,,,,,,
null,is touching,,html-keyboard-response,76,391037,0.0-13.0-2.6,45033,List1B,white,woman,,,,null,,,,,,,,,
3948.3,,,survey-text,77,394989,0.0-13.0-3.6,45033,List1B,white,woman,,,,,"{""Q0"":""mike is touching dave""}","<img src=""stim_listB/touch5.gif""style=""height:400px;""></stim_listB>",is touching,,,,,,
null,"<div style=""font-size:60px;"">+</div>",,html-keyboard-response,78,395499,0.0-13.0-0.7,45033,List1B,white,woman,,,,null,,,,,,,,,
null,"<img src=""stim_listB/kiss5.gif""style=""height:400px;""></stim_listB>",,html-keyboard-response,79,397509,0.0-13.0-1.7,45033,List1B,white,woman,,,,null,,,,,,,,,
null,is kissing,,html-keyboard-response,80,399524,0.0-13.0-2.7,45033,List1B,white,woman,,,,null,,,,,,,,,
3883.7,,,survey-text,81,403413,0.0-13.0-3.7,45033,List1B,white,woman,,,,,"{""Q0"":""fred is kissing luke""}","<img src=""stim_listB/kiss5.gif""style=""height:400px;""></stim_listB>",is kissing,,,,,,
null,"<div style=""font-size:60px;"">+</div>",,html-keyboard-response,82,403917,0.0-13.0-0.8,45033,List1B,white,woman,,,,null,,,,,,,,,
null,"<img src=""stim_listB/challenge1.gif""style=""height:400px;""></stim_listB>",,html-keyboard-response,83,405921,0.0-13.0-1.8,45033,List1B,white,woman,,,,null,,,,,,,,,
null,is challenging,,html-keyboard-response,84,407931,0.0-13.0-2.8,45033,List1B,white,woman,,,,null,,,,,,,,,
4427.5,,,survey-text,85,412363,0.0-13.0-3.8,45033,List1B,white,woman,,,,,"{""Q0"":""kate is challenging mike""}","<img src=""stim_listB/challenge1.gif""style=""height:400px;""></stim_listB>",is challenging,,,,,,
null,"<div style=""font-size:60px;"">+</div>",,html-keyboard-response,86,412868,0.0-13.0-0.9,45033,List1B,white,woman,,,,null,,,,,,,,,
null,"<img src=""stim_listB/shout8.gif""style=""height:400px;""></stim_listB>",,html-keyboard-response,87,414881,0.0-13.0-1.9,45033,List1B,white,woman,,,,null,,,,,,,,,
null,is being shouted at by,,html-keyboard-response,88,416887,0.0-13.0-2.9,45033,List1B,white,woman,,,,null,,,,,,,,,
4431.2,,,survey-text,89,421322,0.0-13.0-3.9,45033,List1B,white,woman,,,,,"{""Q0"":""ruth is being shouted at by jane""}","<img src=""stim_listB/shout8.gif""style=""height:400px;""></stim_listB>",is being shouted at by,,,,,,
null,"<div style=""font-size:60px;"">+</div>",,html-keyboard-response,90,421831,0.0-13.0-0.10,45033,List1B,white,woman,,,,null,,,,,,,,,
null,"<img src=""stim_listB/copy1.gif""style=""height:400px;""></stim_listB>",,html-keyboard-response,91,423839,0.0-13.0-1.10,45033,List1B,white,woman,,,,null,,,,,,,,,
null,is copying,,html-keyboard-response,92,425846,0.0-13.0-2.10,45033,List1B,white,woman,,,,null,,,,,,,,,
2750.9,,,survey-text,93,428601,0.0-13.0-3.10,45033,List1B,white,woman,,,,,"{""Q0"":""beth is copying mike""}","<img src=""stim_listB/copy1.gif""style=""height:400px;""></stim_listB>",is copying,,,,,,
null,"<div style=""font-size:60px;"">+</div>",,html-keyboard-response,94,429104,0.0-13.0-0.11,45033,List1B,white,woman,,,,null,,,,,,,,,
null,"<img src=""stim_listB/copy7.gif""style=""height:400px;""></stim_listB>",,html-keyboard-response,95,431114,0.0-13.0-1.11,45033,List1B,white,woman,,,,null,,,,,,,,,
null,is copying,,html-keyboard-response,96,433125,0.0-13.0-2.11,45033,List1B,white,woman,,,,null,,,,,,,,,
3759.8,,,survey-text,97,436888,0.0-13.0-3.11,45033,List1B,white,woman,,,,,"{""Q0"":""ruth is copying kate""}","<img src=""stim_listB/copy7.gif""style=""height:400px;""></stim_listB>",is copying,,,,,,
null,"<div style=""font-size:60px;"">+</div>",,html-keyboard-response,98,437395,0.0-13.0-0.12,45033,List1B,white,woman,,,,null,,,,,,,,,
null,"<img src=""stim_listB/look6.gif""style=""height:400px;""></stim_listB>",,html-keyboard-response,99,439407,0.0-13.0-1.12,45033,List1B,white,woman,,,,null,,,,,,,,,
null,is being looked at by,,html-keyboard-response,100,441419,0.0-13.0-2.12,45033,List1B,white,woman,,,,null,,,,,,,,,
4262.3,,,survey-text,101,445684,0.0-13.0-3.12,45033,List1B,white,woman,,,,,"{""Q0"":""dave is being looked at by mike""}","<img src=""stim_listB/look6.gif""style=""height:400px;""></stim_listB>",is being looked at by,,,,,,
null,"<div style=""font-size:60px;"">+</div>",,html-keyboard-response,102,446195,0.0-13.0-0.13,45033,List1B,white,woman,,,,null,,,,,,,,,
null,"<img src=""stim_listB/look3.gif""style=""height:400px;""></stim_listB>",,html-keyboard-response,103,448200,0.0-13.0-1.13,45033,List1B,white,woman,,,,null,,,,,,,,,
null,is looking at,,html-keyboard-response,104,450203,0.0-13.0-2.13,45033,List1B,white,woman,,,,null,,,,,,,,,
9143.6,,,survey-text,105,459352,0.0-13.0-3.13,45033,List1B,white,woman,,,,,"{""Q0"":""ruth is looking at luke""}","<img src=""stim_listB/look3.gif""style=""height:400px;""></stim_listB>",is looking at,,,,,,
null,"<div style=""font-size:60px;"">+</div>",,html-keyboard-response,106,459862,0.0-13.0-0.14,45033,List1B,white,woman,,,,null,,,,,,,,,
null,"<img src=""stim_listB/shout1.gif""style=""height:400px;""></stim_listB>",,html-keyboard-response,107,461870,0.0-13.0-1.14,45033,List1B,white,woman,,,,null,,,,,,,,,
null,is shouting at,,html-keyboard-response,108,463881,0.0-13.0-2.14,45033,List1B,white,woman,,,,null,,,,,,,,,
3246.8,,,survey-text,109,467131,0.0-13.0-3.14,45033,List1B,white,woman,,,,,"{""Q0"":""fred is shouting at beth""}","<img src=""stim_listB/shout1.gif""style=""height:400px;""></stim_listB>",is shouting at,,,,,,
null,"<div style=""font-size:60px;"">+</div>",,html-keyboard-response,110,467637,0.0-13.0-0.15,45033,List1B,white,woman,,,,null,,,,,,,,,
null,"<img src=""stim_listB/hug6.gif""style=""height:400px;""></stim_listB>",,html-keyboard-response,111,469642,0.0-13.0-1.15,45033,List1B,white,woman,,,,null,,,,,,,,,
null,is being hugged by,,html-keyboard-response,112,471656,0.0-13.0-2.15,45033,List1B,white,woman,,,,null,,,,,,,,,
4527.3,,,survey-text,113,476187,0.0-13.0-3.15,45033,List1B,white,woman,,,,,"{""Q0"":""dave is being hugged by mike""}","<img src=""stim_listB/hug6.gif""style=""height:400px;""></stim_listB>",is being hugged by,,,,,,
null,"<div style=""font-size:60px;"">+</div>",,html-keyboard-response,114,476697,0.0-13.0-0.16,45033,List1B,white,woman,,,,null,,,,,,,,,
null,"<img src=""stim_listB/kiss2.gif""style=""height:400px;""></stim_listB>",,html-keyboard-response,115,478700,0.0-13.0-1.16,45033,List1B,white,woman,,,,null,,,,,,,,,
null,is being kissed by,,html-keyboard-response,116,480702,0.0-13.0-2.16,45033,List1B,white,woman,,,,null,,,,,,,,,
3877.4,,,survey-text,117,484583,0.0-13.0-3.16,45033,List1B,white,woman,,,,,"{""Q0"":""mike is being kissed by kate""}","<img src=""stim_listB/kiss2.gif""style=""height:400px;""></stim_listB>",is being kissed by,,,,,,
null,"<div style=""font-size:60px;"">+</div>",,html-keyboard-response,118,485098,0.0-13.0-0.17,45033,List1B,white,woman,,,,null,,,,,,,,,
null,"<img src=""stim_listB/hug3.gif""style=""height:400px;""></stim_listB>",,html-keyboard-response,119,487104,0.0-13.0-1.17,45033,List1B,white,woman,,,,null,,,,,,,,,
null,is hugging,,html-keyboard-response,120,489118,0.0-13.0-2.17,45033,List1B,white,woman,,,,null,,,,,,,,,
3889.9,,,survey-text,121,493011,0.0-13.0-3.17,45033,List1B,white,woman,,,,,"{""Q0"":""ruth is hugging luke""}","<img src=""stim_listB/hug3.gif""style=""height:400px;""></stim_listB>",is hugging,,,,,,
null,"<div style=""font-size:60px;"">+</div>",,html-keyboard-response,122,493514,0.0-13.0-0.18,45033,List1B,white,woman,,,,null,,,,,,,,,
null,"<img src=""stim_listB/hug4.gif""style=""height:400px;""></stim_listB>",,html-keyboard-response,123,495526,0.0-13.0-1.18,45033,List1B,white,woman,,,,null,,,,,,,,,
null,is being hugged by,,html-keyboard-response,124,497531,0.0-13.0-2.18,45033,List1B,white,woman,,,,null,,,,,,,,,
3930,,,survey-text,125,501464,0.0-13.0-3.18,45033,List1B,white,woman,,,,,"{""Q0"":""dave is being hugged by jane""}","<img src=""stim_listB/hug4.gif""style=""height:400px;""></stim_listB>",is being hugged by,,,,,,
null,"<div style=""font-size:60px;"">+</div>",,html-keyboard-response,126,501967,0.0-13.0-0.19,45033,List1B,white,woman,,,,null,,,,,,,,,
null,"<img src=""stim_listB/kiss6.gif""style=""height:400px;""></stim_listB>",,html-keyboard-response,127,503972,0.0-13.0-1.19,45033,List1B,white,woman,,,,null,,,,,,,,,
null,is being kissed by,,html-keyboard-response,128,505977,0.0-13.0-2.19,45033,List1B,white,woman,,,,null,,,,,,,,,
3857.3,,,survey-text,129,509839,0.0-13.0-3.19,45033,List1B,white,woman,,,,,"{""Q0"":""luke is being kissed by mike""}","<img src=""stim_listB/kiss6.gif""style=""height:400px;""></stim_listB>",is being kissed by,,,,,,
192275.3,"<img src='img/portrait_matrix_list1.jpg' style='width:900px;height:500px;''></img><p>If you have memorised all the portraits and names and are ready to start, press Continue.</p><p><strong>Please note: Your memory of these faces will be tested 4 times during this experiment.</strong></p>",0,html-button-response,130,702111,0.0-14.0-0.0,45033,List1B,white,woman,,,,,,,,,,,,,
2156.1,"<img src=""portrait/WM1.jpg""style=""height:400px;""></img>",6,html-button-response,131,705278,0.0-14.0-1.0,45033,List1B,white,woman,,TRUE,6,,,,,,,,,,
null,CORRECT,,html-keyboard-response,132,706798,0.0-14.0-2.0-0.0,45033,List1B,white,woman,,,,null,,,,,,,,,
2373.9,"<img src=""portrait/BM1.jpg""style=""height:400px;""></img>",4,html-button-response,133,709174,0.0-14.0-4.0,45033,List1B,white,woman,,TRUE,4,,,,,,,,,,
null,CORRECT,,html-keyboard-response,134,710686,0.0-14.0-5.0-0.0,45033,List1B,white,woman,,,,null,,,,,,,,,
2463,"<img src=""portrait/WM2.jpg""style=""height:400px;""></img>",7,html-button-response,135,713152,0.0-14.0-7.0,45033,List1B,white,woman,,TRUE,7,,,,,,,,,,
null,CORRECT,,html-keyboard-response,136,714672,0.0-14.0-8.0-0.0,45033,List1B,white,woman,,,,null,,,,,,,,,
1858.3,"<img src=""portrait/WW1.jpg""style=""height:400px;""></img>",1,html-button-response,137,716533,0.0-14.0-10.0,45033,List1B,white,woman,,TRUE,1,,,,,,,,,,
null,CORRECT,,html-keyboard-response,138,718066,0.0-14.0-11.0-0.0,45033,List1B,white,woman,,,,null,,,,,,,,,
3215.2,"<img src=""portrait/BW1.jpg""style=""height:400px;""></img>",0,html-button-response,139,721284,0.0-14.0-13.0,45033,List1B,white,woman,,TRUE,0,,,,,,,,,,
null,CORRECT,,html-keyboard-response,140,722804,0.0-14.0-14.0-0.0,45033,List1B,white,woman,,,,null,,,,,,,,,
1577.9,"<img src=""portrait/WW2.jpg""style=""height:400px;""></img>",3,html-button-response,141,724384,0.0-14.0-16.0,45033,List1B,white,woman,,TRUE,3,,,,,,,,,,
null,CORRECT,,html-keyboard-response,142,725896,0.0-14.0-17.0-0.0,45033,List1B,white,woman,,,,null,,,,,,,,,
1091.6,"<img src=""portrait/BW2.jpg""style=""height:400px;""></img>",2,html-button-response,143,726989,0.0-14.0-19.0,45033,List1B,white,woman,,TRUE,2,,,,,,,,,,
null,CORRECT,,html-keyboard-response,144,728508,0.0-14.0-20.0-0.0,45033,List1B,white,woman,,,,null,,,,,,,,,
1631.1,"<img src=""portrait/BM2.jpg""style=""height:400px;""></img>",5,html-button-response,145,730141,0.0-14.0-22.0,45033,List1B,white,woman,,TRUE,5,,,,,,,,,,
null,CORRECT,,html-keyboard-response,146,731649,0.0-14.0-23.0-0.0,45033,List1B,white,woman,,,,null,,,,,,,,,
432519.3,<p>You got 8 out of 8 right first time. Press Continue.</p>,0,html-button-response,147,1164170,0.0-14.0-25.0,45033,List1B,white,woman,,,,,,,,,,,,,
null,"<div style=""font-size:60px;"">+</div>",,html-keyboard-response,148,1165679,0.0-15.0-0.0,45033,List1B,white,woman,,,,null,,,,,,,,,
null,"<img src=""stim_listB/hug5.gif""style=""height:400px;""></stim_listB>",,html-keyboard-response,149,1167689,0.0-15.0-1.0,45033,List1B,white,woman,,,,null,,,,,,,,,
null,is hugging,,html-keyboard-response,150,1169701,0.0-15.0-2.0,45033,List1B,white,woman,,,,null,,,,,,,,,
3739.2,,,survey-text,151,1173445,0.0-15.0-3.0,45033,List1B,white,woman,,,,,"{""Q0"":""fred is hugging luke""}","<img src=""stim_listB/hug5.gif""style=""height:400px;""></stim_listB>",is hugging,,,,,,
null,"<div style=""font-size:60px;"">+</div>",,html-keyboard-response,152,1173951,0.0-15.0-0.1,45033,List1B,white,woman,,,,null,,,,,,,,,
null,"<img src=""stim_listB/challenge6.gif""style=""height:400px;""></stim_listB>",,html-keyboard-response,153,1175958,0.0-15.0-1.1,45033,List1B,white,woman,,,,null,,,,,,,,,
null,is being challenged by,,html-keyboard-response,154,1177966,0.0-15.0-2.1,45033,List1B,white,woman,,,,null,,,,,,,,,
4245.8,,,survey-text,155,1182215,0.0-15.0-3.1,45033,List1B,white,woman,,,,,"{""Q0"":""fred is being challenged by dave""}","<img src=""stim_listB/challenge6.gif""style=""height:400px;""></stim_listB>",is being challenged by,,,,,,
null,"<div style=""font-size:60px;"">+</div>",,html-keyboard-response,156,1182723,0.0-15.0-0.2,45033,List1B,white,woman,,,,null,,,,,,,,,
null,"<img src=""stim_listB/oppose5.gif""style=""height:400px;""></stim_listB>",,html-keyboard-response,157,1184733,0.0-15.0-1.2,45033,List1B,white,woman,,,,null,,,,,,,,,
null,is opposing,,html-keyboard-response,158,1186745,0.0-15.0-2.2,45033,List1B,white,woman,,,,null,,,,,,,,,
3487.2,,,survey-text,159,1190236,0.0-15.0-3.2,45033,List1B,white,woman,,,,,"{""Q0"":""mike is opposing dave""}","<img src=""stim_listB/oppose5.gif""style=""height:400px;""></stim_listB>",is opposing,,,,,,
null,"<div style=""font-size:60px;"">+</div>",,html-keyboard-response,160,1190749,0.0-15.0-0.3,45033,List1B,white,woman,,,,null,,,,,,,,,
null,"<img src=""stim_listB/kiss8.gif""style=""height:400px;""></stim_listB>",,html-keyboard-response,161,1192753,0.0-15.0-1.3,45033,List1B,white,woman,,,,null,,,,,,,,,
null,is being kissed by,,html-keyboard-response,162,1194763,0.0-15.0-2.3,45033,List1B,white,woman,,,,null,,,,,,,,,
3755.2,,,survey-text,163,1198522,0.0-15.0-3.3,45033,List1B,white,woman,,,,,"{""Q0"":""kate is being kissed by jane""}","<img src=""stim_listB/kiss8.gif""style=""height:400px;""></stim_listB>",is being kissed by,,,,,,
null,"<div style=""font-size:60px;"">+</div>",,html-keyboard-response,164,1199027,0.0-15.0-0.4,45033,List1B,white,woman,,,,null,,,,,,,,,
null,"<img src=""stim_listB/touch8.gif""style=""height:400px;""></stim_listB>",,html-keyboard-response,165,1201030,0.0-15.0-1.4,45033,List1B,white,woman,,,,null,,,,,,,,,
null,is being touched by,,html-keyboard-response,166,1203039,0.0-15.0-2.4,45033,List1B,white,woman,,,,null,,,,,,,,,
4442.1,,,survey-text,167,1207484,0.0-15.0-3.4,45033,List1B,white,woman,,,,,"{""Q0"":""ruth is being touched by beth""}","<img src=""stim_listB/touch8.gif""style=""height:400px;""></stim_listB>",is being touched by,,,,,,
null,"<div style=""font-size:60px;"">+</div>",,html-keyboard-response,168,1207994,0.0-15.0-0.5,45033,List1B,white,woman,,,,null,,,,,,,,,
null,"<img src=""stim_listB/shout2.gif""style=""height:400px;""></stim_listB>",,html-keyboard-response,169,1210010,0.0-15.0-1.5,45033,List1B,white,woman,,,,null,,,,,,,,,
null,is being shouted at by,,html-keyboard-response,170,1212014,0.0-15.0-2.5,45033,List1B,white,woman,,,,null,,,,,,,,,
4170.4,,,survey-text,171,1216188,0.0-15.0-3.5,45033,List1B,white,woman,,,,,"{""Q0"":""kate is being shouted at by mike""}","<img src=""stim_listB/shout2.gif""style=""height:400px;""></stim_listB>",is being shouted at by,,,,,,
null,"<div style=""font-size:60px;"">+</div>",,html-keyboard-response,172,1216691,0.0-15.0-0.6,45033,List1B,white,woman,,,,null,,,,,,,,,
null,"<img src=""stim_listB/hug7.gif""style=""height:400px;""></stim_listB>",,html-keyboard-response,173,1218696,0.0-15.0-1.6,45033,List1B,white,woman,,,,null,,,,,,,,,
null,is hugging,,html-keyboard-response,174,1220700,0.0-15.0-2.6,45033,List1B,white,woman,,,,null,,,,,,,,,
2463,,,survey-text,175,1223167,0.0-15.0-3.6,45033,List1B,white,woman,,,,,"{""Q0"":""ruth is hugging beth""}","<img src=""stim_listB/hug7.gif""style=""height:400px;""></stim_listB>",is hugging,,,,,,
null,"<div style=""font-size:60px;"">+</div>",,html-keyboard-response,176,1223680,0.0-15.0-0.7,45033,List1B,white,woman,,,,null,,,,,,,,,
null,"<img src=""stim_listB/copy3.gif""style=""height:400px;""></stim_listB>",,html-keyboard-response,177,1225686,0.0-15.0-1.7,45033,List1B,white,woman,,,,null,,,,,,,,,
null,is copying,,html-keyboard-response,178,1227690,0.0-15.0-2.7,45033,List1B,white,woman,,,,null,,,,,,,,,
3545.7,,,survey-text,179,1231239,0.0-15.0-3.7,45033,List1B,white,woman,,,,,"{""Q0"":""ruth is copying dave""}","<img src=""stim_listB/copy3.gif""style=""height:400px;""></stim_listB>",is copying,,,,,,
null,"<div style=""font-size:60px;"">+</div>",,html-keyboard-response,180,1231743,0.0-15.0-0.8,45033,List1B,white,woman,,,,null,,,,,,,,,
null,"<img src=""stim_listB/touch3.gif""style=""height:400px;""></stim_listB>",,html-keyboard-response,181,1233761,0.0-15.0-1.8,45033,List1B,white,woman,,,,null,,,,,,,,,
null,is touching,,html-keyboard-response,182,1235776,0.0-15.0-2.8,45033,List1B,white,woman,,,,null,,,,,,,,,
2769.5,,,survey-text,183,1238549,0.0-15.0-3.8,45033,List1B,white,woman,,,,,"{""Q0"":""jane is touching dave""}","<img src=""stim_listB/touch3.gif""style=""height:400px;""></stim_listB>",is touching,,,,,,
null,"<div style=""font-size:60px;"">+</div>",,html-keyboard-response,184,1239062,0.0-15.0-0.9,45033,List1B,white,woman,,,,null,,,,,,,,,
null,"<img src=""stim_listB/greet7.gif""style=""height:400px;""></stim_listB>",,html-keyboard-response,185,1241067,0.0-15.0-1.9,45033,List1B,white,woman,,,,null,,,,,,,,,
null,is greeting,,html-keyboard-response,186,1243073,0.0-15.0-2.9,45033,List1B,white,woman,,,,null,,,,,,,,,
3827.4,,,survey-text,187,1246904,0.0-15.0-3.9,45033,List1B,white,woman,,,,,"{""Q0"":""kate is greeting ruth""}","<img src=""stim_listB/greet7.gif""style=""height:400px;""></stim_listB>",is greeting,,,,,,
null,"<div style=""font-size:60px;"">+</div>",,html-keyboard-response,188,1247418,0.0-15.0-0.10,45033,List1B,white,woman,,,,null,,,,,,,,,
null,"<img src=""stim_listB/challenge5.gif""style=""height:400px;""></stim_listB>",,html-keyboard-response,189,1249421,0.0-15.0-1.10,45033,List1B,white,woman,,,,null,,,,,,,,,
null,is challenging,,html-keyboard-response,190,1251424,0.0-15.0-2.10,45033,List1B,white,woman,,,,null,,,,,,,,,
4129.4,,,survey-text,191,1255557,0.0-15.0-3.10,45033,List1B,white,woman,,,,,"{""Q0"":""luke is challenging mike""}","<img src=""stim_listB/challenge5.gif""style=""height:400px;""></stim_listB>",is challenging,,,,,,
null,"<div style=""font-size:60px;"">+</div>",,html-keyboard-response,192,1256058,0.0-15.0-0.11,45033,List1B,white,woman,,,,null,,,,,,,,,
null,"<img src=""stim_listB/hug1.gif""style=""height:400px;""></stim_listB>",,html-keyboard-response,193,1258064,0.0-15.0-1.11,45033,List1B,white,woman,,,,null,,,,,,,,,
null,is hugging,,html-keyboard-response,194,1260073,0.0-15.0-2.11,45033,List1B,white,woman,,,,null,,,,,,,,,
2561.6,,,survey-text,195,1262637,0.0-15.0-3.11,45033,List1B,white,woman,,,,,"{""Q0"":""fred is hugging beth""}","<img src=""stim_listB/hug1.gif""style=""height:400px;""></stim_listB>",is hugging,,,,,,
null,"<div style=""font-size:60px;"">+</div>",,html-keyboard-response,196,1263138,0.0-15.0-0.12,45033,List1B,white,woman,,,,null,,,,,,,,,
null,"<img src=""stim_listB/greet6.gif""style=""height:400px;""></stim_listB>",,html-keyboard-response,197,1265142,0.0-15.0-1.12,45033,List1B,white,woman,,,,null,,,,,,,,,
null,is being greeted by,,html-keyboard-response,198,1267159,0.0-15.0-2.12,45033,List1B,white,woman,,,,null,,,,,,,,,
54304.4,,,survey-text,199,1321468,0.0-15.0-3.12,45033,List1B,white,woman,,,,,"{""Q0"":""fred is being greeted by dave""}","<img src=""stim_listB/greet6.gif""style=""height:400px;""></stim_listB>",is being greeted by,,,,,,
null,"<div style=""font-size:60px;"">+</div>",,html-keyboard-response,200,1321972,0.0-15.0-0.13,45033,List1B,white,woman,,,,null,,,,,,,,,
null,"<img src=""stim_listB/look2.gif""style=""height:400px;""></stim_listB>",,html-keyboard-response,201,1323979,0.0-15.0-1.13,45033,List1B,white,woman,,,,null,,,,,,,,,
null,is being looked at by,,html-keyboard-response,202,1325990,0.0-15.0-2.13,45033,List1B,white,woman,,,,null,,,,,,,,,
3447.8,,,survey-text,203,1329442,0.0-15.0-3.13,45033,List1B,white,woman,,,,,"{""Q0"":""kate is looked at by mike""}","<img src=""stim_listB/look2.gif""style=""height:400px;""></stim_listB>",is being looked at by,,,,,,
null,"<div style=""font-size:60px;"">+</div>",,html-keyboard-response,204,1329952,0.0-15.0-0.14,45033,List1B,white,woman,,,,null,,,,,,,,,
null,"<img src=""stim_listB/shout6.gif""style=""height:400px;""></stim_listB>",,html-keyboard-response,205,1331958,0.0-15.0-1.14,45033,List1B,white,woman,,,,null,,,,,,,,,
null,is being shouted at by,,html-keyboard-response,206,1333966,0.0-15.0-2.14,45033,List1B,white,woman,,,,null,,,,,,,,,
4875.2,,,survey-text,207,1338845,0.0-15.0-3.14,45033,List1B,white,woman,,,,,"{""Q0"":""dave is being shouted at by mike""}","<img src=""stim_listB/shout6.gif""style=""height:400px;""></stim_listB>",is being shouted at by,,,,,,
null,"<div style=""font-size:60px;"">+</div>",,html-keyboard-response,208,1339357,0.0-15.0-0.15,45033,List1B,white,woman,,,,null,,,,,,,,,
null,"<img src=""stim_listB/shout5.gif""style=""height:400px;""></stim_listB>",,html-keyboard-response,209,1341367,0.0-15.0-1.15,45033,List1B,white,woman,,,,null,,,,,,,,,
null,is shouting at,,html-keyboard-response,210,1343375,0.0-15.0-2.15,45033,List1B,white,woman,,,,null,,,,,,,,,
3791.7,,,survey-text,211,1347171,0.0-15.0-3.15,45033,List1B,white,woman,,,,,"{""Q0"":""luke is shouting at fred""}","<img src=""stim_listB/shout5.gif""style=""height:400px;""></stim_listB>",is shouting at,,,,,,
null,"<div style=""font-size:60px;"">+</div>",,html-keyboard-response,212,1347687,0.0-15.0-0.16,45033,List1B,white,woman,,,,null,,,,,,,,,
null,"<img src=""stim_listB/kiss1.gif""style=""height:400px;""></stim_listB>",,html-keyboard-response,213,1349700,0.0-15.0-1.16,45033,List1B,white,woman,,,,null,,,,,,,,,
null,is kissing,,html-keyboard-response,214,1351715,0.0-15.0-2.16,45033,List1B,white,woman,,,,null,,,,,,,,,
3027.1,,,survey-text,215,1354747,0.0-15.0-3.16,45033,List1B,white,woman,,,,,"{""Q0"":""beth is kissing fred""}","<img src=""stim_listB/kiss1.gif""style=""height:400px;""></stim_listB>",is kissing,,,,,,
null,"<div style=""font-size:60px;"">+</div>",,html-keyboard-response,216,1355252,0.0-15.0-0.17,45033,List1B,white,woman,,,,null,,,,,,,,,
null,"<img src=""stim_listB/look7.gif""style=""height:400px;""></stim_listB>",,html-keyboard-response,217,1357258,0.0-15.0-1.17,45033,List1B,white,woman,,,,null,,,,,,,,,
null,is looking at,,html-keyboard-response,218,1359269,0.0-15.0-2.17,45033,List1B,white,woman,,,,null,,,,,,,,,
3731.7,,,survey-text,219,1363004,0.0-15.0-3.17,45033,List1B,white,woman,,,,,"{""Q0"":""beth is looking at ruth""}","<img src=""stim_listB/look7.gif""style=""height:400px;""></stim_listB>",is looking at,,,,,,
null,"<div style=""font-size:60px;"">+</div>",,html-keyboard-response,220,1363515,0.0-15.0-0.18,45033,List1B,white,woman,,,,null,,,,,,,,,
null,"<img src=""stim_listB/seduce2.gif""style=""height:400px;""></stim_listB>",,html-keyboard-response,221,1365531,0.0-15.0-1.18,45033,List1B,white,woman,,,,null,,,,,,,,,
null,is being seduced by,,html-keyboard-response,222,1367541,0.0-15.0-2.18,45033,List1B,white,woman,,,,null,,,,,,,,,
3663.8,,,survey-text,223,1371210,0.0-15.0-3.18,45033,List1B,white,woman,,,,,"{""Q0"":""beth is being seduced by mike""}","<img src=""stim_listB/seduce2.gif""style=""height:400px;""></stim_listB>",is being seduced by,,,,,,
null,"<div style=""font-size:60px;"">+</div>",,html-keyboard-response,224,1371724,0.0-15.0-0.19,45033,List1B,white,woman,,,,null,,,,,,,,,
null,"<img src=""stim_listB/kiss7.gif""style=""height:400px;""></stim_listB>",,html-keyboard-response,225,1373735,0.0-15.0-1.19,45033,List1B,white,woman,,,,null,,,,,,,,,
null,is kissing,,html-keyboard-response,226,1375736,0.0-15.0-2.19,45033,List1B,white,woman,,,,null,,,,,,,,,
2572.9,,,survey-text,227,1378313,0.0-15.0-3.19,45033,List1B,white,woman,,,,,"{""Q0"":""ruth is kissing beth""}","<img src=""stim_listB/kiss7.gif""style=""height:400px;""></stim_listB>",is kissing,,,,,,
16521.3,"<img src='img/portrait_matrix_list1.jpg' style='width:900px;height:500px;''></img><p>If you have memorised all the portraits and names and are ready to start, press Continue.</p><p><strong>Please note: Your memory of these faces will be tested 4 times during this experiment.</strong></p>",0,html-button-response,228,1394835,0.0-16.0-0.0,45033,List1B,white,woman,,,,,,,,,,,,,
4485.4,"<img src=""portrait/BW1.jpg""style=""height:400px;""></img>",0,html-button-response,229,1400324,0.0-16.0-1.0,45033,List1B,white,woman,,TRUE,0,,,,,,,,,,
null,CORRECT,,html-keyboard-response,230,1401837,0.0-16.0-2.0-0.0,45033,List1B,white,woman,,,,null,,,,,,,,,
2023.3,"<img src=""portrait/WW1.jpg""style=""height:400px;""></img>",1,html-button-response,231,1403862,0.0-16.0-4.0,45033,List1B,white,woman,,TRUE,1,,,,,,,,,,
null,CORRECT,,html-keyboard-response,232,1405370,0.0-16.0-5.0-0.0,45033,List1B,white,woman,,,,null,,,,,,,,,
1810.9,"<img src=""portrait/WM2.jpg""style=""height:400px;""></img>",7,html-button-response,233,1407183,0.0-16.0-7.0,45033,List1B,white,woman,,TRUE,7,,,,,,,,,,
null,CORRECT,,html-keyboard-response,234,1408688,0.0-16.0-8.0-0.0,45033,List1B,white,woman,,,,null,,,,,,,,,
1331.9,"<img src=""portrait/WW2.jpg""style=""height:400px;""></img>",3,html-button-response,235,1410023,0.0-16.0-10.0,45033,List1B,white,woman,,TRUE,3,,,,,,,,,,
null,CORRECT,,html-keyboard-response,236,1411536,0.0-16.0-11.0-0.0,45033,List1B,white,woman,,,,null,,,,,,,,,
1274.4,"<img src=""portrait/BW2.jpg""style=""height:400px;""></img>",2,html-button-response,237,1412812,0.0-16.0-13.0,45033,List1B,white,woman,,TRUE,2,,,,,,,,,,
null,CORRECT,,html-keyboard-response,238,1414318,0.0-16.0-14.0-0.0,45033,List1B,white,woman,,,,null,,,,,,,,,
1628.9,"<img src=""portrait/BM2.jpg""style=""height:400px;""></img>",5,html-button-response,239,1415949,0.0-16.0-16.0,45033,List1B,white,woman,,TRUE,5,,,,,,,,,,
null,CORRECT,,html-keyboard-response,240,1417468,0.0-16.0-17.0-0.0,45033,List1B,white,woman,,,,null,,,,,,,,,
1844.9,"<img src=""portrait/WM1.jpg""style=""height:400px;""></img>",6,html-button-response,241,1419316,0.0-16.0-19.0,45033,List1B,white,woman,,TRUE,6,,,,,,,,,,
null,CORRECT,,html-keyboard-response,242,1420835,0.0-16.0-20.0-0.0,45033,List1B,white,woman,,,,null,,,,,,,,,
1434,"<img src=""portrait/BM1.jpg""style=""height:400px;""></img>",4,html-button-response,243,1422272,0.0-16.0-22.0,45033,List1B,white,woman,,TRUE,4,,,,,,,,,,
null,CORRECT,,html-keyboard-response,244,1423780,0.0-16.0-23.0-0.0,45033,List1B,white,woman,,,,null,,,,,,,,,
851.5999999,<p>You got 8 out of 8 right first time. Press Continue.</p>,0,html-button-response,245,1424634,0.0-16.0-25.0,45033,List1B,white,woman,,,,,,,,,,,,,
null,"<div style=""font-size:60px;"">+</div>",,html-keyboard-response,246,1426151,0.0-17.0-0.0,45033,List1B,white,woman,,,,null,,,,,,,,,
null,"<img src=""stim_listB/look1.gif""style=""height:400px;""></stim_listB>",,html-keyboard-response,247,1428168,0.0-17.0-1.0,45033,List1B,white,woman,,,,null,,,,,,,,,
null,is looking at,,html-keyboard-response,248,1430179,0.0-17.0-2.0,45033,List1B,white,woman,,,,null,,,,,,,,,
3088.6,,,survey-text,249,1433272,0.0-17.0-3.0,45033,List1B,white,woman,,,,,"{""Q0"":""beth is looking at fred""}","<img src=""stim_listB/look1.gif""style=""height:400px;""></stim_listB>",is looking at,,,,,,
null,"<div style=""font-size:60px;"">+</div>",,html-keyboard-response,250,1433783,0.0-17.0-0.1,45033,List1B,white,woman,,,,null,,,,,,,,,
null,"<img src=""stim_listB/oppose7.gif""style=""height:400px;""></stim_listB>",,html-keyboard-response,251,1435797,0.0-17.0-1.1,45033,List1B,white,woman,,,,null,,,,,,,,,
null,is opposing,,html-keyboard-response,252,1437806,0.0-17.0-2.1,45033,List1B,white,woman,,,,null,,,,,,,,,
3417.3,,,survey-text,253,1441227,0.0-17.0-3.1,45033,List1B,white,woman,,,,,"{""Q0"":""jane is opposing kate""}","<img src=""stim_listB/oppose7.gif""style=""height:400px;""></stim_listB>",is opposing,,,,,,
null,"<div style=""font-size:60px;"">+</div>",,html-keyboard-response,254,1441730,0.0-17.0-0.2,45033,List1B,white,woman,,,,null,,,,,,,,,
null,"<img src=""stim_listB/oppose1.gif""style=""height:400px;""></stim_listB>",,html-keyboard-response,255,1443744,0.0-17.0-1.2,45033,List1B,white,woman,,,,null,,,,,,,,,
null,is opposing,,html-keyboard-response,256,1445746,0.0-17.0-2.2,45033,List1B,white,woman,,,,null,,,,,,,,,
2668.4,,,survey-text,257,1448418,0.0-17.0-3.2,45033,List1B,white,woman,,,,,"{""Q0"":""kate is opposing luke""}","<img src=""stim_listB/oppose1.gif""style=""height:400px;""></stim_listB>",is opposing,,,,,,
null,"<div style=""font-size:60px;"">+</div>",,html-keyboard-response,258,1448929,0.0-17.0-0.3,45033,List1B,white,woman,,,,null,,,,,,,,,
null,"<img src=""stim_listB/oppose4.gif""style=""height:400px;""></stim_listB>",,html-keyboard-response,259,1450945,0.0-17.0-1.3,45033,List1B,white,woman,,,,null,,,,,,,,,
null,is being opposed by,,html-keyboard-response,260,1452947,0.0-17.0-2.3,45033,List1B,white,woman,,,,null,,,,,,,,,
4593.9,,,survey-text,261,1457545,0.0-17.0-3.3,45033,List1B,white,woman,,,,,"{""Q0"":""ruth is being opposed by luke""}","<img src=""stim_listB/oppose4.gif""style=""height:400px;""></stim_listB>",is being opposed by,,,,,,
null,"<div style=""font-size:60px;"">+</div>",,html-keyboard-response,262,1458047,0.0-17.0-0.4,45033,List1B,white,woman,,,,null,,,,,,,,,
null,"<img src=""stim_listB/challenge8.gif""style=""height:400px;""></stim_listB>",,html-keyboard-response,263,1460063,0.0-17.0-1.4,45033,List1B,white,woman,,,,null,,,,,,,,,
null,is being challenged by,,html-keyboard-response,264,1462077,0.0-17.0-2.4,45033,List1B,white,woman,,,,null,,,,,,,,,
3380.2,,,survey-text,265,1465461,0.0-17.0-3.4,45033,List1B,white,woman,,,,,"{""Q0"":""beth is being challenged by jane""}","<img src=""stim_listB/challenge8.gif""style=""height:400px;""></stim_listB>",is being challenged by,,,,,,
null,"<div style=""font-size:60px;"">+</div>",,html-keyboard-response,266,1465965,0.0-17.0-0.5,45033,List1B,white,woman,,,,null,,,,,,,,,
null,"<img src=""stim_listB/oppose8.gif""style=""height:400px;""></stim_listB>",,html-keyboard-response,267,1467979,0.0-17.0-1.5,45033,List1B,white,woman,,,,null,,,,,,,,,
null,is being opposed by,,html-keyboard-response,268,1469982,0.0-17.0-2.5,45033,List1B,white,woman,,,,null,,,,,,,,,
3434.5,,,survey-text,269,1473420,0.0-17.0-3.5,45033,List1B,white,woman,,,,,"{""Q0"":""beth is being opposed by ruth""}","<img src=""stim_listB/oppose8.gif""style=""height:400px;""></stim_listB>",is being opposed by,,,,,,
null,"<div style=""font-size:60px;"">+</div>",,html-keyboard-response,270,1473931,0.0-17.0-0.6,45033,List1B,white,woman,,,,null,,,,,,,,,
null,"<img src=""stim_listB/oppose3.gif""style=""height:400px;""></stim_listB>",,html-keyboard-response,271,1475944,0.0-17.0-1.6,45033,List1B,white,woman,,,,null,,,,,,,,,
null,is opposing,,html-keyboard-response,272,1477957,0.0-17.0-2.6,45033,List1B,white,woman,,,,null,,,,,,,,,
3762.3,,,survey-text,273,1481722,0.0-17.0-3.6,45033,List1B,white,woman,,,,,"{""Q0"":""ruth is opposing dave""}","<img src=""stim_listB/oppose3.gif""style=""height:400px;""></stim_listB>",is opposing,,,,,,
null,"<div style=""font-size:60px;"">+</div>",,html-keyboard-response,274,1482226,0.0-17.0-0.7,45033,List1B,white,woman,,,,null,,,,,,,,,
null,"<img src=""stim_listB/greet5.gif""style=""height:400px;""></stim_listB>",,html-keyboard-response,275,1484241,0.0-17.0-1.7,45033,List1B,white,woman,,,,null,,,,,,,,,
null,is greeting,,html-keyboard-response,276,1486245,0.0-17.0-2.7,45033,List1B,white,woman,,,,null,,,,,,,,,
3090.4,,,survey-text,277,1489339,0.0-17.0-3.7,45033,List1B,white,woman,,,,,"{""Q0"":""mike is greeting luke""}","<img src=""stim_listB/greet5.gif""style=""height:400px;""></stim_listB>",is greeting,,,,,,
null,"<div style=""font-size:60px;"">+</div>",,html-keyboard-response,278,1489843,0.0-17.0-0.8,45033,List1B,white,woman,,,,null,,,,,,,,,
null,"<img src=""stim_listB/hug2.gif""style=""height:400px;""></stim_listB>",,html-keyboard-response,279,1491860,0.0-17.0-1.8,45033,List1B,white,woman,,,,null,,,,,,,,,
null,is being hugged by,,html-keyboard-response,280,1493863,0.0-17.0-2.8,45033,List1B,white,woman,,,,null,,,,,,,,,
3434.6,,,survey-text,281,1497301,0.0-17.0-3.8,45033,List1B,white,woman,,,,,"{""Q0"":""kate is being hugged by mike""}","<img src=""stim_listB/hug2.gif""style=""height:400px;""></stim_listB>",is being hugged by,,,,,,
null,"<div style=""font-size:60px;"">+</div>",,html-keyboard-response,282,1497814,0.0-17.0-0.9,45033,List1B,white,woman,,,,null,,,,,,,,,
null,"<img src=""stim_listB/touch2.gif""style=""height:400px;""></stim_listB>",,html-keyboard-response,283,1499829,0.0-17.0-1.9,45033,List1B,white,woman,,,,null,,,,,,,,,
null,is being touched by,,html-keyboard-response,284,1501838,0.0-17.0-2.9,45033,List1B,white,woman,,,,null,,,,,,,,,
4506.4,,,survey-text,285,1506348,0.0-17.0-3.9,45033,List1B,white,woman,,,,,"{""Q0"":""beth is being touched by fred""}","<img src=""stim_listB/touch2.gif""style=""height:400px;""></stim_listB>",is being touched by,,,,,,
null,"<div style=""font-size:60px;"">+</div>",,html-keyboard-response,286,1506858,0.0-17.0-0.10,45033,List1B,white,woman,,,,null,,,,,,,,,
null,"<img src=""stim_listB/greet8.gif""style=""height:400px;""></stim_listB>",,html-keyboard-response,287,1508874,0.0-17.0-1.10,45033,List1B,white,woman,,,,null,,,,,,,,,
null,is being greeted by,,html-keyboard-response,288,1510879,0.0-17.0-2.10,45033,List1B,white,woman,,,,null,,,,,,,,,
4264.6,,,survey-text,289,1515147,0.0-17.0-3.10,45033,List1B,white,woman,,,,,"{""Q0"":""beth is being greeted by ruth""}","<img src=""stim_listB/greet8.gif""style=""height:400px;""></stim_listB>",is being greeted by,,,,,,
null,"<div style=""font-size:60px;"">+</div>",,html-keyboard-response,290,1515657,0.0-17.0-0.11,45033,List1B,white,woman,,,,null,,,,,,,,,
null,"<img src=""stim_listB/touch4.gif""style=""height:400px;""></stim_listB>",,html-keyboard-response,291,1517673,0.0-17.0-1.11,45033,List1B,white,woman,,,,null,,,,,,,,,
null,is being touched by,,html-keyboard-response,292,1519689,0.0-17.0-2.11,45033,List1B,white,woman,,,,null,,,,,,,,,
5521.3,,,survey-text,293,1525215,0.0-17.0-3.11,45033,List1B,white,woman,,,,,"{""Q0"":""ruth is being touched by luke""}","<img src=""stim_listB/touch4.gif""style=""height:400px;""></stim_listB>",is being touched by,,,,,,
null,"<div style=""font-size:60px;"">+</div>",,html-keyboard-response,294,1525721,0.0-17.0-0.12,45033,List1B,white,woman,,,,null,,,,,,,,,
null,"<img src=""stim_listB/seduce5.gif""style=""height:400px;""></stim_listB>",,html-keyboard-response,295,1527739,0.0-17.0-1.12,45033,List1B,white,woman,,,,null,,,,,,,,,
null,is seducing,,html-keyboard-response,296,1529751,0.0-17.0-2.12,45033,List1B,white,woman,,,,null,,,,,,,,,
2733.9,,,survey-text,297,1532489,0.0-17.0-3.12,45033,List1B,white,woman,,,,,"{""Q0"":""fred is seducing dave""}","<img src=""stim_listB/seduce5.gif""style=""height:400px;""></stim_listB>",is seducing,,,,,,
null,"<div style=""font-size:60px;"">+</div>",,html-keyboard-response,298,1533003,0.0-17.0-0.13,45033,List1B,white,woman,,,,null,,,,,,,,,
null,"<img src=""stim_listB/seduce1.gif""style=""height:400px;""></stim_listB>",,html-keyboard-response,299,1535020,0.0-17.0-1.13,45033,List1B,white,woman,,,,null,,,,,,,,,
null,is seducing,,html-keyboard-response,300,1537024,0.0-17.0-2.13,45033,List1B,white,woman,,,,null,,,,,,,,,
2708.5,,,survey-text,301,1539737,0.0-17.0-3.13,45033,List1B,white,woman,,,,,"{""Q0"":""kate is seducing fred""}","<img src=""stim_listB/seduce1.gif""style=""height:400px;""></stim_listB>",is seducing,,,,,,
null,"<div style=""font-size:60px;"">+</div>",,html-keyboard-response,302,1540239,0.0-17.0-0.14,45033,List1B,white,woman,,,,null,,,,,,,,,
null,"<img src=""stim_listB/oppose2.gif""style=""height:400px;""></stim_listB>",,html-keyboard-response,303,1542246,0.0-17.0-1.14,45033,List1B,white,woman,,,,null,,,,,,,,,
null,is being opposed by,,html-keyboard-response,304,1544255,0.0-17.0-2.14,45033,List1B,white,woman,,,,null,,,,,,,,,
3692.9,,,survey-text,305,1547952,0.0-17.0-3.14,45033,List1B,white,woman,,,,,"{""Q0"":""fred is being opposed by beth""}","<img src=""stim_listB/oppose2.gif""style=""height:400px;""></stim_listB>",is being opposed by,,,,,,
null,"<div style=""font-size:60px;"">+</div>",,html-keyboard-response,306,1548467,0.0-17.0-0.15,45033,List1B,white,woman,,,,null,,,,,,,,,
null,"<img src=""stim_listB/greet4.gif""style=""height:400px;""></stim_listB>",,html-keyboard-response,307,1550477,0.0-17.0-1.15,45033,List1B,white,woman,,,,null,,,,,,,,,
null,is being greeted by,,html-keyboard-response,308,1552489,0.0-17.0-2.15,45033,List1B,white,woman,,,,null,,,,,,,,,
3484.7,,,survey-text,309,1555977,0.0-17.0-3.15,45033,List1B,white,woman,,,,,"{""Q0"":""jane is being greeted by luke""}","<img src=""stim_listB/greet4.gif""style=""height:400px;""></stim_listB>",is being greeted by,,,,,,
null,"<div style=""font-size:60px;"">+</div>",,html-keyboard-response,310,1556487,0.0-17.0-0.16,45033,List1B,white,woman,,,,null,,,,,,,,,
null,"<img src=""stim_listB/seduce4.gif""style=""height:400px;""></stim_listB>",,html-keyboard-response,311,1558501,0.0-17.0-1.16,45033,List1B,white,woman,,,,null,,,,,,,,,
null,is being seduced by,,html-keyboard-response,312,1560510,0.0-17.0-2.16,45033,List1B,white,woman,,,,null,,,,,,,,,
3279.8,,,survey-text,313,1563794,0.0-17.0-3.16,45033,List1B,white,woman,,,,,"{""Q0"":""ruth is being seduced by dave""}","<img src=""stim_listB/seduce4.gif""style=""height:400px;""></stim_listB>",is being seduced by,,,,,,
null,"<div style=""font-size:60px;"">+</div>",,html-keyboard-response,314,1564304,0.0-17.0-0.17,45033,List1B,white,woman,,,,null,,,,,,,,,
null,"<img src=""stim_listB/copy5.gif""style=""height:400px;""></stim_listB>",,html-keyboard-response,315,1566322,0.0-17.0-1.17,45033,List1B,white,woman,,,,null,,,,,,,,,
null,is copying,,html-keyboard-response,316,1568324,0.0-17.0-2.17,45033,List1B,white,woman,,,,null,,,,,,,,,
2569.6,,,survey-text,317,1570897,0.0-17.0-3.17,45033,List1B,white,woman,,,,,"{""Q0"":""luke is copying mike""}","<img src=""stim_listB/copy5.gif""style=""height:400px;""></stim_listB>",is copying,,,,,,
null,"<div style=""font-size:60px;"">+</div>",,html-keyboard-response,318,1571407,0.0-17.0-0.18,45033,List1B,white,woman,,,,null,,,,,,,,,
null,"<img src=""stim_listB/look8.gif""style=""height:400px;""></stim_listB>",,html-keyboard-response,319,1573421,0.0-17.0-1.18,45033,List1B,white,woman,,,,null,,,,,,,,,
null,is being looked at by,,html-keyboard-response,320,1575424,0.0-17.0-2.18,45033,List1B,white,woman,,,,null,,,,,,,,,
3494.2,,,survey-text,321,1578922,0.0-17.0-3.18,45033,List1B,white,woman,,,,,"{""Q0"":""kate is being looked at by jane""}","<img src=""stim_listB/look8.gif""style=""height:400px;""></stim_listB>",is being looked at by,,,,,,
null,"<div style=""font-size:60px;"">+</div>",,html-keyboard-response,322,1579425,0.0-17.0-0.19,45033,List1B,white,woman,,,,null,,,,,,,,,
null,"<img src=""stim_listB/copy4.gif""style=""height:400px;""></stim_listB>",,html-keyboard-response,323,1581438,0.0-17.0-1.19,45033,List1B,white,woman,,,,null,,,,,,,,,
null,is being copied by,,html-keyboard-response,324,1583440,0.0-17.0-2.19,45033,List1B,white,woman,,,,null,,,,,,,,,
3817.3,,,survey-text,325,1587261,0.0-17.0-3.19,45033,List1B,white,woman,,,,,"{""Q0"":""jane is being copied by luke""}","<img src=""stim_listB/copy4.gif""style=""height:400px;""></stim_listB>",is being copied by,,,,,,
2010.2,"<img src='img/portrait_matrix_list1.jpg' style='width:900px;height:500px;''></img><p>If you have memorised all the portraits and names and are ready to start, press Continue.</p><p><strong>Please note: Your memory of these faces will be tested 4 times during this experiment.</strong></p>",0,html-button-response,326,1589272,0.0-18.0-0.0,45033,List1B,white,woman,,,,,,,,,,,,,
1400.6,"<img src=""portrait/WW2.jpg""style=""height:400px;""></img>",3,html-button-response,327,1591684,0.0-18.0-1.0,45033,List1B,white,woman,,TRUE,3,,,,,,,,,,
null,CORRECT,,html-keyboard-response,328,1593194,0.0-18.0-2.0-0.0,45033,List1B,white,woman,,,,null,,,,,,,,,
1962.7,"<img src=""portrait/WW1.jpg""style=""height:400px;""></img>",1,html-button-response,329,1595159,0.0-18.0-4.0,45033,List1B,white,woman,,TRUE,1,,,,,,,,,,
null,CORRECT,,html-keyboard-response,330,1596673,0.0-18.0-5.0-0.0,45033,List1B,white,woman,,,,null,,,,,,,,,
1199.7,"<img src=""portrait/WM2.jpg""style=""height:400px;""></img>",7,html-button-response,331,1597875,0.0-18.0-7.0,45033,List1B,white,woman,,TRUE,7,,,,,,,,,,
null,CORRECT,,html-keyboard-response,332,1599403,0.0-18.0-8.0-0.0,45033,List1B,white,woman,,,,null,,,,,,,,,
1966.8,"<img src=""portrait/WM1.jpg""style=""height:400px;""></img>",6,html-button-response,333,1601374,0.0-18.0-10.0,45033,List1B,white,woman,,TRUE,6,,,,,,,,,,
null,CORRECT,,html-keyboard-response,334,1602890,0.0-18.0-11.0-0.0,45033,List1B,white,woman,,,,null,,,,,,,,,
3701.2,"<img src=""portrait/BW2.jpg""style=""height:400px;""></img>",2,html-button-response,335,1606593,0.0-18.0-13.0,45033,List1B,white,woman,,TRUE,2,,,,,,,,,,
null,CORRECT,,html-keyboard-response,336,1608103,0.0-18.0-14.0-0.0,45033,List1B,white,woman,,,,null,,,,,,,,,
1899.8,"<img src=""portrait/BM1.jpg""style=""height:400px;""></img>",4,html-button-response,337,1610006,0.0-18.0-16.0,45033,List1B,white,woman,,TRUE,4,,,,,,,,,,
null,CORRECT,,html-keyboard-response,338,1611525,0.0-18.0-17.0-0.0,45033,List1B,white,woman,,,,null,,,,,,,,,
1972.3,"<img src=""portrait/BW1.jpg""style=""height:400px;""></img>",0,html-button-response,339,1613500,0.0-18.0-19.0,45033,List1B,white,woman,,TRUE,0,,,,,,,,,,
null,CORRECT,,html-keyboard-response,340,1615008,0.0-18.0-20.0-0.0,45033,List1B,white,woman,,,,null,,,,,,,,,
1707.7,"<img src=""portrait/BM2.jpg""style=""height:400px;""></img>",5,html-button-response,341,1616718,0.0-18.0-22.0,45033,List1B,white,woman,,TRUE,5,,,,,,,,,,
null,CORRECT,,html-keyboard-response,342,1618235,0.0-18.0-23.0-0.0,45033,List1B,white,woman,,,,null,,,,,,,,,
1121.6,<p>You got 8 out of 8 right first time. Press Continue.</p>,0,html-button-response,343,1619359,0.0-18.0-25.0,45033,List1B,white,woman,,,,,,,,,,,,,
null,"<div style=""font-size:60px;"">+</div>",,html-keyboard-response,344,1620886,0.0-19.0-0.0,45033,List1B,white,woman,,,,null,,,,,,,,,
null,"<img src=""stim_listB/copy2.gif""style=""height:400px;""></stim_listB>",,html-keyboard-response,345,1622891,0.0-19.0-1.0,45033,List1B,white,woman,,,,null,,,,,,,,,
null,is being copied by,,html-keyboard-response,346,1624902,0.0-19.0-2.0,45033,List1B,white,woman,,,,null,,,,,,,,,
3965.4,,,survey-text,347,1628871,0.0-19.0-3.0,45033,List1B,white,woman,,,,,"{""Q0"":""kate is being copied by fred""}","<img src=""stim_listB/copy2.gif""style=""height:400px;""></stim_listB>",is being copied by,,,,,,
null,"<div style=""font-size:60px;"">+</div>",,html-keyboard-response,348,1629374,0.0-19.0-0.1,45033,List1B,white,woman,,,,null,,,,,,,,,
null,"<img src=""stim_listB/hug8.gif""style=""height:400px;""></stim_listB>",,html-keyboard-response,349,1631386,0.0-19.0-1.1,45033,List1B,white,woman,,,,null,,,,,,,,,
null,is being hugged by,,html-keyboard-response,350,1633389,0.0-19.0-2.1,45033,List1B,white,woman,,,,null,,,,,,,,,
4533.3,,,survey-text,351,1637926,0.0-19.0-3.1,45033,List1B,white,woman,,,,,"{""Q0"":""kate is being hugged by jane""}","<img src=""stim_listB/hug8.gif""style=""height:400px;""></stim_listB>",is being hugged by,,,,,,
null,"<div style=""font-size:60px;"">+</div>",,html-keyboard-response,352,1638435,0.0-19.0-0.2,45033,List1B,white,woman,,,,null,,,,,,,,,
null,"<img src=""stim_listB/kiss4.gif""style=""height:400px;""></stim_listB>",,html-keyboard-response,353,1640453,0.0-19.0-1.2,45033,List1B,white,woman,,,,null,,,,,,,,,
null,is being kissed by,,html-keyboard-response,354,1642459,0.0-19.0-2.2,45033,List1B,white,woman,,,,null,,,,,,,,,
4214.4,,,survey-text,355,1646677,0.0-19.0-3.2,45033,List1B,white,woman,,,,,"{""Q0"":""jane is being kissed by mike""}","<img src=""stim_listB/kiss4.gif""style=""height:400px;""></stim_listB>",is being kissed by,,,,,,
null,"<div style=""font-size:60px;"">+</div>",,html-keyboard-response,356,1647183,0.0-19.0-0.3,45033,List1B,white,woman,,,,null,,,,,,,,,
null,"<img src=""stim_listB/challenge4.gif""style=""height:400px;""></stim_listB>",,html-keyboard-response,357,1649188,0.0-19.0-1.3,45033,List1B,white,woman,,,,null,,,,,,,,,
null,is being challenged by,,html-keyboard-response,358,1651191,0.0-19.0-2.3,45033,List1B,white,woman,,,,null,,,,,,,,,
4579.8,,,survey-text,359,1655775,0.0-19.0-3.3,45033,List1B,white,woman,,,,,"{""Q0"":""luke is being challenged by jane""}","<img src=""stim_listB/challenge4.gif""style=""height:400px;""></stim_listB>",is being challenged by,,,,,,
null,"<div style=""font-size:60px;"">+</div>",,html-keyboard-response,360,1656288,0.0-19.0-0.4,45033,List1B,white,woman,,,,null,,,,,,,,,
null,"<img src=""stim_listB/touch6.gif""style=""height:400px;""></stim_listB>",,html-keyboard-response,361,1658301,0.0-19.0-1.4,45033,List1B,white,woman,,,,null,,,,,,,,,
null,is being touched by,,html-keyboard-response,362,1660303,0.0-19.0-2.4,45033,List1B,white,woman,,,,null,,,,,,,,,
3651.8,,,survey-text,363,1663959,0.0-19.0-3.4,45033,List1B,white,woman,,,,,"{""Q0"":""luke is being touched by fred""}","<img src=""stim_listB/touch6.gif""style=""height:400px;""></stim_listB>",is being touched by,,,,,,
null,"<div style=""font-size:60px;"">+</div>",,html-keyboard-response,364,1664465,0.0-19.0-0.5,45033,List1B,white,woman,,,,null,,,,,,,,,
null,"<img src=""stim_listB/touch1.gif""style=""height:400px;""></stim_listB>",,html-keyboard-response,365,1666484,0.0-19.0-1.5,45033,List1B,white,woman,,,,null,,,,,,,,,
null,is touching,,html-keyboard-response,366,1668497,0.0-19.0-2.5,45033,List1B,white,woman,,,,null,,,,,,,,,
4115.2,,,survey-text,367,1672616,0.0-19.0-3.5,45033,List1B,white,woman,,,,,"{""Q0"":""kate is touching mike""}","<img src=""stim_listB/touch1.gif""style=""height:400px;""></stim_listB>",is touching,,,,,,
null,"<div style=""font-size:60px;"">+</div>",,html-keyboard-response,368,1673119,0.0-19.0-0.6,45033,List1B,white,woman,,,,null,,,,,,,,,
null,"<img src=""stim_listB/greet1.gif""style=""height:400px;""></stim_listB>",,html-keyboard-response,369,1675123,0.0-19.0-1.6,45033,List1B,white,woman,,,,null,,,,,,,,,
null,is greeting,,html-keyboard-response,370,1677131,0.0-19.0-2.6,45033,List1B,white,woman,,,,null,,,,,,,,,
2908.8,,,survey-text,371,1680043,0.0-19.0-3.6,45033,List1B,white,woman,,,,,"{""Q0"":""kate is greeting mike""}","<img src=""stim_listB/greet1.gif""style=""height:400px;""></stim_listB>",is greeting,,,,,,
null,"<div style=""font-size:60px;"">+</div>",,html-keyboard-response,372,1680559,0.0-19.0-0.7,45033,List1B,white,woman,,,,null,,,,,,,,,
null,"<img src=""stim_listB/shout3.gif""style=""height:400px;""></stim_listB>",,html-keyboard-response,373,1682567,0.0-19.0-1.7,45033,List1B,white,woman,,,,null,,,,,,,,,
null,is shouting at,,html-keyboard-response,374,1684577,0.0-19.0-2.7,45033,List1B,white,woman,,,,null,,,,,,,,,
2992.5,,,survey-text,375,1687574,0.0-19.0-3.7,45033,List1B,white,woman,,,,,"{""Q0"":""ruth is shouting at luke""}","<img src=""stim_listB/shout3.gif""style=""height:400px;""></stim_listB>",is shouting at,,,,,,
null,"<div style=""font-size:60px;"">+</div>",,html-keyboard-response,376,1688080,0.0-19.0-0.8,45033,List1B,white,woman,,,,null,,,,,,,,,
null,"<img src=""stim_listB/shout7.gif""style=""height:400px;""></stim_listB>",,html-keyboard-response,377,1690097,0.0-19.0-1.8,45033,List1B,white,woman,,,,null,,,,,,,,,
null,is shouting at,,html-keyboard-response,378,1692101,0.0-19.0-2.8,45033,List1B,white,woman,,,,null,,,,,,,,,
3258.9,,,survey-text,379,1695364,0.0-19.0-3.8,45033,List1B,white,woman,,,,,"{""Q0"":""beth is shouting at ruth""}","<img src=""stim_listB/shout7.gif""style=""height:400px;""></stim_listB>",is shouting at,,,,,,
null,"<div style=""font-size:60px;"">+</div>",,html-keyboard-response,380,1695867,0.0-19.0-0.9,45033,List1B,white,woman,,,,null,,,,,,,,,
null,"<img src=""stim_listB/touch7.gif""style=""height:400px;""></stim_listB>",,html-keyboard-response,381,1697870,0.0-19.0-1.9,45033,List1B,white,woman,,,,null,,,,,,,,,
null,is touching,,html-keyboard-response,382,1699880,0.0-19.0-2.9,45033,List1B,white,woman,,,,null,,,,,,,,,
2654.6,,,survey-text,383,1702538,0.0-19.0-3.9,45033,List1B,white,woman,,,,,"{""Q0"":""kate is touching jane""}","<img src=""stim_listB/touch7.gif""style=""height:400px;""></stim_listB>",is touching,,,,,,
null,"<div style=""font-size:60px;"">+</div>",,html-keyboard-response,384,1703048,0.0-19.0-0.10,45033,List1B,white,woman,,,,null,,,,,,,,,
null,"<img src=""stim_listB/oppose6.gif""style=""height:400px;""></stim_listB>",,html-keyboard-response,385,1705066,0.0-19.0-1.10,45033,List1B,white,woman,,,,null,,,,,,,,,
null,is being opposed by,,html-keyboard-response,386,1707069,0.0-19.0-2.10,45033,List1B,white,woman,,,,null,,,,,,,,,
5996.8,,,survey-text,387,1713075,0.0-19.0-3.10,45033,List1B,white,woman,,,,,"{""Q0"":""fred is being opposed by luke""}","<img src=""stim_listB/oppose6.gif""style=""height:400px;""></stim_listB>",is being opposed by,,,,,,
null,"<div style=""font-size:60px;"">+</div>",,html-keyboard-response,388,1713581,0.0-19.0-0.11,45033,List1B,white,woman,,,,null,,,,,,,,,
null,"<img src=""stim_listB/greet3.gif""style=""height:400px;""></stim_listB>",,html-keyboard-response,389,1715587,0.0-19.0-1.11,45033,List1B,white,woman,,,,null,,,,,,,,,
null,is greeting,,html-keyboard-response,390,1717595,0.0-19.0-2.11,45033,List1B,white,woman,,,,null,,,,,,,,,
3117.2,,,survey-text,391,1720716,0.0-19.0-3.11,45033,List1B,white,woman,,,,,"{""Q0"":""dave is greeting ruth""}","<img src=""stim_listB/greet3.gif""style=""height:400px;""></stim_listB>",is greeting,,,,,,
null,"<div style=""font-size:60px;"">+</div>",,html-keyboard-response,392,1721229,0.0-19.0-0.12,45033,List1B,white,woman,,,,null,,,,,,,,,
null,"<img src=""stim_listB/look4.gif""style=""height:400px;""></stim_listB>",,html-keyboard-response,393,1723246,0.0-19.0-1.12,45033,List1B,white,woman,,,,null,,,,,,,,,
null,is being looked at by,,html-keyboard-response,394,1725249,0.0-19.0-2.12,45033,List1B,white,woman,,,,null,,,,,,,,,
4376.8,,,survey-text,395,1729630,0.0-19.0-3.12,45033,List1B,white,woman,,,,,"{""Q0"":""dave is being looked at by jane""}","<img src=""stim_listB/look4.gif""style=""height:400px;""></stim_listB>",is being looked at by,,,,,,
null,"<div style=""font-size:60px;"">+</div>",,html-keyboard-response,396,1730144,0.0-19.0-0.13,45033,List1B,white,woman,,,,null,,,,,,,,,
null,"<img src=""stim_listB/copy6.gif""style=""height:400px;""></stim_listB>",,html-keyboard-response,397,1732154,0.0-19.0-1.13,45033,List1B,white,woman,,,,null,,,,,,,,,
null,is being copied by,,html-keyboard-response,398,1734163,0.0-19.0-2.13,45033,List1B,white,woman,,,,null,,,,,,,,,
3151.3,,,survey-text,399,1737318,0.0-19.0-3.13,45033,List1B,white,woman,,,,,"{""Q0"":""dave is being copied by fred""}","<img src=""stim_listB/copy6.gif""style=""height:400px;""></stim_listB>",is being copied by,,,,,,
null,"<div style=""font-size:60px;"">+</div>",,html-keyboard-response,400,1737820,0.0-19.0-0.14,45033,List1B,white,woman,,,,null,,,,,,,,,
null,"<img src=""stim_listB/challenge2.gif""style=""height:400px;""></stim_listB>",,html-keyboard-response,401,1739829,0.0-19.0-1.14,45033,List1B,white,woman,,,,null,,,,,,,,,
null,is being challenged by,,html-keyboard-response,402,1741832,0.0-19.0-2.14,45033,List1B,white,woman,,,,null,,,,,,,,,
4077.6,,,survey-text,403,1745914,0.0-19.0-3.14,45033,List1B,white,woman,,,,,"{""Q0"":""kate is being challenged by fred""}","<img src=""stim_listB/challenge2.gif""style=""height:400px;""></stim_listB>",is being challenged by,,,,,,
null,"<div style=""font-size:60px;"">+</div>",,html-keyboard-response,404,1746417,0.0-19.0-0.15,45033,List1B,white,woman,,,,null,,,,,,,,,
null,"<img src=""stim_listB/kiss3.gif""style=""height:400px;""></stim_listB>",,html-keyboard-response,405,1748435,0.0-19.0-1.15,45033,List1B,white,woman,,,,null,,,,,,,,,
null,is kissing,,html-keyboard-response,406,1750439,0.0-19.0-2.15,45033,List1B,white,woman,,,,null,,,,,,,,,
2377.5,,,survey-text,407,1752820,0.0-19.0-3.15,45033,List1B,white,woman,,,,,"{""Q0"":""ruth is kissing luke""}","<img src=""stim_listB/kiss3.gif""style=""height:400px;""></stim_listB>",is kissing,,,,,,
null,"<div style=""font-size:60px;"">+</div>",,html-keyboard-response,408,1753323,0.0-19.0-0.16,45033,List1B,white,woman,,,,null,,,,,,,,,
null,"<img src=""stim_listB/challenge7.gif""style=""height:400px;""></stim_listB>",,html-keyboard-response,409,1755329,0.0-19.0-1.16,45033,List1B,white,woman,,,,null,,,,,,,,,
null,is challenging,,html-keyboard-response,410,1757338,0.0-19.0-2.16,45033,List1B,white,woman,,,,null,,,,,,,,,
2436.9,,,survey-text,411,1759779,0.0-19.0-3.16,45033,List1B,white,woman,,,,,"{""Q0"":""ruth is challenging kate""}","<img src=""stim_listB/challenge7.gif""style=""height:400px;""></stim_listB>",is challenging,,,,,,
null,"<div style=""font-size:60px;"">+</div>",,html-keyboard-response,412,1760282,0.0-19.0-0.17,45033,List1B,white,woman,,,,null,,,,,,,,,
null,"<img src=""stim_listB/challenge3.gif""style=""height:400px;""></stim_listB>",,html-keyboard-response,413,1762290,0.0-19.0-1.17,45033,List1B,white,woman,,,,null,,,,,,,,,
null,is challenging,,html-keyboard-response,414,1764300,0.0-19.0-2.17,45033,List1B,white,woman,,,,null,,,,,,,,,
2501.7,,,survey-text,415,1766805,0.0-19.0-3.17,45033,List1B,white,woman,,,,,"{""Q0"":""ruth is challenging dave""}","<img src=""stim_listB/challenge3.gif""style=""height:400px;""></stim_listB>",is challenging,,,,,,
null,"<div style=""font-size:60px;"">+</div>",,html-keyboard-response,416,1767312,0.0-19.0-0.18,45033,List1B,white,woman,,,,null,,,,,,,,,
null,"<img src=""stim_listB/greet2.gif""style=""height:400px;""></stim_listB>",,html-keyboard-response,417,1769328,0.0-19.0-1.18,45033,List1B,white,woman,,,,null,,,,,,,,,
null,is being greeted by,,html-keyboard-response,418,1771335,0.0-19.0-2.18,45033,List1B,white,woman,,,,null,,,,,,,,,
3725.1,,,survey-text,419,1775064,0.0-19.0-3.18,45033,List1B,white,woman,,,,,"{""Q0"":""fred is being challenged by kate""}","<img src=""stim_listB/greet2.gif""style=""height:400px;""></stim_listB>",is being greeted by,,,,,,
null,"<div style=""font-size:60px;"">+</div>",,html-keyboard-response,420,1775569,0.0-19.0-0.19,45033,List1B,white,woman,,,,null,,,,,,,,,
null,"<img src=""stim_listB/shout4.gif""style=""height:400px;""></stim_listB>",,html-keyboard-response,421,1777583,0.0-19.0-1.19,45033,List1B,white,woman,,,,null,,,,,,,,,
null,is being shouted at by,,html-keyboard-response,422,1779591,0.0-19.0-2.19,45033,List1B,white,woman,,,,null,,,,,,,,,
4890.5,,,survey-text,423,1784486,0.0-19.0-3.19,45033,List1B,white,woman,,,,,"{""Q0"":""jane is being shouted at by dave""}","<img src=""stim_listB/shout4.gif""style=""height:400px;""></stim_listB>",is being shouted at by,,,,,,
1823.5,<p>Thank you for completing that task.</p><p>The final part of this session is a questionnaire that will take about 4 minutes.</p><p>Press Continue.</p>,0,html-button-response,424,1786311,0.0-20.0,45033,List1B,white,woman,,,,,,,,,,,,,
17862.7,,,survey-text,425,1805186,0.0-21.0,45033,List1B,white,woman,,,,,"{""Q0"":""22"",""Q1"":""english"",""Q2"":""english"",""Q3"":""USA"",""Q4"":""irish"",""Q5"":""white"",""Q6"":""female""}",,,demographics,,,,,
1731.7,<p>Have you lived in the USA for the last 5 years or more?</p>,0,html-button-response,426,1806922,0.0-22.0,45033,List1B,white,woman,,,,,,,,fiveyears,,,,,
987,<p>Move the slider to show the extent to which you agree with the following statements.</p>,0,html-button-response,427,1808916,0.0-23.0,45033,List1B,white,woman,,,,,,,,,,,,,
4943.5,,,html-slider-response,428,1814875,0.0-24.0-0.0-0.0,45033,List1B,white,woman,,,,,,,,survey_gender,38,,,Family is not more important to me than friendship.,filler
3873.5,,,html-slider-response,429,1818751,0.0-24.0-0.0-0.1,45033,List1B,white,woman,,,,,,,,survey_gender,32,,,I often think about the fact that I am my gender.,often
2621.6,,,html-slider-response,430,1821375,0.0-24.0-0.0-0.2,45033,List1B,white,woman,,,,,,,,survey_gender,85,,,I feel solidarity with my friends.,filler
4741,,,html-slider-response,431,1826118,0.0-24.0-0.0-0.3,45033,List1B,white,woman,,,,,,,,survey_gender,100,,,I am glad to have the friends that I have.,filler
2935.3,,,html-slider-response,432,1829056,0.0-24.0-0.0-0.4,45033,List1B,white,woman,,,,,,,,survey_gender,80,,,People of my gender have a lot in common with each other.,common
4969.2,,,html-slider-response,433,1834027,0.0-24.0-0.0-0.5,45033,List1B,white,woman,,,,,,,,survey_gender,77,,,It is not always easy for people to know what I am thinking.,filler
2357,,,html-slider-response,434,1836386,0.0-24.0-0.0-0.6,45033,List1B,white,woman,,,,,,,,survey_gender,81,,,My friends understand me.,filler
2483,,,html-slider-response,435,1838871,0.0-24.0-0.0-0.7,45033,List1B,white,woman,,,,,,,,survey_gender,57,,,Being my gender gives me a good feeling.,feeling
2450.7,,,html-slider-response,436,1841322,0.0-24.0-0.0-0.8,45033,List1B,white,woman,,,,,,,,survey_gender,72,,,I am glad to be my gender.,glad
2367.3,,,html-slider-response,437,1843692,0.0-24.0-0.0-0.9,45033,List1B,white,woman,,,,,,,,survey_gender,43,,,I consider myself a highly empathetic person.,filler
7126.7,,,html-slider-response,438,1850820,0.0-24.0-0.0-0.10,45033,List1B,white,woman,,,,,,,,survey_gender,55,,,My friends have a lot in common with each other.,filler
3172.5,,,html-slider-response,439,1853994,0.0-24.0-0.0-0.11,45033,List1B,white,woman,,,,,,,,survey_gender,59,,,I think that my gender has a lot to be proud of.,proud
2159.9,,,html-slider-response,440,1856156,0.0-24.0-0.0-0.12,45033,List1B,white,woman,,,,,,,,survey_gender,64,,,I feel committed to my gender.,committed
4396.6,,,html-slider-response,441,1860554,0.0-24.0-0.0-0.13,45033,List1B,white,woman,,,,,,,,survey_gender,65,,,I have a lot in common with the average person of my gender.,average
2408.7,,,html-slider-response,442,1862966,0.0-24.0-0.0-0.14,45033,List1B,white,woman,,,,,,,,survey_gender,100,,,I feel a bond with my friends.,filler
2154.1,,,html-slider-response,443,1865122,0.0-24.0-0.0-0.15,45033,List1B,white,woman,,,,,,,,survey_gender,62,,,Being my gender is an important part of how I see myself.,important
2411.5,,,html-slider-response,444,1867535,0.0-24.0-0.0-0.16,45033,List1B,white,woman,,,,,,,,survey_gender,61,,,People of my gender are very similar to each other.,verysimilar
1979.5,,,html-slider-response,445,1869517,0.0-24.0-0.0-0.17,45033,List1B,white,woman,,,,,,,,survey_gender,59,,,The fact that I am my gender is an important part of my identity.,identity
3876.5,,,html-slider-response,446,1873395,0.0-24.0-0.0-0.18,45033,List1B,white,woman,,,,,,,,survey_gender,83,,,I feel solidarity with my gender.,solidarity
1980.2,,,html-slider-response,447,1875377,0.0-24.0-0.0-0.19,45033,List1B,white,woman,,,,,,,,survey_gender,71,,,It is pleasant to be my gender.,pleasant
2382.9,,,html-slider-response,448,1877761,0.0-24.0-0.0-0.20,45033,List1B,white,woman,,,,,,,,survey_gender,91,,,Most of the friends in my life are very similar to me.,filler
1924.8,,,html-slider-response,449,1879688,0.0-24.0-0.0-0.21,45033,List1B,white,woman,,,,,,,,survey_gender,71,,,I feel a bond with my gender.,bond
3827.2,,,html-slider-response,450,1883516,0.0-24.0-0.0-0.22,45033,List1B,white,woman,,,,,,,,survey_gender,69,,,I often think about my actions.,filler
2788.9,,,html-slider-response,451,1886307,0.0-24.0-0.0-0.23,45033,List1B,white,woman,,,,,,,,survey_gender,63,,,I am similar to the average person of my gender.,similar
2548.6,,,html-slider-response,452,1888857,0.0-24.0-0.0-0.24,45033,List1B,white,woman,,,,,,,,survey_gender,77,,,I would say I am an animal person.,filler
1844.5,,,html-slider-response,453,1890703,0.0-24.0-0.0-0.25,45033,List1B,white,woman,,,,,,,,survey_gender,94,,,I have a lot in common with my friends.,filler
1920.9,,,html-slider-response,454,1892625,0.0-24.0-0.0-0.26,45033,List1B,white,woman,,,,,,,,survey_gender,100,,,Being around my friends gives me a good feeling.,filler
3076.3,,,html-slider-response,455,1895703,0.0-24.0-0.0-0.27,45033,List1B,white,woman,,,,,,,,survey_gender,37,,,Routine is not important to me.,filler
4581.9,,,html-slider-response,456,1900287,0.0-24.0-1.0-0.0,45033,List1B,white,woman,,,,,,,,survey_race,21,,,I feel committed to my race.,committed
3261.5,,,html-slider-response,457,1903552,0.0-24.0-1.0-0.1,45033,List1B,white,woman,,,,,,,,survey_race,85,,,I am glad to be the age I am.,filler
2620.9,,,html-slider-response,458,1906175,0.0-24.0-1.0-0.2,45033,List1B,white,woman,,,,,,,,survey_race,59,,,I often think about the fact that I am my race.,often
1982.8,,,html-slider-response,459,1908159,0.0-24.0-1.0-0.3,45033,List1B,white,woman,,,,,,,,survey_race,79,,,It is pleasant to be my race.,pleasant
3224.9,,,html-slider-response,460,1911386,0.0-24.0-1.0-0.4,45033,List1B,white,woman,,,,,,,,survey_race,38,,,"The older I get, the wiser I feel.",filler
2437,,,html-slider-response,461,1913824,0.0-24.0-1.0-0.5,45033,List1B,white,woman,,,,,,,,survey_race,31,,,Being my race gives me a good feeling.,feeling
3041.7,,,html-slider-response,462,1916868,0.0-24.0-1.0-0.6,45033,List1B,white,woman,,,,,,,,survey_race,77,,,I consider myself an introvert.,filler
3882.4,,,html-slider-response,463,1920752,0.0-24.0-1.0-0.7,45033,List1B,white,woman,,,,,,,,survey_race,58,,,I feel solidarity with people the same age as me.,filler
5971.5,,,html-slider-response,464,1926726,0.0-24.0-1.0-0.8,45033,List1B,white,woman,,,,,,,,survey_race,20,,,People my age have a lot in common with each other.,filler
2402,,,html-slider-response,465,1929130,0.0-24.0-1.0-0.9,45033,List1B,white,woman,,,,,,,,survey_race,25,,,Being my race is an important part of how I see myself.,important
2690.8,,,html-slider-response,466,1931823,0.0-24.0-1.0-0.10,45033,List1B,white,woman,,,,,,,,survey_race,18,,,The fact that I am my race is an important part of my identity.,identity
1877.1,,,html-slider-response,467,1933702,0.0-24.0-1.0-0.11,45033,List1B,white,woman,,,,,,,,survey_race,45,,,My age is not an important part of who I am.,filler
1900.8,,,html-slider-response,468,1935605,0.0-24.0-1.0-0.12,45033,List1B,white,woman,,,,,,,,survey_race,20,,,I feel solidarity with my race.,solidarity
3437.6,,,html-slider-response,469,1939044,0.0-24.0-1.0-0.13,45033,List1B,white,woman,,,,,,,,survey_race,32,,,I have a lot in common with people of a similar age to me.,filler
2127.2,,,html-slider-response,470,1941173,0.0-24.0-1.0-0.14,45033,List1B,white,woman,,,,,,,,survey_race,41,,,I have a lot in common with the average person of my race.,average
1707.2,,,html-slider-response,471,1942882,0.0-24.0-1.0-0.15,45033,List1B,white,woman,,,,,,,,survey_race,34,,,I am glad to be my race.,glad
4278.6,,,html-slider-response,472,1947162,0.0-24.0-1.0-0.16,45033,List1B,white,woman,,,,,,,,survey_race,46,,,I feel a bond with my race.,bond
3878.5,,,html-slider-response,473,1951042,0.0-24.0-1.0-0.17,45033,List1B,white,woman,,,,,,,,survey_race,11,,,I think that my race has a lot to be proud of.,proud
2088.7,,,html-slider-response,474,1953133,0.0-24.0-1.0-0.18,45033,List1B,white,woman,,,,,,,,survey_race,40,,,Being my age gives me a good feeling.,filler
2377.1,,,html-slider-response,475,1955512,0.0-24.0-1.0-0.19,45033,List1B,white,woman,,,,,,,,survey_race,25,,,I enjoy being in large groups.,filler
2607.9,,,html-slider-response,476,1958122,0.0-24.0-1.0-0.20,45033,List1B,white,woman,,,,,,,,survey_race,70,,,I am glad to be my age.,filler
2572.6,,,html-slider-response,477,1960696,0.0-24.0-1.0-0.21,45033,List1B,white,woman,,,,,,,,survey_race,41,,,I often think about the fact that I am my age.,filler
2867.2,,,html-slider-response,478,1963565,0.0-24.0-1.0-0.22,45033,List1B,white,woman,,,,,,,,survey_race,27,,,I consider myself an extrovert.,filler
2550.4,,,html-slider-response,479,1966117,0.0-24.0-1.0-0.23,45033,List1B,white,woman,,,,,,,,survey_race,26,,,People of my race are very similar to each other.,verysimilar
2305,,,html-slider-response,480,1968424,0.0-24.0-1.0-0.24,45033,List1B,white,woman,,,,,,,,survey_race,22,,,People of my race have a lot in common with each other.,common
1728.7,,,html-slider-response,481,1970154,0.0-24.0-1.0-0.25,45033,List1B,white,woman,,,,,,,,survey_race,38,,,I am similar to the average person of my race.,similar
1961.3,,,html-slider-response,482,1972117,0.0-24.0-1.0-0.26,45033,List1B,white,woman,,,,,,,,survey_race,56,,,I feel a bond with people the same age as me.,filler
2275.8,,,html-slider-response,483,1974394,0.0-24.0-1.0-0.27,45033,List1B,white,woman,,,,,,,,survey_race,28,,,Getting older does not worry me.,filler
6271.9,,,survey-text,484,1980670,0.0-25.0,45033,List1B,white,woman,,,,,"{""Q0"":""ccc""}",,,worker_id,,,,,
5819.8,,,external-html,485,1986715,0.0-26.0,45033,List1B,white,woman,debrief.html,,,,,,,,,,,,
