"rt","stimulus","button_pressed","trial_type","trial_index","time_elapsed","internal_node_id","subject","list","ppt_race","ppt_gender","url","first_guess","correct","key_press","responses","image_type","phrase_type","test_part","response","stimulus1","stimulus2","question_type","survey_item"
"1582.5999999046326","Welcome to the experiment. Press Continue to begin.","0","html-button-response","0","1587","0.0-0.0","45199","List1B","black","man","","","","","","","","","","","","",""
"9282.400000095367","","","external-html","1","12743","0.0-1.0","45199","List1B","black","man","consent.html","","","","","","","","","","","",""
"152182.10000014305","<p>On the next page, you will see portraits of 8 people and their names.</p><p>Your first task is to take a few minutes to memorise the names of these people.</p><p>You will have to recall their names during the rest of the experiment, so it is</p><p>essential that you try to memorise these people and their names as best as you can.</p><br><p><strong>You will then be tested on your memory of these names and portraits.</strong></p><br><p>The experiment will start after you have completed this memory test.</p><br><p>Ready?</p>","0","html-button-response","2","164933","0.0-2.0","45199","List1B","black","man","","","","","","","","","","","","",""
"25702.299999952316","<img src='img/portrait_matrix_list1.jpg' style='width:900px;height:500px;''></img><p>If you have memorised all the portraits and names and are ready to start, press Continue.</p><p><strong>Please note: Your memory of these faces will be tested 4 times during this experiment.</strong></p>","0","html-button-response","3","191648","0.0-3.0-0.0","45199","List1B","black","man","","","","","","","","","","","","",""
"7915.200000047684","<img src=""portrait/WM1.jpg""style=""height:400px;""></img>","4","html-button-response","4","200588","0.0-3.0-1.0","45199","List1B","black","man","","true","6","","","","","","","","","",""
"8598.799999952316","<img src=""portrait/WM1.jpg""style=""height:400px;""></img>","6","html-button-response","5","210198","0.0-3.0-3.0-0.0","45199","List1B","black","man","","false","6","","","","","","","","","",""
"null","CORRECT","","html-keyboard-response","6","211716","0.0-3.0-3.0-1.0-0.0","45199","List1B","black","man","","","","null","","","","","","","","",""
"8945.299999952316","<img src=""portrait/BM2.jpg""style=""height:400px;""></img>","7","html-button-response","7","220664","0.0-3.0-4.0","45199","List1B","black","man","","true","5","","","","","","","","","",""
"2001.5","<img src=""portrait/BM2.jpg""style=""height:400px;""></img>","5","html-button-response","8","223674","0.0-3.0-6.0-0.0","45199","List1B","black","man","","false","5","","","","","","","","","",""
"null","CORRECT","","html-keyboard-response","9","225190","0.0-3.0-6.0-1.0-0.0","45199","List1B","black","man","","","","null","","","","","","","","",""
"7485.200000047684","<img src=""portrait/WM2.jpg""style=""height:400px;""></img>","7","html-button-response","10","232679","0.0-3.0-7.0","45199","List1B","black","man","","true","7","","","","","","","","","",""
"null","CORRECT","","html-keyboard-response","11","234194","0.0-3.0-8.0-0.0","45199","List1B","black","man","","","","null","","","","","","","","",""
"26260.799999952316","<img src=""portrait/WW1.jpg""style=""height:400px;""></img>","3","html-button-response","12","260458","0.0-3.0-10.0","45199","List1B","black","man","","true","1","","","","","","","","","",""
"20996.099999904633","<img src=""portrait/WW1.jpg""style=""height:400px;""></img>","1","html-button-response","13","282470","0.0-3.0-12.0-0.0","45199","List1B","black","man","","false","1","","","","","","","","","",""
"null","CORRECT","","html-keyboard-response","14","283994","0.0-3.0-12.0-1.0-0.0","45199","List1B","black","man","","","","null","","","","","","","","",""
"4646.700000047684","<img src=""portrait/BM1.jpg""style=""height:400px;""></img>","1","html-button-response","15","288647","0.0-3.0-13.0","45199","List1B","black","man","","true","4","","","","","","","","","",""
"2103.7999999523163","<img src=""portrait/BM1.jpg""style=""height:400px;""></img>","4","html-button-response","16","291757","0.0-3.0-15.0-0.0","45199","List1B","black","man","","false","4","","","","","","","","","",""
"null","CORRECT","","html-keyboard-response","17","293280","0.0-3.0-15.0-1.0-0.0","45199","List1B","black","man","","","","null","","","","","","","","",""
"4449","<img src=""portrait/WW2.jpg""style=""height:400px;""></img>","2","html-button-response","18","297732","0.0-3.0-16.0","45199","List1B","black","man","","true","3","","","","","","","","","",""
"2092.5","<img src=""portrait/WW2.jpg""style=""height:400px;""></img>","3","html-button-response","19","300837","0.0-3.0-18.0-0.0","45199","List1B","black","man","","false","3","","","","","","","","","",""
"null","CORRECT","","html-keyboard-response","20","302344","0.0-3.0-18.0-1.0-0.0","45199","List1B","black","man","","","","null","","","","","","","","",""
"5127.200000047684","<img src=""portrait/BW1.jpg""style=""height:400px;""></img>","2","html-button-response","21","307474","0.0-3.0-19.0","45199","List1B","black","man","","true","0","","","","","","","","","",""
"2826.7999999523163","<img src=""portrait/BW1.jpg""style=""height:400px;""></img>","0","html-button-response","22","311308","0.0-3.0-21.0-0.0","45199","List1B","black","man","","false","0","","","","","","","","","",""
"null","CORRECT","","html-keyboard-response","23","312828","0.0-3.0-21.0-1.0-0.0","45199","List1B","black","man","","","","null","","","","","","","","",""
"4290.600000143051","<img src=""portrait/BW2.jpg""style=""height:400px;""></img>","1","html-button-response","24","317121","0.0-3.0-22.0","45199","List1B","black","man","","true","2","","","","","","","","","",""
"2080","<img src=""portrait/BW2.jpg""style=""height:400px;""></img>","2","html-button-response","25","320214","0.0-3.0-24.0-0.0","45199","List1B","black","man","","false","2","","","","","","","","","",""
"null","CORRECT","","html-keyboard-response","26","321730","0.0-3.0-24.0-1.0-0.0","45199","List1B","black","man","","","","null","","","","","","","","",""
"1491.9000000953674","<p>You got 1 out of 8 right first time. Press Continue.</p>","0","html-button-response","27","323226","0.0-3.0-25.0","45199","List1B","black","man","","","","","","","","","","","","",""
"2001","As you did not score 100%, the memory game will repeat. Press Continue.","0","html-button-response","28","326240","0.0-3.0-26.0-0.0","45199","List1B","black","man","","","","","","","","","","","","",""
"62430.5","<img src='img/portrait_matrix_list1.jpg' style='width:900px;height:500px;''></img><p>If you have memorised all the portraits and names and are ready to start, press Continue.</p><p><strong>Please note: Your memory of these faces will be tested 4 times during this experiment.</strong></p>","0","html-button-response","29","389692","0.0-3.1-0.1","45199","List1B","black","man","","","","","","","","","","","","",""
"11139.300000190735","<img src=""portrait/WM1.jpg""style=""height:400px;""></img>","6","html-button-response","30","401851","0.0-3.1-1.1","45199","List1B","black","man","","true","6","","","","","","","","","",""
"null","CORRECT","","html-keyboard-response","31","403367","0.0-3.1-2.1-0.1","45199","List1B","black","man","","","","null","","","","","","","","",""
"4307.599999904633","<img src=""portrait/BM2.jpg""style=""height:400px;""></img>","5","html-button-response","32","407678","0.0-3.1-4.1","45199","List1B","black","man","","true","5","","","","","","","","","",""
"null","CORRECT","","html-keyboard-response","33","409208","0.0-3.1-5.1-0.1","45199","List1B","black","man","","","","null","","","","","","","","",""
"3743.0999999046326","<img src=""portrait/WM2.jpg""style=""height:400px;""></img>","7","html-button-response","34","412956","0.0-3.1-7.1","45199","List1B","black","man","","true","7","","","","","","","","","",""
"null","CORRECT","","html-keyboard-response","35","414472","0.0-3.1-8.1-0.1","45199","List1B","black","man","","","","null","","","","","","","","",""
"5045.299999952316","<img src=""portrait/WW1.jpg""style=""height:400px;""></img>","1","html-button-response","36","419521","0.0-3.1-10.1","45199","List1B","black","man","","true","1","","","","","","","","","",""
"null","CORRECT","","html-keyboard-response","37","421052","0.0-3.1-11.1-0.1","45199","List1B","black","man","","","","null","","","","","","","","",""
"2920.2000000476837","<img src=""portrait/BM1.jpg""style=""height:400px;""></img>","4","html-button-response","38","423975","0.0-3.1-13.1","45199","List1B","black","man","","true","4","","","","","","","","","",""
"null","CORRECT","","html-keyboard-response","39","425486","0.0-3.1-14.1-0.1","45199","List1B","black","man","","","","null","","","","","","","","",""
"3051.7000000476837","<img src=""portrait/WW2.jpg""style=""height:400px;""></img>","3","html-button-response","40","428541","0.0-3.1-16.1","45199","List1B","black","man","","true","3","","","","","","","","","",""
"null","CORRECT","","html-keyboard-response","41","430071","0.0-3.1-17.1-0.1","45199","List1B","black","man","","","","null","","","","","","","","",""
"5617.299999952316","<img src=""portrait/BW1.jpg""style=""height:400px;""></img>","0","html-button-response","42","435691","0.0-3.1-19.1","45199","List1B","black","man","","true","0","","","","","","","","","",""
"null","CORRECT","","html-keyboard-response","43","437215","0.0-3.1-20.1-0.1","45199","List1B","black","man","","","","null","","","","","","","","",""
"3250","<img src=""portrait/BW2.jpg""style=""height:400px;""></img>","2","html-button-response","44","440468","0.0-3.1-22.1","45199","List1B","black","man","","true","2","","","","","","","","","",""
"null","CORRECT","","html-keyboard-response","45","441982","0.0-3.1-23.1-0.1","45199","List1B","black","man","","","","null","","","","","","","","",""
"1738.8000001907349","<p>You got 8 out of 8 right first time. Press Continue.</p>","0","html-button-response","46","443726","0.0-3.1-25.1","45199","List1B","black","man","","","","","","","","","","","","",""
"3780.5","<p>In this experiment, you will view photographs of the people from the memory game interacting.</p><p>By using the <strong>exact</strong> phrase given <i>after</i> the photograph appears and recalling the correct names of the people in the photographs, form a sentence describing the interaction. You do not need to capitalise names.</p><p>Type your answer in the space provided. Please complete every sentence before moving onto the next trial.</p><p>You will only have a few seconds to memorise each given photograph and phrase before you can respond, so try your best to focus.</p><p>An example is given below. Press 'Continue' when you are ready.</p><img src='img/speaking_example.jpg' style='width:800px;height:460px;''></img>","0","html-button-response","47","448521","0.0-4.0","45199","List1B","black","man","","","","","","","","","","","","",""
"2456","<p>Before the experiment starts, you will watch two example trials. Press 'Continue'.</p>","0","html-button-response","48","451992","0.0-5.0","45199","List1B","black","man","","","","","","","","","","","","",""
"null","<img src='img/play_eg.gif' style='height:400px;''></img>","","html-keyboard-response","49","455012","0.0-6.0","45199","List1B","black","man","","","","null","","","","","","","","",""
"null","<p>is playing with</p>","","html-keyboard-response","50","457025","0.0-7.0","45199","List1B","black","man","","","","null","","","","","","","","",""
"1066","<p><b>Answer:</b> kate is playing with beth</p>","0","html-button-response","51","458093","0.0-8.0","45199","List1B","black","man","","","","","","","","","","","","",""
"null","<img src='img/dance_eg.gif' style='height:400px;''></img>","","html-keyboard-response","52","461117","0.0-9.0","45199","List1B","black","man","","","","null","","","","","","","","",""
"null","<p>is being entertained by</p>","","html-keyboard-response","53","463126","0.0-10.0","45199","List1B","black","man","","","","null","","","","","","","","",""
"2856","<p><b>Answer:</b> luke is being entertained by dave</p>","0","html-button-response","54","465984","0.0-11.0","45199","List1B","black","man","","","","","","","","","","","","",""
"15666.700000047684","<p>Ready to start the experiment?</p><br><p><strong>Remember to describe the picture using a full sentence,</strong></p><p><strong>that combines the names of the people with the <i>exact</i> phrase given.</strong></p><p><strong>To receive full payment you must do this correctly.</strong></p><p><strong> You do not need to capitalise names or use punctuation.</strong></p><br><p>Press 'Continue' to begin.</p>","0","html-button-response","55","482663","0.0-12.0","45199","List1B","black","man","","","","","","","","","","","","",""
"null","<div style=""font-size:60px;"">+</div>","","html-keyboard-response","56","484190","0.0-13.0-0.0","45199","List1B","black","man","","","","null","","","","","","","","",""
"null","<img src=""stim_listB/kiss4.gif""style=""height:400px;""></stim_listB>","","html-keyboard-response","57","486201","0.0-13.0-1.0","45199","List1B","black","man","","","","null","","","","","","","","",""
"null","is being kissed by","","html-keyboard-response","58","488211","0.0-13.0-2.0","45199","List1B","black","man","","","","null","","","","","","","","",""
"13229.700000047684","","","survey-text","59","501450","0.0-13.0-3.0","45199","List1B","black","man","","","","","{""Q0"":""dave is being kissed by jane""}","<img src=""stim_listB/kiss4.gif""style=""height:400px;""></stim_listB>","is being kissed by","","","","","",""
"null","<div style=""font-size:60px;"">+</div>","","html-keyboard-response","60","501955","0.0-13.0-0.1","45199","List1B","black","man","","","","null","","","","","","","","",""
"null","<img src=""stim_listB/copy2.gif""style=""height:400px;""></stim_listB>","","html-keyboard-response","61","503965","0.0-13.0-1.1","45199","List1B","black","man","","","","null","","","","","","","","",""
"null","is being copied by","","html-keyboard-response","62","505981","0.0-13.0-2.1","45199","List1B","black","man","","","","null","","","","","","","","",""
"14386.899999856949","","","survey-text","63","520372","0.0-13.0-3.1","45199","List1B","black","man","","","","","{""Q0"":""fred is being copied by beth""}","<img src=""stim_listB/copy2.gif""style=""height:400px;""></stim_listB>","is being copied by","","","","","",""
"null","<div style=""font-size:60px;"">+</div>","","html-keyboard-response","64","520889","0.0-13.0-0.2","45199","List1B","black","man","","","","null","","","","","","","","",""
"null","<img src=""stim_listB/touch2.gif""style=""height:400px;""></stim_listB>","","html-keyboard-response","65","522905","0.0-13.0-1.2","45199","List1B","black","man","","","","null","","","","","","","","",""
"null","is being touched by","","html-keyboard-response","66","524913","0.0-13.0-2.2","45199","List1B","black","man","","","","null","","","","","","","","",""
"9678","","","survey-text","67","534596","0.0-13.0-3.2","45199","List1B","black","man","","","","","{""Q0"":""fred is being touched by beth""}","<img src=""stim_listB/touch2.gif""style=""height:400px;""></stim_listB>","is being touched by","","","","","",""
"null","<div style=""font-size:60px;"">+</div>","","html-keyboard-response","68","535099","0.0-13.0-0.3","45199","List1B","black","man","","","","null","","","","","","","","",""
"null","<img src=""stim_listB/oppose3.gif""style=""height:400px;""></stim_listB>","","html-keyboard-response","69","537109","0.0-13.0-1.3","45199","List1B","black","man","","","","null","","","","","","","","",""
"null","is opposing","","html-keyboard-response","70","539112","0.0-13.0-2.3","45199","List1B","black","man","","","","null","","","","","","","","",""
"12637.299999952316","","","survey-text","71","551753","0.0-13.0-3.3","45199","List1B","black","man","","","","","{""Q0"":""dave is opposed by jane""}","<img src=""stim_listB/oppose3.gif""style=""height:400px;""></stim_listB>","is opposing","","","","","",""
"null","<div style=""font-size:60px;"">+</div>","","html-keyboard-response","72","552257","0.0-13.0-0.4","45199","List1B","black","man","","","","null","","","","","","","","",""
"null","<img src=""stim_listB/kiss1.gif""style=""height:400px;""></stim_listB>","","html-keyboard-response","73","554267","0.0-13.0-1.4","45199","List1B","black","man","","","","null","","","","","","","","",""
"null","is kissing","","html-keyboard-response","74","556275","0.0-13.0-2.4","45199","List1B","black","man","","","","null","","","","","","","","",""
"8793.399999856949","","","survey-text","75","565073","0.0-13.0-3.4","45199","List1B","black","man","","","","","{""Q0"":""fred is kissed by beth""}","<img src=""stim_listB/kiss1.gif""style=""height:400px;""></stim_listB>","is kissing","","","","","",""
"null","<div style=""font-size:60px;"">+</div>","","html-keyboard-response","76","565578","0.0-13.0-0.5","45199","List1B","black","man","","","","null","","","","","","","","",""
"null","<img src=""stim_listB/seduce7.gif""style=""height:400px;""></stim_listB>","","html-keyboard-response","77","567593","0.0-13.0-1.5","45199","List1B","black","man","","","","null","","","","","","","","",""
"null","is seducing","","html-keyboard-response","78","569609","0.0-13.0-2.5","45199","List1B","black","man","","","","null","","","","","","","","",""
"10680.600000143051","","","survey-text","79","580295","0.0-13.0-3.5","45199","List1B","black","man","","","","","{""Q0"":""beth is seducing jane""}","<img src=""stim_listB/seduce7.gif""style=""height:400px;""></stim_listB>","is seducing","","","","","",""
"null","<div style=""font-size:60px;"">+</div>","","html-keyboard-response","80","580812","0.0-13.0-0.6","45199","List1B","black","man","","","","null","","","","","","","","",""
"null","<img src=""stim_listB/touch5.gif""style=""height:400px;""></stim_listB>","","html-keyboard-response","81","582829","0.0-13.0-1.6","45199","List1B","black","man","","","","null","","","","","","","","",""
"null","is touching","","html-keyboard-response","82","584831","0.0-13.0-2.6","45199","List1B","black","man","","","","null","","","","","","","","",""
"14240.300000190735","","","survey-text","83","599076","0.0-13.0-3.6","45199","List1B","black","man","","","","","{""Q0"":""dave is touching fred""}","<img src=""stim_listB/touch5.gif""style=""height:400px;""></stim_listB>","is touching","","","","","",""
"null","<div style=""font-size:60px;"">+</div>","","html-keyboard-response","84","599590","0.0-13.0-0.7","45199","List1B","black","man","","","","null","","","","","","","","",""
"null","<img src=""stim_listB/copy6.gif""style=""height:400px;""></stim_listB>","","html-keyboard-response","85","601600","0.0-13.0-1.7","45199","List1B","black","man","","","","null","","","","","","","","",""
"null","is being copied by","","html-keyboard-response","86","603614","0.0-13.0-2.7","45199","List1B","black","man","","","","null","","","","","","","","",""
"9839","","","survey-text","87","613459","0.0-13.0-3.7","45199","List1B","black","man","","","","","{""Q0"":""fred is being copied by dave""}","<img src=""stim_listB/copy6.gif""style=""height:400px;""></stim_listB>","is being copied by","","","","","",""
"null","<div style=""font-size:60px;"">+</div>","","html-keyboard-response","88","613967","0.0-13.0-0.8","45199","List1B","black","man","","","","null","","","","","","","","",""
"null","<img src=""stim_listB/challenge8.gif""style=""height:400px;""></stim_listB>","","html-keyboard-response","89","615978","0.0-13.0-1.8","45199","List1B","black","man","","","","null","","","","","","","","",""
"null","is being challenged by","","html-keyboard-response","90","617988","0.0-13.0-2.8","45199","List1B","black","man","","","","null","","","","","","","","",""
"10822.799999952316","","","survey-text","91","628815","0.0-13.0-3.8","45199","List1B","black","man","","","","","{""Q0"":""beth is being challenged by jane""}","<img src=""stim_listB/challenge8.gif""style=""height:400px;""></stim_listB>","is being challenged by","","","","","",""
"null","<div style=""font-size:60px;"">+</div>","","html-keyboard-response","92","629325","0.0-13.0-0.9","45199","List1B","black","man","","","","null","","","","","","","","",""
"null","<img src=""stim_listB/kiss7.gif""style=""height:400px;""></stim_listB>","","html-keyboard-response","93","631337","0.0-13.0-1.9","45199","List1B","black","man","","","","null","","","","","","","","",""
"null","is kissing","","html-keyboard-response","94","633350","0.0-13.0-2.9","45199","List1B","black","man","","","","null","","","","","","","","",""
"33267.300000190735","","","survey-text","95","666622","0.0-13.0-3.9","45199","List1B","black","man","","","","","{""Q0"":""ruth is kissing beth""}","<img src=""stim_listB/kiss7.gif""style=""height:400px;""></stim_listB>","is kissing","","","","","",""
"null","<div style=""font-size:60px;"">+</div>","","html-keyboard-response","96","667136","0.0-13.0-0.10","45199","List1B","black","man","","","","null","","","","","","","","",""
"null","<img src=""stim_listB/kiss3.gif""style=""height:400px;""></stim_listB>","","html-keyboard-response","97","669146","0.0-13.0-1.10","45199","List1B","black","man","","","","null","","","","","","","","",""
"null","is kissing","","html-keyboard-response","98","671155","0.0-13.0-2.10","45199","List1B","black","man","","","","null","","","","","","","","",""
"11178","","","survey-text","99","682338","0.0-13.0-3.10","45199","List1B","black","man","","","","","{""Q0"":""luke is kissing ruth""}","<img src=""stim_listB/kiss3.gif""style=""height:400px;""></stim_listB>","is kissing","","","","","",""
"null","<div style=""font-size:60px;"">+</div>","","html-keyboard-response","100","682843","0.0-13.0-0.11","45199","List1B","black","man","","","","null","","","","","","","","",""
"null","<img src=""stim_listB/shout3.gif""style=""height:400px;""></stim_listB>","","html-keyboard-response","101","684860","0.0-13.0-1.11","45199","List1B","black","man","","","","null","","","","","","","","",""
"null","is shouting at","","html-keyboard-response","102","686873","0.0-13.0-2.11","45199","List1B","black","man","","","","null","","","","","","","","",""
"9805.900000095367","","","survey-text","103","696682","0.0-13.0-3.11","45199","List1B","black","man","","","","","{""Q0"":""luke is shouting at ruth""}","<img src=""stim_listB/shout3.gif""style=""height:400px;""></stim_listB>","is shouting at","","","","","",""
"null","<div style=""font-size:60px;"">+</div>","","html-keyboard-response","104","697197","0.0-13.0-0.12","45199","List1B","black","man","","","","null","","","","","","","","",""
"null","<img src=""stim_listB/challenge5.gif""style=""height:400px;""></stim_listB>","","html-keyboard-response","105","699212","0.0-13.0-1.12","45199","List1B","black","man","","","","null","","","","","","","","",""
"null","is challenging","","html-keyboard-response","106","701229","0.0-13.0-2.12","45199","List1B","black","man","","","","null","","","","","","","","",""
"15334.5","","","survey-text","107","716569","0.0-13.0-3.12","45199","List1B","black","man","","","","","{""Q0"":""luke is challenging mike""}","<img src=""stim_listB/challenge5.gif""style=""height:400px;""></stim_listB>","is challenging","","","","","",""
"null","<div style=""font-size:60px;"">+</div>","","html-keyboard-response","108","717085","0.0-13.0-0.13","45199","List1B","black","man","","","","null","","","","","","","","",""
"null","<img src=""stim_listB/shout2.gif""style=""height:400px;""></stim_listB>","","html-keyboard-response","109","719102","0.0-13.0-1.13","45199","List1B","black","man","","","","null","","","","","","","","",""
"null","is being shouted at by","","html-keyboard-response","110","721106","0.0-13.0-2.13","45199","List1B","black","man","","","","null","","","","","","","","",""
"23576.199999809265","","","survey-text","111","744687","0.0-13.0-3.13","45199","List1B","black","man","","","","","{""Q0"":""kate is being shouted at by beth  ""}","<img src=""stim_listB/shout2.gif""style=""height:400px;""></stim_listB>","is being shouted at by","","","","","",""
"null","<div style=""font-size:60px;"">+</div>","","html-keyboard-response","112","745206","0.0-13.0-0.14","45199","List1B","black","man","","","","null","","","","","","","","",""
"null","<img src=""stim_listB/shout6.gif""style=""height:400px;""></stim_listB>","","html-keyboard-response","113","747215","0.0-13.0-1.14","45199","List1B","black","man","","","","null","","","","","","","","",""
"null","is being shouted at by","","html-keyboard-response","114","749231","0.0-13.0-2.14","45199","List1B","black","man","","","","null","","","","","","","","",""
"11835","","","survey-text","115","761072","0.0-13.0-3.14","45199","List1B","black","man","","","","","{""Q0"":""dave is being shouted at by mike""}","<img src=""stim_listB/shout6.gif""style=""height:400px;""></stim_listB>","is being shouted at by","","","","","",""
"null","<div style=""font-size:60px;"">+</div>","","html-keyboard-response","116","761587","0.0-13.0-0.15","45199","List1B","black","man","","","","null","","","","","","","","",""
"null","<img src=""stim_listB/challenge2.gif""style=""height:400px;""></stim_listB>","","html-keyboard-response","117","763604","0.0-13.0-1.15","45199","List1B","black","man","","","","null","","","","","","","","",""
"null","is being challenged by","","html-keyboard-response","118","765615","0.0-13.0-2.15","45199","List1B","black","man","","","","null","","","","","","","","",""
"19306.10000014305","","","survey-text","119","784925","0.0-13.0-3.15","45199","List1B","black","man","","","","","{""Q0"":""kate is being challenged by fred""}","<img src=""stim_listB/challenge2.gif""style=""height:400px;""></stim_listB>","is being challenged by","","","","","",""
"null","<div style=""font-size:60px;"">+</div>","","html-keyboard-response","120","785430","0.0-13.0-0.16","45199","List1B","black","man","","","","null","","","","","","","","",""
"null","<img src=""stim_listB/copy8.gif""style=""height:400px;""></stim_listB>","","html-keyboard-response","121","787437","0.0-13.0-1.16","45199","List1B","black","man","","","","null","","","","","","","","",""
"null","is being copied by","","html-keyboard-response","122","789441","0.0-13.0-2.16","45199","List1B","black","man","","","","null","","","","","","","","",""
"17450.5","","","survey-text","123","806896","0.0-13.0-3.16","45199","List1B","black","man","","","","","{""Q0"":""jane is being copied by beth""}","<img src=""stim_listB/copy8.gif""style=""height:400px;""></stim_listB>","is being copied by","","","","","",""
"null","<div style=""font-size:60px;"">+</div>","","html-keyboard-response","124","807402","0.0-13.0-0.17","45199","List1B","black","man","","","","null","","","","","","","","",""
"null","<img src=""stim_listB/look5.gif""style=""height:400px;""></stim_listB>","","html-keyboard-response","125","809418","0.0-13.0-1.17","45199","List1B","black","man","","","","null","","","","","","","","",""
"null","is looking at","","html-keyboard-response","126","811422","0.0-13.0-2.17","45199","List1B","black","man","","","","null","","","","","","","","",""
"11009.400000095367","","","survey-text","127","822436","0.0-13.0-3.17","45199","List1B","black","man","","","","","{""Q0"":""fred is looking at luke""}","<img src=""stim_listB/look5.gif""style=""height:400px;""></stim_listB>","is looking at","","","","","",""
"null","<div style=""font-size:60px;"">+</div>","","html-keyboard-response","128","822945","0.0-13.0-0.18","45199","List1B","black","man","","","","null","","","","","","","","",""
"null","<img src=""stim_listB/oppose2.gif""style=""height:400px;""></stim_listB>","","html-keyboard-response","129","824952","0.0-13.0-1.18","45199","List1B","black","man","","","","null","","","","","","","","",""
"null","is being opposed by","","html-keyboard-response","130","826962","0.0-13.0-2.18","45199","List1B","black","man","","","","null","","","","","","","","",""
"13022.799999952316","","","survey-text","131","839989","0.0-13.0-3.18","45199","List1B","black","man","","","","","{""Q0"":""fred is being opposed by beth""}","<img src=""stim_listB/oppose2.gif""style=""height:400px;""></stim_listB>","is being opposed by","","","","","",""
"null","<div style=""font-size:60px;"">+</div>","","html-keyboard-response","132","840504","0.0-13.0-0.19","45199","List1B","black","man","","","","null","","","","","","","","",""
"null","<img src=""stim_listB/seduce4.gif""style=""height:400px;""></stim_listB>","","html-keyboard-response","133","842516","0.0-13.0-1.19","45199","List1B","black","man","","","","null","","","","","","","","",""
"null","is being seduced by","","html-keyboard-response","134","844526","0.0-13.0-2.19","45199","List1B","black","man","","","","null","","","","","","","","",""
"16558.199999809265","","","survey-text","135","861091","0.0-13.0-3.19","45199","List1B","black","man","","","","","{""Q0"":""ruth is being seduced by dave""}","<img src=""stim_listB/seduce4.gif""style=""height:400px;""></stim_listB>","is being seduced by","","","","","",""
"3819.5","<img src='img/portrait_matrix_list1.jpg' style='width:900px;height:500px;''></img><p>If you have memorised all the portraits and names and are ready to start, press Continue.</p><p><strong>Please note: Your memory of these faces will be tested 4 times during this experiment.</strong></p>","0","html-button-response","136","864912","0.0-14.0-0.0","45199","List1B","black","man","","","","","","","","","","","","",""
"3921.5","<img src=""portrait/WW2.jpg""style=""height:400px;""></img>","3","html-button-response","137","869847","0.0-14.0-1.0","45199","List1B","black","man","","true","3","","","","","","","","","",""
"null","CORRECT","","html-keyboard-response","138","871353","0.0-14.0-2.0-0.0","45199","List1B","black","man","","","","null","","","","","","","","",""
"3491.4000000953674","<img src=""portrait/BW2.jpg""style=""height:400px;""></img>","2","html-button-response","139","874848","0.0-14.0-4.0","45199","List1B","black","man","","true","2","","","","","","","","","",""
"null","CORRECT","","html-keyboard-response","140","876361","0.0-14.0-5.0-0.0","45199","List1B","black","man","","","","null","","","","","","","","",""
"3915.7999999523163","<img src=""portrait/BM1.jpg""style=""height:400px;""></img>","4","html-button-response","141","880280","0.0-14.0-7.0","45199","List1B","black","man","","true","4","","","","","","","","","",""
"null","CORRECT","","html-keyboard-response","142","881955","0.0-14.0-8.0-0.0","45199","List1B","black","man","","","","null","","","","","","","","",""
"4941.899999856949","<img src=""portrait/BW1.jpg""style=""height:400px;""></img>","0","html-button-response","143","886901","0.0-14.0-10.0","45199","List1B","black","man","","true","0","","","","","","","","","",""
"null","CORRECT","","html-keyboard-response","144","888423","0.0-14.0-11.0-0.0","45199","List1B","black","man","","","","null","","","","","","","","",""
"3918.2000000476837","<img src=""portrait/WW1.jpg""style=""height:400px;""></img>","1","html-button-response","145","892344","0.0-14.0-13.0","45199","List1B","black","man","","true","1","","","","","","","","","",""
"null","CORRECT","","html-keyboard-response","146","893865","0.0-14.0-14.0-0.0","45199","List1B","black","man","","","","null","","","","","","","","",""
"3992.9000000953674","<img src=""portrait/BM2.jpg""style=""height:400px;""></img>","5","html-button-response","147","897862","0.0-14.0-16.0","45199","List1B","black","man","","true","5","","","","","","","","","",""
"null","CORRECT","","html-keyboard-response","148","899390","0.0-14.0-17.0-0.0","45199","List1B","black","man","","","","null","","","","","","","","",""
"4727.099999904633","<img src=""portrait/WM2.jpg""style=""height:400px;""></img>","7","html-button-response","149","904121","0.0-14.0-19.0","45199","List1B","black","man","","true","7","","","","","","","","","",""
"null","CORRECT","","html-keyboard-response","150","905641","0.0-14.0-20.0-0.0","45199","List1B","black","man","","","","null","","","","","","","","",""
"3601.300000190735","<img src=""portrait/WM1.jpg""style=""height:400px;""></img>","6","html-button-response","151","909246","0.0-14.0-22.0","45199","List1B","black","man","","true","6","","","","","","","","","",""
"null","CORRECT","","html-keyboard-response","152","910771","0.0-14.0-23.0-0.0","45199","List1B","black","man","","","","null","","","","","","","","",""
"1728","<p>You got 8 out of 8 right first time. Press Continue.</p>","0","html-button-response","153","912502","0.0-14.0-25.0","45199","List1B","black","man","","","","","","","","","","","","",""
"null","<div style=""font-size:60px;"">+</div>","","html-keyboard-response","154","914027","0.0-15.0-0.0","45199","List1B","black","man","","","","null","","","","","","","","",""
"null","<img src=""stim_listB/shout7.gif""style=""height:400px;""></stim_listB>","","html-keyboard-response","155","916032","0.0-15.0-1.0","45199","List1B","black","man","","","","null","","","","","","","","",""
"null","is shouting at","","html-keyboard-response","156","918035","0.0-15.0-2.0","45199","List1B","black","man","","","","null","","","","","","","","",""
"12142.899999856949","","","survey-text","157","930183","0.0-15.0-3.0","45199","List1B","black","man","","","","","{""Q0"":""ruth is shouting at beth""}","<img src=""stim_listB/shout7.gif""style=""height:400px;""></stim_listB>","is shouting at","","","","","",""
"null","<div style=""font-size:60px;"">+</div>","","html-keyboard-response","158","930690","0.0-15.0-0.1","45199","List1B","black","man","","","","null","","","","","","","","",""
"null","<img src=""stim_listB/copy5.gif""style=""height:400px;""></stim_listB>","","html-keyboard-response","159","932698","0.0-15.0-1.1","45199","List1B","black","man","","","","null","","","","","","","","",""
"null","is copying","","html-keyboard-response","160","934715","0.0-15.0-2.1","45199","List1B","black","man","","","","null","","","","","","","","",""
"11709","","","survey-text","161","946429","0.0-15.0-3.1","45199","List1B","black","man","","","","","{""Q0"":""mike is copying luke""}","<img src=""stim_listB/copy5.gif""style=""height:400px;""></stim_listB>","is copying","","","","","",""
"null","<div style=""font-size:60px;"">+</div>","","html-keyboard-response","162","946939","0.0-15.0-0.2","45199","List1B","black","man","","","","null","","","","","","","","",""
"null","<img src=""stim_listB/hug7.gif""style=""height:400px;""></stim_listB>","","html-keyboard-response","163","948949","0.0-15.0-1.2","45199","List1B","black","man","","","","null","","","","","","","","",""
"null","is hugging","","html-keyboard-response","164","950966","0.0-15.0-2.2","45199","List1B","black","man","","","","null","","","","","","","","",""
"13233.599999904633","","","survey-text","165","964204","0.0-15.0-3.2","45199","List1B","black","man","","","","","{""Q0"":""ruth is hugging beth""}","<img src=""stim_listB/hug7.gif""style=""height:400px;""></stim_listB>","is hugging","","","","","",""
"null","<div style=""font-size:60px;"">+</div>","","html-keyboard-response","166","964712","0.0-15.0-0.3","45199","List1B","black","man","","","","null","","","","","","","","",""
"null","<img src=""stim_listB/kiss2.gif""style=""height:400px;""></stim_listB>","","html-keyboard-response","167","966716","0.0-15.0-1.3","45199","List1B","black","man","","","","null","","","","","","","","",""
"null","is being kissed by","","html-keyboard-response","168","968727","0.0-15.0-2.3","45199","List1B","black","man","","","","null","","","","","","","","",""
"15558.5","","","survey-text","169","984290","0.0-15.0-3.3","45199","List1B","black","man","","","","","{""Q0"":""mike is being kissed by beth""}","<img src=""stim_listB/kiss2.gif""style=""height:400px;""></stim_listB>","is being kissed by","","","","","",""
"null","<div style=""font-size:60px;"">+</div>","","html-keyboard-response","170","984794","0.0-15.0-0.4","45199","List1B","black","man","","","","null","","","","","","","","",""
"null","<img src=""stim_listB/seduce3.gif""style=""height:400px;""></stim_listB>","","html-keyboard-response","171","986809","0.0-15.0-1.4","45199","List1B","black","man","","","","null","","","","","","","","",""
"null","is seducing","","html-keyboard-response","172","988825","0.0-15.0-2.4","45199","List1B","black","man","","","","null","","","","","","","","",""
"13638.100000143051","","","survey-text","173","1002467","0.0-15.0-3.4","45199","List1B","black","man","","","","","{""Q0"":""jane is seducing luke""}","<img src=""stim_listB/seduce3.gif""style=""height:400px;""></stim_listB>","is seducing","","","","","",""
"null","<div style=""font-size:60px;"">+</div>","","html-keyboard-response","174","1002970","0.0-15.0-0.5","45199","List1B","black","man","","","","null","","","","","","","","",""
"null","<img src=""stim_listB/look8.gif""style=""height:400px;""></stim_listB>","","html-keyboard-response","175","1004980","0.0-15.0-1.5","45199","List1B","black","man","","","","null","","","","","","","","",""
"null","is being looked at by","","html-keyboard-response","176","1006989","0.0-15.0-2.5","45199","List1B","black","man","","","","null","","","","","","","","",""
"12572.5","","","survey-text","177","1019567","0.0-15.0-3.5","45199","List1B","black","man","","","","","{""Q0"":""kate is being looked at by jane""}","<img src=""stim_listB/look8.gif""style=""height:400px;""></stim_listB>","is being looked at by","","","","","",""
"null","<div style=""font-size:60px;"">+</div>","","html-keyboard-response","178","1020070","0.0-15.0-0.6","45199","List1B","black","man","","","","null","","","","","","","","",""
"null","<img src=""stim_listB/copy4.gif""style=""height:400px;""></stim_listB>","","html-keyboard-response","179","1022083","0.0-15.0-1.6","45199","List1B","black","man","","","","null","","","","","","","","",""
"null","is being copied by","","html-keyboard-response","180","1024095","0.0-15.0-2.6","45199","List1B","black","man","","","","null","","","","","","","","",""
"90933.59999990463","","","survey-text","181","1115036","0.0-15.0-3.6","45199","List1B","black","man","","","","","{""Q0"":""jane is being copied by luke""}","<img src=""stim_listB/copy4.gif""style=""height:400px;""></stim_listB>","is being copied by","","","","","",""
"null","<div style=""font-size:60px;"">+</div>","","html-keyboard-response","182","1115541","0.0-15.0-0.7","45199","List1B","black","man","","","","null","","","","","","","","",""
"null","<img src=""stim_listB/challenge7.gif""style=""height:400px;""></stim_listB>","","html-keyboard-response","183","1117551","0.0-15.0-1.7","45199","List1B","black","man","","","","null","","","","","","","","",""
"null","is challenging","","html-keyboard-response","184","1119557","0.0-15.0-2.7","45199","List1B","black","man","","","","null","","","","","","","","",""
"9644.099999904633","","","survey-text","185","1129206","0.0-15.0-3.7","45199","List1B","black","man","","","","","{""Q0"":""kate is challenging ruth""}","<img src=""stim_listB/challenge7.gif""style=""height:400px;""></stim_listB>","is challenging","","","","","",""
"null","<div style=""font-size:60px;"">+</div>","","html-keyboard-response","186","1129709","0.0-15.0-0.8","45199","List1B","black","man","","","","null","","","","","","","","",""
"null","<img src=""stim_listB/challenge1.gif""style=""height:400px;""></stim_listB>","","html-keyboard-response","187","1131726","0.0-15.0-1.8","45199","List1B","black","man","","","","null","","","","","","","","",""
"null","is challenging","","html-keyboard-response","188","1133741","0.0-15.0-2.8","45199","List1B","black","man","","","","null","","","","","","","","",""
"10558.200000047684","","","survey-text","189","1144303","0.0-15.0-3.8","45199","List1B","black","man","","","","","{""Q0"":""mike is challenging beth ""}","<img src=""stim_listB/challenge1.gif""style=""height:400px;""></stim_listB>","is challenging","","","","","",""
"null","<div style=""font-size:60px;"">+</div>","","html-keyboard-response","190","1144818","0.0-15.0-0.9","45199","List1B","black","man","","","","null","","","","","","","","",""
"null","<img src=""stim_listB/seduce8.gif""style=""height:400px;""></stim_listB>","","html-keyboard-response","191","1146830","0.0-15.0-1.9","45199","List1B","black","man","","","","null","","","","","","","","",""
"null","is being seduced by","","html-keyboard-response","192","1148837","0.0-15.0-2.9","45199","List1B","black","man","","","","null","","","","","","","","",""
"11540.200000047684","","","survey-text","193","1160381","0.0-15.0-3.9","45199","List1B","black","man","","","","","{""Q0"":""kate is being seduced by ruth""}","<img src=""stim_listB/seduce8.gif""style=""height:400px;""></stim_listB>","is being seduced by","","","","","",""
"null","<div style=""font-size:60px;"">+</div>","","html-keyboard-response","194","1160892","0.0-15.0-0.10","45199","List1B","black","man","","","","null","","","","","","","","",""
"null","<img src=""stim_listB/kiss6.gif""style=""height:400px;""></stim_listB>","","html-keyboard-response","195","1162903","0.0-15.0-1.10","45199","List1B","black","man","","","","null","","","","","","","","",""
"null","is being kissed by","","html-keyboard-response","196","1164918","0.0-15.0-2.10","45199","List1B","black","man","","","","null","","","","","","","","",""
"347425.5","","","survey-text","197","1512357","0.0-15.0-3.10","45199","List1B","black","man","","","","","{""Q0"":""mike is being kissed by luke""}","<img src=""stim_listB/kiss6.gif""style=""height:400px;""></stim_listB>","is being kissed by","","","","","",""
"null","<div style=""font-size:60px;"">+</div>","","html-keyboard-response","198","1512866","0.0-15.0-0.11","45199","List1B","black","man","","","","null","","","","","","","","",""
"null","<img src=""stim_listB/touch1.gif""style=""height:400px;""></stim_listB>","","html-keyboard-response","199","1514884","0.0-15.0-1.11","45199","List1B","black","man","","","","null","","","","","","","","",""
"null","is touching","","html-keyboard-response","200","1516900","0.0-15.0-2.11","45199","List1B","black","man","","","","null","","","","","","","","",""
"7972.700000047684","","","survey-text","201","1524878","0.0-15.0-3.11","45199","List1B","black","man","","","","","{""Q0"":""mike is touching kate""}","<img src=""stim_listB/touch1.gif""style=""height:400px;""></stim_listB>","is touching","","","","","",""
"null","<div style=""font-size:60px;"">+</div>","","html-keyboard-response","202","1525388","0.0-15.0-0.12","45199","List1B","black","man","","","","null","","","","","","","","",""
"null","<img src=""stim_listB/look2.gif""style=""height:400px;""></stim_listB>","","html-keyboard-response","203","1527405","0.0-15.0-1.12","45199","List1B","black","man","","","","null","","","","","","","","",""
"null","is being looked at by","","html-keyboard-response","204","1529410","0.0-15.0-2.12","45199","List1B","black","man","","","","null","","","","","","","","",""
"13208.5","","","survey-text","205","1542621","0.0-15.0-3.12","45199","List1B","black","man","","","","","{""Q0"":""mike is being looked at by kate""}","<img src=""stim_listB/look2.gif""style=""height:400px;""></stim_listB>","is being looked at by","","","","","",""
"null","<div style=""font-size:60px;"">+</div>","","html-keyboard-response","206","1543128","0.0-15.0-0.13","45199","List1B","black","man","","","","null","","","","","","","","",""
"null","<img src=""stim_listB/seduce1.gif""style=""height:400px;""></stim_listB>","","html-keyboard-response","207","1545143","0.0-15.0-1.13","45199","List1B","black","man","","","","null","","","","","","","","",""
"null","is seducing","","html-keyboard-response","208","1547146","0.0-15.0-2.13","45199","List1B","black","man","","","","null","","","","","","","","",""
"24879.799999952316","","","survey-text","209","1572031","0.0-15.0-3.13","45199","List1B","black","man","","","","","{""Q0"":""fred is being looked at by fred""}","<img src=""stim_listB/seduce1.gif""style=""height:400px;""></stim_listB>","is seducing","","","","","",""
"null","<div style=""font-size:60px;"">+</div>","","html-keyboard-response","210","1572538","0.0-15.0-0.14","45199","List1B","black","man","","","","null","","","","","","","","",""
"null","<img src=""stim_listB/oppose5.gif""style=""height:400px;""></stim_listB>","","html-keyboard-response","211","1574556","0.0-15.0-1.14","45199","List1B","black","man","","","","null","","","","","","","","",""
"null","is opposing","","html-keyboard-response","212","1576577","0.0-15.0-2.14","45199","List1B","black","man","","","","null","","","","","","","","",""
"15373.100000143051","","","survey-text","213","1591955","0.0-15.0-3.14","45199","List1B","black","man","","","","","{""Q0"":""dave is opposing mike""}","<img src=""stim_listB/oppose5.gif""style=""height:400px;""></stim_listB>","is opposing","","","","","",""
"null","<div style=""font-size:60px;"">+</div>","","html-keyboard-response","214","1592459","0.0-15.0-0.15","45199","List1B","black","man","","","","null","","","","","","","","",""
"null","<img src=""stim_listB/oppose1.gif""style=""height:400px;""></stim_listB>","","html-keyboard-response","215","1594465","0.0-15.0-1.15","45199","List1B","black","man","","","","null","","","","","","","","",""
"null","is opposing","","html-keyboard-response","216","1596475","0.0-15.0-2.15","45199","List1B","black","man","","","","null","","","","","","","","",""
"22097.89999985695","","","survey-text","217","1618578","0.0-15.0-3.15","45199","List1B","black","man","","","","","{""Q0"":""kate is opposing mike""}","<img src=""stim_listB/oppose1.gif""style=""height:400px;""></stim_listB>","is opposing","","","","","",""
"null","<div style=""font-size:60px;"">+</div>","","html-keyboard-response","218","1619090","0.0-15.0-0.16","45199","List1B","black","man","","","","null","","","","","","","","",""
"null","<img src=""stim_listB/greet2.gif""style=""height:400px;""></stim_listB>","","html-keyboard-response","219","1621101","0.0-15.0-1.16","45199","List1B","black","man","","","","null","","","","","","","","",""
"null","is being greeted by","","html-keyboard-response","220","1623113","0.0-15.0-2.16","45199","List1B","black","man","","","","null","","","","","","","","",""
"13368","","","survey-text","221","1636486","0.0-15.0-3.16","45199","List1B","black","man","","","","","{""Q0"":""fred is being greeted by kate""}","<img src=""stim_listB/greet2.gif""style=""height:400px;""></stim_listB>","is being greeted by","","","","","",""
"null","<div style=""font-size:60px;"">+</div>","","html-keyboard-response","222","1637004","0.0-15.0-0.17","45199","List1B","black","man","","","","null","","","","","","","","",""
"null","<img src=""stim_listB/kiss8.gif""style=""height:400px;""></stim_listB>","","html-keyboard-response","223","1639023","0.0-15.0-1.17","45199","List1B","black","man","","","","null","","","","","","","","",""
"null","is being kissed by","","html-keyboard-response","224","1641037","0.0-15.0-2.17","45199","List1B","black","man","","","","null","","","","","","","","",""
"10970.299999952316","","","survey-text","225","1652014","0.0-15.0-3.17","45199","List1B","black","man","","","","","{""Q0"":""kate is being kissed by jane""}","<img src=""stim_listB/kiss8.gif""style=""height:400px;""></stim_listB>","is being kissed by","","","","","",""
"null","<div style=""font-size:60px;"">+</div>","","html-keyboard-response","226","1652519","0.0-15.0-0.18","45199","List1B","black","man","","","","null","","","","","","","","",""
"null","<img src=""stim_listB/look7.gif""style=""height:400px;""></stim_listB>","","html-keyboard-response","227","1654534","0.0-15.0-1.18","45199","List1B","black","man","","","","null","","","","","","","","",""
"null","is looking at","","html-keyboard-response","228","1656553","0.0-15.0-2.18","45199","List1B","black","man","","","","null","","","","","","","","",""
"14342.5","","","survey-text","229","1670901","0.0-15.0-3.18","45199","List1B","black","man","","","","","{""Q0"":""ruth is looking at beth""}","<img src=""stim_listB/look7.gif""style=""height:400px;""></stim_listB>","is looking at","","","","","",""
"null","<div style=""font-size:60px;"">+</div>","","html-keyboard-response","230","1671404","0.0-15.0-0.19","45199","List1B","black","man","","","","null","","","","","","","","",""
"null","<img src=""stim_listB/look6.gif""style=""height:400px;""></stim_listB>","","html-keyboard-response","231","1673411","0.0-15.0-1.19","45199","List1B","black","man","","","","null","","","","","","","","",""
"null","is being looked at by","","html-keyboard-response","232","1675420","0.0-15.0-2.19","45199","List1B","black","man","","","","null","","","","","","","","",""
"14192","","","survey-text","233","1689618","0.0-15.0-3.19","45199","List1B","black","man","","","","","{""Q0"":""dave is being looked at by mike""}","<img src=""stim_listB/look6.gif""style=""height:400px;""></stim_listB>","is being looked at by","","","","","",""
"12555","<img src='img/portrait_matrix_list1.jpg' style='width:900px;height:500px;''></img><p>If you have memorised all the portraits and names and are ready to start, press Continue.</p><p><strong>Please note: Your memory of these faces will be tested 4 times during this experiment.</strong></p>","0","html-button-response","234","1702176","0.0-16.0-0.0","45199","List1B","black","man","","","","","","","","","","","","",""
"6106.600000143051","<img src=""portrait/WM1.jpg""style=""height:400px;""></img>","6","html-button-response","235","1709300","0.0-16.0-1.0","45199","List1B","black","man","","true","6","","","","","","","","","",""
"null","CORRECT","","html-keyboard-response","236","1710817","0.0-16.0-2.0-0.0","45199","List1B","black","man","","","","null","","","","","","","","",""
"6246.299999952316","<img src=""portrait/WW1.jpg""style=""height:400px;""></img>","1","html-button-response","237","1717067","0.0-16.0-4.0","45199","List1B","black","man","","true","1","","","","","","","","","",""
"null","CORRECT","","html-keyboard-response","238","1718593","0.0-16.0-5.0-0.0","45199","List1B","black","man","","","","null","","","","","","","","",""
"3368.399999856949","<img src=""portrait/BW1.jpg""style=""height:400px;""></img>","0","html-button-response","239","1721965","0.0-16.0-7.0","45199","List1B","black","man","","true","0","","","","","","","","","",""
"null","CORRECT","","html-keyboard-response","240","1723473","0.0-16.0-8.0-0.0","45199","List1B","black","man","","","","null","","","","","","","","",""
"5099.700000047684","<img src=""portrait/WM2.jpg""style=""height:400px;""></img>","7","html-button-response","241","1728576","0.0-16.0-10.0","45199","List1B","black","man","","true","7","","","","","","","","","",""
"null","CORRECT","","html-keyboard-response","242","1730109","0.0-16.0-11.0-0.0","45199","List1B","black","man","","","","null","","","","","","","","",""
"3516.800000190735","<img src=""portrait/WW2.jpg""style=""height:400px;""></img>","3","html-button-response","243","1733629","0.0-16.0-13.0","45199","List1B","black","man","","true","3","","","","","","","","","",""
"null","CORRECT","","html-keyboard-response","244","1735135","0.0-16.0-14.0-0.0","45199","List1B","black","man","","","","null","","","","","","","","",""
"3324.899999856949","<img src=""portrait/BM1.jpg""style=""height:400px;""></img>","4","html-button-response","245","1738463","0.0-16.0-16.0","45199","List1B","black","man","","true","4","","","","","","","","","",""
"null","CORRECT","","html-keyboard-response","246","1739988","0.0-16.0-17.0-0.0","45199","List1B","black","man","","","","null","","","","","","","","",""
"6183.199999809265","<img src=""portrait/BM2.jpg""style=""height:400px;""></img>","5","html-button-response","247","1746174","0.0-16.0-19.0","45199","List1B","black","man","","true","5","","","","","","","","","",""
"null","CORRECT","","html-keyboard-response","248","1747689","0.0-16.0-20.0-0.0","45199","List1B","black","man","","","","null","","","","","","","","",""
"7300.600000143051","<img src=""portrait/BW2.jpg""style=""height:400px;""></img>","2","html-button-response","249","1754993","0.0-16.0-22.0","45199","List1B","black","man","","true","2","","","","","","","","","",""
"null","CORRECT","","html-keyboard-response","250","1756949","0.0-16.0-23.0-0.0","45199","List1B","black","man","","","","null","","","","","","","","",""
"2811.5","<p>You got 8 out of 8 right first time. Press Continue.</p>","0","html-button-response","251","1759769","0.0-16.0-25.0","45199","List1B","black","man","","","","","","","","","","","","",""
"null","<div style=""font-size:60px;"">+</div>","","html-keyboard-response","252","1761275","0.0-17.0-0.0","45199","List1B","black","man","","","","null","","","","","","","","",""
"null","<img src=""stim_listB/shout8.gif""style=""height:400px;""></stim_listB>","","html-keyboard-response","253","1763293","0.0-17.0-1.0","45199","List1B","black","man","","","","null","","","","","","","","",""
"null","is being shouted at by","","html-keyboard-response","254","1765304","0.0-17.0-2.0","45199","List1B","black","man","","","","null","","","","","","","","",""
"19360.200000047684","","","survey-text","255","1784668","0.0-17.0-3.0","45199","List1B","black","man","","","","","{""Q0"":""jane is being shouted at by kate""}","<img src=""stim_listB/shout8.gif""style=""height:400px;""></stim_listB>","is being shouted at by","","","","","",""
"null","<div style=""font-size:60px;"">+</div>","","html-keyboard-response","256","1785181","0.0-17.0-0.1","45199","List1B","black","man","","","","null","","","","","","","","",""
"null","<img src=""stim_listB/touch4.gif""style=""height:400px;""></stim_listB>","","html-keyboard-response","257","1787192","0.0-17.0-1.1","45199","List1B","black","man","","","","null","","","","","","","","",""
"null","is being touched by","","html-keyboard-response","258","1789207","0.0-17.0-2.1","45199","List1B","black","man","","","","null","","","","","","","","",""
"7381.5","","","survey-text","259","1796594","0.0-17.0-3.1","45199","List1B","black","man","","","","","{""Q0"":""ruth is being touched by luke""}","<img src=""stim_listB/touch4.gif""style=""height:400px;""></stim_listB>","is being touched by","","","","","",""
"null","<div style=""font-size:60px;"">+</div>","","html-keyboard-response","260","1797100","0.0-17.0-0.2","45199","List1B","black","man","","","","null","","","","","","","","",""
"null","<img src=""stim_listB/copy7.gif""style=""height:400px;""></stim_listB>","","html-keyboard-response","261","1799113","0.0-17.0-1.2","45199","List1B","black","man","","","","null","","","","","","","","",""
"null","is copying","","html-keyboard-response","262","1801121","0.0-17.0-2.2","45199","List1B","black","man","","","","null","","","","","","","","",""
"6460.799999952316","","","survey-text","263","1807586","0.0-17.0-3.2","45199","List1B","black","man","","","","","{""Q0"":""kate is copying ruth""}","<img src=""stim_listB/copy7.gif""style=""height:400px;""></stim_listB>","is copying","","","","","",""
"null","<div style=""font-size:60px;"">+</div>","","html-keyboard-response","264","1808091","0.0-17.0-0.3","45199","List1B","black","man","","","","null","","","","","","","","",""
"null","<img src=""stim_listB/look4.gif""style=""height:400px;""></stim_listB>","","html-keyboard-response","265","1810109","0.0-17.0-1.3","45199","List1B","black","man","","","","null","","","","","","","","",""
"null","is being looked at by","","html-keyboard-response","266","1812116","0.0-17.0-2.3","45199","List1B","black","man","","","","null","","","","","","","","",""
"10782.399999856949","","","survey-text","267","1822904","0.0-17.0-3.3","45199","List1B","black","man","","","","","{""Q0"":""jane is being looked at by dave""}","<img src=""stim_listB/look4.gif""style=""height:400px;""></stim_listB>","is being looked at by","","","","","",""
"null","<div style=""font-size:60px;"">+</div>","","html-keyboard-response","268","1823407","0.0-17.0-0.4","45199","List1B","black","man","","","","null","","","","","","","","",""
"null","<img src=""stim_listB/kiss5.gif""style=""height:400px;""></stim_listB>","","html-keyboard-response","269","1825421","0.0-17.0-1.4","45199","List1B","black","man","","","","null","","","","","","","","",""
"null","is kissing","","html-keyboard-response","270","1827435","0.0-17.0-2.4","45199","List1B","black","man","","","","null","","","","","","","","",""
"10303.100000143051","","","survey-text","271","1837742","0.0-17.0-3.4","45199","List1B","black","man","","","","","{""Q0"":""luke is kissing fred""}","<img src=""stim_listB/kiss5.gif""style=""height:400px;""></stim_listB>","is kissing","","","","","",""
"null","<div style=""font-size:60px;"">+</div>","","html-keyboard-response","272","1838248","0.0-17.0-0.5","45199","List1B","black","man","","","","null","","","","","","","","",""
"null","<img src=""stim_listB/seduce2.gif""style=""height:400px;""></stim_listB>","","html-keyboard-response","273","1840263","0.0-17.0-1.5","45199","List1B","black","man","","","","null","","","","","","","","",""
"null","is being seduced by","","html-keyboard-response","274","1842277","0.0-17.0-2.5","45199","List1B","black","man","","","","null","","","","","","","","",""
"9182","","","survey-text","275","1851463","0.0-17.0-3.5","45199","List1B","black","man","","","","","{""Q0"":""mike is being seduced by beth""}","<img src=""stim_listB/seduce2.gif""style=""height:400px;""></stim_listB>","is being seduced by","","","","","",""
"null","<div style=""font-size:60px;"">+</div>","","html-keyboard-response","276","1851967","0.0-17.0-0.6","45199","List1B","black","man","","","","null","","","","","","","","",""
"null","<img src=""stim_listB/greet5.gif""style=""height:400px;""></stim_listB>","","html-keyboard-response","277","1853976","0.0-17.0-1.6","45199","List1B","black","man","","","","null","","","","","","","","",""
"null","is greeting","","html-keyboard-response","278","1855986","0.0-17.0-2.6","45199","List1B","black","man","","","","null","","","","","","","","",""
"9578","","","survey-text","279","1865569","0.0-17.0-3.6","45199","List1B","black","man","","","","","{""Q0"":""mike is greeting luke""}","<img src=""stim_listB/greet5.gif""style=""height:400px;""></stim_listB>","is greeting","","","","","",""
"null","<div style=""font-size:60px;"">+</div>","","html-keyboard-response","280","1866086","0.0-17.0-0.7","45199","List1B","black","man","","","","null","","","","","","","","",""
"null","<img src=""stim_listB/touch3.gif""style=""height:400px;""></stim_listB>","","html-keyboard-response","281","1868097","0.0-17.0-1.7","45199","List1B","black","man","","","","null","","","","","","","","",""
"null","is touching","","html-keyboard-response","282","1870110","0.0-17.0-2.7","45199","List1B","black","man","","","","null","","","","","","","","",""
"12947.5","","","survey-text","283","1883062","0.0-17.0-3.7","45199","List1B","black","man","","","","","{""Q0"":""dave is touching jane""}","<img src=""stim_listB/touch3.gif""style=""height:400px;""></stim_listB>","is touching","","","","","",""
"null","<div style=""font-size:60px;"">+</div>","","html-keyboard-response","284","1883571","0.0-17.0-0.8","45199","List1B","black","man","","","","null","","","","","","","","",""
"null","<img src=""stim_listB/look3.gif""style=""height:400px;""></stim_listB>","","html-keyboard-response","285","1885587","0.0-17.0-1.8","45199","List1B","black","man","","","","null","","","","","","","","",""
"null","is looking at","","html-keyboard-response","286","1887593","0.0-17.0-2.8","45199","List1B","black","man","","","","null","","","","","","","","",""
"10355","","","survey-text","287","1897953","0.0-17.0-3.8","45199","List1B","black","man","","","","","{""Q0"":""ruth is looking at luke""}","<img src=""stim_listB/look3.gif""style=""height:400px;""></stim_listB>","is looking at","","","","","",""
"null","<div style=""font-size:60px;"">+</div>","","html-keyboard-response","288","1898459","0.0-17.0-0.9","45199","List1B","black","man","","","","null","","","","","","","","",""
"null","<img src=""stim_listB/challenge3.gif""style=""height:400px;""></stim_listB>","","html-keyboard-response","289","1900472","0.0-17.0-1.9","45199","List1B","black","man","","","","null","","","","","","","","",""
"null","is challenging","","html-keyboard-response","290","1902478","0.0-17.0-2.9","45199","List1B","black","man","","","","null","","","","","","","","",""
"16202.299999952316","","","survey-text","291","1918685","0.0-17.0-3.9","45199","List1B","black","man","","","","","{""Q0"":""ruth is challenging dave""}","<img src=""stim_listB/challenge3.gif""style=""height:400px;""></stim_listB>","is challenging","","","","","",""
"null","<div style=""font-size:60px;"">+</div>","","html-keyboard-response","292","1919191","0.0-17.0-0.10","45199","List1B","black","man","","","","null","","","","","","","","",""
"null","<img src=""stim_listB/challenge4.gif""style=""height:400px;""></stim_listB>","","html-keyboard-response","293","1921199","0.0-17.0-1.10","45199","List1B","black","man","","","","null","","","","","","","","",""
"null","is being challenged by","","html-keyboard-response","294","1923210","0.0-17.0-2.10","45199","List1B","black","man","","","","null","","","","","","","","",""
"22602.10000014305","","","survey-text","295","1945817","0.0-17.0-3.10","45199","List1B","black","man","","","","","{""Q0"":""luke is being challenged by jane""}","<img src=""stim_listB/challenge4.gif""style=""height:400px;""></stim_listB>","is being challenged by","","","","","",""
"null","<div style=""font-size:60px;"">+</div>","","html-keyboard-response","296","1946334","0.0-17.0-0.11","45199","List1B","black","man","","","","null","","","","","","","","",""
"null","<img src=""stim_listB/seduce6.gif""style=""height:400px;""></stim_listB>","","html-keyboard-response","297","1948343","0.0-17.0-1.11","45199","List1B","black","man","","","","null","","","","","","","","",""
"null","is being seduced by","","html-keyboard-response","298","1950360","0.0-17.0-2.11","45199","List1B","black","man","","","","null","","","","","","","","",""
"8190.699999809265","","","survey-text","299","1958556","0.0-17.0-3.11","45199","List1B","black","man","","","","","{""Q0"":""luke is being seduced by mike""}","<img src=""stim_listB/seduce6.gif""style=""height:400px;""></stim_listB>","is being seduced by","","","","","",""
"null","<div style=""font-size:60px;"">+</div>","","html-keyboard-response","300","1959074","0.0-17.0-0.12","45199","List1B","black","man","","","","null","","","","","","","","",""
"null","<img src=""stim_listB/touch7.gif""style=""height:400px;""></stim_listB>","","html-keyboard-response","301","1961080","0.0-17.0-1.12","45199","List1B","black","man","","","","null","","","","","","","","",""
"null","is touching","","html-keyboard-response","302","1963096","0.0-17.0-2.12","45199","List1B","black","man","","","","null","","","","","","","","",""
"6429.400000095367","","","survey-text","303","1969530","0.0-17.0-3.12","45199","List1B","black","man","","","","","{""Q0"":""kate is touching jane""}","<img src=""stim_listB/touch7.gif""style=""height:400px;""></stim_listB>","is touching","","","","","",""
"null","<div style=""font-size:60px;"">+</div>","","html-keyboard-response","304","1970044","0.0-17.0-0.13","45199","List1B","black","man","","","","null","","","","","","","","",""
"null","<img src=""stim_listB/greet4.gif""style=""height:400px;""></stim_listB>","","html-keyboard-response","305","1972055","0.0-17.0-1.13","45199","List1B","black","man","","","","null","","","","","","","","",""
"null","is being greeted by","","html-keyboard-response","306","1974072","0.0-17.0-2.13","45199","List1B","black","man","","","","null","","","","","","","","",""
"14052.5","","","survey-text","307","1988129","0.0-17.0-3.13","45199","List1B","black","man","","","","","{""Q0"":""jane is being greeted by luke""}","<img src=""stim_listB/greet4.gif""style=""height:400px;""></stim_listB>","is being greeted by","","","","","",""
"null","<div style=""font-size:60px;"">+</div>","","html-keyboard-response","308","1988633","0.0-17.0-0.14","45199","List1B","black","man","","","","null","","","","","","","","",""
"null","<img src=""stim_listB/hug1.gif""style=""height:400px;""></stim_listB>","","html-keyboard-response","309","1990648","0.0-17.0-1.14","45199","List1B","black","man","","","","null","","","","","","","","",""
"null","is hugging","","html-keyboard-response","310","1992652","0.0-17.0-2.14","45199","List1B","black","man","","","","null","","","","","","","","",""
"6640","","","survey-text","311","1999299","0.0-17.0-3.14","45199","List1B","black","man","","","","","{""Q0"":""fred is hugging beth""}","<img src=""stim_listB/hug1.gif""style=""height:400px;""></stim_listB>","is hugging","","","","","",""
"null","<div style=""font-size:60px;"">+</div>","","html-keyboard-response","312","1999803","0.0-17.0-0.15","45199","List1B","black","man","","","","null","","","","","","","","",""
"null","<img src=""stim_listB/touch8.gif""style=""height:400px;""></stim_listB>","","html-keyboard-response","313","2001812","0.0-17.0-1.15","45199","List1B","black","man","","","","null","","","","","","","","",""
"null","is being touched by","","html-keyboard-response","314","2003821","0.0-17.0-2.15","45199","List1B","black","man","","","","null","","","","","","","","",""
"8337.599999904633","","","survey-text","315","2012164","0.0-17.0-3.15","45199","List1B","black","man","","","","","{""Q0"":""beth is being touched by ruth""}","<img src=""stim_listB/touch8.gif""style=""height:400px;""></stim_listB>","is being touched by","","","","","",""
"null","<div style=""font-size:60px;"">+</div>","","html-keyboard-response","316","2012669","0.0-17.0-0.16","45199","List1B","black","man","","","","null","","","","","","","","",""
"null","<img src=""stim_listB/hug2.gif""style=""height:400px;""></stim_listB>","","html-keyboard-response","317","2014682","0.0-17.0-1.16","45199","List1B","black","man","","","","null","","","","","","","","",""
"null","is being hugged by","","html-keyboard-response","318","2016684","0.0-17.0-2.16","45199","List1B","black","man","","","","null","","","","","","","","",""
"11953.5","","","survey-text","319","2028640","0.0-17.0-3.16","45199","List1B","black","man","","","","","{""Q0"":""mike is being hugged by kate""}","<img src=""stim_listB/hug2.gif""style=""height:400px;""></stim_listB>","is being hugged by","","","","","",""
"null","<div style=""font-size:60px;"">+</div>","","html-keyboard-response","320","2029142","0.0-17.0-0.17","45199","List1B","black","man","","","","null","","","","","","","","",""
"null","<img src=""stim_listB/shout1.gif""style=""height:400px;""></stim_listB>","","html-keyboard-response","321","2031161","0.0-17.0-1.17","45199","List1B","black","man","","","","null","","","","","","","","",""
"null","is shouting at","","html-keyboard-response","322","2033176","0.0-17.0-2.17","45199","List1B","black","man","","","","null","","","","","","","","",""
"8107.300000190735","","","survey-text","323","2041288","0.0-17.0-3.17","45199","List1B","black","man","","","","","{""Q0"":""fred is shouting at beth""}","<img src=""stim_listB/shout1.gif""style=""height:400px;""></stim_listB>","is shouting at","","","","","",""
"null","<div style=""font-size:60px;"">+</div>","","html-keyboard-response","324","2041790","0.0-17.0-0.18","45199","List1B","black","man","","","","null","","","","","","","","",""
"null","<img src=""stim_listB/oppose4.gif""style=""height:400px;""></stim_listB>","","html-keyboard-response","325","2043796","0.0-17.0-1.18","45199","List1B","black","man","","","","null","","","","","","","","",""
"null","is being opposed by","","html-keyboard-response","326","2045807","0.0-17.0-2.18","45199","List1B","black","man","","","","null","","","","","","","","",""
"14870.5","","","survey-text","327","2060682","0.0-17.0-3.18","45199","List1B","black","man","","","","","{""Q0"":""ruth is being opposed by luke""}","<img src=""stim_listB/oppose4.gif""style=""height:400px;""></stim_listB>","is being opposed by","","","","","",""
"null","<div style=""font-size:60px;"">+</div>","","html-keyboard-response","328","2061185","0.0-17.0-0.19","45199","List1B","black","man","","","","null","","","","","","","","",""
"null","<img src=""stim_listB/seduce5.gif""style=""height:400px;""></stim_listB>","","html-keyboard-response","329","2063192","0.0-17.0-1.19","45199","List1B","black","man","","","","null","","","","","","","","",""
"null","is seducing","","html-keyboard-response","330","2065202","0.0-17.0-2.19","45199","List1B","black","man","","","","null","","","","","","","","",""
"7386.200000047684","","","survey-text","331","2072593","0.0-17.0-3.19","45199","List1B","black","man","","","","","{""Q0"":""fred is seducing dave""}","<img src=""stim_listB/seduce5.gif""style=""height:400px;""></stim_listB>","is seducing","","","","","",""
"4564.200000047684","<img src='img/portrait_matrix_list1.jpg' style='width:900px;height:500px;''></img><p>If you have memorised all the portraits and names and are ready to start, press Continue.</p><p><strong>Please note: Your memory of these faces will be tested 4 times during this experiment.</strong></p>","0","html-button-response","332","2077160","0.0-18.0-0.0","45199","List1B","black","man","","","","","","","","","","","","",""
"3822.2000000476837","<img src=""portrait/BM1.jpg""style=""height:400px;""></img>","4","html-button-response","333","2081991","0.0-18.0-1.0","45199","List1B","black","man","","true","4","","","","","","","","","",""
"null","CORRECT","","html-keyboard-response","334","2083500","0.0-18.0-2.0-0.0","45199","List1B","black","man","","","","null","","","","","","","","",""
"2995.7000000476837","<img src=""portrait/WW2.jpg""style=""height:400px;""></img>","3","html-button-response","335","2086499","0.0-18.0-4.0","45199","List1B","black","man","","true","3","","","","","","","","","",""
"null","CORRECT","","html-keyboard-response","336","2088014","0.0-18.0-5.0-0.0","45199","List1B","black","man","","","","null","","","","","","","","",""
"3669.2000000476837","<img src=""portrait/BM2.jpg""style=""height:400px;""></img>","5","html-button-response","337","2091686","0.0-18.0-7.0","45199","List1B","black","man","","true","5","","","","","","","","","",""
"null","CORRECT","","html-keyboard-response","338","2093210","0.0-18.0-8.0-0.0","45199","List1B","black","man","","","","null","","","","","","","","",""
"5223.799999952316","<img src=""portrait/WM1.jpg""style=""height:400px;""></img>","6","html-button-response","339","2098437","0.0-18.0-10.0","45199","List1B","black","man","","true","6","","","","","","","","","",""
"null","CORRECT","","html-keyboard-response","340","2099957","0.0-18.0-11.0-0.0","45199","List1B","black","man","","","","null","","","","","","","","",""
"6027.299999952316","<img src=""portrait/WW1.jpg""style=""height:400px;""></img>","1","html-button-response","341","2105988","0.0-18.0-13.0","45199","List1B","black","man","","true","1","","","","","","","","","",""
"null","CORRECT","","html-keyboard-response","342","2107519","0.0-18.0-14.0-0.0","45199","List1B","black","man","","","","null","","","","","","","","",""
"4543.399999856949","<img src=""portrait/WM2.jpg""style=""height:400px;""></img>","7","html-button-response","343","2112066","0.0-18.0-16.0","45199","List1B","black","man","","true","7","","","","","","","","","",""
"null","CORRECT","","html-keyboard-response","344","2113575","0.0-18.0-17.0-0.0","45199","List1B","black","man","","","","null","","","","","","","","",""
"4237.5","<img src=""portrait/BW1.jpg""style=""height:400px;""></img>","0","html-button-response","345","2117815","0.0-18.0-19.0","45199","List1B","black","man","","true","0","","","","","","","","","",""
"null","CORRECT","","html-keyboard-response","346","2119344","0.0-18.0-20.0-0.0","45199","List1B","black","man","","","","null","","","","","","","","",""
"3414.2000000476837","<img src=""portrait/BW2.jpg""style=""height:400px;""></img>","2","html-button-response","347","2122761","0.0-18.0-22.0","45199","List1B","black","man","","true","2","","","","","","","","","",""
"null","CORRECT","","html-keyboard-response","348","2124278","0.0-18.0-23.0-0.0","45199","List1B","black","man","","","","null","","","","","","","","",""
"1892.2000000476837","<p>You got 8 out of 8 right first time. Press Continue.</p>","0","html-button-response","349","2126173","0.0-18.0-25.0","45199","List1B","black","man","","","","","","","","","","","","",""
"null","<div style=""font-size:60px;"">+</div>","","html-keyboard-response","350","2127699","0.0-19.0-0.0","45199","List1B","black","man","","","","null","","","","","","","","",""
"null","<img src=""stim_listB/look1.gif""style=""height:400px;""></stim_listB>","","html-keyboard-response","351","2129705","0.0-19.0-1.0","45199","List1B","black","man","","","","null","","","","","","","","",""
"null","is looking at","","html-keyboard-response","352","2131711","0.0-19.0-2.0","45199","List1B","black","man","","","","null","","","","","","","","",""
"9972","","","survey-text","353","2141688","0.0-19.0-3.0","45199","List1B","black","man","","","","","{""Q0"":""fred is looking at beth""}","<img src=""stim_listB/look1.gif""style=""height:400px;""></stim_listB>","is looking at","","","","","",""
"null","<div style=""font-size:60px;"">+</div>","","html-keyboard-response","354","2142200","0.0-19.0-0.1","45199","List1B","black","man","","","","null","","","","","","","","",""
"null","<img src=""stim_listB/greet8.gif""style=""height:400px;""></stim_listB>","","html-keyboard-response","355","2144205","0.0-19.0-1.1","45199","List1B","black","man","","","","null","","","","","","","","",""
"null","is being greeted by","","html-keyboard-response","356","2146214","0.0-19.0-2.1","45199","List1B","black","man","","","","null","","","","","","","","",""
"12198.5","","","survey-text","357","2158417","0.0-19.0-3.1","45199","List1B","black","man","","","","","{""Q0"":""beth is being greeted by jane""}","<img src=""stim_listB/greet8.gif""style=""height:400px;""></stim_listB>","is being greeted by","","","","","",""
"null","<div style=""font-size:60px;"">+</div>","","html-keyboard-response","358","2158934","0.0-19.0-0.2","45199","List1B","black","man","","","","null","","","","","","","","",""
"null","<img src=""stim_listB/greet1.gif""style=""height:400px;""></stim_listB>","","html-keyboard-response","359","2160939","0.0-19.0-1.2","45199","List1B","black","man","","","","null","","","","","","","","",""
"null","is greeting","","html-keyboard-response","360","2162954","0.0-19.0-2.2","45199","List1B","black","man","","","","null","","","","","","","","",""
"39405.59999990463","","","survey-text","361","2202367","0.0-19.0-3.2","45199","List1B","black","man","","","","","{""Q0"":""beth is greeting mike""}","<img src=""stim_listB/greet1.gif""style=""height:400px;""></stim_listB>","is greeting","","","","","",""
"null","<div style=""font-size:60px;"">+</div>","","html-keyboard-response","362","2202885","0.0-19.0-0.3","45199","List1B","black","man","","","","null","","","","","","","","",""
"null","<img src=""stim_listB/copy1.gif""style=""height:400px;""></stim_listB>","","html-keyboard-response","363","2204903","0.0-19.0-1.3","45199","List1B","black","man","","","","null","","","","","","","","",""
"null","is copying","","html-keyboard-response","364","2206917","0.0-19.0-2.3","45199","List1B","black","man","","","","null","","","","","","","","",""
"16538.5","","","survey-text","365","2223460","0.0-19.0-3.3","45199","List1B","black","man","","","","","{""Q0"":""beth is copying mike""}","<img src=""stim_listB/copy1.gif""style=""height:400px;""></stim_listB>","is copying","","","","","",""
"null","<div style=""font-size:60px;"">+</div>","","html-keyboard-response","366","2223963","0.0-19.0-0.4","45199","List1B","black","man","","","","null","","","","","","","","",""
"null","<img src=""stim_listB/copy3.gif""style=""height:400px;""></stim_listB>","","html-keyboard-response","367","2225970","0.0-19.0-1.4","45199","List1B","black","man","","","","null","","","","","","","","",""
"null","is copying","","html-keyboard-response","368","2227975","0.0-19.0-2.4","45199","List1B","black","man","","","","null","","","","","","","","",""
"8517.900000095367","","","survey-text","369","2236497","0.0-19.0-3.4","45199","List1B","black","man","","","","","{""Q0"":""ruth is copying dave""}","<img src=""stim_listB/copy3.gif""style=""height:400px;""></stim_listB>","is copying","","","","","",""
"null","<div style=""font-size:60px;"">+</div>","","html-keyboard-response","370","2237003","0.0-19.0-0.5","45199","List1B","black","man","","","","null","","","","","","","","",""
"null","<img src=""stim_listB/oppose7.gif""style=""height:400px;""></stim_listB>","","html-keyboard-response","371","2239012","0.0-19.0-1.5","45199","List1B","black","man","","","","null","","","","","","","","",""
"null","is opposing","","html-keyboard-response","372","2241031","0.0-19.0-2.5","45199","List1B","black","man","","","","null","","","","","","","","",""
"13879","","","survey-text","373","2254916","0.0-19.0-3.5","45199","List1B","black","man","","","","","{""Q0"":""kate is opposing jane""}","<img src=""stim_listB/oppose7.gif""style=""height:400px;""></stim_listB>","is opposing","","","","","",""
"null","<div style=""font-size:60px;"">+</div>","","html-keyboard-response","374","2255432","0.0-19.0-0.6","45199","List1B","black","man","","","","null","","","","","","","","",""
"null","<img src=""stim_listB/greet3.gif""style=""height:400px;""></stim_listB>","","html-keyboard-response","375","2257440","0.0-19.0-1.6","45199","List1B","black","man","","","","null","","","","","","","","",""
"null","is greeting","","html-keyboard-response","376","2259457","0.0-19.0-2.6","45199","List1B","black","man","","","","null","","","","","","","","",""
"7781.400000095367","","","survey-text","377","2267243","0.0-19.0-3.6","45199","List1B","black","man","","","","","{""Q0"":""ruth is greeting dave""}","<img src=""stim_listB/greet3.gif""style=""height:400px;""></stim_listB>","is greeting","","","","","",""
"null","<div style=""font-size:60px;"">+</div>","","html-keyboard-response","378","2267753","0.0-19.0-0.7","45199","List1B","black","man","","","","null","","","","","","","","",""
"null","<img src=""stim_listB/shout4.gif""style=""height:400px;""></stim_listB>","","html-keyboard-response","379","2269766","0.0-19.0-1.7","45199","List1B","black","man","","","","null","","","","","","","","",""
"null","is being shouted at by","","html-keyboard-response","380","2271770","0.0-19.0-2.7","45199","List1B","black","man","","","","null","","","","","","","","",""
"35375.5","","","survey-text","381","2307151","0.0-19.0-3.7","45199","List1B","black","man","","","","","{""Q0"":""dave is being shouted at by ruth""}","<img src=""stim_listB/shout4.gif""style=""height:400px;""></stim_listB>","is being shouted at by","","","","","",""
"null","<div style=""font-size:60px;"">+</div>","","html-keyboard-response","382","2307655","0.0-19.0-0.8","45199","List1B","black","man","","","","null","","","","","","","","",""
"null","<img src=""stim_listB/greet6.gif""style=""height:400px;""></stim_listB>","","html-keyboard-response","383","2309671","0.0-19.0-1.8","45199","List1B","black","man","","","","null","","","","","","","","",""
"null","is being greeted by","","html-keyboard-response","384","2311674","0.0-19.0-2.8","45199","List1B","black","man","","","","null","","","","","","","","",""
"23153.400000095367","","","survey-text","385","2334836","0.0-19.0-3.8","45199","List1B","black","man","","","","","{""Q0"":""fred is being greeted by dave""}","<img src=""stim_listB/greet6.gif""style=""height:400px;""></stim_listB>","is being greeted by","","","","","",""
"null","<div style=""font-size:60px;"">+</div>","","html-keyboard-response","386","2335352","0.0-19.0-0.9","45199","List1B","black","man","","","","null","","","","","","","","",""
"null","<img src=""stim_listB/hug4.gif""style=""height:400px;""></stim_listB>","","html-keyboard-response","387","2337357","0.0-19.0-1.9","45199","List1B","black","man","","","","null","","","","","","","","",""
"null","is being hugged by","","html-keyboard-response","388","2339367","0.0-19.0-2.9","45199","List1B","black","man","","","","null","","","","","","","","",""
"15597.300000190735","","","survey-text","389","2354969","0.0-19.0-3.9","45199","List1B","black","man","","","","","{""Q0"":""ruth is being hugged by dave""}","<img src=""stim_listB/hug4.gif""style=""height:400px;""></stim_listB>","is being hugged by","","","","","",""
"null","<div style=""font-size:60px;"">+</div>","","html-keyboard-response","390","2355486","0.0-19.0-0.10","45199","List1B","black","man","","","","null","","","","","","","","",""
"null","<img src=""stim_listB/hug5.gif""style=""height:400px;""></stim_listB>","","html-keyboard-response","391","2357504","0.0-19.0-1.10","45199","List1B","black","man","","","","null","","","","","","","","",""
"null","is hugging","","html-keyboard-response","392","2359510","0.0-19.0-2.10","45199","List1B","black","man","","","","null","","","","","","","","",""
"5620","","","survey-text","393","2365135","0.0-19.0-3.10","45199","List1B","black","man","","","","","{""Q0"":""fred is hugging luke""}","<img src=""stim_listB/hug5.gif""style=""height:400px;""></stim_listB>","is hugging","","","","","",""
"null","<div style=""font-size:60px;"">+</div>","","html-keyboard-response","394","2365647","0.0-19.0-0.11","45199","List1B","black","man","","","","null","","","","","","","","",""
"null","<img src=""stim_listB/hug8.gif""style=""height:400px;""></stim_listB>","","html-keyboard-response","395","2367658","0.0-19.0-1.11","45199","List1B","black","man","","","","null","","","","","","","","",""
"null","is being hugged by","","html-keyboard-response","396","2369667","0.0-19.0-2.11","45199","List1B","black","man","","","","null","","","","","","","","",""
"9786.5","","","survey-text","397","2379458","0.0-19.0-3.11","45199","List1B","black","man","","","","","{""Q0"":""kate is being hugged by jane""}","<img src=""stim_listB/hug8.gif""style=""height:400px;""></stim_listB>","is being hugged by","","","","","",""
"null","<div style=""font-size:60px;"">+</div>","","html-keyboard-response","398","2379977","0.0-19.0-0.12","45199","List1B","black","man","","","","null","","","","","","","","",""
"null","<img src=""stim_listB/oppose6.gif""style=""height:400px;""></stim_listB>","","html-keyboard-response","399","2381994","0.0-19.0-1.12","45199","List1B","black","man","","","","null","","","","","","","","",""
"null","is being opposed by","","html-keyboard-response","400","2384008","0.0-19.0-2.12","45199","List1B","black","man","","","","null","","","","","","","","",""
"13589.399999856949","","","survey-text","401","2397604","0.0-19.0-3.12","45199","List1B","black","man","","","","","{""Q0"":""fred is being opposed by luke""}","<img src=""stim_listB/oppose6.gif""style=""height:400px;""></stim_listB>","is being opposed by","","","","","",""
"null","<div style=""font-size:60px;"">+</div>","","html-keyboard-response","402","2398107","0.0-19.0-0.13","45199","List1B","black","man","","","","null","","","","","","","","",""
"null","<img src=""stim_listB/oppose8.gif""style=""height:400px;""></stim_listB>","","html-keyboard-response","403","2400115","0.0-19.0-1.13","45199","List1B","black","man","","","","null","","","","","","","","",""
"null","is being opposed by","","html-keyboard-response","404","2402123","0.0-19.0-2.13","45199","List1B","black","man","","","","null","","","","","","","","",""
"10651.399999856949","","","survey-text","405","2412779","0.0-19.0-3.13","45199","List1B","black","man","","","","","{""Q0"":""beth is being opposed by ruth""}","<img src=""stim_listB/oppose8.gif""style=""height:400px;""></stim_listB>","is being opposed by","","","","","",""
"null","<div style=""font-size:60px;"">+</div>","","html-keyboard-response","406","2413287","0.0-19.0-0.14","45199","List1B","black","man","","","","null","","","","","","","","",""
"null","<img src=""stim_listB/shout5.gif""style=""height:400px;""></stim_listB>","","html-keyboard-response","407","2415302","0.0-19.0-1.14","45199","List1B","black","man","","","","null","","","","","","","","",""
"null","is shouting at","","html-keyboard-response","408","2417315","0.0-19.0-2.14","45199","List1B","black","man","","","","null","","","","","","","","",""
"10598.200000047684","","","survey-text","409","2427918","0.0-19.0-3.14","45199","List1B","black","man","","","","","{""Q0"":""luke is shouting at fred""}","<img src=""stim_listB/shout5.gif""style=""height:400px;""></stim_listB>","is shouting at","","","","","",""
"null","<div style=""font-size:60px;"">+</div>","","html-keyboard-response","410","2428421","0.0-19.0-0.15","45199","List1B","black","man","","","","null","","","","","","","","",""
"null","<img src=""stim_listB/challenge6.gif""style=""height:400px;""></stim_listB>","","html-keyboard-response","411","2430437","0.0-19.0-1.15","45199","List1B","black","man","","","","null","","","","","","","","",""
"null","is being challenged by","","html-keyboard-response","412","2432454","0.0-19.0-2.15","45199","List1B","black","man","","","","null","","","","","","","","",""
"13425.400000095367","","","survey-text","413","2445883","0.0-19.0-3.15","45199","List1B","black","man","","","","","{""Q0"":""dave is being challenged by fred""}","<img src=""stim_listB/challenge6.gif""style=""height:400px;""></stim_listB>","is being challenged by","","","","","",""
"null","<div style=""font-size:60px;"">+</div>","","html-keyboard-response","414","2446385","0.0-19.0-0.16","45199","List1B","black","man","","","","null","","","","","","","","",""
"null","<img src=""stim_listB/touch6.gif""style=""height:400px;""></stim_listB>","","html-keyboard-response","415","2448400","0.0-19.0-1.16","45199","List1B","black","man","","","","null","","","","","","","","",""
"null","is being touched by","","html-keyboard-response","416","2450402","0.0-19.0-2.16","45199","List1B","black","man","","","","null","","","","","","","","",""
"10620.599999904633","","","survey-text","417","2461027","0.0-19.0-3.16","45199","List1B","black","man","","","","","{""Q0"":""fred is being touched by luke""}","<img src=""stim_listB/touch6.gif""style=""height:400px;""></stim_listB>","is being touched by","","","","","",""
"null","<div style=""font-size:60px;"">+</div>","","html-keyboard-response","418","2461542","0.0-19.0-0.17","45199","List1B","black","man","","","","null","","","","","","","","",""
"null","<img src=""stim_listB/greet7.gif""style=""height:400px;""></stim_listB>","","html-keyboard-response","419","2463552","0.0-19.0-1.17","45199","List1B","black","man","","","","null","","","","","","","","",""
"null","is greeting","","html-keyboard-response","420","2465563","0.0-19.0-2.17","45199","List1B","black","man","","","","null","","","","","","","","",""
"18207.900000095367","","","survey-text","421","2483776","0.0-19.0-3.17","45199","List1B","black","man","","","","","{""Q0"":""ruth is greeting beth""}","<img src=""stim_listB/greet7.gif""style=""height:400px;""></stim_listB>","is greeting","","","","","",""
"null","<div style=""font-size:60px;"">+</div>","","html-keyboard-response","422","2484278","0.0-19.0-0.18","45199","List1B","black","man","","","","null","","","","","","","","",""
"null","<img src=""stim_listB/hug3.gif""style=""height:400px;""></stim_listB>","","html-keyboard-response","423","2486290","0.0-19.0-1.18","45199","List1B","black","man","","","","null","","","","","","","","",""
"null","is hugging","","html-keyboard-response","424","2488303","0.0-19.0-2.18","45199","List1B","black","man","","","","null","","","","","","","","",""
"9160.699999809265","","","survey-text","425","2497471","0.0-19.0-3.18","45199","List1B","black","man","","","","","{""Q0"":""luke is hugging ruth""}","<img src=""stim_listB/hug3.gif""style=""height:400px;""></stim_listB>","is hugging","","","","","",""
"null","<div style=""font-size:60px;"">+</div>","","html-keyboard-response","426","2497978","0.0-19.0-0.19","45199","List1B","black","man","","","","null","","","","","","","","",""
"null","<img src=""stim_listB/hug6.gif""style=""height:400px;""></stim_listB>","","html-keyboard-response","427","2499990","0.0-19.0-1.19","45199","List1B","black","man","","","","null","","","","","","","","",""
"null","is being hugged by","","html-keyboard-response","428","2501996","0.0-19.0-2.19","45199","List1B","black","man","","","","null","","","","","","","","",""
"10063.099999904633","","","survey-text","429","2512063","0.0-19.0-3.19","45199","List1B","black","man","","","","","{""Q0"":""mike is being hugged by dave""}","<img src=""stim_listB/hug6.gif""style=""height:400px;""></stim_listB>","is being hugged by","","","","","",""
"2120.7999999523163","<p>Thank you for completing that task.</p><p>The final part of this session is a questionnaire that will take about 4 minutes.</p><p>Press Continue.</p>","0","html-button-response","430","2514187","0.0-20.0","45199","List1B","black","man","","","","","","","","","","","","",""
"36834.40000009537","","","survey-text","431","2552043","0.0-21.0","45199","List1B","black","man","","","","","{""Q0"":""40"",""Q1"":""English"",""Q2"":""English"",""Q3"":""United States"",""Q4"":""American"",""Q5"":""Black"",""Q6"":""Male""}","","","demographics","","","","",""
"1472.9000000953674","<p>Have you lived in the USA for the last 5 years or more?</p>","0","html-button-response","432","2553519","0.0-22.0","45199","List1B","black","man","","","","","","","","fiveyears","","","","",""
"1738.5999999046326","<p>Move the slider to show the extent to which you agree with the following statements.</p>","0","html-button-response","433","2556267","0.0-23.0","45199","List1B","black","man","","","","","","","","","","","","",""
"3048","","","html-slider-response","434","2560328","0.0-24.0-0.0-0.0","45199","List1B","black","man","","","","","","","","survey_gender","100","","","I have a lot in common with my friends.","filler"
"3918.9000000953674","","","html-slider-response","435","2564249","0.0-24.0-0.0-0.1","45199","List1B","black","man","","","","","","","","survey_gender","100","","","I am glad to be my gender.","glad"
"3788.4000000953674","","","html-slider-response","436","2568039","0.0-24.0-0.0-0.2","45199","List1B","black","man","","","","","","","","survey_gender","0","","","Routine is not important to me.","filler"
"3443.300000190735","","","html-slider-response","437","2571485","0.0-24.0-0.0-0.3","45199","List1B","black","man","","","","","","","","survey_gender","100","","","My friends understand me.","filler"
"2910.2999999523163","","","html-slider-response","438","2574398","0.0-24.0-0.0-0.4","45199","List1B","black","man","","","","","","","","survey_gender","100","","","I think that my gender has a lot to be proud of.","proud"
"4980.400000095367","","","html-slider-response","439","2579381","0.0-24.0-0.0-0.5","45199","List1B","black","man","","","","","","","","survey_gender","100","","","People of my gender have a lot in common with each other.","common"
"3352.699999809265","","","html-slider-response","440","2582736","0.0-24.0-0.0-0.6","45199","List1B","black","man","","","","","","","","survey_gender","100","","","It is pleasant to be my gender.","pleasant"
"4232","","","html-slider-response","441","2586971","0.0-24.0-0.0-0.7","45199","List1B","black","man","","","","","","","","survey_gender","26","","","It is not always easy for people to know what I am thinking.","filler"
"3030.5999999046326","","","html-slider-response","442","2590004","0.0-24.0-0.0-0.8","45199","List1B","black","man","","","","","","","","survey_gender","100","","","I consider myself a highly empathetic person.","filler"
"3607.7999999523163","","","html-slider-response","443","2593614","0.0-24.0-0.0-0.9","45199","List1B","black","man","","","","","","","","survey_gender","100","","","Being around my friends gives me a good feeling.","filler"
"4957.399999856949","","","html-slider-response","444","2598575","0.0-24.0-0.0-0.10","45199","List1B","black","man","","","","","","","","survey_gender","0","","","Family is not more important to me than friendship.","filler"
"2847.9000000953674","","","html-slider-response","445","2601426","0.0-24.0-0.0-0.11","45199","List1B","black","man","","","","","","","","survey_gender","100","","","Being my gender gives me a good feeling.","feeling"
"2912.2999999523163","","","html-slider-response","446","2604340","0.0-24.0-0.0-0.12","45199","List1B","black","man","","","","","","","","survey_gender","79","","","I would say I am an animal person.","filler"
"3215.4000000953674","","","html-slider-response","447","2607559","0.0-24.0-0.0-0.13","45199","List1B","black","man","","","","","","","","survey_gender","100","","","My friends have a lot in common with each other.","filler"
"3634.300000190735","","","html-slider-response","448","2611195","0.0-24.0-0.0-0.14","45199","List1B","black","man","","","","","","","","survey_gender","100","","","I have a lot in common with the average person of my gender.","average"
"3216.9000000953674","","","html-slider-response","449","2614415","0.0-24.0-0.0-0.15","45199","List1B","black","man","","","","","","","","survey_gender","97","","","I feel solidarity with my gender.","solidarity"
"8099.200000047684","","","html-slider-response","450","2622517","0.0-24.0-0.0-0.16","45199","List1B","black","man","","","","","","","","survey_gender","100","","","I am similar to the average person of my gender.","similar"
"3849.2999999523163","","","html-slider-response","451","2626372","0.0-24.0-0.0-0.17","45199","List1B","black","man","","","","","","","","survey_gender","100","","","I feel committed to my gender.","committed"
"2975.7999999523163","","","html-slider-response","452","2629350","0.0-24.0-0.0-0.18","45199","List1B","black","man","","","","","","","","survey_gender","100","","","I feel a bond with my friends.","filler"
"2908","","","html-slider-response","453","2632260","0.0-24.0-0.0-0.19","45199","List1B","black","man","","","","","","","","survey_gender","100","","","I often think about the fact that I am my gender.","often"
"2850.199999809265","","","html-slider-response","454","2635112","0.0-24.0-0.0-0.20","45199","List1B","black","man","","","","","","","","survey_gender","100","","","Being my gender is an important part of how I see myself.","important"
"3530.399999856949","","","html-slider-response","455","2638646","0.0-24.0-0.0-0.21","45199","List1B","black","man","","","","","","","","survey_gender","100","","","People of my gender are very similar to each other.","verysimilar"
"4219.599999904633","","","html-slider-response","456","2642868","0.0-24.0-0.0-0.22","45199","List1B","black","man","","","","","","","","survey_gender","96","","","The fact that I am my gender is an important part of my identity.","identity"
"2695.5","","","html-slider-response","457","2645566","0.0-24.0-0.0-0.23","45199","List1B","black","man","","","","","","","","survey_gender","100","","","I feel solidarity with my friends.","filler"
"2348","","","html-slider-response","458","2647916","0.0-24.0-0.0-0.24","45199","List1B","black","man","","","","","","","","survey_gender","100","","","I feel a bond with my gender.","bond"
"3235.899999856949","","","html-slider-response","459","2651153","0.0-24.0-0.0-0.25","45199","List1B","black","man","","","","","","","","survey_gender","100","","","I often think about my actions.","filler"
"3332.7000000476837","","","html-slider-response","460","2654489","0.0-24.0-0.0-0.26","45199","List1B","black","man","","","","","","","","survey_gender","100","","","Most of the friends in my life are very similar to me.","filler"
"2838","","","html-slider-response","461","2657329","0.0-24.0-0.0-0.27","45199","List1B","black","man","","","","","","","","survey_gender","100","","","I am glad to have the friends that I have.","filler"
"3278.4000000953674","","","html-slider-response","462","2660610","0.0-24.0-1.0-0.0","45199","List1B","black","man","","","","","","","","survey_race","100","","","I am similar to the average person of my race.","similar"
"2768.5","","","html-slider-response","463","2663381","0.0-24.0-1.0-0.1","45199","List1B","black","man","","","","","","","","survey_race","100","","","I feel solidarity with my race.","solidarity"
"2284","","","html-slider-response","464","2665668","0.0-24.0-1.0-0.2","45199","List1B","black","man","","","","","","","","survey_race","100","","","I feel a bond with my race.","bond"
"4006","","","html-slider-response","465","2669676","0.0-24.0-1.0-0.3","45199","List1B","black","man","","","","","","","","survey_race","100","","","I feel a bond with people the same age as me.","filler"
"3693.7999999523163","","","html-slider-response","466","2673372","0.0-24.0-1.0-0.4","45199","List1B","black","man","","","","","","","","survey_race","99","","","I have a lot in common with the average person of my race.","average"
"2716.7999999523163","","","html-slider-response","467","2676092","0.0-24.0-1.0-0.5","45199","List1B","black","man","","","","","","","","survey_race","100","","","I feel committed to my race.","committed"
"3151.2000000476837","","","html-slider-response","468","2679246","0.0-24.0-1.0-0.6","45199","List1B","black","man","","","","","","","","survey_race","100","","","Being my race gives me a good feeling.","feeling"
"2927.7000000476837","","","html-slider-response","469","2682176","0.0-24.0-1.0-0.7","45199","List1B","black","man","","","","","","","","survey_race","100","","","I often think about the fact that I am my race.","often"
"2879.5999999046326","","","html-slider-response","470","2685057","0.0-24.0-1.0-0.8","45199","List1B","black","man","","","","","","","","survey_race","100","","","I feel solidarity with people the same age as me.","filler"
"2889.7000000476837","","","html-slider-response","471","2687950","0.0-24.0-1.0-0.9","45199","List1B","black","man","","","","","","","","survey_race","100","","","It is pleasant to be my race.","pleasant"
"3076.2999999523163","","","html-slider-response","472","2691029","0.0-24.0-1.0-0.10","45199","List1B","black","man","","","","","","","","survey_race","100","","","I am glad to be my age.","filler"
"3443.4000000953674","","","html-slider-response","473","2694475","0.0-24.0-1.0-0.11","45199","List1B","black","man","","","","","","","","survey_race","86","","","I consider myself an extrovert.","filler"
"3815.5","","","html-slider-response","474","2698292","0.0-24.0-1.0-0.12","45199","List1B","black","man","","","","","","","","survey_race","97","","","Being my race is an important part of how I see myself.","important"
"2686.9000000953674","","","html-slider-response","475","2700982","0.0-24.0-1.0-0.13","45199","List1B","black","man","","","","","","","","survey_race","100","","","I often think about the fact that I am my age.","filler"
"2439.399999856949","","","html-slider-response","476","2703424","0.0-24.0-1.0-0.14","45199","List1B","black","man","","","","","","","","survey_race","12","","","I consider myself an introvert.","filler"
"2834.7999999523163","","","html-slider-response","477","2706261","0.0-24.0-1.0-0.15","45199","List1B","black","man","","","","","","","","survey_race","94","","","People of my race have a lot in common with each other.","common"
"3476.2999999523163","","","html-slider-response","478","2709739","0.0-24.0-1.0-0.16","45199","List1B","black","man","","","","","","","","survey_race","18","","","My age is not an important part of who I am.","filler"
"3376.5","","","html-slider-response","479","2713118","0.0-24.0-1.0-0.17","45199","List1B","black","man","","","","","","","","survey_race","91","","","I am glad to be my race.","glad"
