rt,stimulus,button_pressed,trial_type,trial_index,time_elapsed,internal_node_id,subject,list,ppt_race,ppt_gender,url,first_guess,correct,key_press,responses,image_type,phrase_type,test_part,response,stimulus1,stimulus2,question_type,survey_item
2748.9,Welcome to the experiment. Press Continue to begin.,0,html-button-response,0,2775,0.0-0.0,45220,List2A,black,man,,,,,,,,,,,,,
13034.8,,,external-html,1,17755,0.0-1.0,45220,List2A,black,man,consent.html,,,,,,,,,,,,
52453.6,"<p>On the next page, you will see portraits of 8 people and their names.</p><p>Your first task is to take a few minutes to memorise the names of these people.</p><p>You will have to recall their names during the rest of the experiment, so it is</p><p>essential that you try to memorise these people and their names as best as you can.</p><br><p><strong>You will then be tested on your memory of these names and portraits.</strong></p><br><p>The experiment will start after you have completed this memory test.</p><br><p>Ready?</p>",0,html-button-response,2,70219,0.0-2.0,45220,List2A,black,man,,,,,,,,,,,,,
228574.4,"<img src='img/portrait_matrix_list2.jpg' style='width:900px;height:500px;''></img><p>If you have memorised all the portraits and names and are ready to start, press Continue.</p><p><strong>Please note: Your memory of these faces will be tested 4 times during this experiment.</strong></p>",0,html-button-response,3,299802,0.0-3.0-0.0,45220,List2A,black,man,,,,,,,,,,,,,
19873.5,"<img src=""portrait/BW1.jpg""style=""height:400px;""></img>",0,html-button-response,4,320687,0.0-3.0-1.0,45220,List2A,black,man,,TRUE,0,,,,,,,,,,
null,CORRECT,,html-keyboard-response,5,322212,0.0-3.0-2.0-0.0,45220,List2A,black,man,,,,null,,,,,,,,,
12914.4,"<img src=""portrait/WM2.jpg""style=""height:400px;""></img>",7,html-button-response,6,335139,0.0-3.0-4.0,45220,List2A,black,man,,TRUE,7,,,,,,,,,,
null,CORRECT,,html-keyboard-response,7,336665,0.0-3.0-5.0-0.0,45220,List2A,black,man,,,,null,,,,,,,,,
8772.3,"<img src=""portrait/WW1.jpg""style=""height:400px;""></img>",1,html-button-response,8,345446,0.0-3.0-7.0,45220,List2A,black,man,,TRUE,1,,,,,,,,,,
null,CORRECT,,html-keyboard-response,9,346976,0.0-3.0-8.0-0.0,45220,List2A,black,man,,,,null,,,,,,,,,
12280.2,"<img src=""portrait/BM1.jpg""style=""height:400px;""></img>",4,html-button-response,10,359265,0.0-3.0-10.0,45220,List2A,black,man,,TRUE,4,,,,,,,,,,
null,CORRECT,,html-keyboard-response,11,360790,0.0-3.0-11.0-0.0,45220,List2A,black,man,,,,null,,,,,,,,,
9156.8,"<img src=""portrait/WM1.jpg""style=""height:400px;""></img>",6,html-button-response,12,369956,0.0-3.0-13.0,45220,List2A,black,man,,TRUE,6,,,,,,,,,,
null,CORRECT,,html-keyboard-response,13,371477,0.0-3.0-14.0-0.0,45220,List2A,black,man,,,,null,,,,,,,,,
6823.2,"<img src=""portrait/BW2.jpg""style=""height:400px;""></img>",2,html-button-response,14,378309,0.0-3.0-16.0,45220,List2A,black,man,,TRUE,2,,,,,,,,,,
null,CORRECT,,html-keyboard-response,15,379836,0.0-3.0-17.0-0.0,45220,List2A,black,man,,,,null,,,,,,,,,
8165.5,"<img src=""portrait/WW2.jpg""style=""height:400px;""></img>",3,html-button-response,16,388010,0.0-3.0-19.0,45220,List2A,black,man,,TRUE,3,,,,,,,,,,
null,CORRECT,,html-keyboard-response,17,389539,0.0-3.0-20.0-0.0,45220,List2A,black,man,,,,null,,,,,,,,,
6683.4,"<img src=""portrait/BM2.jpg""style=""height:400px;""></img>",5,html-button-response,18,396231,0.0-3.0-22.0,45220,List2A,black,man,,TRUE,5,,,,,,,,,,
null,CORRECT,,html-keyboard-response,19,397759,0.0-3.0-23.0-0.0,45220,List2A,black,man,,,,null,,,,,,,,,
3187,<p>You got 8 out of 8 right first time. Press Continue.</p>,0,html-button-response,20,400956,0.0-3.0-25.0,45220,List2A,black,man,,,,,,,,,,,,,
394334.8,"<p>In this experiment, you will view photographs of the people from the memory game interacting.</p><p>By using the <strong>exact</strong> phrase given <i>after</i> the photograph appears and recalling the correct names of the people in the photographs, form a sentence describing the interaction. You do not need to capitalise names.</p><p>Type your answer in the space provided. Please complete every sentence before moving onto the next trial.</p><p>You will only have a few seconds to memorise each given photograph and phrase before you can respond, so try your best to focus.</p><p>An example is given below. Press 'Continue' when you are ready.</p><img src='img/speaking_example.jpg' style='width:800px;height:460px;''></img>",0,html-button-response,21,796311,0.0-4.0,45220,List2A,black,man,,,,,,,,,,,,,
2935.8,"<p>Before the experiment starts, you will watch two example trials. Press 'Continue'.</p>",0,html-button-response,22,800262,0.0-5.0,45220,List2A,black,man,,,,,,,,,,,,,
null,<img src='img/play_eg.gif' style='height:400px;''></img>,,html-keyboard-response,23,803291,0.0-6.0,45220,List2A,black,man,,,,null,,,,,,,,,
null,<p>is playing with</p>,,html-keyboard-response,24,805306,0.0-7.0,45220,List2A,black,man,,,,null,,,,,,,,,
7748.7,<p><b>Answer:</b> jane is playing with ruth</p>,0,html-button-response,25,813059,0.0-8.0,45220,List2A,black,man,,,,,,,,,,,,,
null,<img src='img/dance_eg.gif' style='height:400px;''></img>,,html-keyboard-response,26,816091,0.0-9.0,45220,List2A,black,man,,,,null,,,,,,,,,
null,<p>is being entertained by</p>,,html-keyboard-response,27,818106,0.0-10.0,45220,List2A,black,man,,,,null,,,,,,,,,
7983.7,<p><b>Answer:</b> fred is being entertained by mike</p>,0,html-button-response,28,826095,0.0-11.0,45220,List2A,black,man,,,,,,,,,,,,,
13340.1,"<p>Ready to start the experiment?</p><br><p><strong>Remember to describe the picture using a full sentence,</strong></p><p><strong>that combines the names of the people with the <i>exact</i> phrase given.</strong></p><p><strong>To receive full payment you must do this correctly.</strong></p><p><strong> You do not need to capitalise names or use punctuation.</strong></p><br><p>Press 'Continue' to begin.</p>",0,html-button-response,29,840447,0.0-12.0,45220,List2A,black,man,,,,,,,,,,,,,
null,"<div style=""font-size:60px;"">+</div>",,html-keyboard-response,30,841977,0.0-13.0-0.0,45220,List2A,black,man,,,,null,,,,,,,,,
null,"<img src=""stim_listA/greet6.gif""style=""height:400px;""></stim_listA>",,html-keyboard-response,31,843993,0.0-13.0-1.0,45220,List2A,black,man,,,,null,,,,,,,,,
null,is being greeted by,,html-keyboard-response,32,846009,0.0-13.0-2.0,45220,List2A,black,man,,,,null,,,,,,,,,
21218.8,,,survey-text,33,867248,0.0-13.0-3.0,45220,List2A,black,man,,,,,"{""Q0"":""luke is waving to mike""}","<img src=""stim_listA/greet6.gif""style=""height:400px;""></stim_listA>",is being greeted by,,,,,,
null,"<div style=""font-size:60px;"">+</div>",,html-keyboard-response,34,867774,0.0-13.0-0.1,45220,List2A,black,man,,,,null,,,,,,,,,
null,"<img src=""stim_listA/seduce2.gif""style=""height:400px;""></stim_listA>",,html-keyboard-response,35,869790,0.0-13.0-1.1,45220,List2A,black,man,,,,null,,,,,,,,,
null,is being seduced by,,html-keyboard-response,36,871805,0.0-13.0-2.1,45220,List2A,black,man,,,,null,,,,,,,,,
42581.1,,,survey-text,37,914399,0.0-13.0-3.1,45220,List2A,black,man,,,,,"{""Q0"":""Jane is smiling at Dave""}","<img src=""stim_listA/seduce2.gif""style=""height:400px;""></stim_listA>",is being seduced by,,,,,,
null,"<div style=""font-size:60px;"">+</div>",,html-keyboard-response,38,914914,0.0-13.0-0.2,45220,List2A,black,man,,,,null,,,,,,,,,
null,"<img src=""stim_listA/hug8.gif""style=""height:400px;""></stim_listA>",,html-keyboard-response,39,916930,0.0-13.0-1.2,45220,List2A,black,man,,,,null,,,,,,,,,
null,is being hugged by,,html-keyboard-response,40,918946,0.0-13.0-2.2,45220,List2A,black,man,,,,null,,,,,,,,,
20565.5,,,survey-text,41,939525,0.0-13.0-3.2,45220,List2A,black,man,,,,,"{""Q0"":""jane is being hugged by kate""}","<img src=""stim_listA/hug8.gif""style=""height:400px;""></stim_listA>",is being hugged by,,,,,,
null,"<div style=""font-size:60px;"">+</div>",,html-keyboard-response,42,940040,0.0-13.0-0.3,45220,List2A,black,man,,,,null,,,,,,,,,
null,"<img src=""stim_listA/challenge8.gif""style=""height:400px;""></stim_listA>",,html-keyboard-response,43,942049,0.0-13.0-1.3,45220,List2A,black,man,,,,null,,,,,,,,,
null,is being challenged by,,html-keyboard-response,44,944056,0.0-13.0-2.3,45220,List2A,black,man,,,,null,,,,,,,,,
20182.8,,,survey-text,45,964252,0.0-13.0-3.3,45220,List2A,black,man,,,,,"{""Q0"":""jane is being challenged by ruth""}","<img src=""stim_listA/challenge8.gif""style=""height:400px;""></stim_listA>",is being challenged by,,,,,,
null,"<div style=""font-size:60px;"">+</div>",,html-keyboard-response,46,964759,0.0-13.0-0.4,45220,List2A,black,man,,,,null,,,,,,,,,
null,"<img src=""stim_listA/copy3.gif""style=""height:400px;""></stim_listA>",,html-keyboard-response,47,966769,0.0-13.0-1.4,45220,List2A,black,man,,,,null,,,,,,,,,
null,is copying,,html-keyboard-response,48,968773,0.0-13.0-2.4,45220,List2A,black,man,,,,null,,,,,,,,,
23305.7,,,survey-text,49,992092,0.0-13.0-3.4,45220,List2A,black,man,,,,,"{""Q0"":""mike is copying with beth""}","<img src=""stim_listA/copy3.gif""style=""height:400px;""></stim_listA>",is copying,,,,,,
null,"<div style=""font-size:60px;"">+</div>",,html-keyboard-response,50,992601,0.0-13.0-0.5,45220,List2A,black,man,,,,null,,,,,,,,,
null,"<img src=""stim_listA/seduce3.gif""style=""height:400px;""></stim_listA>",,html-keyboard-response,51,994611,0.0-13.0-1.5,45220,List2A,black,man,,,,null,,,,,,,,,
null,is seducing,,html-keyboard-response,52,996617,0.0-13.0-2.5,45220,List2A,black,man,,,,null,,,,,,,,,
21613.6,,,survey-text,53,1018245,0.0-13.0-3.5,45220,List2A,black,man,,,,,"{""Q0"":""fred is seducing kate""}","<img src=""stim_listA/seduce3.gif""style=""height:400px;""></stim_listA>",is seducing,,,,,,
null,"<div style=""font-size:60px;"">+</div>",,html-keyboard-response,54,1018758,0.0-13.0-0.6,45220,List2A,black,man,,,,null,,,,,,,,,
null,"<img src=""stim_listA/kiss8.gif""style=""height:400px;""></stim_listA>",,html-keyboard-response,55,1020774,0.0-13.0-1.6,45220,List2A,black,man,,,,null,,,,,,,,,
null,is being kissed by,,html-keyboard-response,56,1022790,0.0-13.0-2.6,45220,List2A,black,man,,,,null,,,,,,,,,
16494.3,,,survey-text,57,1039300,0.0-13.0-3.6,45220,List2A,black,man,,,,,"{""Q0"":""kate is being kissed by jane""}","<img src=""stim_listA/kiss8.gif""style=""height:400px;""></stim_listA>",is being kissed by,,,,,,
null,"<div style=""font-size:60px;"">+</div>",,html-keyboard-response,58,1039821,0.0-13.0-0.7,45220,List2A,black,man,,,,null,,,,,,,,,
null,"<img src=""stim_listA/oppose2.gif""style=""height:400px;""></stim_listA>",,html-keyboard-response,59,1041837,0.0-13.0-1.7,45220,List2A,black,man,,,,null,,,,,,,,,
null,is being opposed by,,html-keyboard-response,60,1043852,0.0-13.0-2.7,45220,List2A,black,man,,,,null,,,,,,,,,
43524.4,,,survey-text,61,1087391,0.0-13.0-3.7,45220,List2A,black,man,,,,,"{""Q0"":""ruth is being opposed by luke""}","<img src=""stim_listA/oppose2.gif""style=""height:400px;""></stim_listA>",is being opposed by,,,,,,
null,"<div style=""font-size:60px;"">+</div>",,html-keyboard-response,62,1087900,0.0-13.0-0.8,45220,List2A,black,man,,,,null,,,,,,,,,
null,"<img src=""stim_listA/touch2.gif""style=""height:400px;""></stim_listA>",,html-keyboard-response,63,1089915,0.0-13.0-1.8,45220,List2A,black,man,,,,null,,,,,,,,,
null,is being touched by,,html-keyboard-response,64,1091933,0.0-13.0-2.8,45220,List2A,black,man,,,,null,,,,,,,,,
23378.3,,,survey-text,65,1115325,0.0-13.0-3.8,45220,List2A,black,man,,,,,"{""Q0"":""ruth is being touched by luke""}","<img src=""stim_listA/touch2.gif""style=""height:400px;""></stim_listA>",is being touched by,,,,,,
null,"<div style=""font-size:60px;"">+</div>",,html-keyboard-response,66,1115837,0.0-13.0-0.9,45220,List2A,black,man,,,,null,,,,,,,,,
null,"<img src=""stim_listA/shout1.gif""style=""height:400px;""></stim_listA>",,html-keyboard-response,67,1117853,0.0-13.0-1.9,45220,List2A,black,man,,,,null,,,,,,,,,
null,is shouting at,,html-keyboard-response,68,1119884,0.0-13.0-2.9,45220,List2A,black,man,,,,null,,,,,,,,,
19396.4,,,survey-text,69,1139294,0.0-13.0-3.9,45220,List2A,black,man,,,,,"{""Q0"":""ruth is shouting at luke""}","<img src=""stim_listA/shout1.gif""style=""height:400px;""></stim_listA>",is shouting at,,,,,,
null,"<div style=""font-size:60px;"">+</div>",,html-keyboard-response,70,1139805,0.0-13.0-0.10,45220,List2A,black,man,,,,null,,,,,,,,,
null,"<img src=""stim_listA/seduce6.gif""style=""height:400px;""></stim_listA>",,html-keyboard-response,71,1141822,0.0-13.0-1.10,45220,List2A,black,man,,,,null,,,,,,,,,
null,is being seduced by,,html-keyboard-response,72,1143837,0.0-13.0-2.10,45220,List2A,black,man,,,,null,,,,,,,,,
19747,,,survey-text,73,1163598,0.0-13.0-3.10,45220,List2A,black,man,,,,,"{""Q0"":""fred is seduced by dave""}","<img src=""stim_listA/seduce6.gif""style=""height:400px;""></stim_listA>",is being seduced by,,,,,,
null,"<div style=""font-size:60px;"">+</div>",,html-keyboard-response,74,1164118,0.0-13.0-0.11,45220,List2A,black,man,,,,null,,,,,,,,,
null,"<img src=""stim_listA/look2.gif""style=""height:400px;""></stim_listA>",,html-keyboard-response,75,1166130,0.0-13.0-1.11,45220,List2A,black,man,,,,null,,,,,,,,,
null,is being looked at by,,html-keyboard-response,76,1168144,0.0-13.0-2.11,45220,List2A,black,man,,,,null,,,,,,,,,
15681.1,,,survey-text,77,1183839,0.0-13.0-3.11,45220,List2A,black,man,,,,,"{""Q0"":""jane is being looked at by dave""}","<img src=""stim_listA/look2.gif""style=""height:400px;""></stim_listA>",is being looked at by,,,,,,
null,"<div style=""font-size:60px;"">+</div>",,html-keyboard-response,78,1184353,0.0-13.0-0.12,45220,List2A,black,man,,,,null,,,,,,,,,
null,"<img src=""stim_listA/greet5.gif""style=""height:400px;""></stim_listA>",,html-keyboard-response,79,1186367,0.0-13.0-1.12,45220,List2A,black,man,,,,null,,,,,,,,,
null,is greeting,,html-keyboard-response,80,1188384,0.0-13.0-2.12,45220,List2A,black,man,,,,null,,,,,,,,,
14551.2,,,survey-text,81,1202948,0.0-13.0-3.12,45220,List2A,black,man,,,,,"{""Q0"":""dave is greeting fred""}","<img src=""stim_listA/greet5.gif""style=""height:400px;""></stim_listA>",is greeting,,,,,,
null,"<div style=""font-size:60px;"">+</div>",,html-keyboard-response,82,1203462,0.0-13.0-0.13,45220,List2A,black,man,,,,null,,,,,,,,,
null,"<img src=""stim_listA/challenge6.gif""style=""height:400px;""></stim_listA>",,html-keyboard-response,83,1205471,0.0-13.0-1.13,45220,List2A,black,man,,,,null,,,,,,,,,
null,is being challenged by,,html-keyboard-response,84,1207477,0.0-13.0-2.13,45220,List2A,black,man,,,,null,,,,,,,,,
15332.3,,,survey-text,85,1222823,0.0-13.0-3.13,45220,List2A,black,man,,,,,"{""Q0"":""luke is being challenged by mike""}","<img src=""stim_listA/challenge6.gif""style=""height:400px;""></stim_listA>",is being challenged by,,,,,,
null,"<div style=""font-size:60px;"">+</div>",,html-keyboard-response,86,1223337,0.0-13.0-0.14,45220,List2A,black,man,,,,null,,,,,,,,,
null,"<img src=""stim_listA/hug7.gif""style=""height:400px;""></stim_listA>",,html-keyboard-response,87,1225360,0.0-13.0-1.14,45220,List2A,black,man,,,,null,,,,,,,,,
null,is hugging,,html-keyboard-response,88,1227368,0.0-13.0-2.14,45220,List2A,black,man,,,,null,,,,,,,,,
12802.1,,,survey-text,89,1240183,0.0-13.0-3.14,45220,List2A,black,man,,,,,"{""Q0"":""ruth is being hugged by beth""}","<img src=""stim_listA/hug7.gif""style=""height:400px;""></stim_listA>",is hugging,,,,,,
null,"<div style=""font-size:60px;"">+</div>",,html-keyboard-response,90,1240696,0.0-13.0-0.15,45220,List2A,black,man,,,,null,,,,,,,,,
null,"<img src=""stim_listA/copy4.gif""style=""height:400px;""></stim_listA>",,html-keyboard-response,91,1242712,0.0-13.0-1.15,45220,List2A,black,man,,,,null,,,,,,,,,
null,is being copied by,,html-keyboard-response,92,1244727,0.0-13.0-2.15,45220,List2A,black,man,,,,null,,,,,,,,,
88661.6,,,survey-text,93,1333401,0.0-13.0-3.15,45220,List2A,black,man,,,,,"{""Q0"":""kate is being copied by fred""}","<img src=""stim_listA/copy4.gif""style=""height:400px;""></stim_listA>",is being copied by,,,,,,
null,"<div style=""font-size:60px;"">+</div>",,html-keyboard-response,94,1333915,0.0-13.0-0.16,45220,List2A,black,man,,,,null,,,,,,,,,
null,"<img src=""stim_listA/greet7.gif""style=""height:400px;""></stim_listA>",,html-keyboard-response,95,1335930,0.0-13.0-1.16,45220,List2A,black,man,,,,null,,,,,,,,,
null,is greeting,,html-keyboard-response,96,1337946,0.0-13.0-2.16,45220,List2A,black,man,,,,null,,,,,,,,,
14572.1,,,survey-text,97,1352529,0.0-13.0-3.16,45220,List2A,black,man,,,,,"{""Q0"":""jane is greeting beth""}","<img src=""stim_listA/greet7.gif""style=""height:400px;""></stim_listA>",is greeting,,,,,,
null,"<div style=""font-size:60px;"">+</div>",,html-keyboard-response,98,1353040,0.0-13.0-0.17,45220,List2A,black,man,,,,null,,,,,,,,,
null,"<img src=""stim_listA/challenge7.gif""style=""height:400px;""></stim_listA>",,html-keyboard-response,99,1355056,0.0-13.0-1.17,45220,List2A,black,man,,,,null,,,,,,,,,
null,is challenging,,html-keyboard-response,100,1357071,0.0-13.0-2.17,45220,List2A,black,man,,,,null,,,,,,,,,
14395,,,survey-text,101,1371479,0.0-13.0-3.17,45220,List2A,black,man,,,,,"{""Q0"":""jane is challenging beth""}","<img src=""stim_listA/challenge7.gif""style=""height:400px;""></stim_listA>",is challenging,,,,,,
null,"<div style=""font-size:60px;"">+</div>",,html-keyboard-response,102,1371993,0.0-13.0-0.18,45220,List2A,black,man,,,,null,,,,,,,,,
null,"<img src=""stim_listA/oppose4.gif""style=""height:400px;""></stim_listA>",,html-keyboard-response,103,1374009,0.0-13.0-1.18,45220,List2A,black,man,,,,null,,,,,,,,,
null,is being opposed by,,html-keyboard-response,104,1376024,0.0-13.0-2.18,45220,List2A,black,man,,,,null,,,,,,,,,
20556.6,,,survey-text,105,1396593,0.0-13.0-3.18,45220,List2A,black,man,,,,,"{""Q0"":""beth is being opposed by fred""}","<img src=""stim_listA/oppose4.gif""style=""height:400px;""></stim_listA>",is being opposed by,,,,,,
null,"<div style=""font-size:60px;"">+</div>",,html-keyboard-response,106,1397103,0.0-13.0-0.19,45220,List2A,black,man,,,,null,,,,,,,,,
null,"<img src=""stim_listA/look6.gif""style=""height:400px;""></stim_listA>",,html-keyboard-response,107,1399118,0.0-13.0-1.19,45220,List2A,black,man,,,,null,,,,,,,,,
null,is being looked at by,,html-keyboard-response,108,1401134,0.0-13.0-2.19,45220,List2A,black,man,,,,null,,,,,,,,,
13133.7,,,survey-text,109,1414280,0.0-13.0-3.19,45220,List2A,black,man,,,,,"{""Q0"":""mike is being looked out by dave""}","<img src=""stim_listA/look6.gif""style=""height:400px;""></stim_listA>",is being looked at by,,,,,,
33652,"<img src='img/portrait_matrix_list2.jpg' style='width:900px;height:500px;''></img><p>If you have memorised all the portraits and names and are ready to start, press Continue.</p><p><strong>Please note: Your memory of these faces will be tested 4 times during this experiment.</strong></p>",0,html-button-response,110,1447941,0.0-14.0-0.0,45220,List2A,black,man,,,,,,,,,,,,,
4795.4,"<img src=""portrait/BW1.jpg""style=""height:400px;""></img>",0,html-button-response,111,1453751,0.0-14.0-1.0,45220,List2A,black,man,,TRUE,0,,,,,,,,,,
null,CORRECT,,html-keyboard-response,112,1455275,0.0-14.0-2.0-0.0,45220,List2A,black,man,,,,null,,,,,,,,,
4942.6,"<img src=""portrait/WW2.jpg""style=""height:400px;""></img>",3,html-button-response,113,1460229,0.0-14.0-4.0,45220,List2A,black,man,,TRUE,3,,,,,,,,,,
null,CORRECT,,html-keyboard-response,114,1461760,0.0-14.0-5.0-0.0,45220,List2A,black,man,,,,null,,,,,,,,,
6057.8,"<img src=""portrait/WM2.jpg""style=""height:400px;""></img>",7,html-button-response,115,1467829,0.0-14.0-7.0,45220,List2A,black,man,,TRUE,7,,,,,,,,,,
null,CORRECT,,html-keyboard-response,116,1469356,0.0-14.0-8.0-0.0,45220,List2A,black,man,,,,null,,,,,,,,,
9338.3,"<img src=""portrait/BM2.jpg""style=""height:400px;""></img>",5,html-button-response,117,1478704,0.0-14.0-10.0,45220,List2A,black,man,,TRUE,5,,,,,,,,,,
null,CORRECT,,html-keyboard-response,118,1480231,0.0-14.0-11.0-0.0,45220,List2A,black,man,,,,null,,,,,,,,,
4990.9,"<img src=""portrait/BM1.jpg""style=""height:400px;""></img>",4,html-button-response,119,1485231,0.0-14.0-13.0,45220,List2A,black,man,,TRUE,4,,,,,,,,,,
null,CORRECT,,html-keyboard-response,120,1486759,0.0-14.0-14.0-0.0,45220,List2A,black,man,,,,null,,,,,,,,,
6407.5,"<img src=""portrait/WW1.jpg""style=""height:400px;""></img>",1,html-button-response,121,1493176,0.0-14.0-16.0,45220,List2A,black,man,,TRUE,1,,,,,,,,,,
null,CORRECT,,html-keyboard-response,122,1494697,0.0-14.0-17.0-0.0,45220,List2A,black,man,,,,null,,,,,,,,,
4842.5,"<img src=""portrait/WM1.jpg""style=""height:400px;""></img>",6,html-button-response,123,1499551,0.0-14.0-19.0,45220,List2A,black,man,,TRUE,6,,,,,,,,,,
null,CORRECT,,html-keyboard-response,124,1501071,0.0-14.0-20.0-0.0,45220,List2A,black,man,,,,null,,,,,,,,,
5657,"<img src=""portrait/BW2.jpg""style=""height:400px;""></img>",2,html-button-response,125,1506739,0.0-14.0-22.0,45220,List2A,black,man,,TRUE,2,,,,,,,,,,
null,CORRECT,,html-keyboard-response,126,1508259,0.0-14.0-23.0-0.0,45220,List2A,black,man,,,,null,,,,,,,,,
4175.3,<p>You got 8 out of 8 right first time. Press Continue.</p>,0,html-button-response,127,1512443,0.0-14.0-25.0,45220,List2A,black,man,,,,,,,,,,,,,
null,"<div style=""font-size:60px;"">+</div>",,html-keyboard-response,128,1513966,0.0-15.0-0.0,45220,List2A,black,man,,,,null,,,,,,,,,
null,"<img src=""stim_listA/seduce8.gif""style=""height:400px;""></stim_listA>",,html-keyboard-response,129,1515977,0.0-15.0-1.0,45220,List2A,black,man,,,,null,,,,,,,,,
null,is being seduced by,,html-keyboard-response,130,1517993,0.0-15.0-2.0,45220,List2A,black,man,,,,null,,,,,,,,,
23946.1,,,survey-text,131,1541953,0.0-15.0-3.0,45220,List2A,black,man,,,,,"{""Q0"":""beth is being seduced by kate""}","<img src=""stim_listA/seduce8.gif""style=""height:400px;""></stim_listA>",is being seduced by,,,,,,
null,"<div style=""font-size:60px;"">+</div>",,html-keyboard-response,132,1542462,0.0-15.0-0.1,45220,List2A,black,man,,,,null,,,,,,,,,
null,"<img src=""stim_listA/shout4.gif""style=""height:400px;""></stim_listA>",,html-keyboard-response,133,1544477,0.0-15.0-1.1,45220,List2A,black,man,,,,null,,,,,,,,,
null,is being shouted at by,,html-keyboard-response,134,1546493,0.0-15.0-2.1,45220,List2A,black,man,,,,null,,,,,,,,,
15997.9,,,survey-text,135,1562505,0.0-15.0-3.1,45220,List2A,black,man,,,,,"{""Q0"":""kate is being shouted at by mike""}","<img src=""stim_listA/shout4.gif""style=""height:400px;""></stim_listA>",is being shouted at by,,,,,,
null,"<div style=""font-size:60px;"">+</div>",,html-keyboard-response,136,1563024,0.0-15.0-0.2,45220,List2A,black,man,,,,null,,,,,,,,,
null,"<img src=""stim_listA/shout7.gif""style=""height:400px;""></stim_listA>",,html-keyboard-response,137,1565035,0.0-15.0-1.2,45220,List2A,black,man,,,,null,,,,,,,,,
null,is shouting at,,html-keyboard-response,138,1567043,0.0-15.0-2.2,45220,List2A,black,man,,,,null,,,,,,,,,
19896.9,,,survey-text,139,1586955,0.0-15.0-3.2,45220,List2A,black,man,,,,,"{""Q0"":""ruth is shouting at beth""}","<img src=""stim_listA/shout7.gif""style=""height:400px;""></stim_listA>",is shouting at,,,,,,
null,"<div style=""font-size:60px;"">+</div>",,html-keyboard-response,140,1587463,0.0-15.0-0.3,45220,List2A,black,man,,,,null,,,,,,,,,
null,"<img src=""stim_listA/look1.gif""style=""height:400px;""></stim_listA>",,html-keyboard-response,141,1589478,0.0-15.0-1.3,45220,List2A,black,man,,,,null,,,,,,,,,
null,is looking at,,html-keyboard-response,142,1591494,0.0-15.0-2.3,45220,List2A,black,man,,,,null,,,,,,,,,
11697.5,,,survey-text,143,1603208,0.0-15.0-3.3,45220,List2A,black,man,,,,,"{""Q0"":""ruth is looking at luke""}","<img src=""stim_listA/look1.gif""style=""height:400px;""></stim_listA>",is looking at,,,,,,
null,"<div style=""font-size:60px;"">+</div>",,html-keyboard-response,144,1603728,0.0-15.0-0.4,45220,List2A,black,man,,,,null,,,,,,,,,
null,"<img src=""stim_listA/kiss2.gif""style=""height:400px;""></stim_listA>",,html-keyboard-response,145,1605744,0.0-15.0-1.4,45220,List2A,black,man,,,,null,,,,,,,,,
null,is being kissed by,,html-keyboard-response,146,1607760,0.0-15.0-2.4,45220,List2A,black,man,,,,null,,,,,,,,,
20825.2,,,survey-text,147,1628599,0.0-15.0-3.4,45220,List2A,black,man,,,,,"{""Q0"":""jane is being kissed by dave""}","<img src=""stim_listA/kiss2.gif""style=""height:400px;""></stim_listA>",is being kissed by,,,,,,
null,"<div style=""font-size:60px;"">+</div>",,html-keyboard-response,148,1629119,0.0-15.0-0.5,45220,List2A,black,man,,,,null,,,,,,,,,
null,"<img src=""stim_listA/copy7.gif""style=""height:400px;""></stim_listA>",,html-keyboard-response,149,1631134,0.0-15.0-1.5,45220,List2A,black,man,,,,null,,,,,,,,,
null,is copying,,html-keyboard-response,150,1633150,0.0-15.0-2.5,45220,List2A,black,man,,,,null,,,,,,,,,
38548.8,,,survey-text,151,1671714,0.0-15.0-3.5,45220,List2A,black,man,,,,,"{""Q0"":""kate is copying beth""}","<img src=""stim_listA/copy7.gif""style=""height:400px;""></stim_listA>",is copying,,,,,,
null,"<div style=""font-size:60px;"">+</div>",,html-keyboard-response,152,1672228,0.0-15.0-0.6,45220,List2A,black,man,,,,null,,,,,,,,,
null,"<img src=""stim_listA/kiss6.gif""style=""height:400px;""></stim_listA>",,html-keyboard-response,153,1674244,0.0-15.0-1.6,45220,List2A,black,man,,,,null,,,,,,,,,
null,is being kissed by,,html-keyboard-response,154,1676255,0.0-15.0-2.6,45220,List2A,black,man,,,,null,,,,,,,,,
31377.3,,,survey-text,155,1707647,0.0-15.0-3.6,45220,List2A,black,man,,,,,"{""Q0"":""mike is being kissed by dave""}","<img src=""stim_listA/kiss6.gif""style=""height:400px;""></stim_listA>",is being kissed by,,,,,,
null,"<div style=""font-size:60px;"">+</div>",,html-keyboard-response,156,1708166,0.0-15.0-0.7,45220,List2A,black,man,,,,null,,,,,,,,,
null,"<img src=""stim_listA/kiss3.gif""style=""height:400px;""></stim_listA>",,html-keyboard-response,157,1710178,0.0-15.0-1.7,45220,List2A,black,man,,,,null,,,,,,,,,
null,is kissing,,html-keyboard-response,158,1712197,0.0-15.0-2.7,45220,List2A,black,man,,,,null,,,,,,,,,
12574.3,,,survey-text,159,1724786,0.0-15.0-3.7,45220,List2A,black,man,,,,,"{""Q0"":""fred is kissing beth""}","<img src=""stim_listA/kiss3.gif""style=""height:400px;""></stim_listA>",is kissing,,,,,,
null,"<div style=""font-size:60px;"">+</div>",,html-keyboard-response,160,1725306,0.0-15.0-0.8,45220,List2A,black,man,,,,null,,,,,,,,,
null,"<img src=""stim_listA/greet2.gif""style=""height:400px;""></stim_listA>",,html-keyboard-response,161,1727322,0.0-15.0-1.8,45220,List2A,black,man,,,,null,,,,,,,,,
null,is being greeted by,,html-keyboard-response,162,1729339,0.0-15.0-2.8,45220,List2A,black,man,,,,null,,,,,,,,,
14105.5,,,survey-text,163,1743462,0.0-15.0-3.8,45220,List2A,black,man,,,,,"{""Q0"":""luke is being greeted by jane ""}","<img src=""stim_listA/greet2.gif""style=""height:400px;""></stim_listA>",is being greeted by,,,,,,
null,"<div style=""font-size:60px;"">+</div>",,html-keyboard-response,164,1743978,0.0-15.0-0.9,45220,List2A,black,man,,,,null,,,,,,,,,
null,"<img src=""stim_listA/touch4.gif""style=""height:400px;""></stim_listA>",,html-keyboard-response,165,1745994,0.0-15.0-1.9,45220,List2A,black,man,,,,null,,,,,,,,,
null,is being touched by,,html-keyboard-response,166,1748009,0.0-15.0-2.9,45220,List2A,black,man,,,,null,,,,,,,,,
11136,,,survey-text,167,1759161,0.0-15.0-3.9,45220,List2A,black,man,,,,,"{""Q0"":""beth is being touched by fred""}","<img src=""stim_listA/touch4.gif""style=""height:400px;""></stim_listA>",is being touched by,,,,,,
null,"<div style=""font-size:60px;"">+</div>",,html-keyboard-response,168,1759682,0.0-15.0-0.10,45220,List2A,black,man,,,,null,,,,,,,,,
null,"<img src=""stim_listA/shout2.gif""style=""height:400px;""></stim_listA>",,html-keyboard-response,169,1761696,0.0-15.0-1.10,45220,List2A,black,man,,,,null,,,,,,,,,
null,is being shouted at by,,html-keyboard-response,170,1763713,0.0-15.0-2.10,45220,List2A,black,man,,,,null,,,,,,,,,
22384.2,,,survey-text,171,1786113,0.0-15.0-3.10,45220,List2A,black,man,,,,,"{""Q0"":""jane is being shouted at by dave""}","<img src=""stim_listA/shout2.gif""style=""height:400px;""></stim_listA>",is being shouted at by,,,,,,
null,"<div style=""font-size:60px;"">+</div>",,html-keyboard-response,172,1786635,0.0-15.0-0.11,45220,List2A,black,man,,,,null,,,,,,,,,
null,"<img src=""stim_listA/oppose3.gif""style=""height:400px;""></stim_listA>",,html-keyboard-response,173,1788646,0.0-15.0-1.11,45220,List2A,black,man,,,,null,,,,,,,,,
null,is opposing,,html-keyboard-response,174,1790652,0.0-15.0-2.11,45220,List2A,black,man,,,,null,,,,,,,,,
17587.2,,,survey-text,175,1808255,0.0-15.0-3.11,45220,List2A,black,man,,,,,"{""Q0"":""mike is opposing kate""}","<img src=""stim_listA/oppose3.gif""style=""height:400px;""></stim_listA>",is opposing,,,,,,
null,"<div style=""font-size:60px;"">+</div>",,html-keyboard-response,176,1808775,0.0-15.0-0.12,45220,List2A,black,man,,,,null,,,,,,,,,
null,"<img src=""stim_listA/look8.gif""style=""height:400px;""></stim_listA>",,html-keyboard-response,177,1810791,0.0-15.0-1.12,45220,List2A,black,man,,,,null,,,,,,,,,
null,is being looked at by,,html-keyboard-response,178,1812812,0.0-15.0-2.12,45220,List2A,black,man,,,,null,,,,,,,,,
14251.5,,,survey-text,179,1827080,0.0-15.0-3.12,45220,List2A,black,man,,,,,"{""Q0"":""jane is being looked at by kate""}","<img src=""stim_listA/look8.gif""style=""height:400px;""></stim_listA>",is being looked at by,,,,,,
null,"<div style=""font-size:60px;"">+</div>",,html-keyboard-response,180,1827589,0.0-15.0-0.13,45220,List2A,black,man,,,,null,,,,,,,,,
null,"<img src=""stim_listA/challenge3.gif""style=""height:400px;""></stim_listA>",,html-keyboard-response,181,1829604,0.0-15.0-1.13,45220,List2A,black,man,,,,null,,,,,,,,,
null,is challenging,,html-keyboard-response,182,1831619,0.0-15.0-2.13,45220,List2A,black,man,,,,null,,,,,,,,,
16897.9,,,survey-text,183,1848534,0.0-15.0-3.13,45220,List2A,black,man,,,,,"{""Q0"":""luke is challenging kate""}","<img src=""stim_listA/challenge3.gif""style=""height:400px;""></stim_listA>",is challenging,,,,,,
null,"<div style=""font-size:60px;"">+</div>",,html-keyboard-response,184,1849056,0.0-15.0-0.14,45220,List2A,black,man,,,,null,,,,,,,,,
null,"<img src=""stim_listA/oppose8.gif""style=""height:400px;""></stim_listA>",,html-keyboard-response,185,1851073,0.0-15.0-1.14,45220,List2A,black,man,,,,null,,,,,,,,,
null,is being opposed by,,html-keyboard-response,186,1853088,0.0-15.0-2.14,45220,List2A,black,man,,,,null,,,,,,,,,
35348.6,,,survey-text,187,1888454,0.0-15.0-3.14,45220,List2A,black,man,,,,,"{""Q0"":""beth is opposed by ruth""}","<img src=""stim_listA/oppose8.gif""style=""height:400px;""></stim_listA>",is being opposed by,,,,,,
null,"<div style=""font-size:60px;"">+</div>",,html-keyboard-response,188,1888963,0.0-15.0-0.15,45220,List2A,black,man,,,,null,,,,,,,,,
null,"<img src=""stim_listA/shout3.gif""style=""height:400px;""></stim_listA>",,html-keyboard-response,189,1890978,0.0-15.0-1.15,45220,List2A,black,man,,,,null,,,,,,,,,
null,is shouting at,,html-keyboard-response,190,1892994,0.0-15.0-2.15,45220,List2A,black,man,,,,null,,,,,,,,,
15537.3,,,survey-text,191,1908548,0.0-15.0-3.15,45220,List2A,black,man,,,,,"{""Q0"":""beth is shouting at fred""}","<img src=""stim_listA/shout3.gif""style=""height:400px;""></stim_listA>",is shouting at,,,,,,
null,"<div style=""font-size:60px;"">+</div>",,html-keyboard-response,192,1909056,0.0-15.0-0.16,45220,List2A,black,man,,,,null,,,,,,,,,
null,"<img src=""stim_listA/touch3.gif""style=""height:400px;""></stim_listA>",,html-keyboard-response,193,1911072,0.0-15.0-1.16,45220,List2A,black,man,,,,null,,,,,,,,,
null,is touching,,html-keyboard-response,194,1913088,0.0-15.0-2.16,45220,List2A,black,man,,,,null,,,,,,,,,
10751.5,,,survey-text,195,1923854,0.0-15.0-3.16,45220,List2A,black,man,,,,,"{""Q0"":""mike is touching kate""}","<img src=""stim_listA/touch3.gif""style=""height:400px;""></stim_listA>",is touching,,,,,,
null,"<div style=""font-size:60px;"">+</div>",,html-keyboard-response,196,1924369,0.0-15.0-0.17,45220,List2A,black,man,,,,null,,,,,,,,,
null,"<img src=""stim_listA/copy8.gif""style=""height:400px;""></stim_listA>",,html-keyboard-response,197,1926383,0.0-15.0-1.17,45220,List2A,black,man,,,,null,,,,,,,,,
null,is being copied by,,html-keyboard-response,198,1928399,0.0-15.0-2.17,45220,List2A,black,man,,,,null,,,,,,,,,
11171.7,,,survey-text,199,1939583,0.0-15.0-3.17,45220,List2A,black,man,,,,,"{""Q0"":""kate is being copied by beth""}","<img src=""stim_listA/copy8.gif""style=""height:400px;""></stim_listA>",is being copied by,,,,,,
null,"<div style=""font-size:60px;"">+</div>",,html-keyboard-response,200,1940102,0.0-15.0-0.18,45220,List2A,black,man,,,,null,,,,,,,,,
null,"<img src=""stim_listA/shout8.gif""style=""height:400px;""></stim_listA>",,html-keyboard-response,201,1942118,0.0-15.0-1.18,45220,List2A,black,man,,,,null,,,,,,,,,
null,is being shouted at by,,html-keyboard-response,202,1944134,0.0-15.0-2.18,45220,List2A,black,man,,,,null,,,,,,,,,
21670.4,,,survey-text,203,1965818,0.0-15.0-3.18,45220,List2A,black,man,,,,,"{""Q0"":""jane is being shouted at by kate""}","<img src=""stim_listA/shout8.gif""style=""height:400px;""></stim_listA>",is being shouted at by,,,,,,
null,"<div style=""font-size:60px;"">+</div>",,html-keyboard-response,204,1966337,0.0-15.0-0.19,45220,List2A,black,man,,,,null,,,,,,,,,
null,"<img src=""stim_listA/seduce1.gif""style=""height:400px;""></stim_listA>",,html-keyboard-response,205,1968353,0.0-15.0-1.19,45220,List2A,black,man,,,,null,,,,,,,,,
null,is seducing,,html-keyboard-response,206,1970368,0.0-15.0-2.19,45220,List2A,black,man,,,,null,,,,,,,,,
12951.9,,,survey-text,207,1983332,0.0-15.0-3.19,45220,List2A,black,man,,,,,"{""Q0"":""luke is seducing jane""}","<img src=""stim_listA/seduce1.gif""style=""height:400px;""></stim_listA>",is seducing,,,,,,
5136,"<img src='img/portrait_matrix_list2.jpg' style='width:900px;height:500px;''></img><p>If you have memorised all the portraits and names and are ready to start, press Continue.</p><p><strong>Please note: Your memory of these faces will be tested 4 times during this experiment.</strong></p>",0,html-button-response,208,1988477,0.0-16.0-0.0,45220,List2A,black,man,,,,,,,,,,,,,
5825.8,"<img src=""portrait/WM2.jpg""style=""height:400px;""></img>",7,html-button-response,209,1995328,0.0-16.0-1.0,45220,List2A,black,man,,TRUE,7,,,,,,,,,,
null,CORRECT,,html-keyboard-response,210,1996853,0.0-16.0-2.0-0.0,45220,List2A,black,man,,,,null,,,,,,,,,
7302.9,"<img src=""portrait/BW1.jpg""style=""height:400px;""></img>",0,html-button-response,211,2004165,0.0-16.0-4.0,45220,List2A,black,man,,TRUE,0,,,,,,,,,,
null,CORRECT,,html-keyboard-response,212,2005696,0.0-16.0-5.0-0.0,45220,List2A,black,man,,,,null,,,,,,,,,
3451.5,"<img src=""portrait/BW2.jpg""style=""height:400px;""></img>",2,html-button-response,213,2009157,0.0-16.0-7.0,45220,List2A,black,man,,TRUE,2,,,,,,,,,,
null,CORRECT,,html-keyboard-response,214,2010685,0.0-16.0-8.0-0.0,45220,List2A,black,man,,,,null,,,,,,,,,
3266.3,"<img src=""portrait/WW2.jpg""style=""height:400px;""></img>",3,html-button-response,215,2013960,0.0-16.0-10.0,45220,List2A,black,man,,TRUE,3,,,,,,,,,,
null,CORRECT,,html-keyboard-response,216,2015478,0.0-16.0-11.0-0.0,45220,List2A,black,man,,,,null,,,,,,,,,
7045.3,"<img src=""portrait/WW1.jpg""style=""height:400px;""></img>",1,html-button-response,217,2022533,0.0-16.0-13.0,45220,List2A,black,man,,TRUE,1,,,,,,,,,,
null,CORRECT,,html-keyboard-response,218,2024055,0.0-16.0-14.0-0.0,45220,List2A,black,man,,,,null,,,,,,,,,
4839.4,"<img src=""portrait/BM2.jpg""style=""height:400px;""></img>",5,html-button-response,219,2028905,0.0-16.0-16.0,45220,List2A,black,man,,TRUE,5,,,,,,,,,,
null,CORRECT,,html-keyboard-response,220,2030431,0.0-16.0-17.0-0.0,45220,List2A,black,man,,,,null,,,,,,,,,
3416.3,"<img src=""portrait/WM1.jpg""style=""height:400px;""></img>",6,html-button-response,221,2033857,0.0-16.0-19.0,45220,List2A,black,man,,TRUE,6,,,,,,,,,,
null,CORRECT,,html-keyboard-response,222,2035385,0.0-16.0-20.0-0.0,45220,List2A,black,man,,,,null,,,,,,,,,
5131.2,"<img src=""portrait/BM1.jpg""style=""height:400px;""></img>",4,html-button-response,223,2040526,0.0-16.0-22.0,45220,List2A,black,man,,TRUE,4,,,,,,,,,,
null,CORRECT,,html-keyboard-response,224,2042056,0.0-16.0-23.0-0.0,45220,List2A,black,man,,,,null,,,,,,,,,
6382.9,<p>You got 8 out of 8 right first time. Press Continue.</p>,0,html-button-response,225,2048449,0.0-16.0-25.0,45220,List2A,black,man,,,,,,,,,,,,,
null,"<div style=""font-size:60px;"">+</div>",,html-keyboard-response,226,2049977,0.0-17.0-0.0,45220,List2A,black,man,,,,null,,,,,,,,,
null,"<img src=""stim_listA/copy2.gif""style=""height:400px;""></stim_listA>",,html-keyboard-response,227,2051993,0.0-17.0-1.0,45220,List2A,black,man,,,,null,,,,,,,,,
null,is being copied by,,html-keyboard-response,228,2054009,0.0-17.0-2.0,45220,List2A,black,man,,,,null,,,,,,,,,
16997.9,,,survey-text,229,2071020,0.0-17.0-3.0,45220,List2A,black,man,,,,,"{""Q0"":""luke is being copied by jane ""}","<img src=""stim_listA/copy2.gif""style=""height:400px;""></stim_listA>",is being copied by,,,,,,
null,"<div style=""font-size:60px;"">+</div>",,html-keyboard-response,230,2071541,0.0-17.0-0.1,45220,List2A,black,man,,,,null,,,,,,,,,
null,"<img src=""stim_listA/touch5.gif""style=""height:400px;""></stim_listA>",,html-keyboard-response,231,2073556,0.0-17.0-1.1,45220,List2A,black,man,,,,null,,,,,,,,,
null,is touching,,html-keyboard-response,232,2075571,0.0-17.0-2.1,45220,List2A,black,man,,,,null,,,,,,,,,
7792.7,,,survey-text,233,2083378,0.0-17.0-3.1,45220,List2A,black,man,,,,,"{""Q0"":""mike is touching dave""}","<img src=""stim_listA/touch5.gif""style=""height:400px;""></stim_listA>",is touching,,,,,,
null,"<div style=""font-size:60px;"">+</div>",,html-keyboard-response,234,2083884,0.0-17.0-0.2,45220,List2A,black,man,,,,null,,,,,,,,,
null,"<img src=""stim_listA/touch7.gif""style=""height:400px;""></stim_listA>",,html-keyboard-response,235,2085899,0.0-17.0-1.2,45220,List2A,black,man,,,,null,,,,,,,,,
null,is touching,,html-keyboard-response,236,2087912,0.0-17.0-2.2,45220,List2A,black,man,,,,null,,,,,,,,,
12686.9,,,survey-text,237,2100614,0.0-17.0-3.2,45220,List2A,black,man,,,,,"{""Q0"":""jane is touching kate""}","<img src=""stim_listA/touch7.gif""style=""height:400px;""></stim_listA>",is touching,,,,,,
null,"<div style=""font-size:60px;"">+</div>",,html-keyboard-response,238,2101134,0.0-17.0-0.3,45220,List2A,black,man,,,,null,,,,,,,,,
null,"<img src=""stim_listA/shout5.gif""style=""height:400px;""></stim_listA>",,html-keyboard-response,239,2103144,0.0-17.0-1.3,45220,List2A,black,man,,,,null,,,,,,,,,
null,is shouting at,,html-keyboard-response,240,2105151,0.0-17.0-2.3,45220,List2A,black,man,,,,null,,,,,,,,,
10526,,,survey-text,241,2115690,0.0-17.0-3.3,45220,List2A,black,man,,,,,"{""Q0"":""luke is shouting at dave""}","<img src=""stim_listA/shout5.gif""style=""height:400px;""></stim_listA>",is shouting at,,,,,,
null,"<div style=""font-size:60px;"">+</div>",,html-keyboard-response,242,2116197,0.0-17.0-0.4,45220,List2A,black,man,,,,null,,,,,,,,,
null,"<img src=""stim_listA/kiss4.gif""style=""height:400px;""></stim_listA>",,html-keyboard-response,243,2118212,0.0-17.0-1.4,45220,List2A,black,man,,,,null,,,,,,,,,
null,is being kissed by,,html-keyboard-response,244,2120228,0.0-17.0-2.4,45220,List2A,black,man,,,,null,,,,,,,,,
11208.2,,,survey-text,245,2131450,0.0-17.0-3.4,45220,List2A,black,man,,,,,"{""Q0"":""kate is being kissed by mike""}","<img src=""stim_listA/kiss4.gif""style=""height:400px;""></stim_listA>",is being kissed by,,,,,,
null,"<div style=""font-size:60px;"">+</div>",,html-keyboard-response,246,2131962,0.0-17.0-0.5,45220,List2A,black,man,,,,null,,,,,,,,,
null,"<img src=""stim_listA/touch1.gif""style=""height:400px;""></stim_listA>",,html-keyboard-response,247,2133978,0.0-17.0-1.5,45220,List2A,black,man,,,,null,,,,,,,,,
null,is touching,,html-keyboard-response,248,2135993,0.0-17.0-2.5,45220,List2A,black,man,,,,null,,,,,,,,,
9173.1,,,survey-text,249,2145181,0.0-17.0-3.5,45220,List2A,black,man,,,,,"{""Q0"":""jane is touching dave""}","<img src=""stim_listA/touch1.gif""style=""height:400px;""></stim_listA>",is touching,,,,,,
null,"<div style=""font-size:60px;"">+</div>",,html-keyboard-response,250,2145696,0.0-17.0-0.6,45220,List2A,black,man,,,,null,,,,,,,,,
null,"<img src=""stim_listA/greet4.gif""style=""height:400px;""></stim_listA>",,html-keyboard-response,251,2147712,0.0-17.0-1.6,45220,List2A,black,man,,,,null,,,,,,,,,
null,is being greeted by,,html-keyboard-response,252,2149728,0.0-17.0-2.6,45220,List2A,black,man,,,,null,,,,,,,,,
76518.5,,,survey-text,253,2226261,0.0-17.0-3.6,45220,List2A,black,man,,,,,"{""Q0"":""fred is being greeted kate""}","<img src=""stim_listA/greet4.gif""style=""height:400px;""></stim_listA>",is being greeted by,,,,,,
null,"<div style=""font-size:60px;"">+</div>",,html-keyboard-response,254,2226774,0.0-17.0-0.7,45220,List2A,black,man,,,,null,,,,,,,,,
null,"<img src=""stim_listA/challenge1.gif""style=""height:400px;""></stim_listA>",,html-keyboard-response,255,2228786,0.0-17.0-1.7,45220,List2A,black,man,,,,null,,,,,,,,,
null,is challenging,,html-keyboard-response,256,2230805,0.0-17.0-2.7,45220,List2A,black,man,,,,null,,,,,,,,,
19749.2,,,survey-text,257,2250568,0.0-17.0-3.7,45220,List2A,black,man,,,,,"{""Q0"":""dave is challenging ruth""}","<img src=""stim_listA/challenge1.gif""style=""height:400px;""></stim_listA>",is challenging,,,,,,
null,"<div style=""font-size:60px;"">+</div>",,html-keyboard-response,258,2251087,0.0-17.0-0.8,45220,List2A,black,man,,,,null,,,,,,,,,
null,"<img src=""stim_listA/hug6.gif""style=""height:400px;""></stim_listA>",,html-keyboard-response,259,2253103,0.0-17.0-1.8,45220,List2A,black,man,,,,null,,,,,,,,,
null,is being hugged by,,html-keyboard-response,260,2255119,0.0-17.0-2.8,45220,List2A,black,man,,,,null,,,,,,,,,
15975.1,,,survey-text,261,2271109,0.0-17.0-3.8,45220,List2A,black,man,,,,,"{""Q0"":""dave is being hugged by mike""}","<img src=""stim_listA/hug6.gif""style=""height:400px;""></stim_listA>",is being hugged by,,,,,,
null,"<div style=""font-size:60px;"">+</div>",,html-keyboard-response,262,2271619,0.0-17.0-0.9,45220,List2A,black,man,,,,null,,,,,,,,,
null,"<img src=""stim_listA/oppose6.gif""style=""height:400px;""></stim_listA>",,html-keyboard-response,263,2273630,0.0-17.0-1.9,45220,List2A,black,man,,,,null,,,,,,,,,
null,is being opposed by,,html-keyboard-response,264,2275651,0.0-17.0-2.9,45220,List2A,black,man,,,,null,,,,,,,,,
21130,,,survey-text,265,2296797,0.0-17.0-3.9,45220,List2A,black,man,,,,,"{""Q0"":""dave is being opposed by luke""}","<img src=""stim_listA/oppose6.gif""style=""height:400px;""></stim_listA>",is being opposed by,,,,,,
null,"<div style=""font-size:60px;"">+</div>",,html-keyboard-response,266,2297306,0.0-17.0-0.10,45220,List2A,black,man,,,,null,,,,,,,,,
null,"<img src=""stim_listA/touch6.gif""style=""height:400px;""></stim_listA>",,html-keyboard-response,267,2299316,0.0-17.0-1.10,45220,List2A,black,man,,,,null,,,,,,,,,
null,is being touched by,,html-keyboard-response,268,2301338,0.0-17.0-2.10,45220,List2A,black,man,,,,null,,,,,,,,,
11529.5,,,survey-text,269,2312883,0.0-17.0-3.10,45220,List2A,black,man,,,,,"{""Q0"":""fred is being touched by luke ""}","<img src=""stim_listA/touch6.gif""style=""height:400px;""></stim_listA>",is being touched by,,,,,,
null,"<div style=""font-size:60px;"">+</div>",,html-keyboard-response,270,2313400,0.0-17.0-0.11,45220,List2A,black,man,,,,null,,,,,,,,,
null,"<img src=""stim_listA/hug3.gif""style=""height:400px;""></stim_listA>",,html-keyboard-response,271,2315416,0.0-17.0-1.11,45220,List2A,black,man,,,,null,,,,,,,,,
null,is hugging,,html-keyboard-response,272,2317431,0.0-17.0-2.11,45220,List2A,black,man,,,,null,,,,,,,,,
10181.3,,,survey-text,273,2327627,0.0-17.0-3.11,45220,List2A,black,man,,,,,"{""Q0"":""beth is hugging fred""}","<img src=""stim_listA/hug3.gif""style=""height:400px;""></stim_listA>",is hugging,,,,,,
null,"<div style=""font-size:60px;"">+</div>",,html-keyboard-response,274,2328134,0.0-17.0-0.12,45220,List2A,black,man,,,,null,,,,,,,,,
null,"<img src=""stim_listA/seduce5.gif""style=""height:400px;""></stim_listA>",,html-keyboard-response,275,2330146,0.0-17.0-1.12,45220,List2A,black,man,,,,null,,,,,,,,,
null,is seducing,,html-keyboard-response,276,2332166,0.0-17.0-2.12,45220,List2A,black,man,,,,null,,,,,,,,,
9482.5,,,survey-text,277,2341663,0.0-17.0-3.12,45220,List2A,black,man,,,,,"{""Q0"":""luke is seducing mike""}","<img src=""stim_listA/seduce5.gif""style=""height:400px;""></stim_listA>",is seducing,,,,,,
null,"<div style=""font-size:60px;"">+</div>",,html-keyboard-response,278,2342182,0.0-17.0-0.13,45220,List2A,black,man,,,,null,,,,,,,,,
null,"<img src=""stim_listA/touch8.gif""style=""height:400px;""></stim_listA>",,html-keyboard-response,279,2344194,0.0-17.0-1.13,45220,List2A,black,man,,,,null,,,,,,,,,
null,is being touched by,,html-keyboard-response,280,2346212,0.0-17.0-2.13,45220,List2A,black,man,,,,null,,,,,,,,,
9197.5,,,survey-text,281,2355425,0.0-17.0-3.13,45220,List2A,black,man,,,,,"{""Q0"":""beth is touching ruth""}","<img src=""stim_listA/touch8.gif""style=""height:400px;""></stim_listA>",is being touched by,,,,,,
null,"<div style=""font-size:60px;"">+</div>",,html-keyboard-response,282,2355947,0.0-17.0-0.14,45220,List2A,black,man,,,,null,,,,,,,,,
null,"<img src=""stim_listA/challenge5.gif""style=""height:400px;""></stim_listA>",,html-keyboard-response,283,2357963,0.0-17.0-1.14,45220,List2A,black,man,,,,null,,,,,,,,,
null,is challenging,,html-keyboard-response,284,2359979,0.0-17.0-2.14,45220,List2A,black,man,,,,null,,,,,,,,,
13397.1,,,survey-text,285,2373393,0.0-17.0-3.14,45220,List2A,black,man,,,,,"{""Q0"":""dave is challenging fred""}","<img src=""stim_listA/challenge5.gif""style=""height:400px;""></stim_listA>",is challenging,,,,,,
null,"<div style=""font-size:60px;"">+</div>",,html-keyboard-response,286,2373916,0.0-17.0-0.15,45220,List2A,black,man,,,,null,,,,,,,,,
null,"<img src=""stim_listA/kiss5.gif""style=""height:400px;""></stim_listA>",,html-keyboard-response,287,2375932,0.0-17.0-1.15,45220,List2A,black,man,,,,null,,,,,,,,,
null,is kissing,,html-keyboard-response,288,2377948,0.0-17.0-2.15,45220,List2A,black,man,,,,null,,,,,,,,,
9445.3,,,survey-text,289,2387408,0.0-17.0-3.15,45220,List2A,black,man,,,,,"{""Q0"":""luke is kissing fred""}","<img src=""stim_listA/kiss5.gif""style=""height:400px;""></stim_listA>",is kissing,,,,,,
null,"<div style=""font-size:60px;"">+</div>",,html-keyboard-response,290,2387917,0.0-17.0-0.16,45220,List2A,black,man,,,,null,,,,,,,,,
null,"<img src=""stim_listA/greet1.gif""style=""height:400px;""></stim_listA>",,html-keyboard-response,291,2389932,0.0-17.0-1.16,45220,List2A,black,man,,,,null,,,,,,,,,
null,is greeting,,html-keyboard-response,292,2391948,0.0-17.0-2.16,45220,List2A,black,man,,,,null,,,,,,,,,
12921.2,,,survey-text,293,2404884,0.0-17.0-3.16,45220,List2A,black,man,,,,,"{""Q0"":""dave is greeting ruth""}","<img src=""stim_listA/greet1.gif""style=""height:400px;""></stim_listA>",is greeting,,,,,,
null,"<div style=""font-size:60px;"">+</div>",,html-keyboard-response,294,2405401,0.0-17.0-0.17,45220,List2A,black,man,,,,null,,,,,,,,,
null,"<img src=""stim_listA/hug1.gif""style=""height:400px;""></stim_listA>",,html-keyboard-response,295,2407416,0.0-17.0-1.17,45220,List2A,black,man,,,,null,,,,,,,,,
null,is hugging,,html-keyboard-response,296,2409431,0.0-17.0-2.17,45220,List2A,black,man,,,,null,,,,,,,,,
8035.6,,,survey-text,297,2417481,0.0-17.0-3.17,45220,List2A,black,man,,,,,"{""Q0"":""luke is hugging ruth""}","<img src=""stim_listA/hug1.gif""style=""height:400px;""></stim_listA>",is hugging,,,,,,
null,"<div style=""font-size:60px;"">+</div>",,html-keyboard-response,298,2417994,0.0-17.0-0.18,45220,List2A,black,man,,,,null,,,,,,,,,
null,"<img src=""stim_listA/kiss1.gif""style=""height:400px;""></stim_listA>",,html-keyboard-response,299,2420009,0.0-17.0-1.18,45220,List2A,black,man,,,,null,,,,,,,,,
null,is kissing,,html-keyboard-response,300,2422025,0.0-17.0-2.18,45220,List2A,black,man,,,,null,,,,,,,,,
6379.8,,,survey-text,301,2428421,0.0-17.0-3.18,45220,List2A,black,man,,,,,"{""Q0"":""luke is kissing ruth""}","<img src=""stim_listA/kiss1.gif""style=""height:400px;""></stim_listA>",is kissing,,,,,,
null,"<div style=""font-size:60px;"">+</div>",,html-keyboard-response,302,2428933,0.0-17.0-0.19,45220,List2A,black,man,,,,null,,,,,,,,,
null,"<img src=""stim_listA/hug4.gif""style=""height:400px;""></stim_listA>",,html-keyboard-response,303,2430946,0.0-17.0-1.19,45220,List2A,black,man,,,,null,,,,,,,,,
null,is being hugged by,,html-keyboard-response,304,2432963,0.0-17.0-2.19,45220,List2A,black,man,,,,null,,,,,,,,,
16423.6,,,survey-text,305,2449402,0.0-17.0-3.19,45220,List2A,black,man,,,,,"{""Q0"":""mike is being hugged by kate""}","<img src=""stim_listA/hug4.gif""style=""height:400px;""></stim_listA>",is being hugged by,,,,,,
5139.4,"<img src='img/portrait_matrix_list2.jpg' style='width:900px;height:500px;''></img><p>If you have memorised all the portraits and names and are ready to start, press Continue.</p><p><strong>Please note: Your memory of these faces will be tested 4 times during this experiment.</strong></p>",0,html-button-response,306,2454552,0.0-18.0-0.0,45220,List2A,black,man,,,,,,,,,,,,,
5775.5,"<img src=""portrait/WW2.jpg""style=""height:400px;""></img>",3,html-button-response,307,2461339,0.0-18.0-1.0,45220,List2A,black,man,,TRUE,3,,,,,,,,,,
null,CORRECT,,html-keyboard-response,308,2462868,0.0-18.0-2.0-0.0,45220,List2A,black,man,,,,null,,,,,,,,,
5924.1,"<img src=""portrait/BM1.jpg""style=""height:400px;""></img>",4,html-button-response,309,2468800,0.0-18.0-4.0,45220,List2A,black,man,,TRUE,4,,,,,,,,,,
null,CORRECT,,html-keyboard-response,310,2470320,0.0-18.0-5.0-0.0,45220,List2A,black,man,,,,null,,,,,,,,,
7205.4,"<img src=""portrait/WW1.jpg""style=""height:400px;""></img>",1,html-button-response,311,2477534,0.0-18.0-7.0,45220,List2A,black,man,,TRUE,1,,,,,,,,,,
null,CORRECT,,html-keyboard-response,312,2479055,0.0-18.0-8.0-0.0,45220,List2A,black,man,,,,null,,,,,,,,,
3841.3,"<img src=""portrait/WM1.jpg""style=""height:400px;""></img>",6,html-button-response,313,2482906,0.0-18.0-10.0,45220,List2A,black,man,,TRUE,6,,,,,,,,,,
null,CORRECT,,html-keyboard-response,314,2484430,0.0-18.0-11.0-0.0,45220,List2A,black,man,,,,null,,,,,,,,,
4888.8,"<img src=""portrait/BW1.jpg""style=""height:400px;""></img>",0,html-button-response,315,2489327,0.0-18.0-13.0,45220,List2A,black,man,,TRUE,0,,,,,,,,,,
null,CORRECT,,html-keyboard-response,316,2490852,0.0-18.0-14.0-0.0,45220,List2A,black,man,,,,null,,,,,,,,,
2942,"<img src=""portrait/BW2.jpg""style=""height:400px;""></img>",2,html-button-response,317,2493802,0.0-18.0-16.0,45220,List2A,black,man,,TRUE,2,,,,,,,,,,
null,CORRECT,,html-keyboard-response,318,2495323,0.0-18.0-17.0-0.0,45220,List2A,black,man,,,,null,,,,,,,,,
5554.9,"<img src=""portrait/WM2.jpg""style=""height:400px;""></img>",7,html-button-response,319,2500887,0.0-18.0-19.0,45220,List2A,black,man,,TRUE,7,,,,,,,,,,
null,CORRECT,,html-keyboard-response,320,2502417,0.0-18.0-20.0-0.0,45220,List2A,black,man,,,,null,,,,,,,,,
4311.5,"<img src=""portrait/BM2.jpg""style=""height:400px;""></img>",5,html-button-response,321,2506737,0.0-18.0-22.0,45220,List2A,black,man,,TRUE,5,,,,,,,,,,
null,CORRECT,,html-keyboard-response,322,2508258,0.0-18.0-23.0-0.0,45220,List2A,black,man,,,,null,,,,,,,,,
2102.9,<p>You got 8 out of 8 right first time. Press Continue.</p>,0,html-button-response,323,2510370,0.0-18.0-25.0,45220,List2A,black,man,,,,,,,,,,,,,
null,"<div style=""font-size:60px;"">+</div>",,html-keyboard-response,324,2511903,0.0-19.0-0.0,45220,List2A,black,man,,,,null,,,,,,,,,
null,"<img src=""stim_listA/kiss7.gif""style=""height:400px;""></stim_listA>",,html-keyboard-response,325,2513914,0.0-19.0-1.0,45220,List2A,black,man,,,,null,,,,,,,,,
null,is kissing,,html-keyboard-response,326,2515929,0.0-19.0-2.0,45220,List2A,black,man,,,,null,,,,,,,,,
9178.6,,,survey-text,327,2525121,0.0-19.0-3.0,45220,List2A,black,man,,,,,"{""Q0"":""ruth is kissing beth""}","<img src=""stim_listA/kiss7.gif""style=""height:400px;""></stim_listA>",is kissing,,,,,,
null,"<div style=""font-size:60px;"">+</div>",,html-keyboard-response,328,2525634,0.0-19.0-0.1,45220,List2A,black,man,,,,null,,,,,,,,,
null,"<img src=""stim_listA/seduce4.gif""style=""height:400px;""></stim_listA>",,html-keyboard-response,329,2527644,0.0-19.0-1.1,45220,List2A,black,man,,,,null,,,,,,,,,
null,is being seduced by,,html-keyboard-response,330,2529649,0.0-19.0-2.1,45220,List2A,black,man,,,,null,,,,,,,,,
16570.9,,,survey-text,331,2546234,0.0-19.0-3.1,45220,List2A,black,man,,,,,"{""Q0"":""beth is being seduced by mike""}","<img src=""stim_listA/seduce4.gif""style=""height:400px;""></stim_listA>",is being seduced by,,,,,,
null,"<div style=""font-size:60px;"">+</div>",,html-keyboard-response,332,2546742,0.0-19.0-0.2,45220,List2A,black,man,,,,null,,,,,,,,,
null,"<img src=""stim_listA/oppose1.gif""style=""height:400px;""></stim_listA>",,html-keyboard-response,333,2548758,0.0-19.0-1.2,45220,List2A,black,man,,,,null,,,,,,,,,
null,is opposing,,html-keyboard-response,334,2550774,0.0-19.0-2.2,45220,List2A,black,man,,,,null,,,,,,,,,
9376.7,,,survey-text,335,2560164,0.0-19.0-3.2,45220,List2A,black,man,,,,,"{""Q0"":""jane is opposing dave""}","<img src=""stim_listA/oppose1.gif""style=""height:400px;""></stim_listA>",is opposing,,,,,,
null,"<div style=""font-size:60px;"">+</div>",,html-keyboard-response,336,2560671,0.0-19.0-0.3,45220,List2A,black,man,,,,null,,,,,,,,,
null,"<img src=""stim_listA/copy1.gif""style=""height:400px;""></stim_listA>",,html-keyboard-response,337,2562688,0.0-19.0-1.3,45220,List2A,black,man,,,,null,,,,,,,,,
null,is copying,,html-keyboard-response,338,2564700,0.0-19.0-2.3,45220,List2A,black,man,,,,null,,,,,,,,,
35623.1,,,survey-text,339,2600338,0.0-19.0-3.3,45220,List2A,black,man,,,,,"{""Q0"":""luke is being hugged by beth""}","<img src=""stim_listA/copy1.gif""style=""height:400px;""></stim_listA>",is copying,,,,,,
null,"<div style=""font-size:60px;"">+</div>",,html-keyboard-response,340,2600855,0.0-19.0-0.4,45220,List2A,black,man,,,,null,,,,,,,,,
null,"<img src=""stim_listA/look4.gif""style=""height:400px;""></stim_listA>",,html-keyboard-response,341,2602872,0.0-19.0-1.4,45220,List2A,black,man,,,,null,,,,,,,,,
null,is being looked at by,,html-keyboard-response,342,2604884,0.0-19.0-2.4,45220,List2A,black,man,,,,null,,,,,,,,,
19084.3,,,survey-text,343,2623981,0.0-19.0-3.4,45220,List2A,black,man,,,,,"{""Q0"":""mike is being looked at by kate""}","<img src=""stim_listA/look4.gif""style=""height:400px;""></stim_listA>",is being looked at by,,,,,,
null,"<div style=""font-size:60px;"">+</div>",,html-keyboard-response,344,2624497,0.0-19.0-0.5,45220,List2A,black,man,,,,null,,,,,,,,,
null,"<img src=""stim_listA/greet3.gif""style=""height:400px;""></stim_listA>",,html-keyboard-response,345,2626513,0.0-19.0-1.5,45220,List2A,black,man,,,,null,,,,,,,,,
null,is greeting,,html-keyboard-response,346,2628525,0.0-19.0-2.5,45220,List2A,black,man,,,,null,,,,,,,,,
9805.2,,,survey-text,347,2638343,0.0-19.0-3.5,45220,List2A,black,man,,,,,"{""Q0"":""mike is greeting beth""}","<img src=""stim_listA/greet3.gif""style=""height:400px;""></stim_listA>",is greeting,,,,,,
null,"<div style=""font-size:60px;"">+</div>",,html-keyboard-response,348,2638851,0.0-19.0-0.6,45220,List2A,black,man,,,,null,,,,,,,,,
null,"<img src=""stim_listA/look5.gif""style=""height:400px;""></stim_listA>",,html-keyboard-response,349,2640872,0.0-19.0-1.6,45220,List2A,black,man,,,,null,,,,,,,,,
null,is looking at,,html-keyboard-response,350,2642884,0.0-19.0-2.6,45220,List2A,black,man,,,,null,,,,,,,,,
11113.3,,,survey-text,351,2654012,0.0-19.0-3.6,45220,List2A,black,man,,,,,"{""Q0"":""fred is looking at luke""}","<img src=""stim_listA/look5.gif""style=""height:400px;""></stim_listA>",is looking at,,,,,,
null,"<div style=""font-size:60px;"">+</div>",,html-keyboard-response,352,2654527,0.0-19.0-0.7,45220,List2A,black,man,,,,null,,,,,,,,,
null,"<img src=""stim_listA/challenge4.gif""style=""height:400px;""></stim_listA>",,html-keyboard-response,353,2656544,0.0-19.0-1.7,45220,List2A,black,man,,,,null,,,,,,,,,
null,is being challenged by,,html-keyboard-response,354,2658556,0.0-19.0-2.7,45220,List2A,black,man,,,,null,,,,,,,,,
16972.2,,,survey-text,355,2675541,0.0-19.0-3.7,45220,List2A,black,man,,,,,"{""Q0"":""kate is being challenged by fred""}","<img src=""stim_listA/challenge4.gif""style=""height:400px;""></stim_listA>",is being challenged by,,,,,,
null,"<div style=""font-size:60px;"">+</div>",,html-keyboard-response,356,2676057,0.0-19.0-0.8,45220,List2A,black,man,,,,null,,,,,,,,,
null,"<img src=""stim_listA/copy6.gif""style=""height:400px;""></stim_listA>",,html-keyboard-response,357,2678075,0.0-19.0-1.8,45220,List2A,black,man,,,,null,,,,,,,,,
null,is being copied by,,html-keyboard-response,358,2680087,0.0-19.0-2.8,45220,List2A,black,man,,,,null,,,,,,,,,
10243.6,,,survey-text,359,2690344,0.0-19.0-3.8,45220,List2A,black,man,,,,,"{""Q0"":""luke is being copied by mike""}","<img src=""stim_listA/copy6.gif""style=""height:400px;""></stim_listA>",is being copied by,,,,,,
null,"<div style=""font-size:60px;"">+</div>",,html-keyboard-response,360,2690851,0.0-19.0-0.9,45220,List2A,black,man,,,,null,,,,,,,,,
null,"<img src=""stim_listA/shout6.gif""style=""height:400px;""></stim_listA>",,html-keyboard-response,361,2692869,0.0-19.0-1.9,45220,List2A,black,man,,,,null,,,,,,,,,
null,is being shouted at by,,html-keyboard-response,362,2694888,0.0-19.0-2.9,45220,List2A,black,man,,,,null,,,,,,,,,
18716.1,,,survey-text,363,2713619,0.0-19.0-3.9,45220,List2A,black,man,,,,,"{""Q0"":""mike is being shouted at by fred""}","<img src=""stim_listA/shout6.gif""style=""height:400px;""></stim_listA>",is being shouted at by,,,,,,
null,"<div style=""font-size:60px;"">+</div>",,html-keyboard-response,364,2714134,0.0-19.0-0.10,45220,List2A,black,man,,,,null,,,,,,,,,
null,"<img src=""stim_listA/hug2.gif""style=""height:400px;""></stim_listA>",,html-keyboard-response,365,2716150,0.0-19.0-1.10,45220,List2A,black,man,,,,null,,,,,,,,,
null,is being hugged by,,html-keyboard-response,366,2718169,0.0-19.0-2.10,45220,List2A,black,man,,,,null,,,,,,,,,
14624.4,,,survey-text,367,2732807,0.0-19.0-3.10,45220,List2A,black,man,,,,,"{""Q0"":""jane is being hugged at by dave""}","<img src=""stim_listA/hug2.gif""style=""height:400px;""></stim_listA>",is being hugged by,,,,,,
null,"<div style=""font-size:60px;"">+</div>",,html-keyboard-response,368,2733323,0.0-19.0-0.11,45220,List2A,black,man,,,,null,,,,,,,,,
null,"<img src=""stim_listA/look7.gif""style=""height:400px;""></stim_listA>",,html-keyboard-response,369,2735339,0.0-19.0-1.11,45220,List2A,black,man,,,,null,,,,,,,,,
null,is looking at,,html-keyboard-response,370,2737358,0.0-19.0-2.11,45220,List2A,black,man,,,,null,,,,,,,,,
9811.9,,,survey-text,371,2747185,0.0-19.0-3.11,45220,List2A,black,man,,,,,"{""Q0"":""beth is looking at ruth""}","<img src=""stim_listA/look7.gif""style=""height:400px;""></stim_listA>",is looking at,,,,,,
null,"<div style=""font-size:60px;"">+</div>",,html-keyboard-response,372,2747700,0.0-19.0-0.12,45220,List2A,black,man,,,,null,,,,,,,,,
null,"<img src=""stim_listA/seduce7.gif""style=""height:400px;""></stim_listA>",,html-keyboard-response,373,2749713,0.0-19.0-1.12,45220,List2A,black,man,,,,null,,,,,,,,,
null,is seducing,,html-keyboard-response,374,2751721,0.0-19.0-2.12,45220,List2A,black,man,,,,null,,,,,,,,,
18416.3,,,survey-text,375,2770152,0.0-19.0-3.12,45220,List2A,black,man,,,,,"{""Q0"":""kate is copied by ruth""}","<img src=""stim_listA/seduce7.gif""style=""height:400px;""></stim_listA>",is seducing,,,,,,
null,"<div style=""font-size:60px;"">+</div>",,html-keyboard-response,376,2770668,0.0-19.0-0.13,45220,List2A,black,man,,,,null,,,,,,,,,
null,"<img src=""stim_listA/greet8.gif""style=""height:400px;""></stim_listA>",,html-keyboard-response,377,2772687,0.0-19.0-1.13,45220,List2A,black,man,,,,null,,,,,,,,,
null,is being greeted by,,html-keyboard-response,378,2774699,0.0-19.0-2.13,45220,List2A,black,man,,,,null,,,,,,,,,
9323.6,,,survey-text,379,2784032,0.0-19.0-3.13,45220,List2A,black,man,,,,,"{""Q0"":""ruth is being greeted by kate""}","<img src=""stim_listA/greet8.gif""style=""height:400px;""></stim_listA>",is being greeted by,,,,,,
null,"<div style=""font-size:60px;"">+</div>",,html-keyboard-response,380,2784540,0.0-19.0-0.14,45220,List2A,black,man,,,,null,,,,,,,,,
null,"<img src=""stim_listA/oppose7.gif""style=""height:400px;""></stim_listA>",,html-keyboard-response,381,2786557,0.0-19.0-1.14,45220,List2A,black,man,,,,null,,,,,,,,,
null,is opposing,,html-keyboard-response,382,2788572,0.0-19.0-2.14,45220,List2A,black,man,,,,null,,,,,,,,,
9967.1,,,survey-text,383,2798554,0.0-19.0-3.14,45220,List2A,black,man,,,,,"{""Q0"":""jane is opposing kate""}","<img src=""stim_listA/oppose7.gif""style=""height:400px;""></stim_listA>",is opposing,,,,,,
null,"<div style=""font-size:60px;"">+</div>",,html-keyboard-response,384,2799069,0.0-19.0-0.15,45220,List2A,black,man,,,,null,,,,,,,,,
null,"<img src=""stim_listA/hug5.gif""style=""height:400px;""></stim_listA>",,html-keyboard-response,385,2801087,0.0-19.0-1.15,45220,List2A,black,man,,,,null,,,,,,,,,
null,is hugging,,html-keyboard-response,386,2803105,0.0-19.0-2.15,45220,List2A,black,man,,,,null,,,,,,,,,
9101,,,survey-text,387,2812221,0.0-19.0-3.15,45220,List2A,black,man,,,,,"{""Q0"":""fred is hugging luke ""}","<img src=""stim_listA/hug5.gif""style=""height:400px;""></stim_listA>",is hugging,,,,,,
null,"<div style=""font-size:60px;"">+</div>",,html-keyboard-response,388,2812741,0.0-19.0-0.16,45220,List2A,black,man,,,,null,,,,,,,,,
null,"<img src=""stim_listA/oppose5.gif""style=""height:400px;""></stim_listA>",,html-keyboard-response,389,2814757,0.0-19.0-1.16,45220,List2A,black,man,,,,null,,,,,,,,,
null,is opposing,,html-keyboard-response,390,2816785,0.0-19.0-2.16,45220,List2A,black,man,,,,null,,,,,,,,,
13813.2,,,survey-text,391,2830613,0.0-19.0-3.16,45220,List2A,black,man,,,,,"{""Q0"":""dave is opposing mike""}","<img src=""stim_listA/oppose5.gif""style=""height:400px;""></stim_listA>",is opposing,,,,,,
null,"<div style=""font-size:60px;"">+</div>",,html-keyboard-response,392,2831128,0.0-19.0-0.17,45220,List2A,black,man,,,,null,,,,,,,,,
null,"<img src=""stim_listA/challenge2.gif""style=""height:400px;""></stim_listA>",,html-keyboard-response,393,2833144,0.0-19.0-1.17,45220,List2A,black,man,,,,null,,,,,,,,,
null,is being challenged by,,html-keyboard-response,394,2835164,0.0-19.0-2.17,45220,List2A,black,man,,,,null,,,,,,,,,
15421.3,,,survey-text,395,2850607,0.0-19.0-3.17,45220,List2A,black,man,,,,,"{""Q0"":""jane is being challenged by luke ""}","<img src=""stim_listA/challenge2.gif""style=""height:400px;""></stim_listA>",is being challenged by,,,,,,
null,"<div style=""font-size:60px;"">+</div>",,html-keyboard-response,396,2851123,0.0-19.0-0.18,45220,List2A,black,man,,,,null,,,,,,,,,
null,"<img src=""stim_listA/look3.gif""style=""height:400px;""></stim_listA>",,html-keyboard-response,397,2853149,0.0-19.0-1.18,45220,List2A,black,man,,,,null,,,,,,,,,
null,is looking at,,html-keyboard-response,398,2855157,0.0-19.0-2.18,45220,List2A,black,man,,,,null,,,,,,,,,
10152.5,,,survey-text,399,2865324,0.0-19.0-3.18,45220,List2A,black,man,,,,,"{""Q0"":""beth is looking at fred""}","<img src=""stim_listA/look3.gif""style=""height:400px;""></stim_listA>",is looking at,,,,,,
null,"<div style=""font-size:60px;"">+</div>",,html-keyboard-response,400,2865840,0.0-19.0-0.19,45220,List2A,black,man,,,,null,,,,,,,,,
null,"<img src=""stim_listA/copy5.gif""style=""height:400px;""></stim_listA>",,html-keyboard-response,401,2867857,0.0-19.0-1.19,45220,List2A,black,man,,,,null,,,,,,,,,
null,is copying,,html-keyboard-response,402,2869869,0.0-19.0-2.19,45220,List2A,black,man,,,,null,,,,,,,,,
8678.2,,,survey-text,403,2878562,0.0-19.0-3.19,45220,List2A,black,man,,,,,"{""Q0"":""fred is copying dave""}","<img src=""stim_listA/copy5.gif""style=""height:400px;""></stim_listA>",is copying,,,,,,
3867,<p>Thank you for completing that task.</p><p>The final part of this session is a questionnaire that will take about 4 minutes.</p><p>Press Continue.</p>,0,html-button-response,404,2882438,0.0-20.0,45220,List2A,black,man,,,,,,,,,,,,,
43140.5,,,survey-text,405,2926617,0.0-21.0,45220,List2A,black,man,,,,,"{""Q0"":""44"",""Q1"":""English"",""Q2"":""English"",""Q3"":""United States"",""Q4"":""American"",""Q5"":""Black"",""Q6"":""Male""}",,,demographics,,,,,
11465.3,<p>Have you lived in the USA for the last 5 years or more?</p>,0,html-button-response,406,2938100,0.0-22.0,45220,List2A,black,man,,,,,,,,fiveyears,,,,,
2951.2,<p>Move the slider to show the extent to which you agree with the following statements.</p>,0,html-button-response,407,2942072,0.0-23.0,45220,List2A,black,man,,,,,,,,,,,,,
23292.4,,,html-slider-response,408,2966395,0.0-24.0-0.0-0.0,45220,List2A,black,man,,,,,,,,survey_gender,77,,,My friends have a lot in common with each other.,filler
7358,,,html-slider-response,409,2973769,0.0-24.0-0.0-0.1,45220,List2A,black,man,,,,,,,,survey_gender,23,,,I would say I am an animal person.,filler
11330.3,,,html-slider-response,410,2985115,0.0-24.0-0.0-0.2,45220,List2A,black,man,,,,,,,,survey_gender,94,,,It is pleasant to be my gender.,pleasant
8024.5,,,html-slider-response,411,2993158,0.0-24.0-0.0-0.3,45220,List2A,black,man,,,,,,,,survey_gender,86,,,I feel solidarity with my gender.,solidarity
5708.1,,,html-slider-response,412,2998882,0.0-24.0-0.0-0.4,45220,List2A,black,man,,,,,,,,survey_gender,75,,,My friends understand me.,filler
6636.2,,,html-slider-response,413,3005534,0.0-24.0-0.0-0.5,45220,List2A,black,man,,,,,,,,survey_gender,89,,,Being my gender gives me a good feeling.,feeling
5722.2,,,html-slider-response,414,3011272,0.0-24.0-0.0-0.6,45220,List2A,black,man,,,,,,,,survey_gender,99,,,Family is not more important to me than friendship.,filler
5340.3,,,html-slider-response,415,3016629,0.0-24.0-0.0-0.7,45220,List2A,black,man,,,,,,,,survey_gender,92,,,I think that my gender has a lot to be proud of.,proud
5781.6,,,html-slider-response,416,3022426,0.0-24.0-0.0-0.8,45220,List2A,black,man,,,,,,,,survey_gender,91,,,It is not always easy for people to know what I am thinking.,filler
5972.7,,,html-slider-response,417,3028415,0.0-24.0-0.0-0.9,45220,List2A,black,man,,,,,,,,survey_gender,2,,,Routine is not important to me.,filler
5926.8,,,html-slider-response,418,3034357,0.0-24.0-0.0-0.10,45220,List2A,black,man,,,,,,,,survey_gender,87,,,I feel a bond with my gender.,bond
8889.8,,,html-slider-response,419,3043263,0.0-24.0-0.0-0.11,45220,List2A,black,man,,,,,,,,survey_gender,96,,,I feel committed to my gender.,committed
9068.3,,,html-slider-response,420,3052348,0.0-24.0-0.0-0.12,45220,List2A,black,man,,,,,,,,survey_gender,85,,,Being around my friends gives me a good feeling.,filler
4839.7,,,html-slider-response,421,3057204,0.0-24.0-0.0-0.13,45220,List2A,black,man,,,,,,,,survey_gender,93,,,I am glad to be my gender.,glad
4224.3,,,html-slider-response,422,3061445,0.0-24.0-0.0-0.14,45220,List2A,black,man,,,,,,,,survey_gender,82,,,I feel a bond with my friends.,filler
6426.4,,,html-slider-response,423,3067888,0.0-24.0-0.0-0.15,45220,List2A,black,man,,,,,,,,survey_gender,86,,,I often think about the fact that I am my gender.,often
30621.5,,,html-slider-response,424,3098526,0.0-24.0-0.0-0.16,45220,List2A,black,man,,,,,,,,survey_gender,80,,,I consider myself a highly empathetic person.,filler
7674.7,,,html-slider-response,425,3106218,0.0-24.0-0.0-0.17,45220,List2A,black,man,,,,,,,,survey_gender,79,,,I am glad to have the friends that I have.,filler
5149.3,,,html-slider-response,426,3111384,0.0-24.0-0.0-0.18,45220,List2A,black,man,,,,,,,,survey_gender,74,,,I have a lot in common with my friends.,filler
7030.9,,,html-slider-response,427,3118431,0.0-24.0-0.0-0.19,45220,List2A,black,man,,,,,,,,survey_gender,86,,,I am similar to the average person of my gender.,similar
5279.2,,,html-slider-response,428,3123726,0.0-24.0-0.0-0.20,45220,List2A,black,man,,,,,,,,survey_gender,79,,,I have a lot in common with the average person of my gender.,average
15077.9,,,html-slider-response,429,3138819,0.0-24.0-0.0-0.21,45220,List2A,black,man,,,,,,,,survey_gender,82,,,People of my gender are very similar to each other.,verysimilar
7855.2,,,html-slider-response,430,3146690,0.0-24.0-0.0-0.22,45220,List2A,black,man,,,,,,,,survey_gender,99,,,The fact that I am my gender is an important part of my identity.,identity
10407.1,,,html-slider-response,431,3157111,0.0-24.0-0.0-0.23,45220,List2A,black,man,,,,,,,,survey_gender,93,,,Being my gender is an important part of how I see myself.,important
7241,,,html-slider-response,432,3164368,0.0-24.0-0.0-0.24,45220,List2A,black,man,,,,,,,,survey_gender,78,,,Most of the friends in my life are very similar to me.,filler
3611.7,,,html-slider-response,433,3167994,0.0-24.0-0.0-0.25,45220,List2A,black,man,,,,,,,,survey_gender,85,,,I feel solidarity with my friends.,filler
7980.4,,,html-slider-response,434,3175990,0.0-24.0-0.0-0.26,45220,List2A,black,man,,,,,,,,survey_gender,73,,,People of my gender have a lot in common with each other.,common
10941.3,,,html-slider-response,435,3186947,0.0-24.0-0.0-0.27,45220,List2A,black,man,,,,,,,,survey_gender,90,,,I often think about my actions.,filler
4319.6,,,html-slider-response,436,3191282,0.0-24.0-1.0-0.0,45220,List2A,black,man,,,,,,,,survey_race,89,,,I feel solidarity with my race.,solidarity
4559,,,html-slider-response,437,3195857,0.0-24.0-1.0-0.1,45220,List2A,black,man,,,,,,,,survey_race,97,,,Being my race gives me a good feeling.,feeling
4209.4,,,html-slider-response,438,3200082,0.0-24.0-1.0-0.2,45220,List2A,black,man,,,,,,,,survey_race,79,,,People of my race have a lot in common with each other.,common
4266.5,,,html-slider-response,439,3204364,0.0-24.0-1.0-0.3,45220,List2A,black,man,,,,,,,,survey_race,80,,,I am glad to be the age I am.,filler
4052.3,,,html-slider-response,440,3208432,0.0-24.0-1.0-0.4,45220,List2A,black,man,,,,,,,,survey_race,79,,,Being my age gives me a good feeling.,filler
4735.7,,,html-slider-response,441,3213184,0.0-24.0-1.0-0.5,45220,List2A,black,man,,,,,,,,survey_race,89,,,I feel committed to my race.,committed
9781.1,,,html-slider-response,442,3222982,0.0-24.0-1.0-0.6,45220,List2A,black,man,,,,,,,,survey_race,72,,,I have a lot in common with people of a similar age to me.,filler
4312.3,,,html-slider-response,443,3227310,0.0-24.0-1.0-0.7,45220,List2A,black,man,,,,,,,,survey_race,89,,,"The older I get, the wiser I feel.",filler
4179.2,,,html-slider-response,444,3231507,0.0-24.0-1.0-0.8,45220,List2A,black,man,,,,,,,,survey_race,78,,,I feel solidarity with people the same age as me.,filler
8613.6,,,html-slider-response,445,3240138,0.0-24.0-1.0-0.9,45220,List2A,black,man,,,,,,,,survey_race,97,,,The fact that I am my race is an important part of my identity.,identity
3594.4,,,html-slider-response,446,3243750,0.0-24.0-1.0-0.10,45220,List2A,black,man,,,,,,,,survey_race,100,,,It is pleasant to be my race.,pleasant
5814.9,,,html-slider-response,447,3249576,0.0-24.0-1.0-0.11,45220,List2A,black,man,,,,,,,,survey_race,98,,,Being my race is an important part of how I see myself.,important
14634,,,html-slider-response,448,3264226,0.0-24.0-1.0-0.12,45220,List2A,black,man,,,,,,,,survey_race,97,,,I often think about the fact that I am my race.,often
4040.1,,,html-slider-response,449,3268284,0.0-24.0-1.0-0.13,45220,List2A,black,man,,,,,,,,survey_race,88,,,I often think about the fact that I am my age.,filler
3928.3,,,html-slider-response,450,3272229,0.0-24.0-1.0-0.14,45220,List2A,black,man,,,,,,,,survey_race,67,,,People my age have a lot in common with each other.,filler
6364,,,html-slider-response,451,3278603,0.0-24.0-1.0-0.15,45220,List2A,black,man,,,,,,,,survey_race,44,,,I consider myself an introvert.,filler
3869.1,,,html-slider-response,452,3282487,0.0-24.0-1.0-0.16,45220,List2A,black,man,,,,,,,,survey_race,75,,,I am glad to be my age.,filler
3479,,,html-slider-response,453,3285976,0.0-24.0-1.0-0.17,45220,List2A,black,man,,,,,,,,survey_race,68,,,I have a lot in common with the average person of my race.,average
3473.7,,,html-slider-response,454,3289465,0.0-24.0-1.0-0.18,45220,List2A,black,man,,,,,,,,survey_race,77,,,People of my race are very similar to each other.,verysimilar
6901.3,,,html-slider-response,455,3296384,0.0-24.0-1.0-0.19,45220,List2A,black,man,,,,,,,,survey_race,54,,,Getting older does not worry me.,filler
6203,,,html-slider-response,456,3302602,0.0-24.0-1.0-0.20,45220,List2A,black,man,,,,,,,,survey_race,85,,,I think that my race has a lot to be proud of.,proud
3672.1,,,html-slider-response,457,3306289,0.0-24.0-1.0-0.21,45220,List2A,black,man,,,,,,,,survey_race,69,,,I am similar to the average person of my race.,similar
4751.4,,,html-slider-response,458,3311055,0.0-24.0-1.0-0.22,45220,List2A,black,man,,,,,,,,survey_race,73,,,I enjoy being in large groups.,filler
4576,,,html-slider-response,459,3315646,0.0-24.0-1.0-0.23,45220,List2A,black,man,,,,,,,,survey_race,81,,,I consider myself an extrovert.,filler
4786.1,,,html-slider-response,460,3320448,0.0-24.0-1.0-0.24,45220,List2A,black,man,,,,,,,,survey_race,68,,,I feel a bond with people the same age as me.,filler
3527.4,,,html-slider-response,461,3323992,0.0-24.0-1.0-0.25,45220,List2A,black,man,,,,,,,,survey_race,53,,,I feel a bond with my race.,bond
6923.8,,,html-slider-response,462,3330932,0.0-24.0-1.0-0.26,45220,List2A,black,man,,,,,,,,survey_race,4,,,My age is not an important part of who I am.,filler
6142.5,,,html-slider-response,463,3337092,0.0-24.0-1.0-0.27,45220,List2A,black,man,,,,,,,,survey_race,92,,,I am glad to be my race.,glad
10587.2,,,survey-text,464,3347702,0.0-25.0,45220,List2A,black,man,,,,,"{""Q0"":""ccc""}",,,worker_id,,,,,
14310.2,,,external-html,465,3364761,0.0-26.0,45220,List2A,black,man,debrief.html,,,,,,,,,,,,
