"rt","stimulus","button_pressed","trial_type","trial_index","time_elapsed","internal_node_id","subject","list","ppt_race","ppt_gender","url","first_guess","correct","key_press","responses","image_type","phrase_type","test_part","response","stimulus1","stimulus2","question_type","survey_item"
"12264.60000038147","Welcome to the experiment. Press Continue to begin.","0","html-button-response","0","12266","0.0-0.0","45488","List1B","black","woman","","","","","","","","","","","","",""
"99513.5","","","external-html","1","113062","0.0-1.0","45488","List1B","black","woman","consent.html","","","","","","","","","","","",""
"26790.400000095367","<p>On the next page, you will see portraits of 8 people and their names.</p><p>Your first task is to take a few minutes to memorise the names of these people.</p><p>You will have to recall their names during the rest of the experiment, so it is</p><p>essential that you try to memorise these people and their names as best as you can.</p><br><p><strong>You will then be tested on your memory of these names and portraits.</strong></p><br><p>The experiment will start after you have completed this memory test.</p><br><p>Ready?</p>","0","html-button-response","2","139854","0.0-2.0","45488","List1B","black","woman","","","","","","","","","","","","",""
"131826.5","<img src='img/portrait_matrix_list1.jpg' style='width:900px;height:500px;''></img><p>If you have memorised all the portraits and names and are ready to start, press Continue.</p><p><strong>Please note: Your memory of these faces will be tested 4 times during this experiment.</strong></p>","0","html-button-response","3","272682","0.0-3.0-0.0","45488","List1B","black","woman","","","","","","","","","","","","",""
"8540.900000095367","<img src=""portrait/BM2.jpg""style=""height:400px;""></img>","5","html-button-response","4","282225","0.0-3.0-1.0","45488","List1B","black","woman","","true","5","","","","","","","","","",""
"null","CORRECT","","html-keyboard-response","5","283734","0.0-3.0-2.0-0.0","45488","List1B","black","woman","","","","null","","","","","","","","",""
"3149.5","<img src=""portrait/BM1.jpg""style=""height:400px;""></img>","7","html-button-response","6","286885","0.0-3.0-4.0","45488","List1B","black","woman","","true","4","","","","","","","","","",""
"8965.800000190735","<img src=""portrait/BM1.jpg""style=""height:400px;""></img>","4","html-button-response","7","296852","0.0-3.0-6.0-0.0","45488","List1B","black","woman","","false","4","","","","","","","","","",""
"null","CORRECT","","html-keyboard-response","8","298366","0.0-3.0-6.0-1.0-0.0","45488","List1B","black","woman","","","","null","","","","","","","","",""
"4483.599999904633","<img src=""portrait/BW2.jpg""style=""height:400px;""></img>","2","html-button-response","9","302850","0.0-3.0-7.0","45488","List1B","black","woman","","true","2","","","","","","","","","",""
"null","CORRECT","","html-keyboard-response","10","304373","0.0-3.0-8.0-0.0","45488","List1B","black","woman","","","","null","","","","","","","","",""
"6006.10000038147","<img src=""portrait/WM1.jpg""style=""height:400px;""></img>","6","html-button-response","11","310380","0.0-3.0-10.0","45488","List1B","black","woman","","true","6","","","","","","","","","",""
"null","CORRECT","","html-keyboard-response","12","311886","0.0-3.0-11.0-0.0","45488","List1B","black","woman","","","","null","","","","","","","","",""
"5427.299999713898","<img src=""portrait/BW1.jpg""style=""height:400px;""></img>","0","html-button-response","13","317314","0.0-3.0-13.0","45488","List1B","black","woman","","true","0","","","","","","","","","",""
"null","CORRECT","","html-keyboard-response","14","318829","0.0-3.0-14.0-0.0","45488","List1B","black","woman","","","","null","","","","","","","","",""
"5323.60000038147","<img src=""portrait/WW1.jpg""style=""height:400px;""></img>","1","html-button-response","15","324154","0.0-3.0-16.0","45488","List1B","black","woman","","true","1","","","","","","","","","",""
"null","CORRECT","","html-keyboard-response","16","325655","0.0-3.0-17.0-0.0","45488","List1B","black","woman","","","","null","","","","","","","","",""
"2132.0999999046326","<img src=""portrait/WM2.jpg""style=""height:400px;""></img>","7","html-button-response","17","327788","0.0-3.0-19.0","45488","List1B","black","woman","","true","7","","","","","","","","","",""
"null","CORRECT","","html-keyboard-response","18","329293","0.0-3.0-20.0-0.0","45488","List1B","black","woman","","","","null","","","","","","","","",""
"25542","<img src=""portrait/WW2.jpg""style=""height:400px;""></img>","3","html-button-response","19","354836","0.0-3.0-22.0","45488","List1B","black","woman","","true","3","","","","","","","","","",""
"null","CORRECT","","html-keyboard-response","20","356341","0.0-3.0-23.0-0.0","45488","List1B","black","woman","","","","null","","","","","","","","",""
"2309.4000000953674","<p>You got 7 out of 8 right first time. Press Continue.</p>","0","html-button-response","21","358651","0.0-3.0-25.0","45488","List1B","black","woman","","","","","","","","","","","","",""
"3247.4000000953674","As you did not score 100%, the memory game will repeat. Press Continue.","0","html-button-response","22","362901","0.0-3.0-26.0-0.0","45488","List1B","black","woman","","","","","","","","","","","","",""
"11046.099999904633","<img src='img/portrait_matrix_list1.jpg' style='width:900px;height:500px;''></img><p>If you have memorised all the portraits and names and are ready to start, press Continue.</p><p><strong>Please note: Your memory of these faces will be tested 4 times during this experiment.</strong></p>","0","html-button-response","23","374957","0.0-3.1-0.1","45488","List1B","black","woman","","","","","","","","","","","","",""
"5853","<img src=""portrait/BM2.jpg""style=""height:400px;""></img>","5","html-button-response","24","381811","0.0-3.1-1.1","45488","List1B","black","woman","","true","5","","","","","","","","","",""
"null","CORRECT","","html-keyboard-response","25","383317","0.0-3.1-2.1-0.1","45488","List1B","black","woman","","","","null","","","","","","","","",""
"3271.0999999046326","<img src=""portrait/BM1.jpg""style=""height:400px;""></img>","4","html-button-response","26","386589","0.0-3.1-4.1","45488","List1B","black","woman","","true","4","","","","","","","","","",""
"null","CORRECT","","html-keyboard-response","27","388103","0.0-3.1-5.1-0.1","45488","List1B","black","woman","","","","null","","","","","","","","",""
"7053.300000190735","<img src=""portrait/BW2.jpg""style=""height:400px;""></img>","2","html-button-response","28","395157","0.0-3.1-7.1","45488","List1B","black","woman","","true","2","","","","","","","","","",""
"null","CORRECT","","html-keyboard-response","29","396668","0.0-3.1-8.1-0.1","45488","List1B","black","woman","","","","null","","","","","","","","",""
"2711.800000190735","<img src=""portrait/WM1.jpg""style=""height:400px;""></img>","6","html-button-response","30","399381","0.0-3.1-10.1","45488","List1B","black","woman","","true","6","","","","","","","","","",""
"null","CORRECT","","html-keyboard-response","31","400888","0.0-3.1-11.1-0.1","45488","List1B","black","woman","","","","null","","","","","","","","",""
"3381.5999999046326","<img src=""portrait/BW1.jpg""style=""height:400px;""></img>","0","html-button-response","32","404271","0.0-3.1-13.1","45488","List1B","black","woman","","true","0","","","","","","","","","",""
"null","CORRECT","","html-keyboard-response","33","405772","0.0-3.1-14.1-0.1","45488","List1B","black","woman","","","","null","","","","","","","","",""
"8818","<img src=""portrait/WW1.jpg""style=""height:400px;""></img>","1","html-button-response","34","414591","0.0-3.1-16.1","45488","List1B","black","woman","","true","1","","","","","","","","","",""
"null","CORRECT","","html-keyboard-response","35","416092","0.0-3.1-17.1-0.1","45488","List1B","black","woman","","","","null","","","","","","","","",""
"3147.2999997138977","<img src=""portrait/WM2.jpg""style=""height:400px;""></img>","7","html-button-response","36","419241","0.0-3.1-19.1","45488","List1B","black","woman","","true","7","","","","","","","","","",""
"null","CORRECT","","html-keyboard-response","37","420743","0.0-3.1-20.1-0.1","45488","List1B","black","woman","","","","null","","","","","","","","",""
"4764.599999904633","<img src=""portrait/WW2.jpg""style=""height:400px;""></img>","3","html-button-response","38","425509","0.0-3.1-22.1","45488","List1B","black","woman","","true","3","","","","","","","","","",""
"null","CORRECT","","html-keyboard-response","39","427029","0.0-3.1-23.1-0.1","45488","List1B","black","woman","","","","null","","","","","","","","",""
"2162.9000000953674","<p>You got 8 out of 8 right first time. Press Continue.</p>","0","html-button-response","40","429193","0.0-3.1-25.1","45488","List1B","black","woman","","","","","","","","","","","","",""
"38712.09999990463","<p>In this experiment, you will view photographs of the people from the memory game interacting.</p><p>By using the <strong>exact</strong> phrase given <i>after</i> the photograph appears and recalling the correct names of the people in the photographs, form a sentence describing the interaction. You do not need to capitalise names.</p><p>Type your answer in the space provided. Please complete every sentence before moving onto the next trial.</p><p>You will only have a few seconds to memorise each given photograph and phrase before you can respond, so try your best to focus.</p><p>An example is given below. Press 'Continue' when you are ready.</p><img src='img/speaking_example.jpg' style='width:800px;height:460px;''></img>","0","html-button-response","41","468906","0.0-4.0","45488","List1B","black","woman","","","","","","","","","","","","",""
"5582","<p>Before the experiment starts, you will watch two example trials. Press 'Continue'.</p>","0","html-button-response","42","475490","0.0-5.0","45488","List1B","black","woman","","","","","","","","","","","","",""
"null","<img src='img/play_eg.gif' style='height:400px;''></img>","","html-keyboard-response","43","478502","0.0-6.0","45488","List1B","black","woman","","","","null","","","","","","","","",""
"null","<p>is playing with</p>","","html-keyboard-response","44","480514","0.0-7.0","45488","List1B","black","woman","","","","null","","","","","","","","",""
"4298.800000190735","<p><b>Answer:</b> kate is playing with beth</p>","0","html-button-response","45","484813","0.0-8.0","45488","List1B","black","woman","","","","","","","","","","","","",""
"null","<img src='img/dance_eg.gif' style='height:400px;''></img>","","html-keyboard-response","46","487816","0.0-9.0","45488","List1B","black","woman","","","","null","","","","","","","","",""
"null","<p>is being entertained by</p>","","html-keyboard-response","47","489820","0.0-10.0","45488","List1B","black","woman","","","","null","","","","","","","","",""
"4638.700000286102","<p><b>Answer:</b> luke is being entertained by dave</p>","0","html-button-response","48","494459","0.0-11.0","45488","List1B","black","woman","","","","","","","","","","","","",""
"12255.5","<p>Ready to start the experiment?</p><br><p><strong>Remember to describe the picture using a full sentence,</strong></p><p><strong>that combines the names of the people with the <i>exact</i> phrase given.</strong></p><p><strong>To receive full payment you must do this correctly.</strong></p><p><strong> You do not need to capitalise names or use punctuation.</strong></p><br><p>Press 'Continue' to begin.</p>","0","html-button-response","49","507716","0.0-12.0","45488","List1B","black","woman","","","","","","","","","","","","",""
"null","<div style=""font-size:60px;"">+</div>","","html-keyboard-response","50","509243","0.0-13.0-0.0","45488","List1B","black","woman","","","","null","","","","","","","","",""
"null","<img src=""stim_listB/oppose2.gif""style=""height:400px;""></stim_listB>","","html-keyboard-response","51","511245","0.0-13.0-1.0","45488","List1B","black","woman","","","","null","","","","","","","","",""
"null","is being opposed by","","html-keyboard-response","52","513261","0.0-13.0-2.0","45488","List1B","black","woman","","","","null","","","","","","","","",""
"12483","","","survey-text","53","525746","0.0-13.0-3.0","45488","List1B","black","woman","","","","","{""Q0"":""fred is being opposed by beth""}","<img src=""stim_listB/oppose2.gif""style=""height:400px;""></stim_listB>","is being opposed by","","","","","",""
"null","<div style=""font-size:60px;"">+</div>","","html-keyboard-response","54","526247","0.0-13.0-0.1","45488","List1B","black","woman","","","","null","","","","","","","","",""
"null","<img src=""stim_listB/copy5.gif""style=""height:400px;""></stim_listB>","","html-keyboard-response","55","528250","0.0-13.0-1.1","45488","List1B","black","woman","","","","null","","","","","","","","",""
"null","is copying","","html-keyboard-response","56","530251","0.0-13.0-2.1","45488","List1B","black","woman","","","","null","","","","","","","","",""
"6690.699999809265","","","survey-text","57","536943","0.0-13.0-3.1","45488","List1B","black","woman","","","","","{""Q0"":""mike is copying luke""}","<img src=""stim_listB/copy5.gif""style=""height:400px;""></stim_listB>","is copying","","","","","",""
"null","<div style=""font-size:60px;"">+</div>","","html-keyboard-response","58","537444","0.0-13.0-0.2","45488","List1B","black","woman","","","","null","","","","","","","","",""
"null","<img src=""stim_listB/look2.gif""style=""height:400px;""></stim_listB>","","html-keyboard-response","59","539446","0.0-13.0-1.2","45488","List1B","black","woman","","","","null","","","","","","","","",""
"null","is being looked at by","","html-keyboard-response","60","541447","0.0-13.0-2.2","45488","List1B","black","woman","","","","null","","","","","","","","",""
"14291.5","","","survey-text","61","555741","0.0-13.0-3.2","45488","List1B","black","woman","","","","","{""Q0"":""missed phrase""}","<img src=""stim_listB/look2.gif""style=""height:400px;""></stim_listB>","is being looked at by","","","","","",""
"null","<div style=""font-size:60px;"">+</div>","","html-keyboard-response","62","556257","0.0-13.0-0.3","45488","List1B","black","woman","","","","null","","","","","","","","",""
"null","<img src=""stim_listB/hug7.gif""style=""height:400px;""></stim_listB>","","html-keyboard-response","63","558264","0.0-13.0-1.3","45488","List1B","black","woman","","","","null","","","","","","","","",""
"null","is hugging","","html-keyboard-response","64","560274","0.0-13.0-2.3","45488","List1B","black","woman","","","","null","","","","","","","","",""
"7141.699999809265","","","survey-text","65","567417","0.0-13.0-3.3","45488","List1B","black","woman","","","","","{""Q0"":""missed phrase""}","<img src=""stim_listB/hug7.gif""style=""height:400px;""></stim_listB>","is hugging","","","","","",""
"null","<div style=""font-size:60px;"">+</div>","","html-keyboard-response","66","567928","0.0-13.0-0.4","45488","List1B","black","woman","","","","null","","","","","","","","",""
"null","<img src=""stim_listB/copy7.gif""style=""height:400px;""></stim_listB>","","html-keyboard-response","67","569933","0.0-13.0-1.4","45488","List1B","black","woman","","","","null","","","","","","","","",""
"null","is copying","","html-keyboard-response","68","571948","0.0-13.0-2.4","45488","List1B","black","woman","","","","null","","","","","","","","",""
"10821.300000190735","","","survey-text","69","582771","0.0-13.0-3.4","45488","List1B","black","woman","","","","","{""Q0"":""ruth is copying kate""}","<img src=""stim_listB/copy7.gif""style=""height:400px;""></stim_listB>","is copying","","","","","",""
"null","<div style=""font-size:60px;"">+</div>","","html-keyboard-response","70","583285","0.0-13.0-0.5","45488","List1B","black","woman","","","","null","","","","","","","","",""
"null","<img src=""stim_listB/look5.gif""style=""height:400px;""></stim_listB>","","html-keyboard-response","71","585294","0.0-13.0-1.5","45488","List1B","black","woman","","","","null","","","","","","","","",""
"null","is looking at","","html-keyboard-response","72","587296","0.0-13.0-2.5","45488","List1B","black","woman","","","","null","","","","","","","","",""
"6491.800000190735","","","survey-text","73","593790","0.0-13.0-3.5","45488","List1B","black","woman","","","","","{""Q0"":""fred is looking at luke""}","<img src=""stim_listB/look5.gif""style=""height:400px;""></stim_listB>","is looking at","","","","","",""
"null","<div style=""font-size:60px;"">+</div>","","html-keyboard-response","74","594296","0.0-13.0-0.6","45488","List1B","black","woman","","","","null","","","","","","","","",""
"null","<img src=""stim_listB/shout4.gif""style=""height:400px;""></stim_listB>","","html-keyboard-response","75","596298","0.0-13.0-1.6","45488","List1B","black","woman","","","","null","","","","","","","","",""
"null","is being shouted at by","","html-keyboard-response","76","598314","0.0-13.0-2.6","45488","List1B","black","woman","","","","null","","","","","","","","",""
"19057.799999713898","","","survey-text","77","617374","0.0-13.0-3.6","45488","List1B","black","woman","","","","","{""Q0"":""jane is being shouted at by dave""}","<img src=""stim_listB/shout4.gif""style=""height:400px;""></stim_listB>","is being shouted at by","","","","","",""
"null","<div style=""font-size:60px;"">+</div>","","html-keyboard-response","78","617882","0.0-13.0-0.7","45488","List1B","black","woman","","","","null","","","","","","","","",""
"null","<img src=""stim_listB/kiss2.gif""style=""height:400px;""></stim_listB>","","html-keyboard-response","79","619883","0.0-13.0-1.7","45488","List1B","black","woman","","","","null","","","","","","","","",""
"null","is being kissed by","","html-keyboard-response","80","621892","0.0-13.0-2.7","45488","List1B","black","woman","","","","null","","","","","","","","",""
"7431.900000095367","","","survey-text","81","629326","0.0-13.0-3.7","45488","List1B","black","woman","","","","","{""Q0"":""mike is being kissed by kate""}","<img src=""stim_listB/kiss2.gif""style=""height:400px;""></stim_listB>","is being kissed by","","","","","",""
"null","<div style=""font-size:60px;"">+</div>","","html-keyboard-response","82","629836","0.0-13.0-0.8","45488","List1B","black","woman","","","","null","","","","","","","","",""
"null","<img src=""stim_listB/challenge7.gif""style=""height:400px;""></stim_listB>","","html-keyboard-response","83","631838","0.0-13.0-1.8","45488","List1B","black","woman","","","","null","","","","","","","","",""
"null","is challenging","","html-keyboard-response","84","633839","0.0-13.0-2.8","45488","List1B","black","woman","","","","null","","","","","","","","",""
"10260.700000286102","","","survey-text","85","644102","0.0-13.0-3.8","45488","List1B","black","woman","","","","","{""Q0"":""kate is challenging ruth""}","<img src=""stim_listB/challenge7.gif""style=""height:400px;""></stim_listB>","is challenging","","","","","",""
"null","<div style=""font-size:60px;"">+</div>","","html-keyboard-response","86","644605","0.0-13.0-0.9","45488","List1B","black","woman","","","","null","","","","","","","","",""
"null","<img src=""stim_listB/hug2.gif""style=""height:400px;""></stim_listB>","","html-keyboard-response","87","646608","0.0-13.0-1.9","45488","List1B","black","woman","","","","null","","","","","","","","",""
"null","is being hugged by","","html-keyboard-response","88","648617","0.0-13.0-2.9","45488","List1B","black","woman","","","","null","","","","","","","","",""
"6634.300000190735","","","survey-text","89","655253","0.0-13.0-3.9","45488","List1B","black","woman","","","","","{""Q0"":""mike is being hugged by kate""}","<img src=""stim_listB/hug2.gif""style=""height:400px;""></stim_listB>","is being hugged by","","","","","",""
"null","<div style=""font-size:60px;"">+</div>","","html-keyboard-response","90","655760","0.0-13.0-0.10","45488","List1B","black","woman","","","","null","","","","","","","","",""
"null","<img src=""stim_listB/kiss1.gif""style=""height:400px;""></stim_listB>","","html-keyboard-response","91","657768","0.0-13.0-1.10","45488","List1B","black","woman","","","","null","","","","","","","","",""
"null","is kissing","","html-keyboard-response","92","659783","0.0-13.0-2.10","45488","List1B","black","woman","","","","null","","","","","","","","",""
"7597.099999904633","","","survey-text","93","667381","0.0-13.0-3.10","45488","List1B","black","woman","","","","","{""Q0"":""fred is kissing beth""}","<img src=""stim_listB/kiss1.gif""style=""height:400px;""></stim_listB>","is kissing","","","","","",""
"null","<div style=""font-size:60px;"">+</div>","","html-keyboard-response","94","667892","0.0-13.0-0.11","45488","List1B","black","woman","","","","null","","","","","","","","",""
"null","<img src=""stim_listB/copy6.gif""style=""height:400px;""></stim_listB>","","html-keyboard-response","95","669906","0.0-13.0-1.11","45488","List1B","black","woman","","","","null","","","","","","","","",""
"null","is being copied by","","html-keyboard-response","96","671913","0.0-13.0-2.11","45488","List1B","black","woman","","","","null","","","","","","","","",""
"6682.5","","","survey-text","97","678597","0.0-13.0-3.11","45488","List1B","black","woman","","","","","{""Q0"":""dave is being copied by fred""}","<img src=""stim_listB/copy6.gif""style=""height:400px;""></stim_listB>","is being copied by","","","","","",""
"null","<div style=""font-size:60px;"">+</div>","","html-keyboard-response","98","679101","0.0-13.0-0.12","45488","List1B","black","woman","","","","null","","","","","","","","",""
"null","<img src=""stim_listB/greet1.gif""style=""height:400px;""></stim_listB>","","html-keyboard-response","99","681108","0.0-13.0-1.12","45488","List1B","black","woman","","","","null","","","","","","","","",""
"null","is greeting","","html-keyboard-response","100","683113","0.0-13.0-2.12","45488","List1B","black","woman","","","","null","","","","","","","","",""
"8178.299999713898","","","survey-text","101","691293","0.0-13.0-3.12","45488","List1B","black","woman","","","","","{""Q0"":""mike is greeting beth""}","<img src=""stim_listB/greet1.gif""style=""height:400px;""></stim_listB>","is greeting","","","","","",""
"null","<div style=""font-size:60px;"">+</div>","","html-keyboard-response","102","691803","0.0-13.0-0.13","45488","List1B","black","woman","","","","null","","","","","","","","",""
"null","<img src=""stim_listB/hug8.gif""style=""height:400px;""></stim_listB>","","html-keyboard-response","103","693818","0.0-13.0-1.13","45488","List1B","black","woman","","","","null","","","","","","","","",""
"null","is being hugged by","","html-keyboard-response","104","695819","0.0-13.0-2.13","45488","List1B","black","woman","","","","null","","","","","","","","",""
"6640.60000038147","","","survey-text","105","702461","0.0-13.0-3.13","45488","List1B","black","woman","","","","","{""Q0"":""jane is being hugged by kate""}","<img src=""stim_listB/hug8.gif""style=""height:400px;""></stim_listB>","is being hugged by","","","","","",""
"null","<div style=""font-size:60px;"">+</div>","","html-keyboard-response","106","702966","0.0-13.0-0.14","45488","List1B","black","woman","","","","null","","","","","","","","",""
"null","<img src=""stim_listB/touch1.gif""style=""height:400px;""></stim_listB>","","html-keyboard-response","107","704968","0.0-13.0-1.14","45488","List1B","black","woman","","","","null","","","","","","","","",""
"null","is touching","","html-keyboard-response","108","706982","0.0-13.0-2.14","45488","List1B","black","woman","","","","null","","","","","","","","",""
"5109.5","","","survey-text","109","712093","0.0-13.0-3.14","45488","List1B","black","woman","","","","","{""Q0"":""mike is touching kate""}","<img src=""stim_listB/touch1.gif""style=""height:400px;""></stim_listB>","is touching","","","","","",""
"null","<div style=""font-size:60px;"">+</div>","","html-keyboard-response","110","712599","0.0-13.0-0.15","45488","List1B","black","woman","","","","null","","","","","","","","",""
"null","<img src=""stim_listB/look1.gif""style=""height:400px;""></stim_listB>","","html-keyboard-response","111","714601","0.0-13.0-1.15","45488","List1B","black","woman","","","","null","","","","","","","","",""
"null","is looking at","","html-keyboard-response","112","716602","0.0-13.0-2.15","45488","List1B","black","woman","","","","null","","","","","","","","",""
"6505.099999904633","","","survey-text","113","723109","0.0-13.0-3.15","45488","List1B","black","woman","","","","","{""Q0"":""fred is looking at beth""}","<img src=""stim_listB/look1.gif""style=""height:400px;""></stim_listB>","is looking at","","","","","",""
"null","<div style=""font-size:60px;"">+</div>","","html-keyboard-response","114","723624","0.0-13.0-0.16","45488","List1B","black","woman","","","","null","","","","","","","","",""
"null","<img src=""stim_listB/challenge4.gif""style=""height:400px;""></stim_listB>","","html-keyboard-response","115","725626","0.0-13.0-1.16","45488","List1B","black","woman","","","","null","","","","","","","","",""
"null","is being challenged by","","html-keyboard-response","116","727642","0.0-13.0-2.16","45488","List1B","black","woman","","","","null","","","","","","","","",""
"9473.099999904633","","","survey-text","117","737117","0.0-13.0-3.16","45488","List1B","black","woman","","","","","{""Q0"":""luke is being challenged by jane""}","<img src=""stim_listB/challenge4.gif""style=""height:400px;""></stim_listB>","is being challenged by","","","","","",""
"null","<div style=""font-size:60px;"">+</div>","","html-keyboard-response","118","737620","0.0-13.0-0.17","45488","List1B","black","woman","","","","null","","","","","","","","",""
"null","<img src=""stim_listB/look7.gif""style=""height:400px;""></stim_listB>","","html-keyboard-response","119","739620","0.0-13.0-1.17","45488","List1B","black","woman","","","","null","","","","","","","","",""
"null","is looking at","","html-keyboard-response","120","741622","0.0-13.0-2.17","45488","List1B","black","woman","","","","null","","","","","","","","",""
"6301.400000095367","","","survey-text","121","747925","0.0-13.0-3.17","45488","List1B","black","woman","","","","","{""Q0"":""beth is looking at ruth ""}","<img src=""stim_listB/look7.gif""style=""height:400px;""></stim_listB>","is looking at","","","","","",""
"null","<div style=""font-size:60px;"">+</div>","","html-keyboard-response","122","748428","0.0-13.0-0.18","45488","List1B","black","woman","","","","null","","","","","","","","",""
"null","<img src=""stim_listB/hug4.gif""style=""height:400px;""></stim_listB>","","html-keyboard-response","123","750443","0.0-13.0-1.18","45488","List1B","black","woman","","","","null","","","","","","","","",""
"null","is being hugged by","","html-keyboard-response","124","752446","0.0-13.0-2.18","45488","List1B","black","woman","","","","null","","","","","","","","",""
"6084.099999904633","","","survey-text","125","758532","0.0-13.0-3.18","45488","List1B","black","woman","","","","","{""Q0"":""jane is being hugged by dave""}","<img src=""stim_listB/hug4.gif""style=""height:400px;""></stim_listB>","is being hugged by","","","","","",""
"null","<div style=""font-size:60px;"">+</div>","","html-keyboard-response","126","759041","0.0-13.0-0.19","45488","List1B","black","woman","","","","null","","","","","","","","",""
"null","<img src=""stim_listB/touch4.gif""style=""height:400px;""></stim_listB>","","html-keyboard-response","127","761057","0.0-13.0-1.19","45488","List1B","black","woman","","","","null","","","","","","","","",""
"null","is being touched by","","html-keyboard-response","128","763061","0.0-13.0-2.19","45488","List1B","black","woman","","","","null","","","","","","","","",""
"9342","","","survey-text","129","772404","0.0-13.0-3.19","45488","List1B","black","woman","","","","","{""Q0"":""luke is being touched by ruth""}","<img src=""stim_listB/touch4.gif""style=""height:400px;""></stim_listB>","is being touched by","","","","","",""
"21767.60000038147","<img src='img/portrait_matrix_list1.jpg' style='width:900px;height:500px;''></img><p>If you have memorised all the portraits and names and are ready to start, press Continue.</p><p><strong>Please note: Your memory of these faces will be tested 4 times during this experiment.</strong></p>","0","html-button-response","130","794173","0.0-14.0-0.0","45488","List1B","black","woman","","","","","","","","","","","","",""
"8448.5","<img src=""portrait/BW1.jpg""style=""height:400px;""></img>","0","html-button-response","131","803622","0.0-14.0-1.0","45488","List1B","black","woman","","true","0","","","","","","","","","",""
"null","CORRECT","","html-keyboard-response","132","805131","0.0-14.0-2.0-0.0","45488","List1B","black","woman","","","","null","","","","","","","","",""
"1758.0999999046326","<img src=""portrait/BM1.jpg""style=""height:400px;""></img>","4","html-button-response","133","806890","0.0-14.0-4.0","45488","List1B","black","woman","","true","4","","","","","","","","","",""
"null","CORRECT","","html-keyboard-response","134","808393","0.0-14.0-5.0-0.0","45488","List1B","black","woman","","","","null","","","","","","","","",""
"1608.5999999046326","<img src=""portrait/WM2.jpg""style=""height:400px;""></img>","7","html-button-response","135","810003","0.0-14.0-7.0","45488","List1B","black","woman","","true","7","","","","","","","","","",""
"null","CORRECT","","html-keyboard-response","136","811505","0.0-14.0-8.0-0.0","45488","List1B","black","woman","","","","null","","","","","","","","",""
"2614.5999999046326","<img src=""portrait/BM2.jpg""style=""height:400px;""></img>","5","html-button-response","137","814120","0.0-14.0-10.0","45488","List1B","black","woman","","true","5","","","","","","","","","",""
"null","CORRECT","","html-keyboard-response","138","815623","0.0-14.0-11.0-0.0","45488","List1B","black","woman","","","","null","","","","","","","","",""
"6158.199999809265","<img src=""portrait/WW1.jpg""style=""height:400px;""></img>","1","html-button-response","139","821782","0.0-14.0-13.0","45488","List1B","black","woman","","true","1","","","","","","","","","",""
"null","CORRECT","","html-keyboard-response","140","823284","0.0-14.0-14.0-0.0","45488","List1B","black","woman","","","","null","","","","","","","","",""
"7236.900000095367","<img src=""portrait/BW2.jpg""style=""height:400px;""></img>","2","html-button-response","141","830522","0.0-14.0-16.0","45488","List1B","black","woman","","true","2","","","","","","","","","",""
"null","CORRECT","","html-keyboard-response","142","832030","0.0-14.0-17.0-0.0","45488","List1B","black","woman","","","","null","","","","","","","","",""
"1541.1000003814697","<img src=""portrait/WW2.jpg""style=""height:400px;""></img>","3","html-button-response","143","833572","0.0-14.0-19.0","45488","List1B","black","woman","","true","3","","","","","","","","","",""
"null","CORRECT","","html-keyboard-response","144","835074","0.0-14.0-20.0-0.0","45488","List1B","black","woman","","","","null","","","","","","","","",""
"2278.800000190735","<img src=""portrait/WM1.jpg""style=""height:400px;""></img>","6","html-button-response","145","837354","0.0-14.0-22.0","45488","List1B","black","woman","","true","6","","","","","","","","","",""
"null","CORRECT","","html-keyboard-response","146","838855","0.0-14.0-23.0-0.0","45488","List1B","black","woman","","","","null","","","","","","","","",""
"30915.599999904633","<p>You got 8 out of 8 right first time. Press Continue.</p>","0","html-button-response","147","869772","0.0-14.0-25.0","45488","List1B","black","woman","","","","","","","","","","","","",""
"null","<div style=""font-size:60px;"">+</div>","","html-keyboard-response","148","871274","0.0-15.0-0.0","45488","List1B","black","woman","","","","null","","","","","","","","",""
"null","<img src=""stim_listB/copy4.gif""style=""height:400px;""></stim_listB>","","html-keyboard-response","149","873286","0.0-15.0-1.0","45488","List1B","black","woman","","","","null","","","","","","","","",""
"null","is being copied by","","html-keyboard-response","150","875288","0.0-15.0-2.0","45488","List1B","black","woman","","","","null","","","","","","","","",""
"12889.099999904633","","","survey-text","151","888179","0.0-15.0-3.0","45488","List1B","black","woman","","","","","{""Q0"":""jane is being copied by luke""}","<img src=""stim_listB/copy4.gif""style=""height:400px;""></stim_listB>","is being copied by","","","","","",""
"null","<div style=""font-size:60px;"">+</div>","","html-keyboard-response","152","888694","0.0-15.0-0.1","45488","List1B","black","woman","","","","null","","","","","","","","",""
"null","<img src=""stim_listB/shout3.gif""style=""height:400px;""></stim_listB>","","html-keyboard-response","153","890699","0.0-15.0-1.1","45488","List1B","black","woman","","","","null","","","","","","","","",""
"null","is shouting at","","html-keyboard-response","154","892702","0.0-15.0-2.1","45488","List1B","black","woman","","","","null","","","","","","","","",""
"16539","","","survey-text","155","909243","0.0-15.0-3.1","45488","List1B","black","woman","","","","","{""Q0"":""ruth is opposing luke""}","<img src=""stim_listB/shout3.gif""style=""height:400px;""></stim_listB>","is shouting at","","","","","",""
"null","<div style=""font-size:60px;"">+</div>","","html-keyboard-response","156","909750","0.0-15.0-0.2","45488","List1B","black","woman","","","","null","","","","","","","","",""
"null","<img src=""stim_listB/greet5.gif""style=""height:400px;""></stim_listB>","","html-keyboard-response","157","911766","0.0-15.0-1.2","45488","List1B","black","woman","","","","null","","","","","","","","",""
"null","is greeting","","html-keyboard-response","158","913778","0.0-15.0-2.2","45488","List1B","black","woman","","","","null","","","","","","","","",""
"4247.299999713898","","","survey-text","159","918026","0.0-15.0-3.2","45488","List1B","black","woman","","","","","{""Q0"":""mike is greeting luke""}","<img src=""stim_listB/greet5.gif""style=""height:400px;""></stim_listB>","is greeting","","","","","",""
"null","<div style=""font-size:60px;"">+</div>","","html-keyboard-response","160","918531","0.0-15.0-0.3","45488","List1B","black","woman","","","","null","","","","","","","","",""
"null","<img src=""stim_listB/seduce3.gif""style=""height:400px;""></stim_listB>","","html-keyboard-response","161","920548","0.0-15.0-1.3","45488","List1B","black","woman","","","","null","","","","","","","","",""
"null","is seducing","","html-keyboard-response","162","922561","0.0-15.0-2.3","45488","List1B","black","woman","","","","null","","","","","","","","",""
"4207.700000286102","","","survey-text","163","926770","0.0-15.0-3.3","45488","List1B","black","woman","","","","","{""Q0"":""luke is seducing jane""}","<img src=""stim_listB/seduce3.gif""style=""height:400px;""></stim_listB>","is seducing","","","","","",""
"null","<div style=""font-size:60px;"">+</div>","","html-keyboard-response","164","927275","0.0-15.0-0.4","45488","List1B","black","woman","","","","null","","","","","","","","",""
"null","<img src=""stim_listB/oppose1.gif""style=""height:400px;""></stim_listB>","","html-keyboard-response","165","929276","0.0-15.0-1.4","45488","List1B","black","woman","","","","null","","","","","","","","",""
"null","is opposing","","html-keyboard-response","166","931279","0.0-15.0-2.4","45488","List1B","black","woman","","","","null","","","","","","","","",""
"5322","","","survey-text","167","936601","0.0-15.0-3.4","45488","List1B","black","woman","","","","","{""Q0"":""mike is opposing kate""}","<img src=""stim_listB/oppose1.gif""style=""height:400px;""></stim_listB>","is opposing","","","","","",""
"null","<div style=""font-size:60px;"">+</div>","","html-keyboard-response","168","937114","0.0-15.0-0.5","45488","List1B","black","woman","","","","null","","","","","","","","",""
"null","<img src=""stim_listB/touch7.gif""style=""height:400px;""></stim_listB>","","html-keyboard-response","169","939124","0.0-15.0-1.5","45488","List1B","black","woman","","","","null","","","","","","","","",""
"null","is touching","","html-keyboard-response","170","941126","0.0-15.0-2.5","45488","List1B","black","woman","","","","null","","","","","","","","",""
"2977.6000003814697","","","survey-text","171","944106","0.0-15.0-3.5","45488","List1B","black","woman","","","","","{""Q0"":""kate is touching jane""}","<img src=""stim_listB/touch7.gif""style=""height:400px;""></stim_listB>","is touching","","","","","",""
"null","<div style=""font-size:60px;"">+</div>","","html-keyboard-response","172","944619","0.0-15.0-0.6","45488","List1B","black","woman","","","","null","","","","","","","","",""
"null","<img src=""stim_listB/kiss5.gif""style=""height:400px;""></stim_listB>","","html-keyboard-response","173","946633","0.0-15.0-1.6","45488","List1B","black","woman","","","","null","","","","","","","","",""
"null","is kissing","","html-keyboard-response","174","948638","0.0-15.0-2.6","45488","List1B","black","woman","","","","null","","","","","","","","",""
"4730","","","survey-text","175","953369","0.0-15.0-3.6","45488","List1B","black","woman","","","","","{""Q0"":""fred is kissing luke""}","<img src=""stim_listB/kiss5.gif""style=""height:400px;""></stim_listB>","is kissing","","","","","",""
"null","<div style=""font-size:60px;"">+</div>","","html-keyboard-response","176","953874","0.0-15.0-0.7","45488","List1B","black","woman","","","","null","","","","","","","","",""
"null","<img src=""stim_listB/look3.gif""style=""height:400px;""></stim_listB>","","html-keyboard-response","177","955886","0.0-15.0-1.7","45488","List1B","black","woman","","","","null","","","","","","","","",""
"null","is looking at","","html-keyboard-response","178","957887","0.0-15.0-2.7","45488","List1B","black","woman","","","","null","","","","","","","","",""
"5144.5","","","survey-text","179","963033","0.0-15.0-3.7","45488","List1B","black","woman","","","","","{""Q0"":""luke is looking at ruth ""}","<img src=""stim_listB/look3.gif""style=""height:400px;""></stim_listB>","is looking at","","","","","",""
"null","<div style=""font-size:60px;"">+</div>","","html-keyboard-response","180","963542","0.0-15.0-0.8","45488","List1B","black","woman","","","","null","","","","","","","","",""
"null","<img src=""stim_listB/seduce4.gif""style=""height:400px;""></stim_listB>","","html-keyboard-response","181","965543","0.0-15.0-1.8","45488","List1B","black","woman","","","","null","","","","","","","","",""
"null","is being seduced by","","html-keyboard-response","182","967559","0.0-15.0-2.8","45488","List1B","black","woman","","","","null","","","","","","","","",""
"7384.60000038147","","","survey-text","183","974945","0.0-15.0-3.8","45488","List1B","black","woman","","","","","{""Q0"":""ruth is being seduced by dave""}","<img src=""stim_listB/seduce4.gif""style=""height:400px;""></stim_listB>","is being seduced by","","","","","",""
"null","<div style=""font-size:60px;"">+</div>","","html-keyboard-response","184","975456","0.0-15.0-0.9","45488","List1B","black","woman","","","","null","","","","","","","","",""
"null","<img src=""stim_listB/kiss3.gif""style=""height:400px;""></stim_listB>","","html-keyboard-response","185","977461","0.0-15.0-1.9","45488","List1B","black","woman","","","","null","","","","","","","","",""
"null","is kissing","","html-keyboard-response","186","979463","0.0-15.0-2.9","45488","List1B","black","woman","","","","null","","","","","","","","",""
"3304.699999809265","","","survey-text","187","982769","0.0-15.0-3.9","45488","List1B","black","woman","","","","","{""Q0"":""ruth is kissing luke""}","<img src=""stim_listB/kiss3.gif""style=""height:400px;""></stim_listB>","is kissing","","","","","",""
"null","<div style=""font-size:60px;"">+</div>","","html-keyboard-response","188","983273","0.0-15.0-0.10","45488","List1B","black","woman","","","","null","","","","","","","","",""
"null","<img src=""stim_listB/shout5.gif""style=""height:400px;""></stim_listB>","","html-keyboard-response","189","985274","0.0-15.0-1.10","45488","List1B","black","woman","","","","null","","","","","","","","",""
"null","is shouting at","","html-keyboard-response","190","987281","0.0-15.0-2.10","45488","List1B","black","woman","","","","null","","","","","","","","",""
"4918.300000190735","","","survey-text","191","992201","0.0-15.0-3.10","45488","List1B","black","woman","","","","","{""Q0"":""luke is shouting at fred""}","<img src=""stim_listB/shout5.gif""style=""height:400px;""></stim_listB>","is shouting at","","","","","",""
"null","<div style=""font-size:60px;"">+</div>","","html-keyboard-response","192","992714","0.0-15.0-0.11","45488","List1B","black","woman","","","","null","","","","","","","","",""
"null","<img src=""stim_listB/copy3.gif""style=""height:400px;""></stim_listB>","","html-keyboard-response","193","994716","0.0-15.0-1.11","45488","List1B","black","woman","","","","null","","","","","","","","",""
"null","is copying","","html-keyboard-response","194","996724","0.0-15.0-2.11","45488","List1B","black","woman","","","","null","","","","","","","","",""
"4259.599999904633","","","survey-text","195","1000985","0.0-15.0-3.11","45488","List1B","black","woman","","","","","{""Q0"":""ruth is copying dave""}","<img src=""stim_listB/copy3.gif""style=""height:400px;""></stim_listB>","is copying","","","","","",""
"null","<div style=""font-size:60px;"">+</div>","","html-keyboard-response","196","1001500","0.0-15.0-0.12","45488","List1B","black","woman","","","","null","","","","","","","","",""
"null","<img src=""stim_listB/kiss8.gif""style=""height:400px;""></stim_listB>","","html-keyboard-response","197","1003512","0.0-15.0-1.12","45488","List1B","black","woman","","","","null","","","","","","","","",""
"null","is being kissed by","","html-keyboard-response","198","1005521","0.0-15.0-2.12","45488","List1B","black","woman","","","","null","","","","","","","","",""
"5622.10000038147","","","survey-text","199","1011145","0.0-15.0-3.12","45488","List1B","black","woman","","","","","{""Q0"":""kate is being kissed by jane""}","<img src=""stim_listB/kiss8.gif""style=""height:400px;""></stim_listB>","is being kissed by","","","","","",""
"null","<div style=""font-size:60px;"">+</div>","","html-keyboard-response","200","1011660","0.0-15.0-0.13","45488","List1B","black","woman","","","","null","","","","","","","","",""
"null","<img src=""stim_listB/hug6.gif""style=""height:400px;""></stim_listB>","","html-keyboard-response","201","1013662","0.0-15.0-1.13","45488","List1B","black","woman","","","","null","","","","","","","","",""
"null","is being hugged by","","html-keyboard-response","202","1015669","0.0-15.0-2.13","45488","List1B","black","woman","","","","null","","","","","","","","",""
"8082.700000286102","","","survey-text","203","1023753","0.0-15.0-3.13","45488","List1B","black","woman","","","","","{""Q0"":""dave is being hugged by mike""}","<img src=""stim_listB/hug6.gif""style=""height:400px;""></stim_listB>","is being hugged by","","","","","",""
"null","<div style=""font-size:60px;"">+</div>","","html-keyboard-response","204","1024262","0.0-15.0-0.14","45488","List1B","black","woman","","","","null","","","","","","","","",""
"null","<img src=""stim_listB/copy1.gif""style=""height:400px;""></stim_listB>","","html-keyboard-response","205","1026279","0.0-15.0-1.14","45488","List1B","black","woman","","","","null","","","","","","","","",""
"null","is copying","","html-keyboard-response","206","1028286","0.0-15.0-2.14","45488","List1B","black","woman","","","","null","","","","","","","","",""
"4720.799999713898","","","survey-text","207","1033009","0.0-15.0-3.14","45488","List1B","black","woman","","","","","{""Q0"":""beth is copying mike""}","<img src=""stim_listB/copy1.gif""style=""height:400px;""></stim_listB>","is copying","","","","","",""
"null","<div style=""font-size:60px;"">+</div>","","html-keyboard-response","208","1033524","0.0-15.0-0.15","45488","List1B","black","woman","","","","null","","","","","","","","",""
"null","<img src=""stim_listB/seduce6.gif""style=""height:400px;""></stim_listB>","","html-keyboard-response","209","1035539","0.0-15.0-1.15","45488","List1B","black","woman","","","","null","","","","","","","","",""
"null","is being seduced by","","html-keyboard-response","210","1037541","0.0-15.0-2.15","45488","List1B","black","woman","","","","null","","","","","","","","",""
"5706","","","survey-text","211","1043249","0.0-15.0-3.15","45488","List1B","black","woman","","","","","{""Q0"":""luke is being seduced by mike""}","<img src=""stim_listB/seduce6.gif""style=""height:400px;""></stim_listB>","is being seduced by","","","","","",""
"null","<div style=""font-size:60px;"">+</div>","","html-keyboard-response","212","1043759","0.0-15.0-0.16","45488","List1B","black","woman","","","","null","","","","","","","","",""
"null","<img src=""stim_listB/look4.gif""style=""height:400px;""></stim_listB>","","html-keyboard-response","213","1045761","0.0-15.0-1.16","45488","List1B","black","woman","","","","null","","","","","","","","",""
"null","is being looked at by","","html-keyboard-response","214","1047776","0.0-15.0-2.16","45488","List1B","black","woman","","","","null","","","","","","","","",""
"8614.800000190735","","","survey-text","215","1056392","0.0-15.0-3.16","45488","List1B","black","woman","","","","","{""Q0"":""dave is being looked at by jane""}","<img src=""stim_listB/look4.gif""style=""height:400px;""></stim_listB>","is being looked at by","","","","","",""
"null","<div style=""font-size:60px;"">+</div>","","html-keyboard-response","216","1056907","0.0-15.0-0.17","45488","List1B","black","woman","","","","null","","","","","","","","",""
"null","<img src=""stim_listB/look6.gif""style=""height:400px;""></stim_listB>","","html-keyboard-response","217","1058916","0.0-15.0-1.17","45488","List1B","black","woman","","","","null","","","","","","","","",""
"null","is being looked at by","","html-keyboard-response","218","1060925","0.0-15.0-2.17","45488","List1B","black","woman","","","","null","","","","","","","","",""
"4905.60000038147","","","survey-text","219","1065832","0.0-15.0-3.17","45488","List1B","black","woman","","","","","{""Q0"":""mike is being looked at by dave""}","<img src=""stim_listB/look6.gif""style=""height:400px;""></stim_listB>","is being looked at by","","","","","",""
"null","<div style=""font-size:60px;"">+</div>","","html-keyboard-response","220","1066346","0.0-15.0-0.18","45488","List1B","black","woman","","","","null","","","","","","","","",""
"null","<img src=""stim_listB/copy8.gif""style=""height:400px;""></stim_listB>","","html-keyboard-response","221","1068359","0.0-15.0-1.18","45488","List1B","black","woman","","","","null","","","","","","","","",""
"null","is being copied by","","html-keyboard-response","222","1070375","0.0-15.0-2.18","45488","List1B","black","woman","","","","null","","","","","","","","",""
"10199.5","","","survey-text","223","1080576","0.0-15.0-3.18","45488","List1B","black","woman","","","","","{""Q0"":""beth is being copied by jane""}","<img src=""stim_listB/copy8.gif""style=""height:400px;""></stim_listB>","is being copied by","","","","","",""
"null","<div style=""font-size:60px;"">+</div>","","html-keyboard-response","224","1081092","0.0-15.0-0.19","45488","List1B","black","woman","","","","null","","","","","","","","",""
"null","<img src=""stim_listB/challenge5.gif""style=""height:400px;""></stim_listB>","","html-keyboard-response","225","1083093","0.0-15.0-1.19","45488","List1B","black","woman","","","","null","","","","","","","","",""
"null","is challenging","","html-keyboard-response","226","1085102","0.0-15.0-2.19","45488","List1B","black","woman","","","","null","","","","","","","","",""
"5512.300000190735","","","survey-text","227","1090616","0.0-15.0-3.19","45488","List1B","black","woman","","","","","{""Q0"":""mike is challenging luke""}","<img src=""stim_listB/challenge5.gif""style=""height:400px;""></stim_listB>","is challenging","","","","","",""
"82957","<img src='img/portrait_matrix_list1.jpg' style='width:900px;height:500px;''></img><p>If you have memorised all the portraits and names and are ready to start, press Continue.</p><p><strong>Please note: Your memory of these faces will be tested 4 times during this experiment.</strong></p>","0","html-button-response","228","1173574","0.0-16.0-0.0","45488","List1B","black","woman","","","","","","","","","","","","",""
"2948.699999809265","<img src=""portrait/WW2.jpg""style=""height:400px;""></img>","3","html-button-response","229","1177524","0.0-16.0-1.0","45488","List1B","black","woman","","true","3","","","","","","","","","",""
"null","CORRECT","","html-keyboard-response","230","1179027","0.0-16.0-2.0-0.0","45488","List1B","black","woman","","","","null","","","","","","","","",""
"1828.1999998092651","<img src=""portrait/BM1.jpg""style=""height:400px;""></img>","4","html-button-response","231","1180856","0.0-16.0-4.0","45488","List1B","black","woman","","true","4","","","","","","","","","",""
"null","CORRECT","","html-keyboard-response","232","1182359","0.0-16.0-5.0-0.0","45488","List1B","black","woman","","","","null","","","","","","","","",""
"2544.2000002861023","<img src=""portrait/BM2.jpg""style=""height:400px;""></img>","5","html-button-response","233","1184904","0.0-16.0-7.0","45488","List1B","black","woman","","true","5","","","","","","","","","",""
"null","CORRECT","","html-keyboard-response","234","1186407","0.0-16.0-8.0-0.0","45488","List1B","black","woman","","","","null","","","","","","","","",""
"2034","<img src=""portrait/WM1.jpg""style=""height:400px;""></img>","6","html-button-response","235","1188442","0.0-16.0-10.0","45488","List1B","black","woman","","true","6","","","","","","","","","",""
"null","CORRECT","","html-keyboard-response","236","1189950","0.0-16.0-11.0-0.0","45488","List1B","black","woman","","","","null","","","","","","","","",""
"3259.199999809265","<img src=""portrait/WM2.jpg""style=""height:400px;""></img>","7","html-button-response","237","1193210","0.0-16.0-13.0","45488","List1B","black","woman","","true","7","","","","","","","","","",""
"null","CORRECT","","html-keyboard-response","238","1194711","0.0-16.0-14.0-0.0","45488","List1B","black","woman","","","","null","","","","","","","","",""
"1573.3999996185303","<img src=""portrait/BW2.jpg""style=""height:400px;""></img>","2","html-button-response","239","1196286","0.0-16.0-16.0","45488","List1B","black","woman","","true","2","","","","","","","","","",""
"null","CORRECT","","html-keyboard-response","240","1197788","0.0-16.0-17.0-0.0","45488","List1B","black","woman","","","","null","","","","","","","","",""
"1482.9000000953674","<img src=""portrait/WW1.jpg""style=""height:400px;""></img>","1","html-button-response","241","1199272","0.0-16.0-19.0","45488","List1B","black","woman","","true","1","","","","","","","","","",""
"null","CORRECT","","html-keyboard-response","242","1200774","0.0-16.0-20.0-0.0","45488","List1B","black","woman","","","","null","","","","","","","","",""
"2053.199999809265","<img src=""portrait/BW1.jpg""style=""height:400px;""></img>","0","html-button-response","243","1202828","0.0-16.0-22.0","45488","List1B","black","woman","","true","0","","","","","","","","","",""
"null","CORRECT","","html-keyboard-response","244","1204329","0.0-16.0-23.0-0.0","45488","List1B","black","woman","","","","null","","","","","","","","",""
"1058.0999999046326","<p>You got 8 out of 8 right first time. Press Continue.</p>","0","html-button-response","245","1205388","0.0-16.0-25.0","45488","List1B","black","woman","","","","","","","","","","","","",""
"null","<div style=""font-size:60px;"">+</div>","","html-keyboard-response","246","1206894","0.0-17.0-0.0","45488","List1B","black","woman","","","","null","","","","","","","","",""
"null","<img src=""stim_listB/shout2.gif""style=""height:400px;""></stim_listB>","","html-keyboard-response","247","1208909","0.0-17.0-1.0","45488","List1B","black","woman","","","","null","","","","","","","","",""
"null","is being shouted at by","","html-keyboard-response","248","1210910","0.0-17.0-2.0","45488","List1B","black","woman","","","","null","","","","","","","","",""
"7599","","","survey-text","249","1218511","0.0-17.0-3.0","45488","List1B","black","woman","","","","","{""Q0"":""mike is being shouted at by kate""}","<img src=""stim_listB/shout2.gif""style=""height:400px;""></stim_listB>","is being shouted at by","","","","","",""
"null","<div style=""font-size:60px;"">+</div>","","html-keyboard-response","250","1219019","0.0-17.0-0.1","45488","List1B","black","woman","","","","null","","","","","","","","",""
"null","<img src=""stim_listB/greet3.gif""style=""height:400px;""></stim_listB>","","html-keyboard-response","251","1221035","0.0-17.0-1.1","45488","List1B","black","woman","","","","null","","","","","","","","",""
"null","is greeting","","html-keyboard-response","252","1223052","0.0-17.0-2.1","45488","List1B","black","woman","","","","null","","","","","","","","",""
"4729.5","","","survey-text","253","1227783","0.0-17.0-3.1","45488","List1B","black","woman","","","","","{""Q0"":""dave is greeting ruth""}","<img src=""stim_listB/greet3.gif""style=""height:400px;""></stim_listB>","is greeting","","","","","",""
"null","<div style=""font-size:60px;"">+</div>","","html-keyboard-response","254","1228288","0.0-17.0-0.2","45488","List1B","black","woman","","","","null","","","","","","","","",""
"null","<img src=""stim_listB/greet6.gif""style=""height:400px;""></stim_listB>","","html-keyboard-response","255","1230303","0.0-17.0-1.2","45488","List1B","black","woman","","","","null","","","","","","","","",""
"null","is being greeted by","","html-keyboard-response","256","1232310","0.0-17.0-2.2","45488","List1B","black","woman","","","","null","","","","","","","","",""
"8935.300000190735","","","survey-text","257","1241246","0.0-17.0-3.2","45488","List1B","black","woman","","","","","{""Q0"":""fred is being greeted by dave""}","<img src=""stim_listB/greet6.gif""style=""height:400px;""></stim_listB>","is being greeted by","","","","","",""
"null","<div style=""font-size:60px;"">+</div>","","html-keyboard-response","258","1241758","0.0-17.0-0.3","45488","List1B","black","woman","","","","null","","","","","","","","",""
"null","<img src=""stim_listB/touch5.gif""style=""height:400px;""></stim_listB>","","html-keyboard-response","259","1243759","0.0-17.0-1.3","45488","List1B","black","woman","","","","null","","","","","","","","",""
"null","is touching","","html-keyboard-response","260","1245765","0.0-17.0-2.3","45488","List1B","black","woman","","","","null","","","","","","","","",""
"38368.09999990463","","","survey-text","261","1284134","0.0-17.0-3.3","45488","List1B","black","woman","","","","","{""Q0"":""mike is touching dave""}","<img src=""stim_listB/touch5.gif""style=""height:400px;""></stim_listB>","is touching","","","","","",""
"null","<div style=""font-size:60px;"">+</div>","","html-keyboard-response","262","1284636","0.0-17.0-0.4","45488","List1B","black","woman","","","","null","","","","","","","","",""
"null","<img src=""stim_listB/shout1.gif""style=""height:400px;""></stim_listB>","","html-keyboard-response","263","1286652","0.0-17.0-1.4","45488","List1B","black","woman","","","","null","","","","","","","","",""
"null","is shouting at","","html-keyboard-response","264","1288665","0.0-17.0-2.4","45488","List1B","black","woman","","","","null","","","","","","","","",""
"4411.300000190735","","","survey-text","265","1293078","0.0-17.0-3.4","45488","List1B","black","woman","","","","","{""Q0"":""fred is shouting at beth""}","<img src=""stim_listB/shout1.gif""style=""height:400px;""></stim_listB>","is shouting at","","","","","",""
"null","<div style=""font-size:60px;"">+</div>","","html-keyboard-response","266","1293592","0.0-17.0-0.5","45488","List1B","black","woman","","","","null","","","","","","","","",""
"null","<img src=""stim_listB/greet4.gif""style=""height:400px;""></stim_listB>","","html-keyboard-response","267","1295600","0.0-17.0-1.5","45488","List1B","black","woman","","","","null","","","","","","","","",""
"null","is being greeted by","","html-keyboard-response","268","1297602","0.0-17.0-2.5","45488","List1B","black","woman","","","","null","","","","","","","","",""
"5002","","","survey-text","269","1302605","0.0-17.0-3.5","45488","List1B","black","woman","","","","","{""Q0"":""luke is being greeted by jane""}","<img src=""stim_listB/greet4.gif""style=""height:400px;""></stim_listB>","is being greeted by","","","","","",""
"null","<div style=""font-size:60px;"">+</div>","","html-keyboard-response","270","1303120","0.0-17.0-0.6","45488","List1B","black","woman","","","","null","","","","","","","","",""
"null","<img src=""stim_listB/touch8.gif""style=""height:400px;""></stim_listB>","","html-keyboard-response","271","1305128","0.0-17.0-1.6","45488","List1B","black","woman","","","","null","","","","","","","","",""
"null","is being touched by","","html-keyboard-response","272","1307134","0.0-17.0-2.6","45488","List1B","black","woman","","","","null","","","","","","","","",""
"6781.400000095367","","","survey-text","273","1313917","0.0-17.0-3.6","45488","List1B","black","woman","","","","","{""Q0"":""beth is being touched by ruth""}","<img src=""stim_listB/touch8.gif""style=""height:400px;""></stim_listB>","is being touched by","","","","","",""
"null","<div style=""font-size:60px;"">+</div>","","html-keyboard-response","274","1314428","0.0-17.0-0.7","45488","List1B","black","woman","","","","null","","","","","","","","",""
"null","<img src=""stim_listB/oppose8.gif""style=""height:400px;""></stim_listB>","","html-keyboard-response","275","1316445","0.0-17.0-1.7","45488","List1B","black","woman","","","","null","","","","","","","","",""
"null","is being opposed by","","html-keyboard-response","276","1318448","0.0-17.0-2.7","45488","List1B","black","woman","","","","null","","","","","","","","",""
"8027.400000095367","","","survey-text","277","1326477","0.0-17.0-3.7","45488","List1B","black","woman","","","","","{""Q0"":""ruth is being opposed by beth""}","<img src=""stim_listB/oppose8.gif""style=""height:400px;""></stim_listB>","is being opposed by","","","","","",""
"null","<div style=""font-size:60px;"">+</div>","","html-keyboard-response","278","1326978","0.0-17.0-0.8","45488","List1B","black","woman","","","","null","","","","","","","","",""
"null","<img src=""stim_listB/greet8.gif""style=""height:400px;""></stim_listB>","","html-keyboard-response","279","1328982","0.0-17.0-1.8","45488","List1B","black","woman","","","","null","","","","","","","","",""
"null","is being greeted by","","html-keyboard-response","280","1330993","0.0-17.0-2.8","45488","List1B","black","woman","","","","null","","","","","","","","",""
"5570.799999713898","","","survey-text","281","1336565","0.0-17.0-3.8","45488","List1B","black","woman","","","","","{""Q0"":""beth is being greeted by jane""}","<img src=""stim_listB/greet8.gif""style=""height:400px;""></stim_listB>","is being greeted by","","","","","",""
"null","<div style=""font-size:60px;"">+</div>","","html-keyboard-response","282","1337077","0.0-17.0-0.9","45488","List1B","black","woman","","","","null","","","","","","","","",""
"null","<img src=""stim_listB/touch2.gif""style=""height:400px;""></stim_listB>","","html-keyboard-response","283","1339080","0.0-17.0-1.9","45488","List1B","black","woman","","","","null","","","","","","","","",""
"null","is being touched by","","html-keyboard-response","284","1341088","0.0-17.0-2.9","45488","List1B","black","woman","","","","null","","","","","","","","",""
"4636.599999904633","","","survey-text","285","1345726","0.0-17.0-3.9","45488","List1B","black","woman","","","","","{""Q0"":""fred is being touched by beth""}","<img src=""stim_listB/touch2.gif""style=""height:400px;""></stim_listB>","is being touched by","","","","","",""
"null","<div style=""font-size:60px;"">+</div>","","html-keyboard-response","286","1346228","0.0-17.0-0.10","45488","List1B","black","woman","","","","null","","","","","","","","",""
"null","<img src=""stim_listB/challenge2.gif""style=""height:400px;""></stim_listB>","","html-keyboard-response","287","1348230","0.0-17.0-1.10","45488","List1B","black","woman","","","","null","","","","","","","","",""
"null","is being challenged by","","html-keyboard-response","288","1350237","0.0-17.0-2.10","45488","List1B","black","woman","","","","null","","","","","","","","",""
"28224.799999713898","","","survey-text","289","1378464","0.0-17.0-3.10","45488","List1B","black","woman","","","","","{""Q0"":""fred is being challenged by kate""}","<img src=""stim_listB/challenge2.gif""style=""height:400px;""></stim_listB>","is being challenged by","","","","","",""
"null","<div style=""font-size:60px;"">+</div>","","html-keyboard-response","290","1378974","0.0-17.0-0.11","45488","List1B","black","woman","","","","null","","","","","","","","",""
"null","<img src=""stim_listB/hug5.gif""style=""height:400px;""></stim_listB>","","html-keyboard-response","291","1380982","0.0-17.0-1.11","45488","List1B","black","woman","","","","null","","","","","","","","",""
"null","is hugging","","html-keyboard-response","292","1382993","0.0-17.0-2.11","45488","List1B","black","woman","","","","null","","","","","","","","",""
"6778.400000095367","","","survey-text","293","1389773","0.0-17.0-3.11","45488","List1B","black","woman","","","","","{""Q0"":""luke is hugging fred""}","<img src=""stim_listB/hug5.gif""style=""height:400px;""></stim_listB>","is hugging","","","","","",""
"null","<div style=""font-size:60px;"">+</div>","","html-keyboard-response","294","1390281","0.0-17.0-0.12","45488","List1B","black","woman","","","","null","","","","","","","","",""
"null","<img src=""stim_listB/seduce5.gif""style=""height:400px;""></stim_listB>","","html-keyboard-response","295","1392282","0.0-17.0-1.12","45488","List1B","black","woman","","","","null","","","","","","","","",""
"null","is seducing","","html-keyboard-response","296","1394287","0.0-17.0-2.12","45488","List1B","black","woman","","","","null","","","","","","","","",""
"5323.900000095367","","","survey-text","297","1399613","0.0-17.0-3.12","45488","List1B","black","woman","","","","","{""Q0"":""dave is seducing fred""}","<img src=""stim_listB/seduce5.gif""style=""height:400px;""></stim_listB>","is seducing","","","","","",""
"null","<div style=""font-size:60px;"">+</div>","","html-keyboard-response","298","1400116","0.0-17.0-0.13","45488","List1B","black","woman","","","","null","","","","","","","","",""
"null","<img src=""stim_listB/shout8.gif""style=""height:400px;""></stim_listB>","","html-keyboard-response","299","1402123","0.0-17.0-1.13","45488","List1B","black","woman","","","","null","","","","","","","","",""
"null","is being shouted at by","","html-keyboard-response","300","1404131","0.0-17.0-2.13","45488","List1B","black","woman","","","","null","","","","","","","","",""
"8303.700000286102","","","survey-text","301","1412436","0.0-17.0-3.13","45488","List1B","black","woman","","","","","{""Q0"":""jane is being shouted at by kate""}","<img src=""stim_listB/shout8.gif""style=""height:400px;""></stim_listB>","is being shouted at by","","","","","",""
"null","<div style=""font-size:60px;"">+</div>","","html-keyboard-response","302","1412943","0.0-17.0-0.14","45488","List1B","black","woman","","","","null","","","","","","","","",""
"null","<img src=""stim_listB/greet2.gif""style=""height:400px;""></stim_listB>","","html-keyboard-response","303","1414959","0.0-17.0-1.14","45488","List1B","black","woman","","","","null","","","","","","","","",""
"null","is being greeted by","","html-keyboard-response","304","1416971","0.0-17.0-2.14","45488","List1B","black","woman","","","","null","","","","","","","","",""
"6024.099999904633","","","survey-text","305","1422996","0.0-17.0-3.14","45488","List1B","black","woman","","","","","{""Q0"":""fred is being greeted by kate""}","<img src=""stim_listB/greet2.gif""style=""height:400px;""></stim_listB>","is being greeted by","","","","","",""
"null","<div style=""font-size:60px;"">+</div>","","html-keyboard-response","306","1423498","0.0-17.0-0.15","45488","List1B","black","woman","","","","null","","","","","","","","",""
"null","<img src=""stim_listB/kiss4.gif""style=""height:400px;""></stim_listB>","","html-keyboard-response","307","1425510","0.0-17.0-1.15","45488","List1B","black","woman","","","","null","","","","","","","","",""
"null","is being kissed by","","html-keyboard-response","308","1427519","0.0-17.0-2.15","45488","List1B","black","woman","","","","null","","","","","","","","",""
"6259.5","","","survey-text","309","1433780","0.0-17.0-3.15","45488","List1B","black","woman","","","","","{""Q0"":""jane is being kissed by dave""}","<img src=""stim_listB/kiss4.gif""style=""height:400px;""></stim_listB>","is being kissed by","","","","","",""
"null","<div style=""font-size:60px;"">+</div>","","html-keyboard-response","310","1434296","0.0-17.0-0.16","45488","List1B","black","woman","","","","null","","","","","","","","",""
"null","<img src=""stim_listB/challenge8.gif""style=""height:400px;""></stim_listB>","","html-keyboard-response","311","1436312","0.0-17.0-1.16","45488","List1B","black","woman","","","","null","","","","","","","","",""
"null","is being challenged by","","html-keyboard-response","312","1438318","0.0-17.0-2.16","45488","List1B","black","woman","","","","null","","","","","","","","",""
"7116.599999904633","","","survey-text","313","1445436","0.0-17.0-3.16","45488","List1B","black","woman","","","","","{""Q0"":""jane is being challenged by beth""}","<img src=""stim_listB/challenge8.gif""style=""height:400px;""></stim_listB>","is being challenged by","","","","","",""
"null","<div style=""font-size:60px;"">+</div>","","html-keyboard-response","314","1445947","0.0-17.0-0.17","45488","List1B","black","woman","","","","null","","","","","","","","",""
"null","<img src=""stim_listB/touch3.gif""style=""height:400px;""></stim_listB>","","html-keyboard-response","315","1447949","0.0-17.0-1.17","45488","List1B","black","woman","","","","null","","","","","","","","",""
"null","is touching","","html-keyboard-response","316","1449964","0.0-17.0-2.17","45488","List1B","black","woman","","","","null","","","","","","","","",""
"3350.9000000953674","","","survey-text","317","1453316","0.0-17.0-3.17","45488","List1B","black","woman","","","","","{""Q0"":""dave is touching jane""}","<img src=""stim_listB/touch3.gif""style=""height:400px;""></stim_listB>","is touching","","","","","",""
"null","<div style=""font-size:60px;"">+</div>","","html-keyboard-response","318","1453824","0.0-17.0-0.18","45488","List1B","black","woman","","","","null","","","","","","","","",""
"null","<img src=""stim_listB/copy2.gif""style=""height:400px;""></stim_listB>","","html-keyboard-response","319","1455826","0.0-17.0-1.18","45488","List1B","black","woman","","","","null","","","","","","","","",""
"null","is being copied by","","html-keyboard-response","320","1457837","0.0-17.0-2.18","45488","List1B","black","woman","","","","null","","","","","","","","",""
"7541.300000190735","","","survey-text","321","1465380","0.0-17.0-3.18","45488","List1B","black","woman","","","","","{""Q0"":""fred is being copied by kate""}","<img src=""stim_listB/copy2.gif""style=""height:400px;""></stim_listB>","is being copied by","","","","","",""
"null","<div style=""font-size:60px;"">+</div>","","html-keyboard-response","322","1465895","0.0-17.0-0.19","45488","List1B","black","woman","","","","null","","","","","","","","",""
"null","<img src=""stim_listB/kiss7.gif""style=""height:400px;""></stim_listB>","","html-keyboard-response","323","1467896","0.0-17.0-1.19","45488","List1B","black","woman","","","","null","","","","","","","","",""
"null","is kissing","","html-keyboard-response","324","1469906","0.0-17.0-2.19","45488","List1B","black","woman","","","","null","","","","","","","","",""
"3400.2999997138977","","","survey-text","325","1473307","0.0-17.0-3.19","45488","List1B","black","woman","","","","","{""Q0"":""beth is kissing ruth""}","<img src=""stim_listB/kiss7.gif""style=""height:400px;""></stim_listB>","is kissing","","","","","",""
"9805.5","<img src='img/portrait_matrix_list1.jpg' style='width:900px;height:500px;''></img><p>If you have memorised all the portraits and names and are ready to start, press Continue.</p><p><strong>Please note: Your memory of these faces will be tested 4 times during this experiment.</strong></p>","0","html-button-response","326","1483114","0.0-18.0-0.0","45488","List1B","black","woman","","","","","","","","","","","","",""
"1390.3999996185303","<img src=""portrait/WM2.jpg""style=""height:400px;""></img>","7","html-button-response","327","1485506","0.0-18.0-1.0","45488","List1B","black","woman","","true","7","","","","","","","","","",""
"null","CORRECT","","html-keyboard-response","328","1487020","0.0-18.0-2.0-0.0","45488","List1B","black","woman","","","","null","","","","","","","","",""
"1818.7000002861023","<img src=""portrait/WW2.jpg""style=""height:400px;""></img>","3","html-button-response","329","1488840","0.0-18.0-4.0","45488","List1B","black","woman","","true","3","","","","","","","","","",""
"null","CORRECT","","html-keyboard-response","330","1490342","0.0-18.0-5.0-0.0","45488","List1B","black","woman","","","","null","","","","","","","","",""
"1464.5","<img src=""portrait/WW1.jpg""style=""height:400px;""></img>","1","html-button-response","331","1491808","0.0-18.0-7.0","45488","List1B","black","woman","","true","1","","","","","","","","","",""
"null","CORRECT","","html-keyboard-response","332","1493315","0.0-18.0-8.0-0.0","45488","List1B","black","woman","","","","null","","","","","","","","",""
"1939.5","<img src=""portrait/BW1.jpg""style=""height:400px;""></img>","0","html-button-response","333","1495256","0.0-18.0-10.0","45488","List1B","black","woman","","true","0","","","","","","","","","",""
"null","CORRECT","","html-keyboard-response","334","1496757","0.0-18.0-11.0-0.0","45488","List1B","black","woman","","","","null","","","","","","","","",""
"2873.699999809265","<img src=""portrait/WM1.jpg""style=""height:400px;""></img>","6","html-button-response","335","1499632","0.0-18.0-13.0","45488","List1B","black","woman","","true","6","","","","","","","","","",""
"null","CORRECT","","html-keyboard-response","336","1501135","0.0-18.0-14.0-0.0","45488","List1B","black","woman","","","","null","","","","","","","","",""
"1504.6999998092651","<img src=""portrait/BW2.jpg""style=""height:400px;""></img>","2","html-button-response","337","1502640","0.0-18.0-16.0","45488","List1B","black","woman","","true","2","","","","","","","","","",""
"null","CORRECT","","html-keyboard-response","338","1504142","0.0-18.0-17.0-0.0","45488","List1B","black","woman","","","","null","","","","","","","","",""
"7686.900000095367","<img src=""portrait/BM2.jpg""style=""height:400px;""></img>","5","html-button-response","339","1511830","0.0-18.0-19.0","45488","List1B","black","woman","","true","5","","","","","","","","","",""
"null","CORRECT","","html-keyboard-response","340","1513347","0.0-18.0-20.0-0.0","45488","List1B","black","woman","","","","null","","","","","","","","",""
"1733.7000002861023","<img src=""portrait/BM1.jpg""style=""height:400px;""></img>","4","html-button-response","341","1515082","0.0-18.0-22.0","45488","List1B","black","woman","","true","4","","","","","","","","","",""
"null","CORRECT","","html-keyboard-response","342","1516584","0.0-18.0-23.0-0.0","45488","List1B","black","woman","","","","null","","","","","","","","",""
"657","<p>You got 8 out of 8 right first time. Press Continue.</p>","0","html-button-response","343","1517242","0.0-18.0-25.0","45488","List1B","black","woman","","","","","","","","","","","","",""
"null","<div style=""font-size:60px;"">+</div>","","html-keyboard-response","344","1518756","0.0-19.0-0.0","45488","List1B","black","woman","","","","null","","","","","","","","",""
"null","<img src=""stim_listB/hug1.gif""style=""height:400px;""></stim_listB>","","html-keyboard-response","345","1520766","0.0-19.0-1.0","45488","List1B","black","woman","","","","null","","","","","","","","",""
"null","is hugging","","html-keyboard-response","346","1522783","0.0-19.0-2.0","45488","List1B","black","woman","","","","null","","","","","","","","",""
"6290.5","","","survey-text","347","1529075","0.0-19.0-3.0","45488","List1B","black","woman","","","","","{""Q0"":""beth is hugging fred""}","<img src=""stim_listB/hug1.gif""style=""height:400px;""></stim_listB>","is hugging","","","","","",""
"null","<div style=""font-size:60px;"">+</div>","","html-keyboard-response","348","1529590","0.0-19.0-0.1","45488","List1B","black","woman","","","","null","","","","","","","","",""
"null","<img src=""stim_listB/oppose4.gif""style=""height:400px;""></stim_listB>","","html-keyboard-response","349","1531591","0.0-19.0-1.1","45488","List1B","black","woman","","","","null","","","","","","","","",""
"null","is being opposed by","","html-keyboard-response","350","1533608","0.0-19.0-2.1","45488","List1B","black","woman","","","","null","","","","","","","","",""
"5025.5","","","survey-text","351","1538635","0.0-19.0-3.1","45488","List1B","black","woman","","","","","{""Q0"":""luke is being opposed by ruth""}","<img src=""stim_listB/oppose4.gif""style=""height:400px;""></stim_listB>","is being opposed by","","","","","",""
"null","<div style=""font-size:60px;"">+</div>","","html-keyboard-response","352","1539142","0.0-19.0-0.2","45488","List1B","black","woman","","","","null","","","","","","","","",""
"null","<img src=""stim_listB/seduce8.gif""style=""height:400px;""></stim_listB>","","html-keyboard-response","353","1541154","0.0-19.0-1.2","45488","List1B","black","woman","","","","null","","","","","","","","",""
"null","is being seduced by","","html-keyboard-response","354","1543159","0.0-19.0-2.2","45488","List1B","black","woman","","","","null","","","","","","","","",""
"4794.300000190735","","","survey-text","355","1547955","0.0-19.0-3.2","45488","List1B","black","woman","","","","","{""Q0"":""ruth is being seduced by kate""}","<img src=""stim_listB/seduce8.gif""style=""height:400px;""></stim_listB>","is being seduced by","","","","","",""
"null","<div style=""font-size:60px;"">+</div>","","html-keyboard-response","356","1548458","0.0-19.0-0.3","45488","List1B","black","woman","","","","null","","","","","","","","",""
"null","<img src=""stim_listB/challenge6.gif""style=""height:400px;""></stim_listB>","","html-keyboard-response","357","1550460","0.0-19.0-1.3","45488","List1B","black","woman","","","","null","","","","","","","","",""
"null","is being challenged by","","html-keyboard-response","358","1552477","0.0-19.0-2.3","45488","List1B","black","woman","","","","null","","","","","","","","",""
"5964.599999904633","","","survey-text","359","1558443","0.0-19.0-3.3","45488","List1B","black","woman","","","","","{""Q0"":""dave is being challenged by fred""}","<img src=""stim_listB/challenge6.gif""style=""height:400px;""></stim_listB>","is being challenged by","","","","","",""
"null","<div style=""font-size:60px;"">+</div>","","html-keyboard-response","360","1558951","0.0-19.0-0.4","45488","List1B","black","woman","","","","null","","","","","","","","",""
"null","<img src=""stim_listB/oppose7.gif""style=""height:400px;""></stim_listB>","","html-keyboard-response","361","1560952","0.0-19.0-1.4","45488","List1B","black","woman","","","","null","","","","","","","","",""
"null","is opposing","","html-keyboard-response","362","1562957","0.0-19.0-2.4","45488","List1B","black","woman","","","","null","","","","","","","","",""
"4059.4000000953674","","","survey-text","363","1567019","0.0-19.0-3.4","45488","List1B","black","woman","","","","","{""Q0"":""kate is opposing jane""}","<img src=""stim_listB/oppose7.gif""style=""height:400px;""></stim_listB>","is opposing","","","","","",""
"null","<div style=""font-size:60px;"">+</div>","","html-keyboard-response","364","1567524","0.0-19.0-0.5","45488","List1B","black","woman","","","","null","","","","","","","","",""
"null","<img src=""stim_listB/kiss6.gif""style=""height:400px;""></stim_listB>","","html-keyboard-response","365","1569541","0.0-19.0-1.5","45488","List1B","black","woman","","","","null","","","","","","","","",""
"null","is being kissed by","","html-keyboard-response","366","1571556","0.0-19.0-2.5","45488","List1B","black","woman","","","","null","","","","","","","","",""
"4133.400000095367","","","survey-text","367","1575691","0.0-19.0-3.5","45488","List1B","black","woman","","","","","{""Q0"":""mike is being kissed by dave""}","<img src=""stim_listB/kiss6.gif""style=""height:400px;""></stim_listB>","is being kissed by","","","","","",""
"null","<div style=""font-size:60px;"">+</div>","","html-keyboard-response","368","1576202","0.0-19.0-0.6","45488","List1B","black","woman","","","","null","","","","","","","","",""
"null","<img src=""stim_listB/oppose6.gif""style=""height:400px;""></stim_listB>","","html-keyboard-response","369","1578214","0.0-19.0-1.6","45488","List1B","black","woman","","","","null","","","","","","","","",""
"null","is being opposed by","","html-keyboard-response","370","1580215","0.0-19.0-2.6","45488","List1B","black","woman","","","","null","","","","","","","","",""
"10641.799999713898","","","survey-text","371","1590858","0.0-19.0-3.6","45488","List1B","black","woman","","","","","{""Q0"":""mike is being opposed by fred""}","<img src=""stim_listB/oppose6.gif""style=""height:400px;""></stim_listB>","is being opposed by","","","","","",""
"null","<div style=""font-size:60px;"">+</div>","","html-keyboard-response","372","1591371","0.0-19.0-0.7","45488","List1B","black","woman","","","","null","","","","","","","","",""
"null","<img src=""stim_listB/shout6.gif""style=""height:400px;""></stim_listB>","","html-keyboard-response","373","1593378","0.0-19.0-1.7","45488","List1B","black","woman","","","","null","","","","","","","","",""
"null","is being shouted at by","","html-keyboard-response","374","1595385","0.0-19.0-2.7","45488","List1B","black","woman","","","","null","","","","","","","","",""
"6511.799999713898","","","survey-text","375","1601898","0.0-19.0-3.7","45488","List1B","black","woman","","","","","{""Q0"":""mike is being shouted at by dave""}","<img src=""stim_listB/shout6.gif""style=""height:400px;""></stim_listB>","is being shouted at by","","","","","",""
"null","<div style=""font-size:60px;"">+</div>","","html-keyboard-response","376","1602414","0.0-19.0-0.8","45488","List1B","black","woman","","","","null","","","","","","","","",""
"null","<img src=""stim_listB/seduce1.gif""style=""height:400px;""></stim_listB>","","html-keyboard-response","377","1604415","0.0-19.0-1.8","45488","List1B","black","woman","","","","null","","","","","","","","",""
"null","is seducing","","html-keyboard-response","378","1606430","0.0-19.0-2.8","45488","List1B","black","woman","","","","null","","","","","","","","",""
"4898.60000038147","","","survey-text","379","1611330","0.0-19.0-3.8","45488","List1B","black","woman","","","","","{""Q0"":""fred is seducing kate""}","<img src=""stim_listB/seduce1.gif""style=""height:400px;""></stim_listB>","is seducing","","","","","",""
"null","<div style=""font-size:60px;"">+</div>","","html-keyboard-response","380","1611845","0.0-19.0-0.9","45488","List1B","black","woman","","","","null","","","","","","","","",""
"null","<img src=""stim_listB/seduce7.gif""style=""height:400px;""></stim_listB>","","html-keyboard-response","381","1613857","0.0-19.0-1.9","45488","List1B","black","woman","","","","null","","","","","","","","",""
"null","is seducing","","html-keyboard-response","382","1615872","0.0-19.0-2.9","45488","List1B","black","woman","","","","null","","","","","","","","",""
"3768.5","","","survey-text","383","1619642","0.0-19.0-3.9","45488","List1B","black","woman","","","","","{""Q0"":""beth is seducing jane""}","<img src=""stim_listB/seduce7.gif""style=""height:400px;""></stim_listB>","is seducing","","","","","",""
"null","<div style=""font-size:60px;"">+</div>","","html-keyboard-response","384","1620155","0.0-19.0-0.10","45488","List1B","black","woman","","","","null","","","","","","","","",""
"null","<img src=""stim_listB/oppose5.gif""style=""height:400px;""></stim_listB>","","html-keyboard-response","385","1622168","0.0-19.0-1.10","45488","List1B","black","woman","","","","null","","","","","","","","",""
"null","is opposing","","html-keyboard-response","386","1624169","0.0-19.0-2.10","45488","List1B","black","woman","","","","null","","","","","","","","",""
"6598.89999961853","","","survey-text","387","1630770","0.0-19.0-3.10","45488","List1B","black","woman","","","","","{""Q0"":""dave is opposing mike""}","<img src=""stim_listB/oppose5.gif""style=""height:400px;""></stim_listB>","is opposing","","","","","",""
"null","<div style=""font-size:60px;"">+</div>","","html-keyboard-response","388","1631274","0.0-19.0-0.11","45488","List1B","black","woman","","","","null","","","","","","","","",""
"null","<img src=""stim_listB/look8.gif""style=""height:400px;""></stim_listB>","","html-keyboard-response","389","1633276","0.0-19.0-1.11","45488","List1B","black","woman","","","","null","","","","","","","","",""
"null","is being looked at by","","html-keyboard-response","390","1635290","0.0-19.0-2.11","45488","List1B","black","woman","","","","null","","","","","","","","",""
"5686.5","","","survey-text","391","1640978","0.0-19.0-3.11","45488","List1B","black","woman","","","","","{""Q0"":""kate is being looked at by jane""}","<img src=""stim_listB/look8.gif""style=""height:400px;""></stim_listB>","is being looked at by","","","","","",""
"null","<div style=""font-size:60px;"">+</div>","","html-keyboard-response","392","1641484","0.0-19.0-0.12","45488","List1B","black","woman","","","","null","","","","","","","","",""
"null","<img src=""stim_listB/shout7.gif""style=""height:400px;""></stim_listB>","","html-keyboard-response","393","1643500","0.0-19.0-1.12","45488","List1B","black","woman","","","","null","","","","","","","","",""
"null","is shouting at","","html-keyboard-response","394","1645502","0.0-19.0-2.12","45488","List1B","black","woman","","","","null","","","","","","","","",""
"4674.299999713898","","","survey-text","395","1650178","0.0-19.0-3.12","45488","List1B","black","woman","","","","","{""Q0"":""ruth is shouting at beth""}","<img src=""stim_listB/shout7.gif""style=""height:400px;""></stim_listB>","is shouting at","","","","","",""
"null","<div style=""font-size:60px;"">+</div>","","html-keyboard-response","396","1650687","0.0-19.0-0.13","45488","List1B","black","woman","","","","null","","","","","","","","",""
"null","<img src=""stim_listB/oppose3.gif""style=""height:400px;""></stim_listB>","","html-keyboard-response","397","1652695","0.0-19.0-1.13","45488","List1B","black","woman","","","","null","","","","","","","","",""
"null","is opposing","","html-keyboard-response","398","1654702","0.0-19.0-2.13","45488","List1B","black","woman","","","","null","","","","","","","","",""
"3946.5999999046326","","","survey-text","399","1658649","0.0-19.0-3.13","45488","List1B","black","woman","","","","","{""Q0"":""dave is opposing jane""}","<img src=""stim_listB/oppose3.gif""style=""height:400px;""></stim_listB>","is opposing","","","","","",""
"null","<div style=""font-size:60px;"">+</div>","","html-keyboard-response","400","1659163","0.0-19.0-0.14","45488","List1B","black","woman","","","","null","","","","","","","","",""
"null","<img src=""stim_listB/hug3.gif""style=""height:400px;""></stim_listB>","","html-keyboard-response","401","1661165","0.0-19.0-1.14","45488","List1B","black","woman","","","","null","","","","","","","","",""
"null","is hugging","","html-keyboard-response","402","1663171","0.0-19.0-2.14","45488","List1B","black","woman","","","","null","","","","","","","","",""
"3813.0999999046326","","","survey-text","403","1666985","0.0-19.0-3.14","45488","List1B","black","woman","","","","","{""Q0"":""luke is hugging ruth""}","<img src=""stim_listB/hug3.gif""style=""height:400px;""></stim_listB>","is hugging","","","","","",""
"null","<div style=""font-size:60px;"">+</div>","","html-keyboard-response","404","1667490","0.0-19.0-0.15","45488","List1B","black","woman","","","","null","","","","","","","","",""
"null","<img src=""stim_listB/challenge1.gif""style=""height:400px;""></stim_listB>","","html-keyboard-response","405","1669492","0.0-19.0-1.15","45488","List1B","black","woman","","","","null","","","","","","","","",""
"null","is challenging","","html-keyboard-response","406","1671501","0.0-19.0-2.15","45488","List1B","black","woman","","","","null","","","","","","","","",""
"5489.799999713898","","","survey-text","407","1676993","0.0-19.0-3.15","45488","List1B","black","woman","","","","","{""Q0"":""beth is challenging mike""}","<img src=""stim_listB/challenge1.gif""style=""height:400px;""></stim_listB>","is challenging","","","","","",""
"null","<div style=""font-size:60px;"">+</div>","","html-keyboard-response","408","1677499","0.0-19.0-0.16","45488","List1B","black","woman","","","","null","","","","","","","","",""
"null","<img src=""stim_listB/seduce2.gif""style=""height:400px;""></stim_listB>","","html-keyboard-response","409","1679501","0.0-19.0-1.16","45488","List1B","black","woman","","","","null","","","","","","","","",""
"null","is being seduced by","","html-keyboard-response","410","1681509","0.0-19.0-2.16","45488","List1B","black","woman","","","","null","","","","","","","","",""
"8090.099999904633","","","survey-text","411","1689601","0.0-19.0-3.16","45488","List1B","black","woman","","","","","{""Q0"":""mike is being seduced by beth""}","<img src=""stim_listB/seduce2.gif""style=""height:400px;""></stim_listB>","is being seduced by","","","","","",""
"null","<div style=""font-size:60px;"">+</div>","","html-keyboard-response","412","1690102","0.0-19.0-0.17","45488","List1B","black","woman","","","","null","","","","","","","","",""
"null","<img src=""stim_listB/challenge3.gif""style=""height:400px;""></stim_listB>","","html-keyboard-response","413","1692106","0.0-19.0-1.17","45488","List1B","black","woman","","","","null","","","","","","","","",""
"null","is challenging","","html-keyboard-response","414","1694119","0.0-19.0-2.17","45488","List1B","black","woman","","","","null","","","","","","","","",""
"7136.199999809265","","","survey-text","415","1701257","0.0-19.0-3.17","45488","List1B","black","woman","","","","","{""Q0"":""dave is being challenged by ruth""}","<img src=""stim_listB/challenge3.gif""style=""height:400px;""></stim_listB>","is challenging","","","","","",""
"null","<div style=""font-size:60px;"">+</div>","","html-keyboard-response","416","1701760","0.0-19.0-0.18","45488","List1B","black","woman","","","","null","","","","","","","","",""
"null","<img src=""stim_listB/greet7.gif""style=""height:400px;""></stim_listB>","","html-keyboard-response","417","1703761","0.0-19.0-1.18","45488","List1B","black","woman","","","","null","","","","","","","","",""
"null","is greeting","","html-keyboard-response","418","1705769","0.0-19.0-2.18","45488","List1B","black","woman","","","","null","","","","","","","","",""
"4093.800000190735","","","survey-text","419","1709865","0.0-19.0-3.18","45488","List1B","black","woman","","","","","{""Q0"":""kate is greeting ruth""}","<img src=""stim_listB/greet7.gif""style=""height:400px;""></stim_listB>","is greeting","","","","","",""
"null","<div style=""font-size:60px;"">+</div>","","html-keyboard-response","420","1710381","0.0-19.0-0.19","45488","List1B","black","woman","","","","null","","","","","","","","",""
"null","<img src=""stim_listB/touch6.gif""style=""height:400px;""></stim_listB>","","html-keyboard-response","421","1712382","0.0-19.0-1.19","45488","List1B","black","woman","","","","null","","","","","","","","",""
"null","is being touched by","","html-keyboard-response","422","1714390","0.0-19.0-2.19","45488","List1B","black","woman","","","","null","","","","","","","","",""
"7074.200000286102","","","survey-text","423","1721466","0.0-19.0-3.19","45488","List1B","black","woman","","","","","{""Q0"":""fred is being touched by luke""}","<img src=""stim_listB/touch6.gif""style=""height:400px;""></stim_listB>","is being touched by","","","","","",""
"2845","<p>Thank you for completing that task.</p><p>The final part of this session is a questionnaire that will take about 4 minutes.</p><p>Press Continue.</p>","0","html-button-response","424","1724311","0.0-20.0","45488","List1B","black","woman","","","","","","","","","","","","",""
"47674.60000038147","","","survey-text","425","1772989","0.0-21.0","45488","List1B","black","woman","","","","","{""Q0"":""29"",""Q1"":""english"",""Q2"":""english"",""Q3"":""United States"",""Q4"":""American"",""Q5"":""Black"",""Q6"":""Female""}","","","demographics","","","","",""
"2125.800000190735","<p>Have you lived in the USA for the last 5 years or more?</p>","0","html-button-response","426","1775117","0.0-22.0","45488","List1B","black","woman","","","","","","","","fiveyears","","","","",""
"4027.2000002861023","<p>Move the slider to show the extent to which you agree with the following statements.</p>","0","html-button-response","427","1780157","0.0-23.0","45488","List1B","black","woman","","","","","","","","","","","","",""
"4851.599999904633","","","html-slider-response","428","1786011","0.0-24.0-0.0-0.0","45488","List1B","black","woman","","","","","","","","survey_race","0","","","I enjoy being in large groups.","filler"
"6122.5","","","html-slider-response","429","1792135","0.0-24.0-0.0-0.1","45488","List1B","black","woman","","","","","","","","survey_race","14","","","I feel a bond with people the same age as me.","filler"
"8704.599999904633","","","html-slider-response","430","1800841","0.0-24.0-0.0-0.2","45488","List1B","black","woman","","","","","","","","survey_race","83","","","I am similar to the average person of my race.","similar"
"5472.800000190735","","","html-slider-response","431","1806315","0.0-24.0-0.0-0.3","45488","List1B","black","woman","","","","","","","","survey_race","16","","","People of my race are very similar to each other.","verysimilar"
"5172.5","","","html-slider-response","432","1811489","0.0-24.0-0.0-0.4","45488","List1B","black","woman","","","","","","","","survey_race","97","","","I am glad to be the age I am.","filler"
"3238.5","","","html-slider-response","433","1814729","0.0-24.0-0.0-0.5","45488","List1B","black","woman","","","","","","","","survey_race","0","","","I consider myself an extrovert.","filler"
"4159.200000286102","","","html-slider-response","434","1818889","0.0-24.0-0.0-0.6","45488","List1B","black","woman","","","","","","","","survey_race","98","","","I am glad to be my age.","filler"
"4818.400000095367","","","html-slider-response","435","1823709","0.0-24.0-0.0-0.7","45488","List1B","black","woman","","","","","","","","survey_race","99","","","Being my race gives me a good feeling.","feeling"
"4728.5","","","html-slider-response","436","1828438","0.0-24.0-0.0-0.8","45488","List1B","black","woman","","","","","","","","survey_race","79","","","People my age have a lot in common with each other.","filler"
"5412.5","","","html-slider-response","437","1833852","0.0-24.0-0.0-0.9","45488","List1B","black","woman","","","","","","","","survey_race","99","","","I am glad to be my race.","glad"
"4113.400000095367","","","html-slider-response","438","1837967","0.0-24.0-0.0-0.10","45488","List1B","black","woman","","","","","","","","survey_race","100","","","I feel a bond with my race.","bond"
"2753.9000000953674","","","html-slider-response","439","1840722","0.0-24.0-0.0-0.11","45488","List1B","black","woman","","","","","","","","survey_race","100","","","I consider myself an introvert.","filler"
"4379","","","html-slider-response","440","1845102","0.0-24.0-0.0-0.12","45488","List1B","black","woman","","","","","","","","survey_race","99","","","I feel committed to my race.","committed"
"4146.5","","","html-slider-response","441","1849250","0.0-24.0-0.0-0.13","45488","List1B","black","woman","","","","","","","","survey_race","100","","","Being my age gives me a good feeling.","filler"
"5199.700000286102","","","html-slider-response","442","1854451","0.0-24.0-0.0-0.14","45488","List1B","black","woman","","","","","","","","survey_race","33","","","The older I get, the wiser I feel.","filler"
"4515.900000095367","","","html-slider-response","443","1858968","0.0-24.0-0.0-0.15","45488","List1B","black","woman","","","","","","","","survey_race","19","","","I have a lot in common with people of a similar age to me.","filler"
"9718.5","","","html-slider-response","444","1868688","0.0-24.0-0.0-0.16","45488","List1B","black","woman","","","","","","","","survey_race","50","","","My age is not an important part of who I am.","filler"
"7904.700000286102","","","html-slider-response","445","1876594","0.0-24.0-0.0-0.17","45488","List1B","black","woman","","","","","","","","survey_race","97","","","The fact that I am my race is an important part of my identity.","identity"
"3347.300000190735","","","html-slider-response","446","1879943","0.0-24.0-0.0-0.18","45488","List1B","black","woman","","","","","","","","survey_race","100","","","Getting older does not worry me.","filler"
"5234.199999809265","","","html-slider-response","447","1885178","0.0-24.0-0.0-0.19","45488","List1B","black","woman","","","","","","","","survey_race","97","","","Being my race is an important part of how I see myself.","important"
"7788.900000095367","","","html-slider-response","448","1892968","0.0-24.0-0.0-0.20","45488","List1B","black","woman","","","","","","","","survey_race","50","","","I feel solidarity with people the same age as me.","filler"
"9938.099999904633","","","html-slider-response","449","1902908","0.0-24.0-0.0-0.21","45488","List1B","black","woman","","","","","","","","survey_race","49","","","I have a lot in common with the average person of my race.","average"
"7295.400000095367","","","html-slider-response","450","1910204","0.0-24.0-0.0-0.22","45488","List1B","black","woman","","","","","","","","survey_race","94","","","I often think about the fact that I am my age.","filler"
"10639.800000190735","","","html-slider-response","451","1920846","0.0-24.0-0.0-0.23","45488","List1B","black","woman","","","","","","","","survey_race","91","","","People of my race have a lot in common with each other.","common"
"66663.2000002861","","","html-slider-response","452","1987510","0.0-24.0-0.0-0.24","45488","List1B","black","woman","","","","","","","","survey_race","29","","","I often think about the fact that I am my race.","often"
"4394.599999904633","","","html-slider-response","453","1991906","0.0-24.0-0.0-0.25","45488","List1B","black","woman","","","","","","","","survey_race","98","","","I feel solidarity with my race.","solidarity"
"6602.700000286102","","","html-slider-response","454","1998511","0.0-24.0-0.0-0.26","45488","List1B","black","woman","","","","","","","","survey_race","96","","","It is pleasant to be my race.","pleasant"
"4722.099999904633","","","html-slider-response","455","2003234","0.0-24.0-0.0-0.27","45488","List1B","black","woman","","","","","","","","survey_race","100","","","I think that my race has a lot to be proud of.","proud"
"6221","","","html-slider-response","456","2009456","0.0-24.0-1.0-0.0","45488","List1B","black","woman","","","","","","","","survey_gender","8","","","People of my gender are very similar to each other.","verysimilar"
"8504.5","","","html-slider-response","457","2017962","0.0-24.0-1.0-0.1","45488","List1B","black","woman","","","","","","","","survey_gender","13","","","People of my gender have a lot in common with each other.","common"
"9344.5","","","html-slider-response","458","2027308","0.0-24.0-1.0-0.2","45488","List1B","black","woman","","","","","","","","survey_gender","89","","","It is not always easy for people to know what I am thinking.","filler"
"10764.299999713898","","","html-slider-response","459","2038074","0.0-24.0-1.0-0.3","45488","List1B","black","woman","","","","","","","","survey_gender","95","","","I would say I am an animal person.","filler"
"19652.5","","","html-slider-response","460","2057728","0.0-24.0-1.0-0.4","45488","List1B","black","woman","","","","","","","","survey_gender","97","","","I am glad to be my gender.","glad"
"10350.89999961853","","","html-slider-response","461","2068080","0.0-24.0-1.0-0.5","45488","List1B","black","woman","","","","","","","","survey_gender","17","","","My friends have a lot in common with each other.","filler"
"29232","","","html-slider-response","462","2097313","0.0-24.0-1.0-0.6","45488","List1B","black","woman","","","","","","","","survey_gender","50","","","The fact that I am my gender is an important part of my identity.","identity"
"14350.599999904633","","","html-slider-response","463","2111665","0.0-24.0-1.0-0.7","45488","List1B","black","woman","","","","","","","","survey_gender","9","","","I am similar to the average person of my gender.","similar"
"7588.5","","","html-slider-response","464","2119255","0.0-24.0-1.0-0.8","45488","List1B","black","woman","","","","","","","","survey_gender","83","","","I feel solidarity with my friends.","filler"
"5840.800000190735","","","html-slider-response","465","2125097","0.0-24.0-1.0-0.9","45488","List1B","black","woman","","","","","","","","survey_gender","98","","","Being my gender gives me a good feeling.","feeling"
"4308.599999904633","","","html-slider-response","466","2129407","0.0-24.0-1.0-0.10","45488","List1B","black","woman","","","","","","","","survey_gender","100","","","I am glad to have the friends that I have.","filler"
"11064.5","","","html-slider-response","467","2140473","0.0-24.0-1.0-0.11","45488","List1B","black","woman","","","","","","","","survey_gender","15","","","Most of the friends in my life are very similar to me.","filler"
"5694.799999713898","","","html-slider-response","468","2146169","0.0-24.0-1.0-0.12","45488","List1B","black","woman","","","","","","","","survey_gender","22","","","I feel committed to my gender.","committed"
"3916.5999999046326","","","html-slider-response","469","2150087","0.0-24.0-1.0-0.13","45488","List1B","black","woman","","","","","","","","survey_gender","94","","","I often think about my actions.","filler"
"122171.5","","","html-slider-response","470","2272259","0.0-24.0-1.0-0.14","45488","List1B","black","woman","","","","","","","","survey_gender","9","","","Being my gender is an important part of how I see myself.","important"
"2886.7000002861023","","","html-slider-response","471","2275147","0.0-24.0-1.0-0.15","45488","List1B","black","woman","","","","","","","","survey_gender","100","","","My friends understand me.","filler"
"4412.800000190735","","","html-slider-response","472","2279561","0.0-24.0-1.0-0.16","45488","List1B","black","woman","","","","","","","","survey_gender","0","","","Routine is not important to me.","filler"
"4006.800000190735","","","html-slider-response","473","2283569","0.0-24.0-1.0-0.17","45488","List1B","black","woman","","","","","","","","survey_gender","100","","","Being around my friends gives me a good feeling.","filler"
"298981.2999997139","","","html-slider-response","474","2582551","0.0-24.0-1.0-0.18","45488","List1B","black","woman","","","","","","","","survey_gender","0","","","Family is not more important to me than friendship.","filler"
"4214.400000095367","","","html-slider-response","475","2586767","0.0-24.0-1.0-0.19","45488","List1B","black","woman","","","","","","","","survey_gender","15","","","I often think about the fact that I am my gender.","often"
