"rt","stimulus","button_pressed","trial_type","trial_index","time_elapsed","internal_node_id","subject","list","ppt_race","ppt_gender","url","first_guess","correct","key_press","responses","image_type","phrase_type","test_part","response","stimulus1","stimulus2","question_type","survey_item"
"1700","Welcome to the experiment. Press Continue to begin.","0","html-button-response","0","1701","0.0-0.0","46182","List2A","black","man","","","","","","","","","","","","",""
"57634.39999997616","","","external-html","1","60460","0.0-1.0","46182","List2A","black","man","consent.html","","","","","","","","","","","",""
"19039.100000023842","<p>On the next page, you will see portraits of 8 people and their names.</p><p>Your first task is to take a few minutes to memorise the names of these people.</p><p>You will have to recall their names during the rest of the experiment, so it is</p><p>essential that you try to memorise these people and their names as best as you can.</p><br><p><strong>You will then be tested on your memory of these names and portraits.</strong></p><br><p>The experiment will start after you have completed this memory test.</p><br><p>Ready?</p>","0","html-button-response","2","79500","0.0-2.0","46182","List2A","black","man","","","","","","","","","","","","",""
"34581.800000071526","<img src='img/portrait_matrix_list2.jpg' style='width:900px;height:500px;''></img><p>If you have memorised all the portraits and names and are ready to start, press Continue.</p><p><strong>Please note: Your memory of these faces will be tested 4 times during this experiment.</strong></p>","0","html-button-response","3","115085","0.0-3.0-0.0","46182","List2A","black","man","","","","","","","","","","","","",""
"4043.899999976158","<img src=""portrait/BW1.jpg""style=""height:400px;""></img>","0","html-button-response","4","120142","0.0-3.0-1.0","46182","List2A","black","man","","true","0","","","","","","","","","",""
"null","CORRECT","","html-keyboard-response","5","121645","0.0-3.0-2.0-0.0","46182","List2A","black","man","","","","null","","","","","","","","",""
"3823","<img src=""portrait/WW1.jpg""style=""height:400px;""></img>","1","html-button-response","6","125469","0.0-3.0-4.0","46182","List2A","black","man","","true","1","","","","","","","","","",""
"null","CORRECT","","html-keyboard-response","7","126974","0.0-3.0-5.0-0.0","46182","List2A","black","man","","","","null","","","","","","","","",""
"3245","<img src=""portrait/WM2.jpg""style=""height:400px;""></img>","7","html-button-response","8","130221","0.0-3.0-7.0","46182","List2A","black","man","","true","7","","","","","","","","","",""
"null","CORRECT","","html-keyboard-response","9","131724","0.0-3.0-8.0-0.0","46182","List2A","black","man","","","","null","","","","","","","","",""
"4775.200000047684","<img src=""portrait/WW2.jpg""style=""height:400px;""></img>","3","html-button-response","10","136501","0.0-3.0-10.0","46182","List2A","black","man","","true","3","","","","","","","","","",""
"null","CORRECT","","html-keyboard-response","11","138005","0.0-3.0-11.0-0.0","46182","List2A","black","man","","","","null","","","","","","","","",""
"7990.399999976158","<img src=""portrait/BM2.jpg""style=""height:400px;""></img>","5","html-button-response","12","145998","0.0-3.0-13.0","46182","List2A","black","man","","true","5","","","","","","","","","",""
"null","CORRECT","","html-keyboard-response","13","147502","0.0-3.0-14.0-0.0","46182","List2A","black","man","","","","null","","","","","","","","",""
"7470.5","<img src=""portrait/BM1.jpg""style=""height:400px;""></img>","4","html-button-response","14","154973","0.0-3.0-16.0","46182","List2A","black","man","","true","4","","","","","","","","","",""
"null","CORRECT","","html-keyboard-response","15","156476","0.0-3.0-17.0-0.0","46182","List2A","black","man","","","","null","","","","","","","","",""
"5040","<img src=""portrait/WM1.jpg""style=""height:400px;""></img>","6","html-button-response","16","161517","0.0-3.0-19.0","46182","List2A","black","man","","true","6","","","","","","","","","",""
"null","CORRECT","","html-keyboard-response","17","163020","0.0-3.0-20.0-0.0","46182","List2A","black","man","","","","null","","","","","","","","",""
"4047.399999976158","<img src=""portrait/BW2.jpg""style=""height:400px;""></img>","2","html-button-response","18","167069","0.0-3.0-22.0","46182","List2A","black","man","","true","2","","","","","","","","","",""
"null","CORRECT","","html-keyboard-response","19","168572","0.0-3.0-23.0-0.0","46182","List2A","black","man","","","","null","","","","","","","","",""
"1719","<p>You got 8 out of 8 right first time. Press Continue.</p>","0","html-button-response","20","170293","0.0-3.0-25.0","46182","List2A","black","man","","","","","","","","","","","","",""
"45123.200000047684","<p>In this experiment, you will view photographs of the people from the memory game interacting.</p><p>By using the <strong>exact</strong> phrase given <i>after</i> the photograph appears and recalling the correct names of the people in the photographs, form a sentence describing the interaction. You do not need to capitalise names.</p><p>Type your answer in the space provided. Please complete every sentence before moving onto the next trial.</p><p>You will only have a few seconds to memorise each given photograph and phrase before you can respond, so try your best to focus.</p><p>An example is given below. Press 'Continue' when you are ready.</p><img src='img/speaking_example.jpg' style='width:800px;height:460px;''></img>","0","html-button-response","21","216420","0.0-4.0","46182","List2A","black","man","","","","","","","","","","","","",""
"5541.799999952316","<p>Before the experiment starts, you will watch two example trials. Press 'Continue'.</p>","0","html-button-response","22","222964","0.0-5.0","46182","List2A","black","man","","","","","","","","","","","","",""
"null","<img src='img/play_eg.gif' style='height:400px;''></img>","","html-keyboard-response","23","225966","0.0-6.0","46182","List2A","black","man","","","","null","","","","","","","","",""
"null","<p>is playing with</p>","","html-keyboard-response","24","227967","0.0-7.0","46182","List2A","black","man","","","","null","","","","","","","","",""
"4116.400000095367","<p><b>Answer:</b> jane is playing with ruth</p>","0","html-button-response","25","232084","0.0-8.0","46182","List2A","black","man","","","","","","","","","","","","",""
"null","<img src='img/dance_eg.gif' style='height:400px;''></img>","","html-keyboard-response","26","235086","0.0-9.0","46182","List2A","black","man","","","","null","","","","","","","","",""
"null","<p>is being entertained by</p>","","html-keyboard-response","27","237087","0.0-10.0","46182","List2A","black","man","","","","null","","","","","","","","",""
"11860.200000047684","<p><b>Answer:</b> fred is being entertained by mike</p>","0","html-button-response","28","248949","0.0-11.0","46182","List2A","black","man","","","","","","","","","","","","",""
"33293.39999997616","<p>Ready to start the experiment?</p><br><p><strong>Remember to describe the picture using a full sentence,</strong></p><p><strong>that combines the names of the people with the <i>exact</i> phrase given.</strong></p><p><strong>To receive full payment you must do this correctly.</strong></p><p><strong> You do not need to capitalise names or use punctuation.</strong></p><br><p>Press 'Continue' to begin.</p>","0","html-button-response","29","283244","0.0-12.0","46182","List2A","black","man","","","","","","","","","","","","",""
"null","<div style=""font-size:60px;"">+</div>","","html-keyboard-response","30","284748","0.0-13.0-0.0","46182","List2A","black","man","","","","null","","","","","","","","",""
"null","<img src=""stim_listA/touch2.gif""style=""height:400px;""></stim_listA>","","html-keyboard-response","31","286750","0.0-13.0-1.0","46182","List2A","black","man","","","","null","","","","","","","","",""
"null","is being touched by","","html-keyboard-response","32","288751","0.0-13.0-2.0","46182","List2A","black","man","","","","null","","","","","","","","",""
"22620.100000023842","","","survey-text","33","311373","0.0-13.0-3.0","46182","List2A","black","man","","","","","{""Q0"":""Luke is being touched by Ruth""}","<img src=""stim_listA/touch2.gif""style=""height:400px;""></stim_listA>","is being touched by","","","","","",""
"null","<div style=""font-size:60px;"">+</div>","","html-keyboard-response","34","311875","0.0-13.0-0.1","46182","List2A","black","man","","","","null","","","","","","","","",""
"null","<img src=""stim_listA/copy5.gif""style=""height:400px;""></stim_listA>","","html-keyboard-response","35","313877","0.0-13.0-1.1","46182","List2A","black","man","","","","null","","","","","","","","",""
"null","is copying","","html-keyboard-response","36","315878","0.0-13.0-2.1","46182","List2A","black","man","","","","null","","","","","","","","",""
"12396.099999904633","","","survey-text","37","328277","0.0-13.0-3.1","46182","List2A","black","man","","","","","{""Q0"":""Dave is copying Fred""}","<img src=""stim_listA/copy5.gif""style=""height:400px;""></stim_listA>","is copying","","","","","",""
"null","<div style=""font-size:60px;"">+</div>","","html-keyboard-response","38","328778","0.0-13.0-0.2","46182","List2A","black","man","","","","null","","","","","","","","",""
"null","<img src=""stim_listA/hug7.gif""style=""height:400px;""></stim_listA>","","html-keyboard-response","39","330780","0.0-13.0-1.2","46182","List2A","black","man","","","","null","","","","","","","","",""
"null","is hugging","","html-keyboard-response","40","332782","0.0-13.0-2.2","46182","List2A","black","man","","","","null","","","","","","","","",""
"15154.200000047684","","","survey-text","41","347941","0.0-13.0-3.2","46182","List2A","black","man","","","","","{""Q0"":""Beth is hugging Ruth""}","<img src=""stim_listA/hug7.gif""style=""height:400px;""></stim_listA>","is hugging","","","","","",""
"null","<div style=""font-size:60px;"">+</div>","","html-keyboard-response","42","348442","0.0-13.0-0.3","46182","List2A","black","man","","","","null","","","","","","","","",""
"null","<img src=""stim_listA/hug3.gif""style=""height:400px;""></stim_listA>","","html-keyboard-response","43","350445","0.0-13.0-1.3","46182","List2A","black","man","","","","null","","","","","","","","",""
"null","is hugging","","html-keyboard-response","44","352447","0.0-13.0-2.3","46182","List2A","black","man","","","","null","","","","","","","","",""
"8826","","","survey-text","45","361279","0.0-13.0-3.3","46182","List2A","black","man","","","","","{""Q0"":""Beth is hugging Fred""}","<img src=""stim_listA/hug3.gif""style=""height:400px;""></stim_listA>","is hugging","","","","","",""
"null","<div style=""font-size:60px;"">+</div>","","html-keyboard-response","46","361780","0.0-13.0-0.4","46182","List2A","black","man","","","","null","","","","","","","","",""
"null","<img src=""stim_listA/greet5.gif""style=""height:400px;""></stim_listA>","","html-keyboard-response","47","363784","0.0-13.0-1.4","46182","List2A","black","man","","","","null","","","","","","","","",""
"null","is greeting","","html-keyboard-response","48","365786","0.0-13.0-2.4","46182","List2A","black","man","","","","null","","","","","","","","",""
"15799.100000023842","","","survey-text","49","381589","0.0-13.0-3.4","46182","List2A","black","man","","","","","{""Q0"":""Fred is greeting Dave""}","<img src=""stim_listA/greet5.gif""style=""height:400px;""></stim_listA>","is greeting","","","","","",""
"null","<div style=""font-size:60px;"">+</div>","","html-keyboard-response","50","382090","0.0-13.0-0.5","46182","List2A","black","man","","","","null","","","","","","","","",""
"null","<img src=""stim_listA/oppose7.gif""style=""height:400px;""></stim_listA>","","html-keyboard-response","51","384092","0.0-13.0-1.5","46182","List2A","black","man","","","","null","","","","","","","","",""
"null","is opposing","","html-keyboard-response","52","386094","0.0-13.0-2.5","46182","List2A","black","man","","","","null","","","","","","","","",""
"14389.300000071526","","","survey-text","53","400485","0.0-13.0-3.5","46182","List2A","black","man","","","","","{""Q0"":""Kate is opposing Jane""}","<img src=""stim_listA/oppose7.gif""style=""height:400px;""></stim_listA>","is opposing","","","","","",""
"null","<div style=""font-size:60px;"">+</div>","","html-keyboard-response","54","400986","0.0-13.0-0.6","46182","List2A","black","man","","","","null","","","","","","","","",""
"null","<img src=""stim_listA/copy8.gif""style=""height:400px;""></stim_listA>","","html-keyboard-response","55","402988","0.0-13.0-1.6","46182","List2A","black","man","","","","null","","","","","","","","",""
"null","is being copied by","","html-keyboard-response","56","404990","0.0-13.0-2.6","46182","List2A","black","man","","","","null","","","","","","","","",""
"35676.200000047684","","","survey-text","57","440667","0.0-13.0-3.6","46182","List2A","black","man","","","","","{""Q0"":""Jane is being copied by Ruth""}","<img src=""stim_listA/copy8.gif""style=""height:400px;""></stim_listA>","is being copied by","","","","","",""
"null","<div style=""font-size:60px;"">+</div>","","html-keyboard-response","58","441170","0.0-13.0-0.7","46182","List2A","black","man","","","","null","","","","","","","","",""
"null","<img src=""stim_listA/touch8.gif""style=""height:400px;""></stim_listA>","","html-keyboard-response","59","443172","0.0-13.0-1.7","46182","List2A","black","man","","","","null","","","","","","","","",""
"null","is being touched by","","html-keyboard-response","60","445173","0.0-13.0-2.7","46182","List2A","black","man","","","","null","","","","","","","","",""
"20804.599999904633","","","survey-text","61","465978","0.0-13.0-3.7","46182","List2A","black","man","","","","","{""Q0"":""Beth is being touched by Ruth""}","<img src=""stim_listA/touch8.gif""style=""height:400px;""></stim_listA>","is being touched by","","","","","",""
"null","<div style=""font-size:60px;"">+</div>","","html-keyboard-response","62","466479","0.0-13.0-0.8","46182","List2A","black","man","","","","null","","","","","","","","",""
"null","<img src=""stim_listA/challenge7.gif""style=""height:400px;""></stim_listA>","","html-keyboard-response","63","468481","0.0-13.0-1.8","46182","List2A","black","man","","","","null","","","","","","","","",""
"null","is challenging","","html-keyboard-response","64","470484","0.0-13.0-2.8","46182","List2A","black","man","","","","null","","","","","","","","",""
"35622.10000002384","","","survey-text","65","506108","0.0-13.0-3.8","46182","List2A","black","man","","","","","{""Q0"":""Beth is challenging Jane""}","<img src=""stim_listA/challenge7.gif""style=""height:400px;""></stim_listA>","is challenging","","","","","",""
"null","<div style=""font-size:60px;"">+</div>","","html-keyboard-response","66","506609","0.0-13.0-0.9","46182","List2A","black","man","","","","null","","","","","","","","",""
"null","<img src=""stim_listA/seduce5.gif""style=""height:400px;""></stim_listA>","","html-keyboard-response","67","508610","0.0-13.0-1.9","46182","List2A","black","man","","","","null","","","","","","","","",""
"null","is seducing","","html-keyboard-response","68","510616","0.0-13.0-2.9","46182","List2A","black","man","","","","null","","","","","","","","",""
"23905.300000071526","","","survey-text","69","534523","0.0-13.0-3.9","46182","List2A","black","man","","","","","{""Q0"":""Mike is seducing Luke""}","<img src=""stim_listA/seduce5.gif""style=""height:400px;""></stim_listA>","is seducing","","","","","",""
"null","<div style=""font-size:60px;"">+</div>","","html-keyboard-response","70","535025","0.0-13.0-0.10","46182","List2A","black","man","","","","null","","","","","","","","",""
"null","<img src=""stim_listA/oppose2.gif""style=""height:400px;""></stim_listA>","","html-keyboard-response","71","537030","0.0-13.0-1.10","46182","List2A","black","man","","","","null","","","","","","","","",""
"null","is being opposed by","","html-keyboard-response","72","539033","0.0-13.0-2.10","46182","List2A","black","man","","","","null","","","","","","","","",""
"20818.099999904633","","","survey-text","73","559852","0.0-13.0-3.10","46182","List2A","black","man","","","","","{""Q0"":""Luke is being opposed by Ruth""}","<img src=""stim_listA/oppose2.gif""style=""height:400px;""></stim_listA>","is being opposed by","","","","","",""
"null","<div style=""font-size:60px;"">+</div>","","html-keyboard-response","74","560354","0.0-13.0-0.11","46182","List2A","black","man","","","","null","","","","","","","","",""
"null","<img src=""stim_listA/shout6.gif""style=""height:400px;""></stim_listA>","","html-keyboard-response","75","562356","0.0-13.0-1.11","46182","List2A","black","man","","","","null","","","","","","","","",""
"null","is being shouted at by","","html-keyboard-response","76","564357","0.0-13.0-2.11","46182","List2A","black","man","","","","null","","","","","","","","",""
"41532.700000047684","","","survey-text","77","605891","0.0-13.0-3.11","46182","List2A","black","man","","","","","{""Q0"":""Dave is being shouted at by Luke""}","<img src=""stim_listA/shout6.gif""style=""height:400px;""></stim_listA>","is being shouted at by","","","","","",""
"null","<div style=""font-size:60px;"">+</div>","","html-keyboard-response","78","606393","0.0-13.0-0.12","46182","List2A","black","man","","","","null","","","","","","","","",""
"null","<img src=""stim_listA/challenge5.gif""style=""height:400px;""></stim_listA>","","html-keyboard-response","79","608398","0.0-13.0-1.12","46182","List2A","black","man","","","","null","","","","","","","","",""
"null","is challenging","","html-keyboard-response","80","610406","0.0-13.0-2.12","46182","List2A","black","man","","","","null","","","","","","","","",""
"11684.5","","","survey-text","81","622095","0.0-13.0-3.12","46182","List2A","black","man","","","","","{""Q0"":""Fred is challenging Dave""}","<img src=""stim_listA/challenge5.gif""style=""height:400px;""></stim_listA>","is challenging","","","","","",""
"null","<div style=""font-size:60px;"">+</div>","","html-keyboard-response","82","622596","0.0-13.0-0.13","46182","List2A","black","man","","","","null","","","","","","","","",""
"null","<img src=""stim_listA/shout4.gif""style=""height:400px;""></stim_listA>","","html-keyboard-response","83","624610","0.0-13.0-1.13","46182","List2A","black","man","","","","null","","","","","","","","",""
"null","is being shouted at by","","html-keyboard-response","84","626612","0.0-13.0-2.13","46182","List2A","black","man","","","","null","","","","","","","","",""
"26091.100000023842","","","survey-text","85","652705","0.0-13.0-3.13","46182","List2A","black","man","","","","","{""Q0"":""Mike is being shouted at by Kate""}","<img src=""stim_listA/shout4.gif""style=""height:400px;""></stim_listA>","is being shouted at by","","","","","",""
"null","<div style=""font-size:60px;"">+</div>","","html-keyboard-response","86","653207","0.0-13.0-0.14","46182","List2A","black","man","","","","null","","","","","","","","",""
"null","<img src=""stim_listA/look6.gif""style=""height:400px;""></stim_listA>","","html-keyboard-response","87","655210","0.0-13.0-1.14","46182","List2A","black","man","","","","null","","","","","","","","",""
"null","is being looked at by","","html-keyboard-response","88","657211","0.0-13.0-2.14","46182","List2A","black","man","","","","null","","","","","","","","",""
"26740.099999904633","","","survey-text","89","683953","0.0-13.0-3.14","46182","List2A","black","man","","","","","{""Q0"":""Mike is being looked at by Dave""}","<img src=""stim_listA/look6.gif""style=""height:400px;""></stim_listA>","is being looked at by","","","","","",""
"null","<div style=""font-size:60px;"">+</div>","","html-keyboard-response","90","684454","0.0-13.0-0.15","46182","List2A","black","man","","","","null","","","","","","","","",""
"null","<img src=""stim_listA/greet6.gif""style=""height:400px;""></stim_listA>","","html-keyboard-response","91","686457","0.0-13.0-1.15","46182","List2A","black","man","","","","null","","","","","","","","",""
"null","is being greeted by","","html-keyboard-response","92","688460","0.0-13.0-2.15","46182","List2A","black","man","","","","null","","","","","","","","",""
"21428.5","","","survey-text","93","709894","0.0-13.0-3.15","46182","List2A","black","man","","","","","{""Q0"":""Mike is being greeted by Luke""}","<img src=""stim_listA/greet6.gif""style=""height:400px;""></stim_listA>","is being greeted by","","","","","",""
"null","<div style=""font-size:60px;"">+</div>","","html-keyboard-response","94","710396","0.0-13.0-0.16","46182","List2A","black","man","","","","null","","","","","","","","",""
"null","<img src=""stim_listA/seduce3.gif""style=""height:400px;""></stim_listA>","","html-keyboard-response","95","712397","0.0-13.0-1.16","46182","List2A","black","man","","","","null","","","","","","","","",""
"null","is seducing","","html-keyboard-response","96","714398","0.0-13.0-2.16","46182","List2A","black","man","","","","null","","","","","","","","",""
"16043.100000023842","","","survey-text","97","730442","0.0-13.0-3.16","46182","List2A","black","man","","","","","{""Q0"":""Kate is seducing Fred""}","<img src=""stim_listA/seduce3.gif""style=""height:400px;""></stim_listA>","is seducing","","","","","",""
"null","<div style=""font-size:60px;"">+</div>","","html-keyboard-response","98","730945","0.0-13.0-0.17","46182","List2A","black","man","","","","null","","","","","","","","",""
"null","<img src=""stim_listA/challenge1.gif""style=""height:400px;""></stim_listA>","","html-keyboard-response","99","732951","0.0-13.0-1.17","46182","List2A","black","man","","","","null","","","","","","","","",""
"null","is challenging","","html-keyboard-response","100","734954","0.0-13.0-2.17","46182","List2A","black","man","","","","null","","","","","","","","",""
"17376.299999952316","","","survey-text","101","752335","0.0-13.0-3.17","46182","List2A","black","man","","","","","{""Q0"":""Dave is challenging Ruth""}","<img src=""stim_listA/challenge1.gif""style=""height:400px;""></stim_listA>","is challenging","","","","","",""
"null","<div style=""font-size:60px;"">+</div>","","html-keyboard-response","102","752838","0.0-13.0-0.18","46182","List2A","black","man","","","","null","","","","","","","","",""
"null","<img src=""stim_listA/copy2.gif""style=""height:400px;""></stim_listA>","","html-keyboard-response","103","754840","0.0-13.0-1.18","46182","List2A","black","man","","","","null","","","","","","","","",""
"null","is being copied by","","html-keyboard-response","104","756841","0.0-13.0-2.18","46182","List2A","black","man","","","","null","","","","","","","","",""
"17780.700000047684","","","survey-text","105","774623","0.0-13.0-3.18","46182","List2A","black","man","","","","","{""Q0"":""Jane is being copied by Luke""}","<img src=""stim_listA/copy2.gif""style=""height:400px;""></stim_listA>","is being copied by","","","","","",""
"null","<div style=""font-size:60px;"">+</div>","","html-keyboard-response","106","775125","0.0-13.0-0.19","46182","List2A","black","man","","","","null","","","","","","","","",""
"null","<img src=""stim_listA/seduce2.gif""style=""height:400px;""></stim_listA>","","html-keyboard-response","107","777127","0.0-13.0-1.19","46182","List2A","black","man","","","","null","","","","","","","","",""
"null","is being seduced by","","html-keyboard-response","108","779140","0.0-13.0-2.19","46182","List2A","black","man","","","","null","","","","","","","","",""
"33538.299999952316","","","survey-text","109","812680","0.0-13.0-3.19","46182","List2A","black","man","","","","","{""Q0"":""Ruth is being seduced by Dave""}","<img src=""stim_listA/seduce2.gif""style=""height:400px;""></stim_listA>","is being seduced by","","","","","",""
"15274.700000047684","<img src='img/portrait_matrix_list2.jpg' style='width:900px;height:500px;''></img><p>If you have memorised all the portraits and names and are ready to start, press Continue.</p><p><strong>Please note: Your memory of these faces will be tested 4 times during this experiment.</strong></p>","0","html-button-response","110","827956","0.0-14.0-0.0","46182","List2A","black","man","","","","","","","","","","","","",""
"2758.899999976158","<img src=""portrait/BM1.jpg""style=""height:400px;""></img>","4","html-button-response","111","831717","0.0-14.0-1.0","46182","List2A","black","man","","true","4","","","","","","","","","",""
"null","CORRECT","","html-keyboard-response","112","833219","0.0-14.0-2.0-0.0","46182","List2A","black","man","","","","null","","","","","","","","",""
"2943.399999976158","<img src=""portrait/WM2.jpg""style=""height:400px;""></img>","7","html-button-response","113","836165","0.0-14.0-4.0","46182","List2A","black","man","","true","7","","","","","","","","","",""
"null","CORRECT","","html-keyboard-response","114","837667","0.0-14.0-5.0-0.0","46182","List2A","black","man","","","","null","","","","","","","","",""
"2086.5999999046326","<img src=""portrait/WW2.jpg""style=""height:400px;""></img>","3","html-button-response","115","839756","0.0-14.0-7.0","46182","List2A","black","man","","true","3","","","","","","","","","",""
"null","CORRECT","","html-keyboard-response","116","841259","0.0-14.0-8.0-0.0","46182","List2A","black","man","","","","null","","","","","","","","",""
"3008.600000023842","<img src=""portrait/BW2.jpg""style=""height:400px;""></img>","2","html-button-response","117","844269","0.0-14.0-10.0","46182","List2A","black","man","","true","2","","","","","","","","","",""
"null","CORRECT","","html-keyboard-response","118","845771","0.0-14.0-11.0-0.0","46182","List2A","black","man","","","","null","","","","","","","","",""
"2752.600000023842","<img src=""portrait/WM1.jpg""style=""height:400px;""></img>","6","html-button-response","119","848524","0.0-14.0-13.0","46182","List2A","black","man","","true","6","","","","","","","","","",""
"null","CORRECT","","html-keyboard-response","120","850027","0.0-14.0-14.0-0.0","46182","List2A","black","man","","","","null","","","","","","","","",""
"1992","<img src=""portrait/BW1.jpg""style=""height:400px;""></img>","0","html-button-response","121","852020","0.0-14.0-16.0","46182","List2A","black","man","","true","0","","","","","","","","","",""
"null","CORRECT","","html-keyboard-response","122","853523","0.0-14.0-17.0-0.0","46182","List2A","black","man","","","","null","","","","","","","","",""
"7104.100000023842","<img src=""portrait/WW1.jpg""style=""height:400px;""></img>","1","html-button-response","123","860629","0.0-14.0-19.0","46182","List2A","black","man","","true","1","","","","","","","","","",""
"null","CORRECT","","html-keyboard-response","124","862132","0.0-14.0-20.0-0.0","46182","List2A","black","man","","","","null","","","","","","","","",""
"1702.3999999761581","<img src=""portrait/BM2.jpg""style=""height:400px;""></img>","5","html-button-response","125","863837","0.0-14.0-22.0","46182","List2A","black","man","","true","5","","","","","","","","","",""
"null","CORRECT","","html-keyboard-response","126","865340","0.0-14.0-23.0-0.0","46182","List2A","black","man","","","","null","","","","","","","","",""
"1175.7000000476837","<p>You got 8 out of 8 right first time. Press Continue.</p>","0","html-button-response","127","866517","0.0-14.0-25.0","46182","List2A","black","man","","","","","","","","","","","","",""
"null","<div style=""font-size:60px;"">+</div>","","html-keyboard-response","128","868020","0.0-15.0-0.0","46182","List2A","black","man","","","","null","","","","","","","","",""
"null","<img src=""stim_listA/kiss8.gif""style=""height:400px;""></stim_listA>","","html-keyboard-response","129","870021","0.0-15.0-1.0","46182","List2A","black","man","","","","null","","","","","","","","",""
"null","is being kissed by","","html-keyboard-response","130","872023","0.0-15.0-2.0","46182","List2A","black","man","","","","null","","","","","","","","",""
"17166.5","","","survey-text","131","889191","0.0-15.0-3.0","46182","List2A","black","man","","","","","{""Q0"":""Kate is being kissed by Jane""}","<img src=""stim_listA/kiss8.gif""style=""height:400px;""></stim_listA>","is being kissed by","","","","","",""
"null","<div style=""font-size:60px;"">+</div>","","html-keyboard-response","132","889693","0.0-15.0-0.1","46182","List2A","black","man","","","","null","","","","","","","","",""
"null","<img src=""stim_listA/hug5.gif""style=""height:400px;""></stim_listA>","","html-keyboard-response","133","891695","0.0-15.0-1.1","46182","List2A","black","man","","","","null","","","","","","","","",""
"null","is hugging","","html-keyboard-response","134","893697","0.0-15.0-2.1","46182","List2A","black","man","","","","null","","","","","","","","",""
"11193.200000047684","","","survey-text","135","904892","0.0-15.0-3.1","46182","List2A","black","man","","","","","{""Q0"":""Fred is hugging Luke ""}","<img src=""stim_listA/hug5.gif""style=""height:400px;""></stim_listA>","is hugging","","","","","",""
"null","<div style=""font-size:60px;"">+</div>","","html-keyboard-response","136","905393","0.0-15.0-0.2","46182","List2A","black","man","","","","null","","","","","","","","",""
"null","<img src=""stim_listA/oppose1.gif""style=""height:400px;""></stim_listA>","","html-keyboard-response","137","907396","0.0-15.0-1.2","46182","List2A","black","man","","","","null","","","","","","","","",""
"null","is opposing","","html-keyboard-response","138","909398","0.0-15.0-2.2","46182","List2A","black","man","","","","null","","","","","","","","",""
"11629","","","survey-text","139","921028","0.0-15.0-3.2","46182","List2A","black","man","","","","","{""Q0"":""Jane is opposing Dave""}","<img src=""stim_listA/oppose1.gif""style=""height:400px;""></stim_listA>","is opposing","","","","","",""
"null","<div style=""font-size:60px;"">+</div>","","html-keyboard-response","140","921529","0.0-15.0-0.3","46182","List2A","black","man","","","","null","","","","","","","","",""
"null","<img src=""stim_listA/look8.gif""style=""height:400px;""></stim_listA>","","html-keyboard-response","141","923532","0.0-15.0-1.3","46182","List2A","black","man","","","","null","","","","","","","","",""
"null","is being looked at by","","html-keyboard-response","142","925534","0.0-15.0-2.3","46182","List2A","black","man","","","","null","","","","","","","","",""
"15847.600000023842","","","survey-text","143","941383","0.0-15.0-3.3","46182","List2A","black","man","","","","","{""Q0"":""Jane is being looked at by Kate""}","<img src=""stim_listA/look8.gif""style=""height:400px;""></stim_listA>","is being looked at by","","","","","",""
"null","<div style=""font-size:60px;"">+</div>","","html-keyboard-response","144","941886","0.0-15.0-0.4","46182","List2A","black","man","","","","null","","","","","","","","",""
"null","<img src=""stim_listA/greet7.gif""style=""height:400px;""></stim_listA>","","html-keyboard-response","145","943887","0.0-15.0-1.4","46182","List2A","black","man","","","","null","","","","","","","","",""
"null","is greeting","","html-keyboard-response","146","945892","0.0-15.0-2.4","46182","List2A","black","man","","","","null","","","","","","","","",""
"23203.199999928474","","","survey-text","147","969097","0.0-15.0-3.4","46182","List2A","black","man","","","","","{""Q0"":""Beth is greeting Jane""}","<img src=""stim_listA/greet7.gif""style=""height:400px;""></stim_listA>","is greeting","","","","","",""
"null","<div style=""font-size:60px;"">+</div>","","html-keyboard-response","148","969599","0.0-15.0-0.5","46182","List2A","black","man","","","","null","","","","","","","","",""
"null","<img src=""stim_listA/hug4.gif""style=""height:400px;""></stim_listA>","","html-keyboard-response","149","971603","0.0-15.0-1.5","46182","List2A","black","man","","","","null","","","","","","","","",""
"null","is being hugged by","","html-keyboard-response","150","973604","0.0-15.0-2.5","46182","List2A","black","man","","","","null","","","","","","","","",""
"11070.799999952316","","","survey-text","151","984677","0.0-15.0-3.5","46182","List2A","black","man","","","","","{""Q0"":""Mike is being hugged by Kate""}","<img src=""stim_listA/hug4.gif""style=""height:400px;""></stim_listA>","is being hugged by","","","","","",""
"null","<div style=""font-size:60px;"">+</div>","","html-keyboard-response","152","985184","0.0-15.0-0.6","46182","List2A","black","man","","","","null","","","","","","","","",""
"null","<img src=""stim_listA/oppose4.gif""style=""height:400px;""></stim_listA>","","html-keyboard-response","153","987187","0.0-15.0-1.6","46182","List2A","black","man","","","","null","","","","","","","","",""
"null","is being opposed by","","html-keyboard-response","154","989189","0.0-15.0-2.6","46182","List2A","black","man","","","","null","","","","","","","","",""
"10568.599999904633","","","survey-text","155","999759","0.0-15.0-3.6","46182","List2A","black","man","","","","","{""Q0"":""Beth is being opposed by Fred""}","<img src=""stim_listA/oppose4.gif""style=""height:400px;""></stim_listA>","is being opposed by","","","","","",""
"null","<div style=""font-size:60px;"">+</div>","","html-keyboard-response","156","1000260","0.0-15.0-0.7","46182","List2A","black","man","","","","null","","","","","","","","",""
"null","<img src=""stim_listA/oppose3.gif""style=""height:400px;""></stim_listA>","","html-keyboard-response","157","1002262","0.0-15.0-1.7","46182","List2A","black","man","","","","null","","","","","","","","",""
"null","is opposing","","html-keyboard-response","158","1004265","0.0-15.0-2.7","46182","List2A","black","man","","","","null","","","","","","","","",""
"7898.900000095367","","","survey-text","159","1012169","0.0-15.0-3.7","46182","List2A","black","man","","","","","{""Q0"":""Mike is opposing Kate""}","<img src=""stim_listA/oppose3.gif""style=""height:400px;""></stim_listA>","is opposing","","","","","",""
"null","<div style=""font-size:60px;"">+</div>","","html-keyboard-response","160","1012672","0.0-15.0-0.8","46182","List2A","black","man","","","","null","","","","","","","","",""
"null","<img src=""stim_listA/shout8.gif""style=""height:400px;""></stim_listA>","","html-keyboard-response","161","1014673","0.0-15.0-1.8","46182","List2A","black","man","","","","null","","","","","","","","",""
"null","is being shouted at by","","html-keyboard-response","162","1016674","0.0-15.0-2.8","46182","List2A","black","man","","","","null","","","","","","","","",""
"16614.799999952316","","","survey-text","163","1033290","0.0-15.0-3.8","46182","List2A","black","man","","","","","{""Q0"":""Jane is being shouted at by Kate""}","<img src=""stim_listA/shout8.gif""style=""height:400px;""></stim_listA>","is being shouted at by","","","","","",""
"null","<div style=""font-size:60px;"">+</div>","","html-keyboard-response","164","1033791","0.0-15.0-0.9","46182","List2A","black","man","","","","null","","","","","","","","",""
"null","<img src=""stim_listA/greet2.gif""style=""height:400px;""></stim_listA>","","html-keyboard-response","165","1035793","0.0-15.0-1.9","46182","List2A","black","man","","","","null","","","","","","","","",""
"null","is being greeted by","","html-keyboard-response","166","1037794","0.0-15.0-2.9","46182","List2A","black","man","","","","null","","","","","","","","",""
"10474.799999952316","","","survey-text","167","1048274","0.0-15.0-3.9","46182","List2A","black","man","","","","","{""Q0"":""Luke is being greeted by Jane""}","<img src=""stim_listA/greet2.gif""style=""height:400px;""></stim_listA>","is being greeted by","","","","","",""
"null","<div style=""font-size:60px;"">+</div>","","html-keyboard-response","168","1048775","0.0-15.0-0.10","46182","List2A","black","man","","","","null","","","","","","","","",""
"null","<img src=""stim_listA/oppose8.gif""style=""height:400px;""></stim_listA>","","html-keyboard-response","169","1050778","0.0-15.0-1.10","46182","List2A","black","man","","","","null","","","","","","","","",""
"null","is being opposed by","","html-keyboard-response","170","1052782","0.0-15.0-2.10","46182","List2A","black","man","","","","null","","","","","","","","",""
"13225.600000023842","","","survey-text","171","1066009","0.0-15.0-3.10","46182","List2A","black","man","","","","","{""Q0"":""Beth is being opposed by Ruth""}","<img src=""stim_listA/oppose8.gif""style=""height:400px;""></stim_listA>","is being opposed by","","","","","",""
"null","<div style=""font-size:60px;"">+</div>","","html-keyboard-response","172","1066511","0.0-15.0-0.11","46182","List2A","black","man","","","","null","","","","","","","","",""
"null","<img src=""stim_listA/seduce1.gif""style=""height:400px;""></stim_listA>","","html-keyboard-response","173","1068514","0.0-15.0-1.11","46182","List2A","black","man","","","","null","","","","","","","","",""
"null","is seducing","","html-keyboard-response","174","1070516","0.0-15.0-2.11","46182","List2A","black","man","","","","null","","","","","","","","",""
"7611.700000047684","","","survey-text","175","1078130","0.0-15.0-3.11","46182","List2A","black","man","","","","","{""Q0"":""Luke is seducing Jane""}","<img src=""stim_listA/seduce1.gif""style=""height:400px;""></stim_listA>","is seducing","","","","","",""
"null","<div style=""font-size:60px;"">+</div>","","html-keyboard-response","176","1078631","0.0-15.0-0.12","46182","List2A","black","man","","","","null","","","","","","","","",""
"null","<img src=""stim_listA/touch4.gif""style=""height:400px;""></stim_listA>","","html-keyboard-response","177","1080635","0.0-15.0-1.12","46182","List2A","black","man","","","","null","","","","","","","","",""
"null","is being touched by","","html-keyboard-response","178","1082636","0.0-15.0-2.12","46182","List2A","black","man","","","","null","","","","","","","","",""
"9451.5","","","survey-text","179","1092089","0.0-15.0-3.12","46182","List2A","black","man","","","","","{""Q0"":""Fred is being touched by Beth""}","<img src=""stim_listA/touch4.gif""style=""height:400px;""></stim_listA>","is being touched by","","","","","",""
"null","<div style=""font-size:60px;"">+</div>","","html-keyboard-response","180","1092590","0.0-15.0-0.13","46182","List2A","black","man","","","","null","","","","","","","","",""
"null","<img src=""stim_listA/oppose5.gif""style=""height:400px;""></stim_listA>","","html-keyboard-response","181","1094592","0.0-15.0-1.13","46182","List2A","black","man","","","","null","","","","","","","","",""
"null","is opposing","","html-keyboard-response","182","1096594","0.0-15.0-2.13","46182","List2A","black","man","","","","null","","","","","","","","",""
"11762.199999928474","","","survey-text","183","1108360","0.0-15.0-3.13","46182","List2A","black","man","","","","","{""Q0"":""Mike is opposing Dave""}","<img src=""stim_listA/oppose5.gif""style=""height:400px;""></stim_listA>","is opposing","","","","","",""
"null","<div style=""font-size:60px;"">+</div>","","html-keyboard-response","184","1108862","0.0-15.0-0.14","46182","List2A","black","man","","","","null","","","","","","","","",""
"null","<img src=""stim_listA/greet3.gif""style=""height:400px;""></stim_listA>","","html-keyboard-response","185","1110863","0.0-15.0-1.14","46182","List2A","black","man","","","","null","","","","","","","","",""
"null","is greeting","","html-keyboard-response","186","1112865","0.0-15.0-2.14","46182","List2A","black","man","","","","null","","","","","","","","",""
"8664.900000095367","","","survey-text","187","1121534","0.0-15.0-3.14","46182","List2A","black","man","","","","","{""Q0"":""Mike is greeting Beth""}","<img src=""stim_listA/greet3.gif""style=""height:400px;""></stim_listA>","is greeting","","","","","",""
"null","<div style=""font-size:60px;"">+</div>","","html-keyboard-response","188","1122035","0.0-15.0-0.15","46182","List2A","black","man","","","","null","","","","","","","","",""
"null","<img src=""stim_listA/touch7.gif""style=""height:400px;""></stim_listA>","","html-keyboard-response","189","1124038","0.0-15.0-1.15","46182","List2A","black","man","","","","null","","","","","","","","",""
"null","is touching","","html-keyboard-response","190","1126039","0.0-15.0-2.15","46182","List2A","black","man","","","","null","","","","","","","","",""
"6211.800000071526","","","survey-text","191","1132252","0.0-15.0-3.15","46182","List2A","black","man","","","","","{""Q0"":""Jane is touching Kate""}","<img src=""stim_listA/touch7.gif""style=""height:400px;""></stim_listA>","is touching","","","","","",""
"null","<div style=""font-size:60px;"">+</div>","","html-keyboard-response","192","1132753","0.0-15.0-0.16","46182","List2A","black","man","","","","null","","","","","","","","",""
"null","<img src=""stim_listA/look5.gif""style=""height:400px;""></stim_listA>","","html-keyboard-response","193","1134755","0.0-15.0-1.16","46182","List2A","black","man","","","","null","","","","","","","","",""
"null","is looking at","","html-keyboard-response","194","1136758","0.0-15.0-2.16","46182","List2A","black","man","","","","null","","","","","","","","",""
"9716.900000095367","","","survey-text","195","1146476","0.0-15.0-3.16","46182","List2A","black","man","","","","","{""Q0"":""Luke is looking at Fred""}","<img src=""stim_listA/look5.gif""style=""height:400px;""></stim_listA>","is looking at","","","","","",""
"null","<div style=""font-size:60px;"">+</div>","","html-keyboard-response","196","1146977","0.0-15.0-0.17","46182","List2A","black","man","","","","null","","","","","","","","",""
"null","<img src=""stim_listA/look2.gif""style=""height:400px;""></stim_listA>","","html-keyboard-response","197","1148979","0.0-15.0-1.17","46182","List2A","black","man","","","","null","","","","","","","","",""
"null","is being looked at by","","html-keyboard-response","198","1150981","0.0-15.0-2.17","46182","List2A","black","man","","","","null","","","","","","","","",""
"27584.599999904633","","","survey-text","199","1178570","0.0-15.0-3.17","46182","List2A","black","man","","","","","{""Q0"":""Jane is being looked at by Dave""}","<img src=""stim_listA/look2.gif""style=""height:400px;""></stim_listA>","is being looked at by","","","","","",""
"null","<div style=""font-size:60px;"">+</div>","","html-keyboard-response","200","1179072","0.0-15.0-0.18","46182","List2A","black","man","","","","null","","","","","","","","",""
"null","<img src=""stim_listA/kiss6.gif""style=""height:400px;""></stim_listA>","","html-keyboard-response","201","1181073","0.0-15.0-1.18","46182","List2A","black","man","","","","null","","","","","","","","",""
"null","is being kissed by","","html-keyboard-response","202","1183075","0.0-15.0-2.18","46182","List2A","black","man","","","","null","","","","","","","","",""
"15266.100000023842","","","survey-text","203","1198343","0.0-15.0-3.18","46182","List2A","black","man","","","","","{""Q0"":""Mike is being kissed by Dave""}","<img src=""stim_listA/kiss6.gif""style=""height:400px;""></stim_listA>","is being kissed by","","","","","",""
"null","<div style=""font-size:60px;"">+</div>","","html-keyboard-response","204","1198844","0.0-15.0-0.19","46182","List2A","black","man","","","","null","","","","","","","","",""
"null","<img src=""stim_listA/look3.gif""style=""height:400px;""></stim_listA>","","html-keyboard-response","205","1200845","0.0-15.0-1.19","46182","List2A","black","man","","","","null","","","","","","","","",""
"null","is looking at","","html-keyboard-response","206","1202846","0.0-15.0-2.19","46182","List2A","black","man","","","","null","","","","","","","","",""
"10711.599999904633","","","survey-text","207","1213559","0.0-15.0-3.19","46182","List2A","black","man","","","","","{""Q0"":""Beth is looking at Fred""}","<img src=""stim_listA/look3.gif""style=""height:400px;""></stim_listA>","is looking at","","","","","",""
"9811.699999928474","<img src='img/portrait_matrix_list2.jpg' style='width:900px;height:500px;''></img><p>If you have memorised all the portraits and names and are ready to start, press Continue.</p><p><strong>Please note: Your memory of these faces will be tested 4 times during this experiment.</strong></p>","0","html-button-response","208","1223372","0.0-16.0-0.0","46182","List2A","black","man","","","","","","","","","","","","",""
"4134.899999976158","<img src=""portrait/BW2.jpg""style=""height:400px;""></img>","2","html-button-response","209","1228508","0.0-16.0-1.0","46182","List2A","black","man","","true","2","","","","","","","","","",""
"null","CORRECT","","html-keyboard-response","210","1230011","0.0-16.0-2.0-0.0","46182","List2A","black","man","","","","null","","","","","","","","",""
"1990.8000000715256","<img src=""portrait/BW1.jpg""style=""height:400px;""></img>","0","html-button-response","211","1232004","0.0-16.0-4.0","46182","List2A","black","man","","true","0","","","","","","","","","",""
"null","CORRECT","","html-keyboard-response","212","1233509","0.0-16.0-5.0-0.0","46182","List2A","black","man","","","","null","","","","","","","","",""
"4606.800000071526","<img src=""portrait/WW1.jpg""style=""height:400px;""></img>","1","html-button-response","213","1238117","0.0-16.0-7.0","46182","List2A","black","man","","true","1","","","","","","","","","",""
"null","CORRECT","","html-keyboard-response","214","1239620","0.0-16.0-8.0-0.0","46182","List2A","black","man","","","","null","","","","","","","","",""
"1887","<img src=""portrait/WM2.jpg""style=""height:400px;""></img>","7","html-button-response","215","1241508","0.0-16.0-10.0","46182","List2A","black","man","","true","7","","","","","","","","","",""
"null","CORRECT","","html-keyboard-response","216","1243010","0.0-16.0-11.0-0.0","46182","List2A","black","man","","","","null","","","","","","","","",""
"2352.5","<img src=""portrait/WM1.jpg""style=""height:400px;""></img>","6","html-button-response","217","1245365","0.0-16.0-13.0","46182","List2A","black","man","","true","6","","","","","","","","","",""
"null","CORRECT","","html-keyboard-response","218","1246883","0.0-16.0-14.0-0.0","46182","List2A","black","man","","","","null","","","","","","","","",""
"1367.3999999761581","<img src=""portrait/BM1.jpg""style=""height:400px;""></img>","4","html-button-response","219","1248252","0.0-16.0-16.0","46182","List2A","black","man","","true","4","","","","","","","","","",""
"null","CORRECT","","html-keyboard-response","220","1249764","0.0-16.0-17.0-0.0","46182","List2A","black","man","","","","null","","","","","","","","",""
"2271.2999999523163","<img src=""portrait/BM2.jpg""style=""height:400px;""></img>","5","html-button-response","221","1252036","0.0-16.0-19.0","46182","List2A","black","man","","true","5","","","","","","","","","",""
"null","CORRECT","","html-keyboard-response","222","1253541","0.0-16.0-20.0-0.0","46182","List2A","black","man","","","","null","","","","","","","","",""
"3005.100000023842","<img src=""portrait/WW2.jpg""style=""height:400px;""></img>","3","html-button-response","223","1256549","0.0-16.0-22.0","46182","List2A","black","man","","true","3","","","","","","","","","",""
"null","CORRECT","","html-keyboard-response","224","1258052","0.0-16.0-23.0-0.0","46182","List2A","black","man","","","","null","","","","","","","","",""
"1438.2000000476837","<p>You got 8 out of 8 right first time. Press Continue.</p>","0","html-button-response","225","1259492","0.0-16.0-25.0","46182","List2A","black","man","","","","","","","","","","","","",""
"null","<div style=""font-size:60px;"">+</div>","","html-keyboard-response","226","1260996","0.0-17.0-0.0","46182","List2A","black","man","","","","null","","","","","","","","",""
"null","<img src=""stim_listA/hug8.gif""style=""height:400px;""></stim_listA>","","html-keyboard-response","227","1262998","0.0-17.0-1.0","46182","List2A","black","man","","","","null","","","","","","","","",""
"null","is being hugged by","","html-keyboard-response","228","1264999","0.0-17.0-2.0","46182","List2A","black","man","","","","null","","","","","","","","",""
"11845.700000047684","","","survey-text","229","1276850","0.0-17.0-3.0","46182","List2A","black","man","","","","","{""Q0"":""Jane is being hugged by Kate""}","<img src=""stim_listA/hug8.gif""style=""height:400px;""></stim_listA>","is being hugged by","","","","","",""
"null","<div style=""font-size:60px;"">+</div>","","html-keyboard-response","230","1277351","0.0-17.0-0.1","46182","List2A","black","man","","","","null","","","","","","","","",""
"null","<img src=""stim_listA/copy3.gif""style=""height:400px;""></stim_listA>","","html-keyboard-response","231","1279353","0.0-17.0-1.1","46182","List2A","black","man","","","","null","","","","","","","","",""
"null","is copying","","html-keyboard-response","232","1281354","0.0-17.0-2.1","46182","List2A","black","man","","","","null","","","","","","","","",""
"10194.600000023842","","","survey-text","233","1291553","0.0-17.0-3.1","46182","List2A","black","man","","","","","{""Q0"":""Mike is copying Beth""}","<img src=""stim_listA/copy3.gif""style=""height:400px;""></stim_listA>","is copying","","","","","",""
"null","<div style=""font-size:60px;"">+</div>","","html-keyboard-response","234","1292054","0.0-17.0-0.2","46182","List2A","black","man","","","","null","","","","","","","","",""
"null","<img src=""stim_listA/shout1.gif""style=""height:400px;""></stim_listA>","","html-keyboard-response","235","1294056","0.0-17.0-1.2","46182","List2A","black","man","","","","null","","","","","","","","",""
"null","is shouting at","","html-keyboard-response","236","1296056","0.0-17.0-2.2","46182","List2A","black","man","","","","null","","","","","","","","",""
"9567.600000023842","","","survey-text","237","1305625","0.0-17.0-3.2","46182","List2A","black","man","","","","","{""Q0"":""Luke is shouting at Ruth""}","<img src=""stim_listA/shout1.gif""style=""height:400px;""></stim_listA>","is shouting at","","","","","",""
"null","<div style=""font-size:60px;"">+</div>","","html-keyboard-response","238","1306127","0.0-17.0-0.3","46182","List2A","black","man","","","","null","","","","","","","","",""
"null","<img src=""stim_listA/challenge4.gif""style=""height:400px;""></stim_listA>","","html-keyboard-response","239","1308128","0.0-17.0-1.3","46182","List2A","black","man","","","","null","","","","","","","","",""
"null","is being challenged by","","html-keyboard-response","240","1310129","0.0-17.0-2.3","46182","List2A","black","man","","","","null","","","","","","","","",""
"12009.199999928474","","","survey-text","241","1322139","0.0-17.0-3.3","46182","List2A","black","man","","","","","{""Q0"":""Kate is being challenged by Fred""}","<img src=""stim_listA/challenge4.gif""style=""height:400px;""></stim_listA>","is being challenged by","","","","","",""
"null","<div style=""font-size:60px;"">+</div>","","html-keyboard-response","242","1322641","0.0-17.0-0.4","46182","List2A","black","man","","","","null","","","","","","","","",""
"null","<img src=""stim_listA/kiss5.gif""style=""height:400px;""></stim_listA>","","html-keyboard-response","243","1324642","0.0-17.0-1.4","46182","List2A","black","man","","","","null","","","","","","","","",""
"null","is kissing","","html-keyboard-response","244","1326644","0.0-17.0-2.4","46182","List2A","black","man","","","","null","","","","","","","","",""
"7295","","","survey-text","245","1333940","0.0-17.0-3.4","46182","List2A","black","man","","","","","{""Q0"":""Fred is kissing Mike""}","<img src=""stim_listA/kiss5.gif""style=""height:400px;""></stim_listA>","is kissing","","","","","",""
"null","<div style=""font-size:60px;"">+</div>","","html-keyboard-response","246","1334444","0.0-17.0-0.5","46182","List2A","black","man","","","","null","","","","","","","","",""
"null","<img src=""stim_listA/copy7.gif""style=""height:400px;""></stim_listA>","","html-keyboard-response","247","1336446","0.0-17.0-1.5","46182","List2A","black","man","","","","null","","","","","","","","",""
"null","is copying","","html-keyboard-response","248","1338447","0.0-17.0-2.5","46182","List2A","black","man","","","","null","","","","","","","","",""
"13609.099999904633","","","survey-text","249","1352061","0.0-17.0-3.5","46182","List2A","black","man","","","","","{""Q0"":""Beth is copying Jane""}","<img src=""stim_listA/copy7.gif""style=""height:400px;""></stim_listA>","is copying","","","","","",""
"null","<div style=""font-size:60px;"">+</div>","","html-keyboard-response","250","1352562","0.0-17.0-0.6","46182","List2A","black","man","","","","null","","","","","","","","",""
"null","<img src=""stim_listA/copy4.gif""style=""height:400px;""></stim_listA>","","html-keyboard-response","251","1354563","0.0-17.0-1.6","46182","List2A","black","man","","","","null","","","","","","","","",""
"null","is being copied by","","html-keyboard-response","252","1356564","0.0-17.0-2.6","46182","List2A","black","man","","","","null","","","","","","","","",""
"9444.399999976158","","","survey-text","253","1366010","0.0-17.0-3.6","46182","List2A","black","man","","","","","{""Q0"":""Fred is being copied by Kate""}","<img src=""stim_listA/copy4.gif""style=""height:400px;""></stim_listA>","is being copied by","","","","","",""
"null","<div style=""font-size:60px;"">+</div>","","html-keyboard-response","254","1366511","0.0-17.0-0.7","46182","List2A","black","man","","","","null","","","","","","","","",""
"null","<img src=""stim_listA/challenge8.gif""style=""height:400px;""></stim_listA>","","html-keyboard-response","255","1368514","0.0-17.0-1.7","46182","List2A","black","man","","","","null","","","","","","","","",""
"null","is being challenged by","","html-keyboard-response","256","1370515","0.0-17.0-2.7","46182","List2A","black","man","","","","null","","","","","","","","",""
"11760.799999952316","","","survey-text","257","1382278","0.0-17.0-3.7","46182","List2A","black","man","","","","","{""Q0"":""Ruth is being challenged by kate""}","<img src=""stim_listA/challenge8.gif""style=""height:400px;""></stim_listA>","is being challenged by","","","","","",""
"null","<div style=""font-size:60px;"">+</div>","","html-keyboard-response","258","1382778","0.0-17.0-0.8","46182","List2A","black","man","","","","null","","","","","","","","",""
"null","<img src=""stim_listA/shout3.gif""style=""height:400px;""></stim_listA>","","html-keyboard-response","259","1384782","0.0-17.0-1.8","46182","List2A","black","man","","","","null","","","","","","","","",""
"null","is shouting at","","html-keyboard-response","260","1386784","0.0-17.0-2.8","46182","List2A","black","man","","","","null","","","","","","","","",""
"11445.700000047684","","","survey-text","261","1398235","0.0-17.0-3.8","46182","List2A","black","man","","","","","{""Q0"":""Beth is shouting at Fred""}","<img src=""stim_listA/shout3.gif""style=""height:400px;""></stim_listA>","is shouting at","","","","","",""
"null","<div style=""font-size:60px;"">+</div>","","html-keyboard-response","262","1398737","0.0-17.0-0.9","46182","List2A","black","man","","","","null","","","","","","","","",""
"null","<img src=""stim_listA/look7.gif""style=""height:400px;""></stim_listA>","","html-keyboard-response","263","1400738","0.0-17.0-1.9","46182","List2A","black","man","","","","null","","","","","","","","",""
"null","is looking at","","html-keyboard-response","264","1402740","0.0-17.0-2.9","46182","List2A","black","man","","","","null","","","","","","","","",""
"11572.200000047684","","","survey-text","265","1414313","0.0-17.0-3.9","46182","List2A","black","man","","","","","{""Q0"":""Beth is looking at Ruth""}","<img src=""stim_listA/look7.gif""style=""height:400px;""></stim_listA>","is looking at","","","","","",""
"null","<div style=""font-size:60px;"">+</div>","","html-keyboard-response","266","1414814","0.0-17.0-0.10","46182","List2A","black","man","","","","null","","","","","","","","",""
"null","<img src=""stim_listA/challenge2.gif""style=""height:400px;""></stim_listA>","","html-keyboard-response","267","1416816","0.0-17.0-1.10","46182","List2A","black","man","","","","null","","","","","","","","",""
"null","is being challenged by","","html-keyboard-response","268","1418822","0.0-17.0-2.10","46182","List2A","black","man","","","","null","","","","","","","","",""
"13916","","","survey-text","269","1432738","0.0-17.0-3.10","46182","List2A","black","man","","","","","{""Q0"":""Luke is being challenged by Ruth""}","<img src=""stim_listA/challenge2.gif""style=""height:400px;""></stim_listA>","is being challenged by","","","","","",""
"null","<div style=""font-size:60px;"">+</div>","","html-keyboard-response","270","1433250","0.0-17.0-0.11","46182","List2A","black","man","","","","null","","","","","","","","",""
"null","<img src=""stim_listA/greet8.gif""style=""height:400px;""></stim_listA>","","html-keyboard-response","271","1435251","0.0-17.0-1.11","46182","List2A","black","man","","","","null","","","","","","","","",""
"null","is being greeted by","","html-keyboard-response","272","1437254","0.0-17.0-2.11","46182","List2A","black","man","","","","null","","","","","","","","",""
"9582.5","","","survey-text","273","1446841","0.0-17.0-3.11","46182","List2A","black","man","","","","","{""Q0"":""Ruth is being greeted by Kate""}","<img src=""stim_listA/greet8.gif""style=""height:400px;""></stim_listA>","is being greeted by","","","","","",""
"null","<div style=""font-size:60px;"">+</div>","","html-keyboard-response","274","1447343","0.0-17.0-0.12","46182","List2A","black","man","","","","null","","","","","","","","",""
"null","<img src=""stim_listA/greet4.gif""style=""height:400px;""></stim_listA>","","html-keyboard-response","275","1449347","0.0-17.0-1.12","46182","List2A","black","man","","","","null","","","","","","","","",""
"null","is being greeted by","","html-keyboard-response","276","1451361","0.0-17.0-2.12","46182","List2A","black","man","","","","null","","","","","","","","",""
"7507","","","survey-text","277","1458873","0.0-17.0-3.12","46182","List2A","black","man","","","","","{""Q0"":""Kate is being greeted by Fred""}","<img src=""stim_listA/greet4.gif""style=""height:400px;""></stim_listA>","is being greeted by","","","","","",""
"null","<div style=""font-size:60px;"">+</div>","","html-keyboard-response","278","1459374","0.0-17.0-0.13","46182","List2A","black","man","","","","null","","","","","","","","",""
"null","<img src=""stim_listA/kiss4.gif""style=""height:400px;""></stim_listA>","","html-keyboard-response","279","1461379","0.0-17.0-1.13","46182","List2A","black","man","","","","null","","","","","","","","",""
"null","is being kissed by","","html-keyboard-response","280","1463380","0.0-17.0-2.13","46182","List2A","black","man","","","","null","","","","","","","","",""
"9205.299999952316","","","survey-text","281","1472587","0.0-17.0-3.13","46182","List2A","black","man","","","","","{""Q0"":""Mike is being kissed by Kate""}","<img src=""stim_listA/kiss4.gif""style=""height:400px;""></stim_listA>","is being kissed by","","","","","",""
"null","<div style=""font-size:60px;"">+</div>","","html-keyboard-response","282","1473089","0.0-17.0-0.14","46182","List2A","black","man","","","","null","","","","","","","","",""
"null","<img src=""stim_listA/shout2.gif""style=""height:400px;""></stim_listA>","","html-keyboard-response","283","1475092","0.0-17.0-1.14","46182","List2A","black","man","","","","null","","","","","","","","",""
"null","is being shouted at by","","html-keyboard-response","284","1477094","0.0-17.0-2.14","46182","List2A","black","man","","","","null","","","","","","","","",""
"20284.600000023842","","","survey-text","285","1497380","0.0-17.0-3.14","46182","List2A","black","man","","","","","{""Q0"":""Jane is being shouted at by Dave""}","<img src=""stim_listA/shout2.gif""style=""height:400px;""></stim_listA>","is being shouted at by","","","","","",""
"null","<div style=""font-size:60px;"">+</div>","","html-keyboard-response","286","1497883","0.0-17.0-0.15","46182","List2A","black","man","","","","null","","","","","","","","",""
"null","<img src=""stim_listA/copy1.gif""style=""height:400px;""></stim_listA>","","html-keyboard-response","287","1499884","0.0-17.0-1.15","46182","List2A","black","man","","","","null","","","","","","","","",""
"null","is copying","","html-keyboard-response","288","1501885","0.0-17.0-2.15","46182","List2A","black","man","","","","null","","","","","","","","",""
"10159.600000023842","","","survey-text","289","1512046","0.0-17.0-3.15","46182","List2A","black","man","","","","","{""Q0"":""Dave is copying Ruth""}","<img src=""stim_listA/copy1.gif""style=""height:400px;""></stim_listA>","is copying","","","","","",""
"null","<div style=""font-size:60px;"">+</div>","","html-keyboard-response","290","1512547","0.0-17.0-0.16","46182","List2A","black","man","","","","null","","","","","","","","",""
"null","<img src=""stim_listA/greet1.gif""style=""height:400px;""></stim_listA>","","html-keyboard-response","291","1514549","0.0-17.0-1.16","46182","List2A","black","man","","","","null","","","","","","","","",""
"null","is greeting","","html-keyboard-response","292","1516549","0.0-17.0-2.16","46182","List2A","black","man","","","","null","","","","","","","","",""
"6591.799999952316","","","survey-text","293","1523143","0.0-17.0-3.16","46182","List2A","black","man","","","","","{""Q0"":""Ruth is greeting Dave""}","<img src=""stim_listA/greet1.gif""style=""height:400px;""></stim_listA>","is greeting","","","","","",""
"null","<div style=""font-size:60px;"">+</div>","","html-keyboard-response","294","1523644","0.0-17.0-0.17","46182","List2A","black","man","","","","null","","","","","","","","",""
"null","<img src=""stim_listA/seduce6.gif""style=""height:400px;""></stim_listA>","","html-keyboard-response","295","1525646","0.0-17.0-1.17","46182","List2A","black","man","","","","null","","","","","","","","",""
"null","is being seduced by","","html-keyboard-response","296","1527647","0.0-17.0-2.17","46182","List2A","black","man","","","","null","","","","","","","","",""
"15390.299999952316","","","survey-text","297","1543039","0.0-17.0-3.17","46182","List2A","black","man","","","","","{""Q0"":""Fred is being seduced by Dave""}","<img src=""stim_listA/seduce6.gif""style=""height:400px;""></stim_listA>","is being seduced by","","","","","",""
"null","<div style=""font-size:60px;"">+</div>","","html-keyboard-response","298","1543541","0.0-17.0-0.18","46182","List2A","black","man","","","","null","","","","","","","","",""
"null","<img src=""stim_listA/hug1.gif""style=""height:400px;""></stim_listA>","","html-keyboard-response","299","1545544","0.0-17.0-1.18","46182","List2A","black","man","","","","null","","","","","","","","",""
"null","is hugging","","html-keyboard-response","300","1547546","0.0-17.0-2.18","46182","List2A","black","man","","","","null","","","","","","","","",""
"12713.399999976158","","","survey-text","301","1560261","0.0-17.0-3.18","46182","List2A","black","man","","","","","{""Q0"":""Luke is hugging Ruth""}","<img src=""stim_listA/hug1.gif""style=""height:400px;""></stim_listA>","is hugging","","","","","",""
"null","<div style=""font-size:60px;"">+</div>","","html-keyboard-response","302","1560763","0.0-17.0-0.19","46182","List2A","black","man","","","","null","","","","","","","","",""
"null","<img src=""stim_listA/challenge3.gif""style=""height:400px;""></stim_listA>","","html-keyboard-response","303","1562767","0.0-17.0-1.19","46182","List2A","black","man","","","","null","","","","","","","","",""
"null","is challenging","","html-keyboard-response","304","1564769","0.0-17.0-2.19","46182","List2A","black","man","","","","null","","","","","","","","",""
"10498.599999904633","","","survey-text","305","1575269","0.0-17.0-3.19","46182","List2A","black","man","","","","","{""Q0"":""Mike is challenging Beth""}","<img src=""stim_listA/challenge3.gif""style=""height:400px;""></stim_listA>","is challenging","","","","","",""
"5629.200000047684","<img src='img/portrait_matrix_list2.jpg' style='width:900px;height:500px;''></img><p>If you have memorised all the portraits and names and are ready to start, press Continue.</p><p><strong>Please note: Your memory of these faces will be tested 4 times during this experiment.</strong></p>","0","html-button-response","306","1580900","0.0-18.0-0.0","46182","List2A","black","man","","","","","","","","","","","","",""
"2558.899999976158","<img src=""portrait/WM1.jpg""style=""height:400px;""></img>","6","html-button-response","307","1584461","0.0-18.0-1.0","46182","List2A","black","man","","true","6","","","","","","","","","",""
"null","CORRECT","","html-keyboard-response","308","1585964","0.0-18.0-2.0-0.0","46182","List2A","black","man","","","","null","","","","","","","","",""
"2095","<img src=""portrait/BW1.jpg""style=""height:400px;""></img>","0","html-button-response","309","1588060","0.0-18.0-4.0","46182","List2A","black","man","","true","0","","","","","","","","","",""
"null","CORRECT","","html-keyboard-response","310","1589563","0.0-18.0-5.0-0.0","46182","List2A","black","man","","","","null","","","","","","","","",""
"1638.6000000238419","<img src=""portrait/WM2.jpg""style=""height:400px;""></img>","7","html-button-response","311","1591204","0.0-18.0-7.0","46182","List2A","black","man","","true","7","","","","","","","","","",""
"null","CORRECT","","html-keyboard-response","312","1592709","0.0-18.0-8.0-0.0","46182","List2A","black","man","","","","null","","","","","","","","",""
"2692.8000000715256","<img src=""portrait/BM2.jpg""style=""height:400px;""></img>","5","html-button-response","313","1595404","0.0-18.0-10.0","46182","List2A","black","man","","true","5","","","","","","","","","",""
"null","CORRECT","","html-keyboard-response","314","1596906","0.0-18.0-11.0-0.0","46182","List2A","black","man","","","","null","","","","","","","","",""
"1943.3999999761581","<img src=""portrait/WW1.jpg""style=""height:400px;""></img>","1","html-button-response","315","1598852","0.0-18.0-13.0","46182","List2A","black","man","","true","1","","","","","","","","","",""
"null","CORRECT","","html-keyboard-response","316","1600355","0.0-18.0-14.0-0.0","46182","List2A","black","man","","","","null","","","","","","","","",""
"2832.399999976158","<img src=""portrait/BW2.jpg""style=""height:400px;""></img>","2","html-button-response","317","1603188","0.0-18.0-16.0","46182","List2A","black","man","","true","2","","","","","","","","","",""
"null","CORRECT","","html-keyboard-response","318","1604691","0.0-18.0-17.0-0.0","46182","List2A","black","man","","","","null","","","","","","","","",""
"2231","<img src=""portrait/BM1.jpg""style=""height:400px;""></img>","4","html-button-response","319","1606924","0.0-18.0-19.0","46182","List2A","black","man","","true","4","","","","","","","","","",""
"null","CORRECT","","html-keyboard-response","320","1608425","0.0-18.0-20.0-0.0","46182","List2A","black","man","","","","null","","","","","","","","",""
"2249.600000023842","<img src=""portrait/WW2.jpg""style=""height:400px;""></img>","3","html-button-response","321","1610676","0.0-18.0-22.0","46182","List2A","black","man","","true","3","","","","","","","","","",""
"null","CORRECT","","html-keyboard-response","322","1612178","0.0-18.0-23.0-0.0","46182","List2A","black","man","","","","null","","","","","","","","",""
"1624.5","<p>You got 8 out of 8 right first time. Press Continue.</p>","0","html-button-response","323","1613803","0.0-18.0-25.0","46182","List2A","black","man","","","","","","","","","","","","",""
"null","<div style=""font-size:60px;"">+</div>","","html-keyboard-response","324","1615306","0.0-19.0-0.0","46182","List2A","black","man","","","","null","","","","","","","","",""
"null","<img src=""stim_listA/hug2.gif""style=""height:400px;""></stim_listA>","","html-keyboard-response","325","1617310","0.0-19.0-1.0","46182","List2A","black","man","","","","null","","","","","","","","",""
"null","is being hugged by","","html-keyboard-response","326","1619311","0.0-19.0-2.0","46182","List2A","black","man","","","","null","","","","","","","","",""
"9019.100000023842","","","survey-text","327","1628332","0.0-19.0-3.0","46182","List2A","black","man","","","","","{""Q0"":""Dave is being hugged by Jane""}","<img src=""stim_listA/hug2.gif""style=""height:400px;""></stim_listA>","is being hugged by","","","","","",""
"null","<div style=""font-size:60px;"">+</div>","","html-keyboard-response","328","1628834","0.0-19.0-0.1","46182","List2A","black","man","","","","null","","","","","","","","",""
"null","<img src=""stim_listA/copy6.gif""style=""height:400px;""></stim_listA>","","html-keyboard-response","329","1630836","0.0-19.0-1.1","46182","List2A","black","man","","","","null","","","","","","","","",""
"null","is being copied by","","html-keyboard-response","330","1632837","0.0-19.0-2.1","46182","List2A","black","man","","","","null","","","","","","","","",""
"12832.200000047684","","","survey-text","331","1645670","0.0-19.0-3.1","46182","List2A","black","man","","","","","{""Q0"":""Mike is being copied by Luke""}","<img src=""stim_listA/copy6.gif""style=""height:400px;""></stim_listA>","is being copied by","","","","","",""
"null","<div style=""font-size:60px;"">+</div>","","html-keyboard-response","332","1646171","0.0-19.0-0.2","46182","List2A","black","man","","","","null","","","","","","","","",""
"null","<img src=""stim_listA/look4.gif""style=""height:400px;""></stim_listA>","","html-keyboard-response","333","1648173","0.0-19.0-1.2","46182","List2A","black","man","","","","null","","","","","","","","",""
"null","is being looked at by","","html-keyboard-response","334","1650176","0.0-19.0-2.2","46182","List2A","black","man","","","","null","","","","","","","","",""
"9509.599999904633","","","survey-text","335","1659687","0.0-19.0-3.2","46182","List2A","black","man","","","","","{""Q0"":""Mike is being looked at by Kate""}","<img src=""stim_listA/look4.gif""style=""height:400px;""></stim_listA>","is being looked at by","","","","","",""
"null","<div style=""font-size:60px;"">+</div>","","html-keyboard-response","336","1660188","0.0-19.0-0.3","46182","List2A","black","man","","","","null","","","","","","","","",""
"null","<img src=""stim_listA/kiss7.gif""style=""height:400px;""></stim_listA>","","html-keyboard-response","337","1662193","0.0-19.0-1.3","46182","List2A","black","man","","","","null","","","","","","","","",""
"null","is kissing","","html-keyboard-response","338","1664195","0.0-19.0-2.3","46182","List2A","black","man","","","","null","","","","","","","","",""
"9945.899999976158","","","survey-text","339","1674145","0.0-19.0-3.3","46182","List2A","black","man","","","","","{""Q0"":""Beth is kissing Ruth""}","<img src=""stim_listA/kiss7.gif""style=""height:400px;""></stim_listA>","is kissing","","","","","",""
"null","<div style=""font-size:60px;"">+</div>","","html-keyboard-response","340","1674647","0.0-19.0-0.4","46182","List2A","black","man","","","","null","","","","","","","","",""
"null","<img src=""stim_listA/kiss1.gif""style=""height:400px;""></stim_listA>","","html-keyboard-response","341","1676649","0.0-19.0-1.4","46182","List2A","black","man","","","","null","","","","","","","","",""
"null","is kissing","","html-keyboard-response","342","1678651","0.0-19.0-2.4","46182","List2A","black","man","","","","null","","","","","","","","",""
"5630.100000023842","","","survey-text","343","1684283","0.0-19.0-3.4","46182","List2A","black","man","","","","","{""Q0"":""Luke is kissing Ruth ""}","<img src=""stim_listA/kiss1.gif""style=""height:400px;""></stim_listA>","is kissing","","","","","",""
"null","<div style=""font-size:60px;"">+</div>","","html-keyboard-response","344","1684785","0.0-19.0-0.5","46182","List2A","black","man","","","","null","","","","","","","","",""
"null","<img src=""stim_listA/seduce4.gif""style=""height:400px;""></stim_listA>","","html-keyboard-response","345","1686787","0.0-19.0-1.5","46182","List2A","black","man","","","","null","","","","","","","","",""
"null","is being seduced by","","html-keyboard-response","346","1688789","0.0-19.0-2.5","46182","List2A","black","man","","","","null","","","","","","","","",""
"7648.899999976158","","","survey-text","347","1696443","0.0-19.0-3.5","46182","List2A","black","man","","","","","{""Q0"":""Mike is being seduced by Beth""}","<img src=""stim_listA/seduce4.gif""style=""height:400px;""></stim_listA>","is being seduced by","","","","","",""
"null","<div style=""font-size:60px;"">+</div>","","html-keyboard-response","348","1696945","0.0-19.0-0.6","46182","List2A","black","man","","","","null","","","","","","","","",""
"null","<img src=""stim_listA/oppose6.gif""style=""height:400px;""></stim_listA>","","html-keyboard-response","349","1698949","0.0-19.0-1.6","46182","List2A","black","man","","","","null","","","","","","","","",""
"null","is being opposed by","","html-keyboard-response","350","1700951","0.0-19.0-2.6","46182","List2A","black","man","","","","null","","","","","","","","",""
"12553.600000023842","","","survey-text","351","1713506","0.0-19.0-3.6","46182","List2A","black","man","","","","","{""Q0"":""Mike is being opposed by Fred""}","<img src=""stim_listA/oppose6.gif""style=""height:400px;""></stim_listA>","is being opposed by","","","","","",""
"null","<div style=""font-size:60px;"">+</div>","","html-keyboard-response","352","1714007","0.0-19.0-0.7","46182","List2A","black","man","","","","null","","","","","","","","",""
"null","<img src=""stim_listA/touch1.gif""style=""height:400px;""></stim_listA>","","html-keyboard-response","353","1716009","0.0-19.0-1.7","46182","List2A","black","man","","","","null","","","","","","","","",""
"null","is touching","","html-keyboard-response","354","1718010","0.0-19.0-2.7","46182","List2A","black","man","","","","null","","","","","","","","",""
"7460.300000071526","","","survey-text","355","1725472","0.0-19.0-3.7","46182","List2A","black","man","","","","","{""Q0"":""Dave is touching Jane""}","<img src=""stim_listA/touch1.gif""style=""height:400px;""></stim_listA>","is touching","","","","","",""
"null","<div style=""font-size:60px;"">+</div>","","html-keyboard-response","356","1725973","0.0-19.0-0.8","46182","List2A","black","man","","","","null","","","","","","","","",""
"null","<img src=""stim_listA/shout5.gif""style=""height:400px;""></stim_listA>","","html-keyboard-response","357","1727974","0.0-19.0-1.8","46182","List2A","black","man","","","","null","","","","","","","","",""
"null","is shouting at","","html-keyboard-response","358","1729976","0.0-19.0-2.8","46182","List2A","black","man","","","","null","","","","","","","","",""
"12359","","","survey-text","359","1742337","0.0-19.0-3.8","46182","List2A","black","man","","","","","{""Q0"":""Luke is shouting at Fred""}","<img src=""stim_listA/shout5.gif""style=""height:400px;""></stim_listA>","is shouting at","","","","","",""
"null","<div style=""font-size:60px;"">+</div>","","html-keyboard-response","360","1742839","0.0-19.0-0.9","46182","List2A","black","man","","","","null","","","","","","","","",""
"null","<img src=""stim_listA/seduce7.gif""style=""height:400px;""></stim_listA>","","html-keyboard-response","361","1744841","0.0-19.0-1.9","46182","List2A","black","man","","","","null","","","","","","","","",""
"null","is seducing","","html-keyboard-response","362","1746843","0.0-19.0-2.9","46182","List2A","black","man","","","","null","","","","","","","","",""
"8011.5","","","survey-text","363","1754858","0.0-19.0-3.9","46182","List2A","black","man","","","","","{""Q0"":""Kate is seducing Ruth""}","<img src=""stim_listA/seduce7.gif""style=""height:400px;""></stim_listA>","is seducing","","","","","",""
"null","<div style=""font-size:60px;"">+</div>","","html-keyboard-response","364","1755360","0.0-19.0-0.10","46182","List2A","black","man","","","","null","","","","","","","","",""
"null","<img src=""stim_listA/seduce8.gif""style=""height:400px;""></stim_listA>","","html-keyboard-response","365","1757362","0.0-19.0-1.10","46182","List2A","black","man","","","","null","","","","","","","","",""
"null","is being seduced by","","html-keyboard-response","366","1759363","0.0-19.0-2.10","46182","List2A","black","man","","","","null","","","","","","","","",""
"9557.5","","","survey-text","367","1768922","0.0-19.0-3.10","46182","List2A","black","man","","","","","{""Q0"":""Jane is being seduced by Beth""}","<img src=""stim_listA/seduce8.gif""style=""height:400px;""></stim_listA>","is being seduced by","","","","","",""
"null","<div style=""font-size:60px;"">+</div>","","html-keyboard-response","368","1769424","0.0-19.0-0.11","46182","List2A","black","man","","","","null","","","","","","","","",""
"null","<img src=""stim_listA/kiss3.gif""style=""height:400px;""></stim_listA>","","html-keyboard-response","369","1771426","0.0-19.0-1.11","46182","List2A","black","man","","","","null","","","","","","","","",""
"null","is kissing","","html-keyboard-response","370","1773430","0.0-19.0-2.11","46182","List2A","black","man","","","","null","","","","","","","","",""
"6804.699999928474","","","survey-text","371","1780239","0.0-19.0-3.11","46182","List2A","black","man","","","","","{""Q0"":""Fred is kissing Beth""}","<img src=""stim_listA/kiss3.gif""style=""height:400px;""></stim_listA>","is kissing","","","","","",""
"null","<div style=""font-size:60px;"">+</div>","","html-keyboard-response","372","1780741","0.0-19.0-0.12","46182","List2A","black","man","","","","null","","","","","","","","",""
"null","<img src=""stim_listA/touch5.gif""style=""height:400px;""></stim_listA>","","html-keyboard-response","373","1782744","0.0-19.0-1.12","46182","List2A","black","man","","","","null","","","","","","","","",""
"null","is touching","","html-keyboard-response","374","1784744","0.0-19.0-2.12","46182","List2A","black","man","","","","null","","","","","","","","",""
"6120.399999976158","","","survey-text","375","1790867","0.0-19.0-3.12","46182","List2A","black","man","","","","","{""Q0"":""Mike is touching Dave""}","<img src=""stim_listA/touch5.gif""style=""height:400px;""></stim_listA>","is touching","","","","","",""
"null","<div style=""font-size:60px;"">+</div>","","html-keyboard-response","376","1791368","0.0-19.0-0.13","46182","List2A","black","man","","","","null","","","","","","","","",""
"null","<img src=""stim_listA/touch3.gif""style=""height:400px;""></stim_listA>","","html-keyboard-response","377","1793370","0.0-19.0-1.13","46182","List2A","black","man","","","","null","","","","","","","","",""
"null","is touching","","html-keyboard-response","378","1795372","0.0-19.0-2.13","46182","List2A","black","man","","","","null","","","","","","","","",""
"6921.299999952316","","","survey-text","379","1802295","0.0-19.0-3.13","46182","List2A","black","man","","","","","{""Q0"":""Mike is touching Kate""}","<img src=""stim_listA/touch3.gif""style=""height:400px;""></stim_listA>","is touching","","","","","",""
"null","<div style=""font-size:60px;"">+</div>","","html-keyboard-response","380","1802797","0.0-19.0-0.14","46182","List2A","black","man","","","","null","","","","","","","","",""
"null","<img src=""stim_listA/challenge6.gif""style=""height:400px;""></stim_listA>","","html-keyboard-response","381","1804800","0.0-19.0-1.14","46182","List2A","black","man","","","","null","","","","","","","","",""
"null","is being challenged by","","html-keyboard-response","382","1806801","0.0-19.0-2.14","46182","List2A","black","man","","","","null","","","","","","","","",""
"9645","","","survey-text","383","1816448","0.0-19.0-3.14","46182","List2A","black","man","","","","","{""Q0"":""Luke is being challenged by Mike""}","<img src=""stim_listA/challenge6.gif""style=""height:400px;""></stim_listA>","is being challenged by","","","","","",""
"null","<div style=""font-size:60px;"">+</div>","","html-keyboard-response","384","1816949","0.0-19.0-0.15","46182","List2A","black","man","","","","null","","","","","","","","",""
"null","<img src=""stim_listA/kiss2.gif""style=""height:400px;""></stim_listA>","","html-keyboard-response","385","1818950","0.0-19.0-1.15","46182","List2A","black","man","","","","null","","","","","","","","",""
"null","is being kissed by","","html-keyboard-response","386","1820952","0.0-19.0-2.15","46182","List2A","black","man","","","","null","","","","","","","","",""
"7838.699999928474","","","survey-text","387","1828793","0.0-19.0-3.15","46182","List2A","black","man","","","","","{""Q0"":""Dave is being kissed by Jane""}","<img src=""stim_listA/kiss2.gif""style=""height:400px;""></stim_listA>","is being kissed by","","","","","",""
"null","<div style=""font-size:60px;"">+</div>","","html-keyboard-response","388","1829294","0.0-19.0-0.16","46182","List2A","black","man","","","","null","","","","","","","","",""
"null","<img src=""stim_listA/shout7.gif""style=""height:400px;""></stim_listA>","","html-keyboard-response","389","1831297","0.0-19.0-1.16","46182","List2A","black","man","","","","null","","","","","","","","",""
"null","is shouting at","","html-keyboard-response","390","1833298","0.0-19.0-2.16","46182","List2A","black","man","","","","null","","","","","","","","",""
"9660.300000071526","","","survey-text","391","1842961","0.0-19.0-3.16","46182","List2A","black","man","","","","","{""Q0"":""Ruth is shouting at Beth""}","<img src=""stim_listA/shout7.gif""style=""height:400px;""></stim_listA>","is shouting at","","","","","",""
"null","<div style=""font-size:60px;"">+</div>","","html-keyboard-response","392","1843463","0.0-19.0-0.17","46182","List2A","black","man","","","","null","","","","","","","","",""
"null","<img src=""stim_listA/touch6.gif""style=""height:400px;""></stim_listA>","","html-keyboard-response","393","1845465","0.0-19.0-1.17","46182","List2A","black","man","","","","null","","","","","","","","",""
"null","is being touched by","","html-keyboard-response","394","1847466","0.0-19.0-2.17","46182","List2A","black","man","","","","null","","","","","","","","",""
"8737.300000071526","","","survey-text","395","1856205","0.0-19.0-3.17","46182","List2A","black","man","","","","","{""Q0"":""Fred is being touched by Luke""}","<img src=""stim_listA/touch6.gif""style=""height:400px;""></stim_listA>","is being touched by","","","","","",""
"null","<div style=""font-size:60px;"">+</div>","","html-keyboard-response","396","1856708","0.0-19.0-0.18","46182","List2A","black","man","","","","null","","","","","","","","",""
"null","<img src=""stim_listA/hug6.gif""style=""height:400px;""></stim_listA>","","html-keyboard-response","397","1858709","0.0-19.0-1.18","46182","List2A","black","man","","","","null","","","","","","","","",""
"null","is being hugged by","","html-keyboard-response","398","1860710","0.0-19.0-2.18","46182","List2A","black","man","","","","null","","","","","","","","",""
"7765.200000047684","","","survey-text","399","1868481","0.0-19.0-3.18","46182","List2A","black","man","","","","","{""Q0"":""Dave is being hugged by Mike""}","<img src=""stim_listA/hug6.gif""style=""height:400px;""></stim_listA>","is being hugged by","","","","","",""
"null","<div style=""font-size:60px;"">+</div>","","html-keyboard-response","400","1868983","0.0-19.0-0.19","46182","List2A","black","man","","","","null","","","","","","","","",""
"null","<img src=""stim_listA/look1.gif""style=""height:400px;""></stim_listA>","","html-keyboard-response","401","1870986","0.0-19.0-1.19","46182","List2A","black","man","","","","null","","","","","","","","",""
"null","is looking at","","html-keyboard-response","402","1872987","0.0-19.0-2.19","46182","List2A","black","man","","","","null","","","","","","","","",""
"7336.5","","","survey-text","403","1880327","0.0-19.0-3.19","46182","List2A","black","man","","","","","{""Q0"":""Ruth is looking at Luke""}","<img src=""stim_listA/look1.gif""style=""height:400px;""></stim_listA>","is looking at","","","","","",""
"12115.700000047684","<p>Thank you for completing that task.</p><p>The final part of this session is a questionnaire that will take about 4 minutes.</p><p>Press Continue.</p>","0","html-button-response","404","1892443","0.0-20.0","46182","List2A","black","man","","","","","","","","","","","","",""
"32433.799999952316","","","survey-text","405","1925888","0.0-21.0","46182","List2A","black","man","","","","","{""Q0"":""19"",""Q1"":""English "",""Q2"":""English "",""Q3"":""United States"",""Q4"":""Nigerian"",""Q5"":""Black"",""Q6"":""Male""}","","","demographics","","","","",""
"2210.399999976158","<p>Have you lived in the USA for the last 5 years or more?</p>","0","html-button-response","406","1928099","0.0-22.0","46182","List2A","black","man","","","","","","","","fiveyears","","","","",""
"4101.299999952316","<p>Move the slider to show the extent to which you agree with the following statements.</p>","0","html-button-response","407","1933203","0.0-23.0","46182","List2A","black","man","","","","","","","","","","","","",""
"6772.700000047684","","","html-slider-response","408","1940979","0.0-24.0-0.0-0.0","46182","List2A","black","man","","","","","","","","survey_race","7","","","I often think about the fact that I am my race.","often"
"8854.699999928474","","","html-slider-response","409","1949835","0.0-24.0-0.0-0.1","46182","List2A","black","man","","","","","","","","survey_race","43","","","I have a lot in common with people of a similar age to me.","filler"
"3847","","","html-slider-response","410","1953683","0.0-24.0-0.0-0.2","46182","List2A","black","man","","","","","","","","survey_race","40","","","Being my race gives me a good feeling.","feeling"
"5518.5","","","html-slider-response","411","1959203","0.0-24.0-0.0-0.3","46182","List2A","black","man","","","","","","","","survey_race","49","","","I have a lot in common with the average person of my race.","average"
"6463.600000023842","","","html-slider-response","412","1965668","0.0-24.0-0.0-0.4","46182","List2A","black","man","","","","","","","","survey_race","48","","","I am glad to be my age.","filler"
"2805.899999976158","","","html-slider-response","413","1968475","0.0-24.0-0.0-0.5","46182","List2A","black","man","","","","","","","","survey_race","47","","","It is pleasant to be my race.","pleasant"
"3062.2999999523163","","","html-slider-response","414","1971539","0.0-24.0-0.0-0.6","46182","List2A","black","man","","","","","","","","survey_race","48","","","I often think about the fact that I am my age.","filler"
"10031","","","html-slider-response","415","1981571","0.0-24.0-0.0-0.7","46182","List2A","black","man","","","","","","","","survey_race","48","","","I enjoy being in large groups.","filler"
"4647.300000071526","","","html-slider-response","416","1986220","0.0-24.0-0.0-0.8","46182","List2A","black","man","","","","","","","","survey_race","49","","","The fact that I am my race is an important part of my identity.","identity"
"2741.9000000953674","","","html-slider-response","417","1988963","0.0-24.0-0.0-0.9","46182","List2A","black","man","","","","","","","","survey_race","49","","","Being my race is an important part of how I see myself.","important"
"8151.199999928474","","","html-slider-response","418","1997115","0.0-24.0-0.0-0.10","46182","List2A","black","man","","","","","","","","survey_race","58","","","My age is not an important part of who I am.","filler"
"4278.700000047684","","","html-slider-response","419","2001395","0.0-24.0-0.0-0.11","46182","List2A","black","man","","","","","","","","survey_race","57","","","The older I get, the wiser I feel.","filler"
"10902.799999952316","","","html-slider-response","420","2012299","0.0-24.0-0.0-0.12","46182","List2A","black","man","","","","","","","","survey_race","48","","","People my age have a lot in common with each other.","filler"
"2743.100000023842","","","html-slider-response","421","2015044","0.0-24.0-0.0-0.13","46182","List2A","black","man","","","","","","","","survey_race","62","","","I consider myself an introvert.","filler"
"2030.5","","","html-slider-response","422","2017076","0.0-24.0-0.0-0.14","46182","List2A","black","man","","","","","","","","survey_race","49","","","I am glad to be the age I am.","filler"
"2790.399999976158","","","html-slider-response","423","2019867","0.0-24.0-0.0-0.15","46182","List2A","black","man","","","","","","","","survey_race","48","","","People of my race have a lot in common with each other.","common"
"2143.100000023842","","","html-slider-response","424","2022011","0.0-24.0-0.0-0.16","46182","List2A","black","man","","","","","","","","survey_race","46","","","I am similar to the average person of my race.","similar"
"1903","","","html-slider-response","425","2023915","0.0-24.0-0.0-0.17","46182","List2A","black","man","","","","","","","","survey_race","49","","","I feel solidarity with people the same age as me.","filler"
"2303.600000023842","","","html-slider-response","426","2026219","0.0-24.0-0.0-0.18","46182","List2A","black","man","","","","","","","","survey_race","47","","","I feel a bond with people the same age as me.","filler"
"3495","","","html-slider-response","427","2029715","0.0-24.0-0.0-0.19","46182","List2A","black","man","","","","","","","","survey_race","48","","","I think that my race has a lot to be proud of.","proud"
"6158.900000095367","","","html-slider-response","428","2035875","0.0-24.0-0.0-0.20","46182","List2A","black","man","","","","","","","","survey_race","49","","","Getting older does not worry me.","filler"
"2062.9000000953674","","","html-slider-response","429","2037939","0.0-24.0-0.0-0.21","46182","List2A","black","man","","","","","","","","survey_race","48","","","I feel solidarity with my race.","solidarity"
"3063.100000023842","","","html-slider-response","430","2041003","0.0-24.0-0.0-0.22","46182","List2A","black","man","","","","","","","","survey_race","25","","","I consider myself an extrovert.","filler"
"2918.5999999046326","","","html-slider-response","431","2043923","0.0-24.0-0.0-0.23","46182","List2A","black","man","","","","","","","","survey_race","48","","","People of my race are very similar to each other.","verysimilar"
"2486.8000000715256","","","html-slider-response","432","2046411","0.0-24.0-0.0-0.24","46182","List2A","black","man","","","","","","","","survey_race","47","","","I feel a bond with my race.","bond"
"1759","","","html-slider-response","433","2048171","0.0-24.0-0.0-0.25","46182","List2A","black","man","","","","","","","","survey_race","46","","","I feel committed to my race.","committed"
"3391.4000000953674","","","html-slider-response","434","2051564","0.0-24.0-0.0-0.26","46182","List2A","black","man","","","","","","","","survey_race","46","","","Being my age gives me a good feeling.","filler"
"1453.5999999046326","","","html-slider-response","435","2053019","0.0-24.0-0.0-0.27","46182","List2A","black","man","","","","","","","","survey_race","48","","","I am glad to be my race.","glad"
"3871.3000000715256","","","html-slider-response","436","2056891","0.0-24.0-1.0-0.0","46182","List2A","black","man","","","","","","","","survey_gender","48","","","I often think about my actions.","filler"
"3606.600000023842","","","html-slider-response","437","2060499","0.0-24.0-1.0-0.1","46182","List2A","black","man","","","","","","","","survey_gender","48","","","The fact that I am my gender is an important part of my identity.","identity"
"1775.1999999284744","","","html-slider-response","438","2062275","0.0-24.0-1.0-0.2","46182","List2A","black","man","","","","","","","","survey_gender","47","","","It is pleasant to be my gender.","pleasant"
"3768.100000023842","","","html-slider-response","439","2066044","0.0-24.0-1.0-0.3","46182","List2A","black","man","","","","","","","","survey_gender","65","","","My friends have a lot in common with each other.","filler"
"2558.100000023842","","","html-slider-response","440","2068603","0.0-24.0-1.0-0.4","46182","List2A","black","man","","","","","","","","survey_gender","46","","","I would say I am an animal person.","filler"
"1615.4000000953674","","","html-slider-response","441","2070220","0.0-24.0-1.0-0.5","46182","List2A","black","man","","","","","","","","survey_gender","47","","","I feel solidarity with my gender.","solidarity"
"3846.7999999523163","","","html-slider-response","442","2074068","0.0-24.0-1.0-0.6","46182","List2A","black","man","","","","","","","","survey_gender","47","","","I think that my gender has a lot to be proud of.","proud"
"1973.8999999761581","","","html-slider-response","443","2076043","0.0-24.0-1.0-0.7","46182","List2A","black","man","","","","","","","","survey_gender","48","","","I often think about the fact that I am my gender.","often"
"7271","","","html-slider-response","444","2083315","0.0-24.0-1.0-0.8","46182","List2A","black","man","","","","","","","","survey_gender","18","","","Family is not more important to me than friendship.","filler"
"2927.2000000476837","","","html-slider-response","445","2086244","0.0-24.0-1.0-0.9","46182","List2A","black","man","","","","","","","","survey_gender","48","","","I feel a bond with my friends.","filler"
"2966.600000023842","","","html-slider-response","446","2089212","0.0-24.0-1.0-0.10","46182","List2A","black","man","","","","","","","","survey_gender","47","","","People of my gender are very similar to each other.","verysimilar"
"3454","","","html-slider-response","447","2092668","0.0-24.0-1.0-0.11","46182","List2A","black","man","","","","","","","","survey_gender","47","","","I consider myself a highly empathetic person.","filler"
"2485.899999976158","","","html-slider-response","448","2095155","0.0-24.0-1.0-0.12","46182","List2A","black","man","","","","","","","","survey_gender","47","","","Being my gender gives me a good feeling.","feeling"
"2926.899999976158","","","html-slider-response","449","2098083","0.0-24.0-1.0-0.13","46182","List2A","black","man","","","","","","","","survey_gender","47","","","Most of the friends in my life are very similar to me.","filler"
"1351","","","html-slider-response","450","2099435","0.0-24.0-1.0-0.14","46182","List2A","black","man","","","","","","","","survey_gender","47","","","I feel solidarity with my friends.","filler"
"1367.5","","","html-slider-response","451","2100804","0.0-24.0-1.0-0.15","46182","List2A","black","man","","","","","","","","survey_gender","45","","","I feel committed to my gender.","committed"
"2510.5999999046326","","","html-slider-response","452","2103315","0.0-24.0-1.0-0.16","46182","List2A","black","man","","","","","","","","survey_gender","47","","","I am similar to the average person of my gender.","similar"
"4639.600000023842","","","html-slider-response","453","2107956","0.0-24.0-1.0-0.17","46182","List2A","black","man","","","","","","","","survey_gender","20","","","Routine is not important to me.","filler"
"3542.2000000476837","","","html-slider-response","454","2111499","0.0-24.0-1.0-0.18","46182","List2A","black","man","","","","","","","","survey_gender","46","","","I have a lot in common with the average person of my gender.","average"
"2303.0999999046326","","","html-slider-response","455","2113803","0.0-24.0-1.0-0.19","46182","List2A","black","man","","","","","","","","survey_gender","47","","","I am glad to be my gender.","glad"
"3127.600000023842","","","html-slider-response","456","2116932","0.0-24.0-1.0-0.20","46182","List2A","black","man","","","","","","","","survey_gender","47","","","Being my gender is an important part of how I see myself.","important"
"2606","","","html-slider-response","457","2119539","0.0-24.0-1.0-0.21","46182","List2A","black","man","","","","","","","","survey_gender","47","","","I feel a bond with my gender.","bond"
"11407","","","html-slider-response","458","2130947","0.0-24.0-1.0-0.22","46182","List2A","black","man","","","","","","","","survey_gender","75","","","It is not always easy for people to know what I am thinking.","filler"
"7846.700000047684","","","html-slider-response","459","2138795","0.0-24.0-1.0-0.23","46182","List2A","black","man","","","","","","","","survey_gender","48","","","I have a lot in common with my friends.","filler"
"2679.600000023842","","","html-slider-response","460","2141476","0.0-24.0-1.0-0.24","46182","List2A","black","man","","","","","","","","survey_gender","48","","","My friends understand me.","filler"
"2741.899999976158","","","html-slider-response","461","2144219","0.0-24.0-1.0-0.25","46182","List2A","black","man","","","","","","","","survey_gender","67","","","Being around my friends gives me a good feeling.","filler"
"1935.5","","","html-slider-response","462","2146155","0.0-24.0-1.0-0.26","46182","List2A","black","man","","","","","","","","survey_gender","65","","","I am glad to have the friends that I have.","filler"
"2639.7000000476837","","","html-slider-response","463","2148796","0.0-24.0-1.0-0.27","46182","List2A","black","man","","","","","","","","survey_gender","48","","","People of my gender have a lot in common with each other.","common"
"5125","","","survey-text","464","2153923","0.0-25.0","46182","List2A","black","man","","","","","{""Q0"":""61305efe215fc62417b1fe55""}","","","worker_id","","","","",""
"37958.199999928474","","","external-html","465","2192259","0.0-26.0","46182","List2A","black","man","debrief.html","","","","","","","","","","","",""
