"rt","stimulus","button_pressed","trial_type","trial_index","time_elapsed","internal_node_id","subject","list","ppt_race","ppt_gender","url","first_guess","correct","key_press","responses","image_type","phrase_type","test_part","response","stimulus1","stimulus2","question_type","survey_item"
"3820.2999999523163","Welcome to the experiment. Press Continue to begin.","0","html-button-response","0","3830","0.0-0.0","47195","List1B","white","man","","","","","","","","","","","","",""
"18930.60000014305","","","external-html","1","24051","0.0-1.0","47195","List1B","white","man","consent.html","","","","","","","","","","","",""
"17793","<p>On the next page, you will see portraits of 8 people and their names.</p><p>Your first task is to take a few minutes to memorise the names of these people.</p><p>You will have to recall their names during the rest of the experiment, so it is</p><p>essential that you try to memorise these people and their names as best as you can.</p><br><p><strong>You will then be tested on your memory of these names and portraits.</strong></p><br><p>The experiment will start after you have completed this memory test.</p><br><p>Ready?</p>","0","html-button-response","2","41847","0.0-2.0","47195","List1B","white","man","","","","","","","","","","","","",""
"173596.29999995232","<img src='img/portrait_matrix_list1.jpg' style='width:900px;height:500px;''></img><p>If you have memorised all the portraits and names and are ready to start, press Continue.</p><p><strong>Please note: Your memory of these faces will be tested 4 times during this experiment.</strong></p>","0","html-button-response","3","216446","0.0-3.0-0.0","47195","List1B","white","man","","","","","","","","","","","","",""
"6770.300000190735","<img src=""portrait/WW1.jpg""style=""height:400px;""></img>","1","html-button-response","4","224233","0.0-3.0-1.0","47195","List1B","white","man","","true","1","","","","","","","","","",""
"null","CORRECT","","html-keyboard-response","5","225768","0.0-3.0-2.0-0.0","47195","List1B","white","man","","","","null","","","","","","","","",""
"11704.099999904633","<img src=""portrait/WW2.jpg""style=""height:400px;""></img>","3","html-button-response","6","237475","0.0-3.0-4.0","47195","List1B","white","man","","true","3","","","","","","","","","",""
"null","CORRECT","","html-keyboard-response","7","239004","0.0-3.0-5.0-0.0","47195","List1B","white","man","","","","null","","","","","","","","",""
"2820.399999856949","<img src=""portrait/BM2.jpg""style=""height:400px;""></img>","5","html-button-response","8","241827","0.0-3.0-7.0","47195","List1B","white","man","","true","5","","","","","","","","","",""
"null","CORRECT","","html-keyboard-response","9","243347","0.0-3.0-8.0-0.0","47195","List1B","white","man","","","","null","","","","","","","","",""
"2024.9000000953674","<img src=""portrait/BW2.jpg""style=""height:400px;""></img>","2","html-button-response","10","245374","0.0-3.0-10.0","47195","List1B","white","man","","true","2","","","","","","","","","",""
"null","CORRECT","","html-keyboard-response","11","246897","0.0-3.0-11.0-0.0","47195","List1B","white","man","","","","null","","","","","","","","",""
"2073.2000000476837","<img src=""portrait/WM2.jpg""style=""height:400px;""></img>","7","html-button-response","12","248973","0.0-3.0-13.0","47195","List1B","white","man","","true","7","","","","","","","","","",""
"null","CORRECT","","html-keyboard-response","13","250500","0.0-3.0-14.0-0.0","47195","List1B","white","man","","","","null","","","","","","","","",""
"7642.700000047684","<img src=""portrait/BM1.jpg""style=""height:400px;""></img>","4","html-button-response","14","258145","0.0-3.0-16.0","47195","List1B","white","man","","true","4","","","","","","","","","",""
"null","CORRECT","","html-keyboard-response","15","259661","0.0-3.0-17.0-0.0","47195","List1B","white","man","","","","null","","","","","","","","",""
"4048.899999856949","<img src=""portrait/BW1.jpg""style=""height:400px;""></img>","0","html-button-response","16","263712","0.0-3.0-19.0","47195","List1B","white","man","","true","0","","","","","","","","","",""
"null","CORRECT","","html-keyboard-response","17","265246","0.0-3.0-20.0-0.0","47195","List1B","white","man","","","","null","","","","","","","","",""
"2888.699999809265","<img src=""portrait/WM1.jpg""style=""height:400px;""></img>","6","html-button-response","18","268136","0.0-3.0-22.0","47195","List1B","white","man","","true","6","","","","","","","","","",""
"null","CORRECT","","html-keyboard-response","19","269640","0.0-3.0-23.0-0.0","47195","List1B","white","man","","","","null","","","","","","","","",""
"1664.7000000476837","<p>You got 8 out of 8 right first time. Press Continue.</p>","0","html-button-response","20","271307","0.0-3.0-25.0","47195","List1B","white","man","","","","","","","","","","","","",""
"21647.099999904633","<p>In this experiment, you will view photographs of the people from the memory game interacting.</p><p>By using the <strong>exact</strong> phrase given <i>after</i> the photograph appears and recalling the correct names of the people in the photographs, form a sentence describing the interaction. You do not need to capitalise names.</p><p>Type your answer in the space provided. Please complete every sentence before moving onto the next trial.</p><p>You will only have a few seconds to memorise each given photograph and phrase before you can respond, so try your best to focus.</p><p>An example is given below. Press 'Continue' when you are ready.</p><img src='img/speaking_example.jpg' style='width:800px;height:460px;''></img>","0","html-button-response","21","293965","0.0-4.0","47195","List1B","white","man","","","","","","","","","","","","",""
"2693.7000000476837","<p>Before the experiment starts, you will watch two example trials. Press 'Continue'.</p>","0","html-button-response","22","297667","0.0-5.0","47195","List1B","white","man","","","","","","","","","","","","",""
"null","<img src='img/play_eg.gif' style='height:400px;''></img>","","html-keyboard-response","23","300688","0.0-6.0","47195","List1B","white","man","","","","null","","","","","","","","",""
"null","<p>is playing with</p>","","html-keyboard-response","24","302689","0.0-7.0","47195","List1B","white","man","","","","null","","","","","","","","",""
"2661","<p><b>Answer:</b> kate is playing with beth</p>","0","html-button-response","25","305351","0.0-8.0","47195","List1B","white","man","","","","","","","","","","","","",""
"null","<img src='img/dance_eg.gif' style='height:400px;''></img>","","html-keyboard-response","26","308369","0.0-9.0","47195","List1B","white","man","","","","null","","","","","","","","",""
"null","<p>is being entertained by</p>","","html-keyboard-response","27","310385","0.0-10.0","47195","List1B","white","man","","","","null","","","","","","","","",""
"2397.7000000476837","<p><b>Answer:</b> luke is being entertained by dave</p>","0","html-button-response","28","312784","0.0-11.0","47195","List1B","white","man","","","","","","","","","","","","",""
"11079.799999952316","<p>Ready to start the experiment?</p><br><p><strong>Remember to describe the picture using a full sentence,</strong></p><p><strong>that combines the names of the people with the <i>exact</i> phrase given.</strong></p><p><strong>To receive full payment you must do this correctly.</strong></p><p><strong> You do not need to capitalise names or use punctuation.</strong></p><br><p>Press 'Continue' to begin.</p>","0","html-button-response","29","324873","0.0-12.0","47195","List1B","white","man","","","","","","","","","","","","",""
"null","<div style=""font-size:60px;"">+</div>","","html-keyboard-response","30","326398","0.0-13.0-0.0","47195","List1B","white","man","","","","null","","","","","","","","",""
"null","<img src=""stim_listB/shout3.gif""style=""height:400px;""></stim_listB>","","html-keyboard-response","31","328402","0.0-13.0-1.0","47195","List1B","white","man","","","","null","","","","","","","","",""
"null","is shouting at","","html-keyboard-response","32","330411","0.0-13.0-2.0","47195","List1B","white","man","","","","null","","","","","","","","",""
"8712.200000047684","","","survey-text","33","339128","0.0-13.0-3.0","47195","List1B","white","man","","","","","{""Q0"":""Ruth is shouting at Luke""}","<img src=""stim_listB/shout3.gif""style=""height:400px;""></stim_listB>","is shouting at","","","","","",""
"null","<div style=""font-size:60px;"">+</div>","","html-keyboard-response","34","339635","0.0-13.0-0.1","47195","List1B","white","man","","","","null","","","","","","","","",""
"null","<img src=""stim_listB/copy5.gif""style=""height:400px;""></stim_listB>","","html-keyboard-response","35","341647","0.0-13.0-1.1","47195","List1B","white","man","","","","null","","","","","","","","",""
"null","is copying","","html-keyboard-response","36","343658","0.0-13.0-2.1","47195","List1B","white","man","","","","null","","","","","","","","",""
"8295.799999952316","","","survey-text","37","351957","0.0-13.0-3.1","47195","List1B","white","man","","","","","{""Q0"":""Mike is copying Luke""}","<img src=""stim_listB/copy5.gif""style=""height:400px;""></stim_listB>","is copying","","","","","",""
"null","<div style=""font-size:60px;"">+</div>","","html-keyboard-response","38","352472","0.0-13.0-0.2","47195","List1B","white","man","","","","null","","","","","","","","",""
"null","<img src=""stim_listB/touch7.gif""style=""height:400px;""></stim_listB>","","html-keyboard-response","39","354486","0.0-13.0-1.2","47195","List1B","white","man","","","","null","","","","","","","","",""
"null","is touching","","html-keyboard-response","40","356494","0.0-13.0-2.2","47195","List1B","white","man","","","","null","","","","","","","","",""
"5979.099999904633","","","survey-text","41","362476","0.0-13.0-3.2","47195","List1B","white","man","","","","","{""Q0"":""Kate is touching Jane""}","<img src=""stim_listB/touch7.gif""style=""height:400px;""></stim_listB>","is touching","","","","","",""
"null","<div style=""font-size:60px;"">+</div>","","html-keyboard-response","42","362992","0.0-13.0-0.3","47195","List1B","white","man","","","","null","","","","","","","","",""
"null","<img src=""stim_listB/challenge4.gif""style=""height:400px;""></stim_listB>","","html-keyboard-response","43","364999","0.0-13.0-1.3","47195","List1B","white","man","","","","null","","","","","","","","",""
"null","is being challenged by","","html-keyboard-response","44","367005","0.0-13.0-2.3","47195","List1B","white","man","","","","null","","","","","","","","",""
"9324.599999904633","","","survey-text","45","376332","0.0-13.0-3.3","47195","List1B","white","man","","","","","{""Q0"":""Jane is being challenged by Luke""}","<img src=""stim_listB/challenge4.gif""style=""height:400px;""></stim_listB>","is being challenged by","","","","","",""
"null","<div style=""font-size:60px;"">+</div>","","html-keyboard-response","46","376844","0.0-13.0-0.4","47195","List1B","white","man","","","","null","","","","","","","","",""
"null","<img src=""stim_listB/oppose8.gif""style=""height:400px;""></stim_listB>","","html-keyboard-response","47","378853","0.0-13.0-1.4","47195","List1B","white","man","","","","null","","","","","","","","",""
"null","is being opposed by","","html-keyboard-response","48","380858","0.0-13.0-2.4","47195","List1B","white","man","","","","null","","","","","","","","",""
"7416.400000095367","","","survey-text","49","388277","0.0-13.0-3.4","47195","List1B","white","man","","","","","{""Q0"":""Beth is being opposed by Ruth""}","<img src=""stim_listB/oppose8.gif""style=""height:400px;""></stim_listB>","is being opposed by","","","","","",""
"null","<div style=""font-size:60px;"">+</div>","","html-keyboard-response","50","388780","0.0-13.0-0.5","47195","List1B","white","man","","","","null","","","","","","","","",""
"null","<img src=""stim_listB/seduce1.gif""style=""height:400px;""></stim_listB>","","html-keyboard-response","51","390783","0.0-13.0-1.5","47195","List1B","white","man","","","","null","","","","","","","","",""
"null","is seducing","","html-keyboard-response","52","392792","0.0-13.0-2.5","47195","List1B","white","man","","","","null","","","","","","","","",""
"6417","","","survey-text","53","399212","0.0-13.0-3.5","47195","List1B","white","man","","","","","{""Q0"":""Fred is seducing Kate""}","<img src=""stim_listB/seduce1.gif""style=""height:400px;""></stim_listB>","is seducing","","","","","",""
"null","<div style=""font-size:60px;"">+</div>","","html-keyboard-response","54","399721","0.0-13.0-0.6","47195","List1B","white","man","","","","null","","","","","","","","",""
"null","<img src=""stim_listB/shout6.gif""style=""height:400px;""></stim_listB>","","html-keyboard-response","55","401736","0.0-13.0-1.6","47195","List1B","white","man","","","","null","","","","","","","","",""
"null","is being shouted at by","","html-keyboard-response","56","403739","0.0-13.0-2.6","47195","List1B","white","man","","","","null","","","","","","","","",""
"11226.799999952316","","","survey-text","57","414970","0.0-13.0-3.6","47195","List1B","white","man","","","","","{""Q0"":""Mike is being shouted by Dave""}","<img src=""stim_listB/shout6.gif""style=""height:400px;""></stim_listB>","is being shouted at by","","","","","",""
"null","<div style=""font-size:60px;"">+</div>","","html-keyboard-response","58","415473","0.0-13.0-0.7","47195","List1B","white","man","","","","null","","","","","","","","",""
"null","<img src=""stim_listB/greet3.gif""style=""height:400px;""></stim_listB>","","html-keyboard-response","59","417487","0.0-13.0-1.7","47195","List1B","white","man","","","","null","","","","","","","","",""
"null","is greeting","","html-keyboard-response","60","419503","0.0-13.0-2.7","47195","List1B","white","man","","","","null","","","","","","","","",""
"6534.299999952316","","","survey-text","61","426041","0.0-13.0-3.7","47195","List1B","white","man","","","","","{""Q0"":""Ruth is greeting Dave""}","<img src=""stim_listB/greet3.gif""style=""height:400px;""></stim_listB>","is greeting","","","","","",""
"null","<div style=""font-size:60px;"">+</div>","","html-keyboard-response","62","426556","0.0-13.0-0.8","47195","List1B","white","man","","","","null","","","","","","","","",""
"null","<img src=""stim_listB/look3.gif""style=""height:400px;""></stim_listB>","","html-keyboard-response","63","428568","0.0-13.0-1.8","47195","List1B","white","man","","","","null","","","","","","","","",""
"null","is looking at","","html-keyboard-response","64","430581","0.0-13.0-2.8","47195","List1B","white","man","","","","null","","","","","","","","",""
"8840.900000095367","","","survey-text","65","439424","0.0-13.0-3.8","47195","List1B","white","man","","","","","{""Q0"":""Luke is looking at Ruth""}","<img src=""stim_listB/look3.gif""style=""height:400px;""></stim_listB>","is looking at","","","","","",""
"null","<div style=""font-size:60px;"">+</div>","","html-keyboard-response","66","439932","0.0-13.0-0.9","47195","List1B","white","man","","","","null","","","","","","","","",""
"null","<img src=""stim_listB/hug6.gif""style=""height:400px;""></stim_listB>","","html-keyboard-response","67","441946","0.0-13.0-1.9","47195","List1B","white","man","","","","null","","","","","","","","",""
"null","is being hugged by","","html-keyboard-response","68","443963","0.0-13.0-2.9","47195","List1B","white","man","","","","null","","","","","","","","",""
"6482","","","survey-text","69","450447","0.0-13.0-3.9","47195","List1B","white","man","","","","","{""Q0"":""Mike is being hugged by Dave""}","<img src=""stim_listB/hug6.gif""style=""height:400px;""></stim_listB>","is being hugged by","","","","","",""
"null","<div style=""font-size:60px;"">+</div>","","html-keyboard-response","70","450958","0.0-13.0-0.10","47195","List1B","white","man","","","","null","","","","","","","","",""
"null","<img src=""stim_listB/challenge5.gif""style=""height:400px;""></stim_listB>","","html-keyboard-response","71","452969","0.0-13.0-1.10","47195","List1B","white","man","","","","null","","","","","","","","",""
"null","is challenging","","html-keyboard-response","72","454971","0.0-13.0-2.10","47195","List1B","white","man","","","","null","","","","","","","","",""
"10758.900000095367","","","survey-text","73","465733","0.0-13.0-3.10","47195","List1B","white","man","","","","","{""Q0"":""Luke is challenging Mike ""}","<img src=""stim_listB/challenge5.gif""style=""height:400px;""></stim_listB>","is challenging","","","","","",""
"null","<div style=""font-size:60px;"">+</div>","","html-keyboard-response","74","466246","0.0-13.0-0.11","47195","List1B","white","man","","","","null","","","","","","","","",""
"null","<img src=""stim_listB/copy1.gif""style=""height:400px;""></stim_listB>","","html-keyboard-response","75","468249","0.0-13.0-1.11","47195","List1B","white","man","","","","null","","","","","","","","",""
"null","is copying","","html-keyboard-response","76","470265","0.0-13.0-2.11","47195","List1B","white","man","","","","null","","","","","","","","",""
"8354","","","survey-text","77","478622","0.0-13.0-3.11","47195","List1B","white","man","","","","","{""Q0"":""Beth is copying Mike""}","<img src=""stim_listB/copy1.gif""style=""height:400px;""></stim_listB>","is copying","","","","","",""
"null","<div style=""font-size:60px;"">+</div>","","html-keyboard-response","78","479132","0.0-13.0-0.12","47195","List1B","white","man","","","","null","","","","","","","","",""
"null","<img src=""stim_listB/hug3.gif""style=""height:400px;""></stim_listB>","","html-keyboard-response","79","481139","0.0-13.0-1.12","47195","List1B","white","man","","","","null","","","","","","","","",""
"null","is hugging","","html-keyboard-response","80","483144","0.0-13.0-2.12","47195","List1B","white","man","","","","null","","","","","","","","",""
"4913.899999856949","","","survey-text","81","488061","0.0-13.0-3.12","47195","List1B","white","man","","","","","{""Q0"":""Ruth is hugging Luke""}","<img src=""stim_listB/hug3.gif""style=""height:400px;""></stim_listB>","is hugging","","","","","",""
"null","<div style=""font-size:60px;"">+</div>","","html-keyboard-response","82","488571","0.0-13.0-0.13","47195","List1B","white","man","","","","null","","","","","","","","",""
"null","<img src=""stim_listB/copy2.gif""style=""height:400px;""></stim_listB>","","html-keyboard-response","83","490589","0.0-13.0-1.13","47195","List1B","white","man","","","","null","","","","","","","","",""
"null","is being copied by","","html-keyboard-response","84","492596","0.0-13.0-2.13","47195","List1B","white","man","","","","null","","","","","","","","",""
"6022.599999904633","","","survey-text","85","498620","0.0-13.0-3.13","47195","List1B","white","man","","","","","{""Q0"":""Fred is being copied by Kate""}","<img src=""stim_listB/copy2.gif""style=""height:400px;""></stim_listB>","is being copied by","","","","","",""
"null","<div style=""font-size:60px;"">+</div>","","html-keyboard-response","86","499130","0.0-13.0-0.14","47195","List1B","white","man","","","","null","","","","","","","","",""
"null","<img src=""stim_listB/shout5.gif""style=""height:400px;""></stim_listB>","","html-keyboard-response","87","501144","0.0-13.0-1.14","47195","List1B","white","man","","","","null","","","","","","","","",""
"null","is shouting at","","html-keyboard-response","88","503157","0.0-13.0-2.14","47195","List1B","white","man","","","","null","","","","","","","","",""
"6660.899999856949","","","survey-text","89","509821","0.0-13.0-3.14","47195","List1B","white","man","","","","","{""Q0"":""Luke is shouting at Fred""}","<img src=""stim_listB/shout5.gif""style=""height:400px;""></stim_listB>","is shouting at","","","","","",""
"null","<div style=""font-size:60px;"">+</div>","","html-keyboard-response","90","510336","0.0-13.0-0.15","47195","List1B","white","man","","","","null","","","","","","","","",""
"null","<img src=""stim_listB/challenge8.gif""style=""height:400px;""></stim_listB>","","html-keyboard-response","91","512349","0.0-13.0-1.15","47195","List1B","white","man","","","","null","","","","","","","","",""
"null","is being challenged by","","html-keyboard-response","92","514359","0.0-13.0-2.15","47195","List1B","white","man","","","","null","","","","","","","","",""
"8962.199999809265","","","survey-text","93","523324","0.0-13.0-3.15","47195","List1B","white","man","","","","","{""Q0"":""Beth is being challenged by Jane""}","<img src=""stim_listB/challenge8.gif""style=""height:400px;""></stim_listB>","is being challenged by","","","","","",""
"null","<div style=""font-size:60px;"">+</div>","","html-keyboard-response","94","523830","0.0-13.0-0.16","47195","List1B","white","man","","","","null","","","","","","","","",""
"null","<img src=""stim_listB/touch1.gif""style=""height:400px;""></stim_listB>","","html-keyboard-response","95","525845","0.0-13.0-1.16","47195","List1B","white","man","","","","null","","","","","","","","",""
"null","is touching","","html-keyboard-response","96","527856","0.0-13.0-2.16","47195","List1B","white","man","","","","null","","","","","","","","",""
"5558.600000143051","","","survey-text","97","533417","0.0-13.0-3.16","47195","List1B","white","man","","","","","{""Q0"":""Mike is touching Kate""}","<img src=""stim_listB/touch1.gif""style=""height:400px;""></stim_listB>","is touching","","","","","",""
"null","<div style=""font-size:60px;"">+</div>","","html-keyboard-response","98","533927","0.0-13.0-0.17","47195","List1B","white","man","","","","null","","","","","","","","",""
"null","<img src=""stim_listB/seduce4.gif""style=""height:400px;""></stim_listB>","","html-keyboard-response","99","535930","0.0-13.0-1.17","47195","List1B","white","man","","","","null","","","","","","","","",""
"null","is being seduced by","","html-keyboard-response","100","537946","0.0-13.0-2.17","47195","List1B","white","man","","","","null","","","","","","","","",""
"5303.900000095367","","","survey-text","101","543253","0.0-13.0-3.17","47195","List1B","white","man","","","","","{""Q0"":""Dave is seducing Ruth""}","<img src=""stim_listB/seduce4.gif""style=""height:400px;""></stim_listB>","is being seduced by","","","","","",""
"null","<div style=""font-size:60px;"">+</div>","","html-keyboard-response","102","543769","0.0-13.0-0.18","47195","List1B","white","man","","","","null","","","","","","","","",""
"null","<img src=""stim_listB/look2.gif""style=""height:400px;""></stim_listB>","","html-keyboard-response","103","545787","0.0-13.0-1.18","47195","List1B","white","man","","","","null","","","","","","","","",""
"null","is being looked at by","","html-keyboard-response","104","547798","0.0-13.0-2.18","47195","List1B","white","man","","","","null","","","","","","","","",""
"5907.599999904633","","","survey-text","105","553708","0.0-13.0-3.18","47195","List1B","white","man","","","","","{""Q0"":""Mike is being looked at by Kate""}","<img src=""stim_listB/look2.gif""style=""height:400px;""></stim_listB>","is being looked at by","","","","","",""
"null","<div style=""font-size:60px;"">+</div>","","html-keyboard-response","106","554211","0.0-13.0-0.19","47195","List1B","white","man","","","","null","","","","","","","","",""
"null","<img src=""stim_listB/touch3.gif""style=""height:400px;""></stim_listB>","","html-keyboard-response","107","556217","0.0-13.0-1.19","47195","List1B","white","man","","","","null","","","","","","","","",""
"null","is touching","","html-keyboard-response","108","558232","0.0-13.0-2.19","47195","List1B","white","man","","","","null","","","","","","","","",""
"4758.700000047684","","","survey-text","109","562994","0.0-13.0-3.19","47195","List1B","white","man","","","","","{""Q0"":""Jane is touching Dave""}","<img src=""stim_listB/touch3.gif""style=""height:400px;""></stim_listB>","is touching","","","","","",""
"8594.5","<img src='img/portrait_matrix_list1.jpg' style='width:900px;height:500px;''></img><p>If you have memorised all the portraits and names and are ready to start, press Continue.</p><p><strong>Please note: Your memory of these faces will be tested 4 times during this experiment.</strong></p>","0","html-button-response","110","571590","0.0-14.0-0.0","47195","List1B","white","man","","","","","","","","","","","","",""
"1812","<img src=""portrait/WW2.jpg""style=""height:400px;""></img>","3","html-button-response","111","574408","0.0-14.0-1.0","47195","List1B","white","man","","true","3","","","","","","","","","",""
"null","CORRECT","","html-keyboard-response","112","575923","0.0-14.0-2.0-0.0","47195","List1B","white","man","","","","null","","","","","","","","",""
"2265.2000000476837","<img src=""portrait/BW1.jpg""style=""height:400px;""></img>","0","html-button-response","113","578190","0.0-14.0-4.0","47195","List1B","white","man","","true","0","","","","","","","","","",""
"null","CORRECT","","html-keyboard-response","114","579723","0.0-14.0-5.0-0.0","47195","List1B","white","man","","","","null","","","","","","","","",""
"2182.5","<img src=""portrait/BM1.jpg""style=""height:400px;""></img>","4","html-button-response","115","581907","0.0-14.0-7.0","47195","List1B","white","man","","true","4","","","","","","","","","",""
"null","CORRECT","","html-keyboard-response","116","583424","0.0-14.0-8.0-0.0","47195","List1B","white","man","","","","null","","","","","","","","",""
"1489.1999998092651","<img src=""portrait/WM2.jpg""style=""height:400px;""></img>","7","html-button-response","117","584915","0.0-14.0-10.0","47195","List1B","white","man","","true","7","","","","","","","","","",""
"null","CORRECT","","html-keyboard-response","118","586438","0.0-14.0-11.0-0.0","47195","List1B","white","man","","","","null","","","","","","","","",""
"1462.3999998569489","<img src=""portrait/WW1.jpg""style=""height:400px;""></img>","1","html-button-response","119","587902","0.0-14.0-13.0","47195","List1B","white","man","","true","1","","","","","","","","","",""
"null","CORRECT","","html-keyboard-response","120","589413","0.0-14.0-14.0-0.0","47195","List1B","white","man","","","","null","","","","","","","","",""
"2373","<img src=""portrait/WM1.jpg""style=""height:400px;""></img>","6","html-button-response","121","591788","0.0-14.0-16.0","47195","List1B","white","man","","true","6","","","","","","","","","",""
"null","CORRECT","","html-keyboard-response","122","593313","0.0-14.0-17.0-0.0","47195","List1B","white","man","","","","null","","","","","","","","",""
"1363.5","<img src=""portrait/BW2.jpg""style=""height:400px;""></img>","2","html-button-response","123","594679","0.0-14.0-19.0","47195","List1B","white","man","","true","2","","","","","","","","","",""
"null","CORRECT","","html-keyboard-response","124","596192","0.0-14.0-20.0-0.0","47195","List1B","white","man","","","","null","","","","","","","","",""
"2017.5","<img src=""portrait/BM2.jpg""style=""height:400px;""></img>","5","html-button-response","125","598211","0.0-14.0-22.0","47195","List1B","white","man","","true","5","","","","","","","","","",""
"null","CORRECT","","html-keyboard-response","126","599727","0.0-14.0-23.0-0.0","47195","List1B","white","man","","","","null","","","","","","","","",""
"1991.5999999046326","<p>You got 8 out of 8 right first time. Press Continue.</p>","0","html-button-response","127","601721","0.0-14.0-25.0","47195","List1B","white","man","","","","","","","","","","","","",""
"null","<div style=""font-size:60px;"">+</div>","","html-keyboard-response","128","603245","0.0-15.0-0.0","47195","List1B","white","man","","","","null","","","","","","","","",""
"null","<img src=""stim_listB/oppose7.gif""style=""height:400px;""></stim_listB>","","html-keyboard-response","129","605262","0.0-15.0-1.0","47195","List1B","white","man","","","","null","","","","","","","","",""
"null","is opposing","","html-keyboard-response","130","607276","0.0-15.0-2.0","47195","List1B","white","man","","","","null","","","","","","","","",""
"4715.099999904633","","","survey-text","131","611994","0.0-15.0-3.0","47195","List1B","white","man","","","","","{""Q0"":""Jane is opposing Kate""}","<img src=""stim_listB/oppose7.gif""style=""height:400px;""></stim_listB>","is opposing","","","","","",""
"null","<div style=""font-size:60px;"">+</div>","","html-keyboard-response","132","612504","0.0-15.0-0.1","47195","List1B","white","man","","","","null","","","","","","","","",""
"null","<img src=""stim_listB/seduce2.gif""style=""height:400px;""></stim_listB>","","html-keyboard-response","133","614517","0.0-15.0-1.1","47195","List1B","white","man","","","","null","","","","","","","","",""
"null","is being seduced by","","html-keyboard-response","134","616523","0.0-15.0-2.1","47195","List1B","white","man","","","","null","","","","","","","","",""
"8547","","","survey-text","135","625073","0.0-15.0-3.1","47195","List1B","white","man","","","","","{""Q0"":""Mike is being seduced by Beth""}","<img src=""stim_listB/seduce2.gif""style=""height:400px;""></stim_listB>","is being seduced by","","","","","",""
"null","<div style=""font-size:60px;"">+</div>","","html-keyboard-response","136","625596","0.0-15.0-0.2","47195","List1B","white","man","","","","null","","","","","","","","",""
"null","<img src=""stim_listB/touch8.gif""style=""height:400px;""></stim_listB>","","html-keyboard-response","137","627611","0.0-15.0-1.2","47195","List1B","white","man","","","","null","","","","","","","","",""
"null","is being touched by","","html-keyboard-response","138","629618","0.0-15.0-2.2","47195","List1B","white","man","","","","null","","","","","","","","",""
"5731.100000143051","","","survey-text","139","635351","0.0-15.0-3.2","47195","List1B","white","man","","","","","{""Q0"":""Beth is being touched by Ruth""}","<img src=""stim_listB/touch8.gif""style=""height:400px;""></stim_listB>","is being touched by","","","","","",""
"null","<div style=""font-size:60px;"">+</div>","","html-keyboard-response","140","635867","0.0-15.0-0.3","47195","List1B","white","man","","","","null","","","","","","","","",""
"null","<img src=""stim_listB/copy6.gif""style=""height:400px;""></stim_listB>","","html-keyboard-response","141","637885","0.0-15.0-1.3","47195","List1B","white","man","","","","null","","","","","","","","",""
"null","is being copied by","","html-keyboard-response","142","639891","0.0-15.0-2.3","47195","List1B","white","man","","","","null","","","","","","","","",""
"6156.700000047684","","","survey-text","143","646050","0.0-15.0-3.3","47195","List1B","white","man","","","","","{""Q0"":""Fred is being copied by Dave""}","<img src=""stim_listB/copy6.gif""style=""height:400px;""></stim_listB>","is being copied by","","","","","",""
"null","<div style=""font-size:60px;"">+</div>","","html-keyboard-response","144","646558","0.0-15.0-0.4","47195","List1B","white","man","","","","null","","","","","","","","",""
"null","<img src=""stim_listB/hug2.gif""style=""height:400px;""></stim_listB>","","html-keyboard-response","145","648566","0.0-15.0-1.4","47195","List1B","white","man","","","","null","","","","","","","","",""
"null","is being hugged by","","html-keyboard-response","146","650571","0.0-15.0-2.4","47195","List1B","white","man","","","","null","","","","","","","","",""
"6735.099999904633","","","survey-text","147","657309","0.0-15.0-3.4","47195","List1B","white","man","","","","","{""Q0"":""Mike is being hugged by Kate""}","<img src=""stim_listB/hug2.gif""style=""height:400px;""></stim_listB>","is being hugged by","","","","","",""
"null","<div style=""font-size:60px;"">+</div>","","html-keyboard-response","148","657816","0.0-15.0-0.5","47195","List1B","white","man","","","","null","","","","","","","","",""
"null","<img src=""stim_listB/greet4.gif""style=""height:400px;""></stim_listB>","","html-keyboard-response","149","659824","0.0-15.0-1.5","47195","List1B","white","man","","","","null","","","","","","","","",""
"null","is being greeted by","","html-keyboard-response","150","661830","0.0-15.0-2.5","47195","List1B","white","man","","","","null","","","","","","","","",""
"14448.799999952316","","","survey-text","151","676281","0.0-15.0-3.5","47195","List1B","white","man","","","","","{""Q0"":""Jane is being greeted by Luke""}","<img src=""stim_listB/greet4.gif""style=""height:400px;""></stim_listB>","is being greeted by","","","","","",""
"null","<div style=""font-size:60px;"">+</div>","","html-keyboard-response","152","676789","0.0-15.0-0.6","47195","List1B","white","man","","","","null","","","","","","","","",""
"null","<img src=""stim_listB/look1.gif""style=""height:400px;""></stim_listB>","","html-keyboard-response","153","678801","0.0-15.0-1.6","47195","List1B","white","man","","","","null","","","","","","","","",""
"null","is looking at","","html-keyboard-response","154","680805","0.0-15.0-2.6","47195","List1B","white","man","","","","null","","","","","","","","",""
"5161.5","","","survey-text","155","685969","0.0-15.0-3.6","47195","List1B","white","man","","","","","{""Q0"":""Fred is looking at Beth""}","<img src=""stim_listB/look1.gif""style=""height:400px;""></stim_listB>","is looking at","","","","","",""
"null","<div style=""font-size:60px;"">+</div>","","html-keyboard-response","156","686477","0.0-15.0-0.7","47195","List1B","white","man","","","","null","","","","","","","","",""
"null","<img src=""stim_listB/challenge2.gif""style=""height:400px;""></stim_listB>","","html-keyboard-response","157","688489","0.0-15.0-1.7","47195","List1B","white","man","","","","null","","","","","","","","",""
"null","is being challenged by","","html-keyboard-response","158","690502","0.0-15.0-2.7","47195","List1B","white","man","","","","null","","","","","","","","",""
"11781.5","","","survey-text","159","702286","0.0-15.0-3.7","47195","List1B","white","man","","","","","{""Q0"":""Fred is being challenged by Kate""}","<img src=""stim_listB/challenge2.gif""style=""height:400px;""></stim_listB>","is being challenged by","","","","","",""
"null","<div style=""font-size:60px;"">+</div>","","html-keyboard-response","160","702792","0.0-15.0-0.8","47195","List1B","white","man","","","","null","","","","","","","","",""
"null","<img src=""stim_listB/copy8.gif""style=""height:400px;""></stim_listB>","","html-keyboard-response","161","704802","0.0-15.0-1.8","47195","List1B","white","man","","","","null","","","","","","","","",""
"null","is being copied by","","html-keyboard-response","162","706810","0.0-15.0-2.8","47195","List1B","white","man","","","","null","","","","","","","","",""
"5597.100000143051","","","survey-text","163","712409","0.0-15.0-3.8","47195","List1B","white","man","","","","","{""Q0"":""Beth is being copied by Jane""}","<img src=""stim_listB/copy8.gif""style=""height:400px;""></stim_listB>","is being copied by","","","","","",""
"null","<div style=""font-size:60px;"">+</div>","","html-keyboard-response","164","712926","0.0-15.0-0.9","47195","List1B","white","man","","","","null","","","","","","","","",""
"null","<img src=""stim_listB/shout2.gif""style=""height:400px;""></stim_listB>","","html-keyboard-response","165","714929","0.0-15.0-1.9","47195","List1B","white","man","","","","null","","","","","","","","",""
"null","is being shouted at by","","html-keyboard-response","166","716937","0.0-15.0-2.9","47195","List1B","white","man","","","","null","","","","","","","","",""
"7355.5","","","survey-text","167","724295","0.0-15.0-3.9","47195","List1B","white","man","","","","","{""Q0"":""Mike is being shouted at by Kate""}","<img src=""stim_listB/shout2.gif""style=""height:400px;""></stim_listB>","is being shouted at by","","","","","",""
"null","<div style=""font-size:60px;"">+</div>","","html-keyboard-response","168","724806","0.0-15.0-0.10","47195","List1B","white","man","","","","null","","","","","","","","",""
"null","<img src=""stim_listB/kiss3.gif""style=""height:400px;""></stim_listB>","","html-keyboard-response","169","726814","0.0-15.0-1.10","47195","List1B","white","man","","","","null","","","","","","","","",""
"null","is kissing","","html-keyboard-response","170","728819","0.0-15.0-2.10","47195","List1B","white","man","","","","null","","","","","","","","",""
"6203.5","","","survey-text","171","735025","0.0-15.0-3.10","47195","List1B","white","man","","","","","{""Q0"":""Ruth is kissing Luke""}","<img src=""stim_listB/kiss3.gif""style=""height:400px;""></stim_listB>","is kissing","","","","","",""
"null","<div style=""font-size:60px;"">+</div>","","html-keyboard-response","172","735531","0.0-15.0-0.11","47195","List1B","white","man","","","","null","","","","","","","","",""
"null","<img src=""stim_listB/seduce5.gif""style=""height:400px;""></stim_listB>","","html-keyboard-response","173","737547","0.0-15.0-1.11","47195","List1B","white","man","","","","null","","","","","","","","",""
"null","is seducing","","html-keyboard-response","174","739571","0.0-15.0-2.11","47195","List1B","white","man","","","","null","","","","","","","","",""
"6283.200000047684","","","survey-text","175","745857","0.0-15.0-3.11","47195","List1B","white","man","","","","","{""Q0"":""Dave is seducing Fred""}","<img src=""stim_listB/seduce5.gif""style=""height:400px;""></stim_listB>","is seducing","","","","","",""
"null","<div style=""font-size:60px;"">+</div>","","html-keyboard-response","176","746366","0.0-15.0-0.12","47195","List1B","white","man","","","","null","","","","","","","","",""
"null","<img src=""stim_listB/challenge3.gif""style=""height:400px;""></stim_listB>","","html-keyboard-response","177","748380","0.0-15.0-1.12","47195","List1B","white","man","","","","null","","","","","","","","",""
"null","is challenging","","html-keyboard-response","178","750392","0.0-15.0-2.12","47195","List1B","white","man","","","","null","","","","","","","","",""
"9109.200000047684","","","survey-text","179","759504","0.0-15.0-3.12","47195","List1B","white","man","","","","","{""Q0"":""Ruth is challenging Dave""}","<img src=""stim_listB/challenge3.gif""style=""height:400px;""></stim_listB>","is challenging","","","","","",""
"null","<div style=""font-size:60px;"">+</div>","","html-keyboard-response","180","760022","0.0-15.0-0.13","47195","List1B","white","man","","","","null","","","","","","","","",""
"null","<img src=""stim_listB/look8.gif""style=""height:400px;""></stim_listB>","","html-keyboard-response","181","762038","0.0-15.0-1.13","47195","List1B","white","man","","","","null","","","","","","","","",""
"null","is being looked at by","","html-keyboard-response","182","764051","0.0-15.0-2.13","47195","List1B","white","man","","","","null","","","","","","","","",""
"7227.099999904633","","","survey-text","183","771280","0.0-15.0-3.13","47195","List1B","white","man","","","","","{""Q0"":""Kate is being looked at by Jane""}","<img src=""stim_listB/look8.gif""style=""height:400px;""></stim_listB>","is being looked at by","","","","","",""
"null","<div style=""font-size:60px;"">+</div>","","html-keyboard-response","184","771789","0.0-15.0-0.14","47195","List1B","white","man","","","","null","","","","","","","","",""
"null","<img src=""stim_listB/hug1.gif""style=""height:400px;""></stim_listB>","","html-keyboard-response","185","773796","0.0-15.0-1.14","47195","List1B","white","man","","","","null","","","","","","","","",""
"null","is hugging","","html-keyboard-response","186","775799","0.0-15.0-2.14","47195","List1B","white","man","","","","null","","","","","","","","",""
"6280.299999952316","","","survey-text","187","782083","0.0-15.0-3.14","47195","List1B","white","man","","","","","{""Q0"":""Beth is hugging Fred""}","<img src=""stim_listB/hug1.gif""style=""height:400px;""></stim_listB>","is hugging","","","","","",""
"null","<div style=""font-size:60px;"">+</div>","","html-keyboard-response","188","782593","0.0-15.0-0.15","47195","List1B","white","man","","","","null","","","","","","","","",""
"null","<img src=""stim_listB/greet5.gif""style=""height:400px;""></stim_listB>","","html-keyboard-response","189","784609","0.0-15.0-1.15","47195","List1B","white","man","","","","null","","","","","","","","",""
"null","is greeting","","html-keyboard-response","190","786622","0.0-15.0-2.15","47195","List1B","white","man","","","","null","","","","","","","","",""
"4354.5","","","survey-text","191","790979","0.0-15.0-3.15","47195","List1B","white","man","","","","","{""Q0"":""Luke is greeting Mike""}","<img src=""stim_listB/greet5.gif""style=""height:400px;""></stim_listB>","is greeting","","","","","",""
"null","<div style=""font-size:60px;"">+</div>","","html-keyboard-response","192","791489","0.0-15.0-0.16","47195","List1B","white","man","","","","null","","","","","","","","",""
"null","<img src=""stim_listB/shout1.gif""style=""height:400px;""></stim_listB>","","html-keyboard-response","193","793503","0.0-15.0-1.16","47195","List1B","white","man","","","","null","","","","","","","","",""
"null","is shouting at","","html-keyboard-response","194","795507","0.0-15.0-2.16","47195","List1B","white","man","","","","null","","","","","","","","",""
"5470.299999952316","","","survey-text","195","800980","0.0-15.0-3.16","47195","List1B","white","man","","","","","{""Q0"":""Beth is shouting at Fred""}","<img src=""stim_listB/shout1.gif""style=""height:400px;""></stim_listB>","is shouting at","","","","","",""
"null","<div style=""font-size:60px;"">+</div>","","html-keyboard-response","196","801484","0.0-15.0-0.17","47195","List1B","white","man","","","","null","","","","","","","","",""
"null","<img src=""stim_listB/touch4.gif""style=""height:400px;""></stim_listB>","","html-keyboard-response","197","803488","0.0-15.0-1.17","47195","List1B","white","man","","","","null","","","","","","","","",""
"null","is being touched by","","html-keyboard-response","198","805503","0.0-15.0-2.17","47195","List1B","white","man","","","","null","","","","","","","","",""
"6905.5","","","survey-text","199","812412","0.0-15.0-3.17","47195","List1B","white","man","","","","","{""Q0"":""Luke is being touched by Ruth""}","<img src=""stim_listB/touch4.gif""style=""height:400px;""></stim_listB>","is being touched by","","","","","",""
"null","<div style=""font-size:60px;"">+</div>","","html-keyboard-response","200","812914","0.0-15.0-0.18","47195","List1B","white","man","","","","null","","","","","","","","",""
"null","<img src=""stim_listB/seduce8.gif""style=""height:400px;""></stim_listB>","","html-keyboard-response","201","814928","0.0-15.0-1.18","47195","List1B","white","man","","","","null","","","","","","","","",""
"null","is being seduced by","","html-keyboard-response","202","816939","0.0-15.0-2.18","47195","List1B","white","man","","","","null","","","","","","","","",""
"8992.200000047684","","","survey-text","203","825934","0.0-15.0-3.18","47195","List1B","white","man","","","","","{""Q0"":""Kate is being seduced by Ruth""}","<img src=""stim_listB/seduce8.gif""style=""height:400px;""></stim_listB>","is being seduced by","","","","","",""
"null","<div style=""font-size:60px;"">+</div>","","html-keyboard-response","204","826439","0.0-15.0-0.19","47195","List1B","white","man","","","","null","","","","","","","","",""
"null","<img src=""stim_listB/greet6.gif""style=""height:400px;""></stim_listB>","","html-keyboard-response","205","828452","0.0-15.0-1.19","47195","List1B","white","man","","","","null","","","","","","","","",""
"null","is being greeted by","","html-keyboard-response","206","830459","0.0-15.0-2.19","47195","List1B","white","man","","","","null","","","","","","","","",""
"6989.5","","","survey-text","207","837450","0.0-15.0-3.19","47195","List1B","white","man","","","","","{""Q0"":""Fred is being greeted by Dave""}","<img src=""stim_listB/greet6.gif""style=""height:400px;""></stim_listB>","is being greeted by","","","","","",""
"3729.2000000476837","<img src='img/portrait_matrix_list1.jpg' style='width:900px;height:500px;''></img><p>If you have memorised all the portraits and names and are ready to start, press Continue.</p><p><strong>Please note: Your memory of these faces will be tested 4 times during this experiment.</strong></p>","0","html-button-response","208","841182","0.0-16.0-0.0","47195","List1B","white","man","","","","","","","","","","","","",""
"1982.2999999523163","<img src=""portrait/BW1.jpg""style=""height:400px;""></img>","4","html-button-response","209","844169","0.0-16.0-1.0","47195","List1B","white","man","","true","0","","","","","","","","","",""
"3193.5","<img src=""portrait/BW1.jpg""style=""height:400px;""></img>","0","html-button-response","210","848370","0.0-16.0-3.0-0.0","47195","List1B","white","man","","false","0","","","","","","","","","",""
"null","CORRECT","","html-keyboard-response","211","849876","0.0-16.0-3.0-1.0-0.0","47195","List1B","white","man","","","","null","","","","","","","","",""
"1205.4000000953674","<img src=""portrait/WW2.jpg""style=""height:400px;""></img>","3","html-button-response","212","851083","0.0-16.0-4.0","47195","List1B","white","man","","true","3","","","","","","","","","",""
"null","CORRECT","","html-keyboard-response","213","852620","0.0-16.0-5.0-0.0","47195","List1B","white","man","","","","null","","","","","","","","",""
"1375","<img src=""portrait/BM2.jpg""style=""height:400px;""></img>","5","html-button-response","214","853996","0.0-16.0-7.0","47195","List1B","white","man","","true","5","","","","","","","","","",""
"null","CORRECT","","html-keyboard-response","215","855521","0.0-16.0-8.0-0.0","47195","List1B","white","man","","","","null","","","","","","","","",""
"2282.800000190735","<img src=""portrait/WM1.jpg""style=""height:400px;""></img>","6","html-button-response","216","857806","0.0-16.0-10.0","47195","List1B","white","man","","true","6","","","","","","","","","",""
"null","CORRECT","","html-keyboard-response","217","859315","0.0-16.0-11.0-0.0","47195","List1B","white","man","","","","null","","","","","","","","",""
"1449.8999998569489","<img src=""portrait/BW2.jpg""style=""height:400px;""></img>","2","html-button-response","218","860766","0.0-16.0-13.0","47195","List1B","white","man","","true","2","","","","","","","","","",""
"null","CORRECT","","html-keyboard-response","219","862286","0.0-16.0-14.0-0.0","47195","List1B","white","man","","","","null","","","","","","","","",""
"2016.8999998569489","<img src=""portrait/WW1.jpg""style=""height:400px;""></img>","1","html-button-response","220","864305","0.0-16.0-16.0","47195","List1B","white","man","","true","1","","","","","","","","","",""
"null","CORRECT","","html-keyboard-response","221","865832","0.0-16.0-17.0-0.0","47195","List1B","white","man","","","","null","","","","","","","","",""
"1471.9000000953674","<img src=""portrait/WM2.jpg""style=""height:400px;""></img>","7","html-button-response","222","867306","0.0-16.0-19.0","47195","List1B","white","man","","true","7","","","","","","","","","",""
"null","CORRECT","","html-keyboard-response","223","868828","0.0-16.0-20.0-0.0","47195","List1B","white","man","","","","null","","","","","","","","",""
"2914.2999999523163","<img src=""portrait/BM1.jpg""style=""height:400px;""></img>","4","html-button-response","224","871745","0.0-16.0-22.0","47195","List1B","white","man","","true","4","","","","","","","","","",""
"null","CORRECT","","html-keyboard-response","225","873269","0.0-16.0-23.0-0.0","47195","List1B","white","man","","","","null","","","","","","","","",""
"1209","<p>You got 7 out of 8 right first time. Press Continue.</p>","0","html-button-response","226","874480","0.0-16.0-25.0","47195","List1B","white","man","","","","","","","","","","","","",""
"4519.5","As you did not score 100%, the memory game will repeat. Press Continue.","0","html-button-response","227","880010","0.0-16.0-26.0-0.0","47195","List1B","white","man","","","","","","","","","","","","",""
"2198.4000000953674","<img src='img/portrait_matrix_list1.jpg' style='width:900px;height:500px;''></img><p>If you have memorised all the portraits and names and are ready to start, press Continue.</p><p><strong>Please note: Your memory of these faces will be tested 4 times during this experiment.</strong></p>","0","html-button-response","228","883218","0.0-16.1-0.1","47195","List1B","white","man","","","","","","","","","","","","",""
"1975.1999998092651","<img src=""portrait/BW1.jpg""style=""height:400px;""></img>","0","html-button-response","229","886211","0.0-16.1-1.1","47195","List1B","white","man","","true","0","","","","","","","","","",""
"null","CORRECT","","html-keyboard-response","230","887737","0.0-16.1-2.1-0.1","47195","List1B","white","man","","","","null","","","","","","","","",""
"1156","<img src=""portrait/WW2.jpg""style=""height:400px;""></img>","3","html-button-response","231","888896","0.0-16.1-4.1","47195","List1B","white","man","","true","3","","","","","","","","","",""
"null","CORRECT","","html-keyboard-response","232","890415","0.0-16.1-5.1-0.1","47195","List1B","white","man","","","","null","","","","","","","","",""
"1655.7999999523163","<img src=""portrait/BM2.jpg""style=""height:400px;""></img>","5","html-button-response","233","892073","0.0-16.1-7.1","47195","List1B","white","man","","true","5","","","","","","","","","",""
"null","CORRECT","","html-keyboard-response","234","893595","0.0-16.1-8.1-0.1","47195","List1B","white","man","","","","null","","","","","","","","",""
"2707.300000190735","<img src=""portrait/WM1.jpg""style=""height:400px;""></img>","6","html-button-response","235","896305","0.0-16.1-10.1","47195","List1B","white","man","","true","6","","","","","","","","","",""
"null","CORRECT","","html-keyboard-response","236","897817","0.0-16.1-11.1-0.1","47195","List1B","white","man","","","","null","","","","","","","","",""
"1331.5999999046326","<img src=""portrait/BW2.jpg""style=""height:400px;""></img>","2","html-button-response","237","899150","0.0-16.1-13.1","47195","List1B","white","man","","true","2","","","","","","","","","",""
"null","CORRECT","","html-keyboard-response","238","900659","0.0-16.1-14.1-0.1","47195","List1B","white","man","","","","null","","","","","","","","",""
"1998.6000001430511","<img src=""portrait/WW1.jpg""style=""height:400px;""></img>","1","html-button-response","239","902660","0.0-16.1-16.1","47195","List1B","white","man","","true","1","","","","","","","","","",""
"null","CORRECT","","html-keyboard-response","240","904163","0.0-16.1-17.1-0.1","47195","List1B","white","man","","","","null","","","","","","","","",""
"1421.6000001430511","<img src=""portrait/WM2.jpg""style=""height:400px;""></img>","7","html-button-response","241","905587","0.0-16.1-19.1","47195","List1B","white","man","","true","7","","","","","","","","","",""
"null","CORRECT","","html-keyboard-response","242","907108","0.0-16.1-20.1-0.1","47195","List1B","white","man","","","","null","","","","","","","","",""
"2716.0999999046326","<img src=""portrait/BM1.jpg""style=""height:400px;""></img>","4","html-button-response","243","909826","0.0-16.1-22.1","47195","List1B","white","man","","true","4","","","","","","","","","",""
"null","CORRECT","","html-keyboard-response","244","911350","0.0-16.1-23.1-0.1","47195","List1B","white","man","","","","null","","","","","","","","",""
"1077.0999999046326","<p>You got 8 out of 8 right first time. Press Continue.</p>","0","html-button-response","245","912429","0.0-16.1-25.1","47195","List1B","white","man","","","","","","","","","","","","",""
"null","<div style=""font-size:60px;"">+</div>","","html-keyboard-response","246","913951","0.0-17.0-0.0","47195","List1B","white","man","","","","null","","","","","","","","",""
"null","<img src=""stim_listB/seduce7.gif""style=""height:400px;""></stim_listB>","","html-keyboard-response","247","915954","0.0-17.0-1.0","47195","List1B","white","man","","","","null","","","","","","","","",""
"null","is seducing","","html-keyboard-response","248","917966","0.0-17.0-2.0","47195","List1B","white","man","","","","null","","","","","","","","",""
"6065.899999856949","","","survey-text","249","924034","0.0-17.0-3.0","47195","List1B","white","man","","","","","{""Q0"":""Beth is seducing Jane""}","<img src=""stim_listB/seduce7.gif""style=""height:400px;""></stim_listB>","is seducing","","","","","",""
"null","<div style=""font-size:60px;"">+</div>","","html-keyboard-response","250","924549","0.0-17.0-0.1","47195","List1B","white","man","","","","null","","","","","","","","",""
"null","<img src=""stim_listB/shout7.gif""style=""height:400px;""></stim_listB>","","html-keyboard-response","251","926565","0.0-17.0-1.1","47195","List1B","white","man","","","","null","","","","","","","","",""
"null","is shouting at","","html-keyboard-response","252","928581","0.0-17.0-2.1","47195","List1B","white","man","","","","null","","","","","","","","",""
"6006.699999809265","","","survey-text","253","934590","0.0-17.0-3.1","47195","List1B","white","man","","","","","{""Q0"":""Ruth is shouting at Beth""}","<img src=""stim_listB/shout7.gif""style=""height:400px;""></stim_listB>","is shouting at","","","","","",""
"null","<div style=""font-size:60px;"">+</div>","","html-keyboard-response","254","935093","0.0-17.0-0.2","47195","List1B","white","man","","","","null","","","","","","","","",""
"null","<img src=""stim_listB/kiss5.gif""style=""height:400px;""></stim_listB>","","html-keyboard-response","255","937108","0.0-17.0-1.2","47195","List1B","white","man","","","","null","","","","","","","","",""
"null","is kissing","","html-keyboard-response","256","939111","0.0-17.0-2.2","47195","List1B","white","man","","","","null","","","","","","","","",""
"5459.400000095367","","","survey-text","257","944573","0.0-17.0-3.2","47195","List1B","white","man","","","","","{""Q0"":""Luke is kissing Fred""}","<img src=""stim_listB/kiss5.gif""style=""height:400px;""></stim_listB>","is kissing","","","","","",""
"null","<div style=""font-size:60px;"">+</div>","","html-keyboard-response","258","945086","0.0-17.0-0.3","47195","List1B","white","man","","","","null","","","","","","","","",""
"null","<img src=""stim_listB/look5.gif""style=""height:400px;""></stim_listB>","","html-keyboard-response","259","947103","0.0-17.0-1.3","47195","List1B","white","man","","","","null","","","","","","","","",""
"null","is looking at","","html-keyboard-response","260","949112","0.0-17.0-2.3","47195","List1B","white","man","","","","null","","","","","","","","",""
"6481","","","survey-text","261","955596","0.0-17.0-3.3","47195","List1B","white","man","","","","","{""Q0"":""Luke is looking at Fred""}","<img src=""stim_listB/look5.gif""style=""height:400px;""></stim_listB>","is looking at","","","","","",""
"null","<div style=""font-size:60px;"">+</div>","","html-keyboard-response","262","956102","0.0-17.0-0.4","47195","List1B","white","man","","","","null","","","","","","","","",""
"null","<img src=""stim_listB/oppose4.gif""style=""height:400px;""></stim_listB>","","html-keyboard-response","263","958113","0.0-17.0-1.4","47195","List1B","white","man","","","","null","","","","","","","","",""
"null","is being opposed by","","html-keyboard-response","264","960123","0.0-17.0-2.4","47195","List1B","white","man","","","","null","","","","","","","","",""
"5649.099999904633","","","survey-text","265","965774","0.0-17.0-3.4","47195","List1B","white","man","","","","","{""Q0"":""Luke is being opposed by Ruth""}","<img src=""stim_listB/oppose4.gif""style=""height:400px;""></stim_listB>","is being opposed by","","","","","",""
"null","<div style=""font-size:60px;"">+</div>","","html-keyboard-response","266","966282","0.0-17.0-0.5","47195","List1B","white","man","","","","null","","","","","","","","",""
"null","<img src=""stim_listB/oppose3.gif""style=""height:400px;""></stim_listB>","","html-keyboard-response","267","968288","0.0-17.0-1.5","47195","List1B","white","man","","","","null","","","","","","","","",""
"null","is opposing","","html-keyboard-response","268","970299","0.0-17.0-2.5","47195","List1B","white","man","","","","null","","","","","","","","",""
"5559","","","survey-text","269","975861","0.0-17.0-3.5","47195","List1B","white","man","","","","","{""Q0"":""Dave is opposing Jane""}","<img src=""stim_listB/oppose3.gif""style=""height:400px;""></stim_listB>","is opposing","","","","","",""
"null","<div style=""font-size:60px;"">+</div>","","html-keyboard-response","270","976368","0.0-17.0-0.6","47195","List1B","white","man","","","","null","","","","","","","","",""
"null","<img src=""stim_listB/seduce3.gif""style=""height:400px;""></stim_listB>","","html-keyboard-response","271","978384","0.0-17.0-1.6","47195","List1B","white","man","","","","null","","","","","","","","",""
"null","is seducing","","html-keyboard-response","272","980399","0.0-17.0-2.6","47195","List1B","white","man","","","","null","","","","","","","","",""
"4550.299999952316","","","survey-text","273","984952","0.0-17.0-3.6","47195","List1B","white","man","","","","","{""Q0"":""Jane is seducing Luke""}","<img src=""stim_listB/seduce3.gif""style=""height:400px;""></stim_listB>","is seducing","","","","","",""
"null","<div style=""font-size:60px;"">+</div>","","html-keyboard-response","274","985468","0.0-17.0-0.7","47195","List1B","white","man","","","","null","","","","","","","","",""
"null","<img src=""stim_listB/oppose6.gif""style=""height:400px;""></stim_listB>","","html-keyboard-response","275","987485","0.0-17.0-1.7","47195","List1B","white","man","","","","null","","","","","","","","",""
"null","is being opposed by","","html-keyboard-response","276","989493","0.0-17.0-2.7","47195","List1B","white","man","","","","null","","","","","","","","",""
"5932.199999809265","","","survey-text","277","995428","0.0-17.0-3.7","47195","List1B","white","man","","","","","{""Q0"":""Fred is being opposed by Luke""}","<img src=""stim_listB/oppose6.gif""style=""height:400px;""></stim_listB>","is being opposed by","","","","","",""
"null","<div style=""font-size:60px;"">+</div>","","html-keyboard-response","278","995942","0.0-17.0-0.8","47195","List1B","white","man","","","","null","","","","","","","","",""
"null","<img src=""stim_listB/challenge7.gif""style=""height:400px;""></stim_listB>","","html-keyboard-response","279","997948","0.0-17.0-1.8","47195","List1B","white","man","","","","null","","","","","","","","",""
"null","is challenging","","html-keyboard-response","280","999955","0.0-17.0-2.8","47195","List1B","white","man","","","","null","","","","","","","","",""
"9308.599999904633","","","survey-text","281","1009266","0.0-17.0-3.8","47195","List1B","white","man","","","","","{""Q0"":""Ruth is challenging Kate""}","<img src=""stim_listB/challenge7.gif""style=""height:400px;""></stim_listB>","is challenging","","","","","",""
"null","<div style=""font-size:60px;"">+</div>","","html-keyboard-response","282","1009767","0.0-17.0-0.9","47195","List1B","white","man","","","","null","","","","","","","","",""
"null","<img src=""stim_listB/oppose5.gif""style=""height:400px;""></stim_listB>","","html-keyboard-response","283","1011784","0.0-17.0-1.9","47195","List1B","white","man","","","","null","","","","","","","","",""
"null","is opposing","","html-keyboard-response","284","1013794","0.0-17.0-2.9","47195","List1B","white","man","","","","null","","","","","","","","",""
"5319.5","","","survey-text","285","1019119","0.0-17.0-3.9","47195","List1B","white","man","","","","","{""Q0"":""Dave is opposing Mike""}","<img src=""stim_listB/oppose5.gif""style=""height:400px;""></stim_listB>","is opposing","","","","","",""
"null","<div style=""font-size:60px;"">+</div>","","html-keyboard-response","286","1019638","0.0-17.0-0.10","47195","List1B","white","man","","","","null","","","","","","","","",""
"null","<img src=""stim_listB/look4.gif""style=""height:400px;""></stim_listB>","","html-keyboard-response","287","1021648","0.0-17.0-1.10","47195","List1B","white","man","","","","null","","","","","","","","",""
"null","is being looked at by","","html-keyboard-response","288","1023656","0.0-17.0-2.10","47195","List1B","white","man","","","","null","","","","","","","","",""
"5768.5","","","survey-text","289","1029427","0.0-17.0-3.10","47195","List1B","white","man","","","","","{""Q0"":""Jane is being looked at by Dave""}","<img src=""stim_listB/look4.gif""style=""height:400px;""></stim_listB>","is being looked at by","","","","","",""
"null","<div style=""font-size:60px;"">+</div>","","html-keyboard-response","290","1029937","0.0-17.0-0.11","47195","List1B","white","man","","","","null","","","","","","","","",""
"null","<img src=""stim_listB/touch5.gif""style=""height:400px;""></stim_listB>","","html-keyboard-response","291","1031947","0.0-17.0-1.11","47195","List1B","white","man","","","","null","","","","","","","","",""
"null","is touching","","html-keyboard-response","292","1033951","0.0-17.0-2.11","47195","List1B","white","man","","","","null","","","","","","","","",""
"6185.599999904633","","","survey-text","293","1040140","0.0-17.0-3.11","47195","List1B","white","man","","","","","{""Q0"":""Dave is touching Mike""}","<img src=""stim_listB/touch5.gif""style=""height:400px;""></stim_listB>","is touching","","","","","",""
"null","<div style=""font-size:60px;"">+</div>","","html-keyboard-response","294","1040654","0.0-17.0-0.12","47195","List1B","white","man","","","","null","","","","","","","","",""
"null","<img src=""stim_listB/oppose1.gif""style=""height:400px;""></stim_listB>","","html-keyboard-response","295","1042657","0.0-17.0-1.12","47195","List1B","white","man","","","","null","","","","","","","","",""
"null","is opposing","","html-keyboard-response","296","1044665","0.0-17.0-2.12","47195","List1B","white","man","","","","null","","","","","","","","",""
"5795.299999952316","","","survey-text","297","1050463","0.0-17.0-3.12","47195","List1B","white","man","","","","","{""Q0"":""Kate is opposing Mike""}","<img src=""stim_listB/oppose1.gif""style=""height:400px;""></stim_listB>","is opposing","","","","","",""
"null","<div style=""font-size:60px;"">+</div>","","html-keyboard-response","298","1050965","0.0-17.0-0.13","47195","List1B","white","man","","","","null","","","","","","","","",""
"null","<img src=""stim_listB/greet1.gif""style=""height:400px;""></stim_listB>","","html-keyboard-response","299","1052980","0.0-17.0-1.13","47195","List1B","white","man","","","","null","","","","","","","","",""
"null","is greeting","","html-keyboard-response","300","1054985","0.0-17.0-2.13","47195","List1B","white","man","","","","null","","","","","","","","",""
"4759.700000047684","","","survey-text","301","1059747","0.0-17.0-3.13","47195","List1B","white","man","","","","","{""Q0"":""Beth is greeting Mike""}","<img src=""stim_listB/greet1.gif""style=""height:400px;""></stim_listB>","is greeting","","","","","",""
"null","<div style=""font-size:60px;"">+</div>","","html-keyboard-response","302","1060255","0.0-17.0-0.14","47195","List1B","white","man","","","","null","","","","","","","","",""
"null","<img src=""stim_listB/copy3.gif""style=""height:400px;""></stim_listB>","","html-keyboard-response","303","1062261","0.0-17.0-1.14","47195","List1B","white","man","","","","null","","","","","","","","",""
"null","is copying","","html-keyboard-response","304","1064288","0.0-17.0-2.14","47195","List1B","white","man","","","","null","","","","","","","","",""
"5916.799999952316","","","survey-text","305","1070208","0.0-17.0-3.14","47195","List1B","white","man","","","","","{""Q0"":""Ruth is copying Dave""}","<img src=""stim_listB/copy3.gif""style=""height:400px;""></stim_listB>","is copying","","","","","",""
"null","<div style=""font-size:60px;"">+</div>","","html-keyboard-response","306","1070714","0.0-17.0-0.15","47195","List1B","white","man","","","","null","","","","","","","","",""
"null","<img src=""stim_listB/kiss2.gif""style=""height:400px;""></stim_listB>","","html-keyboard-response","307","1072719","0.0-17.0-1.15","47195","List1B","white","man","","","","null","","","","","","","","",""
"null","is being kissed by","","html-keyboard-response","308","1074734","0.0-17.0-2.15","47195","List1B","white","man","","","","null","","","","","","","","",""
"5918.599999904633","","","survey-text","309","1080656","0.0-17.0-3.15","47195","List1B","white","man","","","","","{""Q0"":""Kate is being kissed by Mike""}","<img src=""stim_listB/kiss2.gif""style=""height:400px;""></stim_listB>","is being kissed by","","","","","",""
"null","<div style=""font-size:60px;"">+</div>","","html-keyboard-response","310","1081161","0.0-17.0-0.16","47195","List1B","white","man","","","","null","","","","","","","","",""
"null","<img src=""stim_listB/kiss1.gif""style=""height:400px;""></stim_listB>","","html-keyboard-response","311","1083165","0.0-17.0-1.16","47195","List1B","white","man","","","","null","","","","","","","","",""
"null","is kissing","","html-keyboard-response","312","1085177","0.0-17.0-2.16","47195","List1B","white","man","","","","null","","","","","","","","",""
"4670.899999856949","","","survey-text","313","1089851","0.0-17.0-3.16","47195","List1B","white","man","","","","","{""Q0"":""Beth is kissing Fred""}","<img src=""stim_listB/kiss1.gif""style=""height:400px;""></stim_listB>","is kissing","","","","","",""
"null","<div style=""font-size:60px;"">+</div>","","html-keyboard-response","314","1090363","0.0-17.0-0.17","47195","List1B","white","man","","","","null","","","","","","","","",""
"null","<img src=""stim_listB/shout4.gif""style=""height:400px;""></stim_listB>","","html-keyboard-response","315","1092373","0.0-17.0-1.17","47195","List1B","white","man","","","","null","","","","","","","","",""
"null","is being shouted at by","","html-keyboard-response","316","1094392","0.0-17.0-2.17","47195","List1B","white","man","","","","null","","","","","","","","",""
"5565.599999904633","","","survey-text","317","1099960","0.0-17.0-3.17","47195","List1B","white","man","","","","","{""Q0"":""Jane is being shouted at by Dave""}","<img src=""stim_listB/shout4.gif""style=""height:400px;""></stim_listB>","is being shouted at by","","","","","",""
"null","<div style=""font-size:60px;"">+</div>","","html-keyboard-response","318","1100470","0.0-17.0-0.18","47195","List1B","white","man","","","","null","","","","","","","","",""
"null","<img src=""stim_listB/greet7.gif""style=""height:400px;""></stim_listB>","","html-keyboard-response","319","1102473","0.0-17.0-1.18","47195","List1B","white","man","","","","null","","","","","","","","",""
"null","is greeting","","html-keyboard-response","320","1104491","0.0-17.0-2.18","47195","List1B","white","man","","","","null","","","","","","","","",""
"5228","","","survey-text","321","1109721","0.0-17.0-3.18","47195","List1B","white","man","","","","","{""Q0"":""Ruth is greeting Kate""}","<img src=""stim_listB/greet7.gif""style=""height:400px;""></stim_listB>","is greeting","","","","","",""
"null","<div style=""font-size:60px;"">+</div>","","html-keyboard-response","322","1110229","0.0-17.0-0.19","47195","List1B","white","man","","","","null","","","","","","","","",""
"null","<img src=""stim_listB/challenge1.gif""style=""height:400px;""></stim_listB>","","html-keyboard-response","323","1112231","0.0-17.0-1.19","47195","List1B","white","man","","","","null","","","","","","","","",""
"null","is challenging","","html-keyboard-response","324","1114237","0.0-17.0-2.19","47195","List1B","white","man","","","","null","","","","","","","","",""
"6371.600000143051","","","survey-text","325","1120611","0.0-17.0-3.19","47195","List1B","white","man","","","","","{""Q0"":""Beth is challenging Mike""}","<img src=""stim_listB/challenge1.gif""style=""height:400px;""></stim_listB>","is challenging","","","","","",""
"5374.299999952316","<img src='img/portrait_matrix_list1.jpg' style='width:900px;height:500px;''></img><p>If you have memorised all the portraits and names and are ready to start, press Continue.</p><p><strong>Please note: Your memory of these faces will be tested 4 times during this experiment.</strong></p>","0","html-button-response","326","1125987","0.0-18.0-0.0","47195","List1B","white","man","","","","","","","","","","","","",""
"1481.7000000476837","<img src=""portrait/BW2.jpg""style=""height:400px;""></img>","2","html-button-response","327","1128486","0.0-18.0-1.0","47195","List1B","white","man","","true","2","","","","","","","","","",""
"null","CORRECT","","html-keyboard-response","328","1130005","0.0-18.0-2.0-0.0","47195","List1B","white","man","","","","null","","","","","","","","",""
"1820.5999999046326","<img src=""portrait/WM2.jpg""style=""height:400px;""></img>","7","html-button-response","329","1131827","0.0-18.0-4.0","47195","List1B","white","man","","true","7","","","","","","","","","",""
"null","CORRECT","","html-keyboard-response","330","1133345","0.0-18.0-5.0-0.0","47195","List1B","white","man","","","","null","","","","","","","","",""
"1996.6000001430511","<img src=""portrait/WW1.jpg""style=""height:400px;""></img>","1","html-button-response","331","1135344","0.0-18.0-7.0","47195","List1B","white","man","","true","1","","","","","","","","","",""
"null","CORRECT","","html-keyboard-response","332","1136863","0.0-18.0-8.0-0.0","47195","List1B","white","man","","","","null","","","","","","","","",""
"1132.8999998569489","<img src=""portrait/BM1.jpg""style=""height:400px;""></img>","4","html-button-response","333","1137998","0.0-18.0-10.0","47195","List1B","white","man","","true","4","","","","","","","","","",""
"null","CORRECT","","html-keyboard-response","334","1139512","0.0-18.0-11.0-0.0","47195","List1B","white","man","","","","null","","","","","","","","",""
"1631.9000000953674","<img src=""portrait/WM1.jpg""style=""height:400px;""></img>","6","html-button-response","335","1141146","0.0-18.0-13.0","47195","List1B","white","man","","true","6","","","","","","","","","",""
"null","CORRECT","","html-keyboard-response","336","1142665","0.0-18.0-14.0-0.0","47195","List1B","white","man","","","","null","","","","","","","","",""
"1465.2999999523163","<img src=""portrait/BW1.jpg""style=""height:400px;""></img>","0","html-button-response","337","1144132","0.0-18.0-16.0","47195","List1B","white","man","","true","0","","","","","","","","","",""
"null","CORRECT","","html-keyboard-response","338","1145662","0.0-18.0-17.0-0.0","47195","List1B","white","man","","","","null","","","","","","","","",""
"1173.0999999046326","<img src=""portrait/BM2.jpg""style=""height:400px;""></img>","5","html-button-response","339","1146837","0.0-18.0-19.0","47195","List1B","white","man","","true","5","","","","","","","","","",""
"null","CORRECT","","html-keyboard-response","340","1148346","0.0-18.0-20.0-0.0","47195","List1B","white","man","","","","null","","","","","","","","",""
"2065.0999999046326","<img src=""portrait/WW2.jpg""style=""height:400px;""></img>","3","html-button-response","341","1150413","0.0-18.0-22.0","47195","List1B","white","man","","true","3","","","","","","","","","",""
"null","CORRECT","","html-keyboard-response","342","1151925","0.0-18.0-23.0-0.0","47195","List1B","white","man","","","","null","","","","","","","","",""
"933.8000001907349","<p>You got 8 out of 8 right first time. Press Continue.</p>","0","html-button-response","343","1152861","0.0-18.0-25.0","47195","List1B","white","man","","","","","","","","","","","","",""
"null","<div style=""font-size:60px;"">+</div>","","html-keyboard-response","344","1154375","0.0-19.0-0.0","47195","List1B","white","man","","","","null","","","","","","","","",""
"null","<img src=""stim_listB/touch6.gif""style=""height:400px;""></stim_listB>","","html-keyboard-response","345","1156382","0.0-19.0-1.0","47195","List1B","white","man","","","","null","","","","","","","","",""
"null","is being touched by","","html-keyboard-response","346","1158393","0.0-19.0-2.0","47195","List1B","white","man","","","","null","","","","","","","","",""
"6880.700000047684","","","survey-text","347","1165276","0.0-19.0-3.0","47195","List1B","white","man","","","","","{""Q0"":""Fred is being touched by Luke""}","<img src=""stim_listB/touch6.gif""style=""height:400px;""></stim_listB>","is being touched by","","","","","",""
"null","<div style=""font-size:60px;"">+</div>","","html-keyboard-response","348","1165794","0.0-19.0-0.1","47195","List1B","white","man","","","","null","","","","","","","","",""
"null","<img src=""stim_listB/touch2.gif""style=""height:400px;""></stim_listB>","","html-keyboard-response","349","1167799","0.0-19.0-1.1","47195","List1B","white","man","","","","null","","","","","","","","",""
"null","is being touched by","","html-keyboard-response","350","1169809","0.0-19.0-2.1","47195","List1B","white","man","","","","null","","","","","","","","",""
"5234.799999952316","","","survey-text","351","1175047","0.0-19.0-3.1","47195","List1B","white","man","","","","","{""Q0"":""Fred is being touched by Beth""}","<img src=""stim_listB/touch2.gif""style=""height:400px;""></stim_listB>","is being touched by","","","","","",""
"null","<div style=""font-size:60px;"">+</div>","","html-keyboard-response","352","1175563","0.0-19.0-0.2","47195","List1B","white","man","","","","null","","","","","","","","",""
"null","<img src=""stim_listB/greet8.gif""style=""height:400px;""></stim_listB>","","html-keyboard-response","353","1177569","0.0-19.0-1.2","47195","List1B","white","man","","","","null","","","","","","","","",""
"null","is being greeted by","","html-keyboard-response","354","1179581","0.0-19.0-2.2","47195","List1B","white","man","","","","null","","","","","","","","",""
"5483.400000095367","","","survey-text","355","1185067","0.0-19.0-3.2","47195","List1B","white","man","","","","","{""Q0"":""Beth is being greeted by Jane""}","<img src=""stim_listB/greet8.gif""style=""height:400px;""></stim_listB>","is being greeted by","","","","","",""
"null","<div style=""font-size:60px;"">+</div>","","html-keyboard-response","356","1185578","0.0-19.0-0.3","47195","List1B","white","man","","","","null","","","","","","","","",""
"null","<img src=""stim_listB/copy4.gif""style=""height:400px;""></stim_listB>","","html-keyboard-response","357","1187593","0.0-19.0-1.3","47195","List1B","white","man","","","","null","","","","","","","","",""
"null","is being copied by","","html-keyboard-response","358","1189610","0.0-19.0-2.3","47195","List1B","white","man","","","","null","","","","","","","","",""
"10958.099999904633","","","survey-text","359","1200570","0.0-19.0-3.3","47195","List1B","white","man","","","","","{""Q0"":""Luke is being copied by Jane""}","<img src=""stim_listB/copy4.gif""style=""height:400px;""></stim_listB>","is being copied by","","","","","",""
"null","<div style=""font-size:60px;"">+</div>","","html-keyboard-response","360","1201087","0.0-19.0-0.4","47195","List1B","white","man","","","","null","","","","","","","","",""
"null","<img src=""stim_listB/hug4.gif""style=""height:400px;""></stim_listB>","","html-keyboard-response","361","1203098","0.0-19.0-1.4","47195","List1B","white","man","","","","null","","","","","","","","",""
"null","is being hugged by","","html-keyboard-response","362","1205112","0.0-19.0-2.4","47195","List1B","white","man","","","","null","","","","","","","","",""
"5519.5","","","survey-text","363","1210635","0.0-19.0-3.4","47195","List1B","white","man","","","","","{""Q0"":""Jane is being hugged by Dave""}","<img src=""stim_listB/hug4.gif""style=""height:400px;""></stim_listB>","is being hugged by","","","","","",""
"null","<div style=""font-size:60px;"">+</div>","","html-keyboard-response","364","1211141","0.0-19.0-0.5","47195","List1B","white","man","","","","null","","","","","","","","",""
"null","<img src=""stim_listB/kiss4.gif""style=""height:400px;""></stim_listB>","","html-keyboard-response","365","1213147","0.0-19.0-1.5","47195","List1B","white","man","","","","null","","","","","","","","",""
"null","is being kissed by","","html-keyboard-response","366","1215164","0.0-19.0-2.5","47195","List1B","white","man","","","","null","","","","","","","","",""
"5850.200000047684","","","survey-text","367","1221018","0.0-19.0-3.5","47195","List1B","white","man","","","","","{""Q0"":""Dave is being kissed by Jane""}","<img src=""stim_listB/kiss4.gif""style=""height:400px;""></stim_listB>","is being kissed by","","","","","",""
"null","<div style=""font-size:60px;"">+</div>","","html-keyboard-response","368","1221520","0.0-19.0-0.6","47195","List1B","white","man","","","","null","","","","","","","","",""
"null","<img src=""stim_listB/hug5.gif""style=""height:400px;""></stim_listB>","","html-keyboard-response","369","1223529","0.0-19.0-1.6","47195","List1B","white","man","","","","null","","","","","","","","",""
"null","is hugging","","html-keyboard-response","370","1225531","0.0-19.0-2.6","47195","List1B","white","man","","","","null","","","","","","","","",""
"5561.100000143051","","","survey-text","371","1231095","0.0-19.0-3.6","47195","List1B","white","man","","","","","{""Q0"":""Luke is hugging Fred""}","<img src=""stim_listB/hug5.gif""style=""height:400px;""></stim_listB>","is hugging","","","","","",""
"null","<div style=""font-size:60px;"">+</div>","","html-keyboard-response","372","1231599","0.0-19.0-0.7","47195","List1B","white","man","","","","null","","","","","","","","",""
"null","<img src=""stim_listB/greet2.gif""style=""height:400px;""></stim_listB>","","html-keyboard-response","373","1233602","0.0-19.0-1.7","47195","List1B","white","man","","","","null","","","","","","","","",""
"null","is being greeted by","","html-keyboard-response","374","1235611","0.0-19.0-2.7","47195","List1B","white","man","","","","null","","","","","","","","",""
"6334.199999809265","","","survey-text","375","1241948","0.0-19.0-3.7","47195","List1B","white","man","","","","","{""Q0"":""Fred is being greeted by Kate""}","<img src=""stim_listB/greet2.gif""style=""height:400px;""></stim_listB>","is being greeted by","","","","","",""
"null","<div style=""font-size:60px;"">+</div>","","html-keyboard-response","376","1242468","0.0-19.0-0.8","47195","List1B","white","man","","","","null","","","","","","","","",""
"null","<img src=""stim_listB/kiss7.gif""style=""height:400px;""></stim_listB>","","html-keyboard-response","377","1244470","0.0-19.0-1.8","47195","List1B","white","man","","","","null","","","","","","","","",""
"null","is kissing","","html-keyboard-response","378","1246486","0.0-19.0-2.8","47195","List1B","white","man","","","","null","","","","","","","","",""
"4699.5","","","survey-text","379","1251188","0.0-19.0-3.8","47195","List1B","white","man","","","","","{""Q0"":""Beth is kissing Ruth""}","<img src=""stim_listB/kiss7.gif""style=""height:400px;""></stim_listB>","is kissing","","","","","",""
"null","<div style=""font-size:60px;"">+</div>","","html-keyboard-response","380","1251705","0.0-19.0-0.9","47195","List1B","white","man","","","","null","","","","","","","","",""
"null","<img src=""stim_listB/copy7.gif""style=""height:400px;""></stim_listB>","","html-keyboard-response","381","1253720","0.0-19.0-1.9","47195","List1B","white","man","","","","null","","","","","","","","",""
"null","is copying","","html-keyboard-response","382","1255735","0.0-19.0-2.9","47195","List1B","white","man","","","","null","","","","","","","","",""
"12434.799999952316","","","survey-text","383","1268172","0.0-19.0-3.9","47195","List1B","white","man","","","","","{""Q0"":""Beth is copying Kate""}","<img src=""stim_listB/copy7.gif""style=""height:400px;""></stim_listB>","is copying","","","","","",""
"null","<div style=""font-size:60px;"">+</div>","","html-keyboard-response","384","1268683","0.0-19.0-0.10","47195","List1B","white","man","","","","null","","","","","","","","",""
"null","<img src=""stim_listB/hug8.gif""style=""height:400px;""></stim_listB>","","html-keyboard-response","385","1270690","0.0-19.0-1.10","47195","List1B","white","man","","","","null","","","","","","","","",""
"null","is being hugged by","","html-keyboard-response","386","1272703","0.0-19.0-2.10","47195","List1B","white","man","","","","null","","","","","","","","",""
"5795","","","survey-text","387","1278502","0.0-19.0-3.10","47195","List1B","white","man","","","","","{""Q0"":""Kate is being hugged by Jane""}","<img src=""stim_listB/hug8.gif""style=""height:400px;""></stim_listB>","is being hugged by","","","","","",""
"null","<div style=""font-size:60px;"">+</div>","","html-keyboard-response","388","1279012","0.0-19.0-0.11","47195","List1B","white","man","","","","null","","","","","","","","",""
"null","<img src=""stim_listB/kiss8.gif""style=""height:400px;""></stim_listB>","","html-keyboard-response","389","1281018","0.0-19.0-1.11","47195","List1B","white","man","","","","null","","","","","","","","",""
"null","is being kissed by","","html-keyboard-response","390","1283022","0.0-19.0-2.11","47195","List1B","white","man","","","","null","","","","","","","","",""
"5883.400000095367","","","survey-text","391","1288907","0.0-19.0-3.11","47195","List1B","white","man","","","","","{""Q0"":""Kate is being kissed by Jane""}","<img src=""stim_listB/kiss8.gif""style=""height:400px;""></stim_listB>","is being kissed by","","","","","",""
"null","<div style=""font-size:60px;"">+</div>","","html-keyboard-response","392","1289414","0.0-19.0-0.12","47195","List1B","white","man","","","","null","","","","","","","","",""
"null","<img src=""stim_listB/hug7.gif""style=""height:400px;""></stim_listB>","","html-keyboard-response","393","1291423","0.0-19.0-1.12","47195","List1B","white","man","","","","null","","","","","","","","",""
"null","is hugging","","html-keyboard-response","394","1293439","0.0-19.0-2.12","47195","List1B","white","man","","","","null","","","","","","","","",""
"8166.699999809265","","","survey-text","395","1301608","0.0-19.0-3.12","47195","List1B","white","man","","","","","{""Q0"":""Ruth is hugging Beth""}","<img src=""stim_listB/hug7.gif""style=""height:400px;""></stim_listB>","is hugging","","","","","",""
"null","<div style=""font-size:60px;"">+</div>","","html-keyboard-response","396","1302110","0.0-19.0-0.13","47195","List1B","white","man","","","","null","","","","","","","","",""
"null","<img src=""stim_listB/look6.gif""style=""height:400px;""></stim_listB>","","html-keyboard-response","397","1304126","0.0-19.0-1.13","47195","List1B","white","man","","","","null","","","","","","","","",""
"null","is being looked at by","","html-keyboard-response","398","1306136","0.0-19.0-2.13","47195","List1B","white","man","","","","null","","","","","","","","",""
"4958.399999856949","","","survey-text","399","1311097","0.0-19.0-3.13","47195","List1B","white","man","","","","","{""Q0"":""Mike is being looked at by Dave""}","<img src=""stim_listB/look6.gif""style=""height:400px;""></stim_listB>","is being looked at by","","","","","",""
"null","<div style=""font-size:60px;"">+</div>","","html-keyboard-response","400","1311601","0.0-19.0-0.14","47195","List1B","white","man","","","","null","","","","","","","","",""
"null","<img src=""stim_listB/shout8.gif""style=""height:400px;""></stim_listB>","","html-keyboard-response","401","1313611","0.0-19.0-1.14","47195","List1B","white","man","","","","null","","","","","","","","",""
"null","is being shouted at by","","html-keyboard-response","402","1315625","0.0-19.0-2.14","47195","List1B","white","man","","","","null","","","","","","","","",""
"6449.200000047684","","","survey-text","403","1322077","0.0-19.0-3.14","47195","List1B","white","man","","","","","{""Q0"":""Kate is being shouted at by Jane""}","<img src=""stim_listB/shout8.gif""style=""height:400px;""></stim_listB>","is being shouted at by","","","","","",""
"null","<div style=""font-size:60px;"">+</div>","","html-keyboard-response","404","1322583","0.0-19.0-0.15","47195","List1B","white","man","","","","null","","","","","","","","",""
"null","<img src=""stim_listB/oppose2.gif""style=""height:400px;""></stim_listB>","","html-keyboard-response","405","1324598","0.0-19.0-1.15","47195","List1B","white","man","","","","null","","","","","","","","",""
"null","is being opposed by","","html-keyboard-response","406","1326606","0.0-19.0-2.15","47195","List1B","white","man","","","","null","","","","","","","","",""
"5244.399999856949","","","survey-text","407","1331853","0.0-19.0-3.15","47195","List1B","white","man","","","","","{""Q0"":""Fred is being opposed by Beth""}","<img src=""stim_listB/oppose2.gif""style=""height:400px;""></stim_listB>","is being opposed by","","","","","",""
"null","<div style=""font-size:60px;"">+</div>","","html-keyboard-response","408","1332369","0.0-19.0-0.16","47195","List1B","white","man","","","","null","","","","","","","","",""
"null","<img src=""stim_listB/look7.gif""style=""height:400px;""></stim_listB>","","html-keyboard-response","409","1334386","0.0-19.0-1.16","47195","List1B","white","man","","","","null","","","","","","","","",""
"null","is looking at","","html-keyboard-response","410","1336390","0.0-19.0-2.16","47195","List1B","white","man","","","","null","","","","","","","","",""
"5273.399999856949","","","survey-text","411","1341666","0.0-19.0-3.16","47195","List1B","white","man","","","","","{""Q0"":""Ruth is looking at Beth""}","<img src=""stim_listB/look7.gif""style=""height:400px;""></stim_listB>","is looking at","","","","","",""
"null","<div style=""font-size:60px;"">+</div>","","html-keyboard-response","412","1342175","0.0-19.0-0.17","47195","List1B","white","man","","","","null","","","","","","","","",""
"null","<img src=""stim_listB/kiss6.gif""style=""height:400px;""></stim_listB>","","html-keyboard-response","413","1344184","0.0-19.0-1.17","47195","List1B","white","man","","","","null","","","","","","","","",""
"null","is being kissed by","","html-keyboard-response","414","1346199","0.0-19.0-2.17","47195","List1B","white","man","","","","null","","","","","","","","",""
"4749.400000095367","","","survey-text","415","1350951","0.0-19.0-3.17","47195","List1B","white","man","","","","","{""Q0"":""Dave is being kissed by Mike""}","<img src=""stim_listB/kiss6.gif""style=""height:400px;""></stim_listB>","is being kissed by","","","","","",""
"null","<div style=""font-size:60px;"">+</div>","","html-keyboard-response","416","1351469","0.0-19.0-0.18","47195","List1B","white","man","","","","null","","","","","","","","",""
"null","<img src=""stim_listB/seduce6.gif""style=""height:400px;""></stim_listB>","","html-keyboard-response","417","1353471","0.0-19.0-1.18","47195","List1B","white","man","","","","null","","","","","","","","",""
"null","is being seduced by","","html-keyboard-response","418","1355486","0.0-19.0-2.18","47195","List1B","white","man","","","","null","","","","","","","","",""
"8858.5","","","survey-text","419","1364348","0.0-19.0-3.18","47195","List1B","white","man","","","","","{""Q0"":""Mike is being seduced by Luke""}","<img src=""stim_listB/seduce6.gif""style=""height:400px;""></stim_listB>","is being seduced by","","","","","",""
"null","<div style=""font-size:60px;"">+</div>","","html-keyboard-response","420","1364851","0.0-19.0-0.19","47195","List1B","white","man","","","","null","","","","","","","","",""
"null","<img src=""stim_listB/challenge6.gif""style=""height:400px;""></stim_listB>","","html-keyboard-response","421","1366854","0.0-19.0-1.19","47195","List1B","white","man","","","","null","","","","","","","","",""
"null","is being challenged by","","html-keyboard-response","422","1368859","0.0-19.0-2.19","47195","List1B","white","man","","","","null","","","","","","","","",""
"9081.199999809265","","","survey-text","423","1377944","0.0-19.0-3.19","47195","List1B","white","man","","","","","{""Q0"":""Dave is being challenged by Fred""}","<img src=""stim_listB/challenge6.gif""style=""height:400px;""></stim_listB>","is being challenged by","","","","","",""
"2968.5999999046326","<p>Thank you for completing that task.</p><p>The final part of this session is a questionnaire that will take about 4 minutes.</p><p>Press Continue.</p>","0","html-button-response","424","1380915","0.0-20.0","47195","List1B","white","man","","","","","","","","","","","","",""
"31743.400000095367","","","survey-text","425","1413669","0.0-21.0","47195","List1B","white","man","","","","","{""Q0"":""21"",""Q1"":""Spanish"",""Q2"":""English"",""Q3"":""United States"",""Q4"":""American"",""Q5"":""White"",""Q6"":""Male""}","","","demographics","","","","",""
"3336.800000190735","<p>Have you lived in the USA for the last 5 years or more?</p>","0","html-button-response","426","1417009","0.0-22.0","47195","List1B","white","man","","","","","","","","fiveyears","","","","",""
"3031","<p>Move the slider to show the extent to which you agree with the following statements.</p>","0","html-button-response","427","1421050","0.0-23.0","47195","List1B","white","man","","","","","","","","","","","","",""
"5909.299999952316","","","html-slider-response","428","1427972","0.0-24.0-0.0-0.0","47195","List1B","white","man","","","","","","","","survey_gender","100","","","I am glad to be my gender.","glad"
"3380.399999856949","","","html-slider-response","429","1431355","0.0-24.0-0.0-0.1","47195","List1B","white","man","","","","","","","","survey_gender","73","","","I would say I am an animal person.","filler"
"5740.400000095367","","","html-slider-response","430","1437098","0.0-24.0-0.0-0.2","47195","List1B","white","man","","","","","","","","survey_gender","84","","","Most of the friends in my life are very similar to me.","filler"
"3462","","","html-slider-response","431","1440563","0.0-24.0-0.0-0.3","47195","List1B","white","man","","","","","","","","survey_gender","100","","","The fact that I am my gender is an important part of my identity.","identity"
"9136.400000095367","","","html-slider-response","432","1449702","0.0-24.0-0.0-0.4","47195","List1B","white","man","","","","","","","","survey_gender","17","","","Routine is not important to me.","filler"
"4110.099999904633","","","html-slider-response","433","1453815","0.0-24.0-0.0-0.5","47195","List1B","white","man","","","","","","","","survey_gender","100","","","Being around my friends gives me a good feeling.","filler"
"6918","","","html-slider-response","434","1460735","0.0-24.0-0.0-0.6","47195","List1B","white","man","","","","","","","","survey_gender","34","","","I have a lot in common with the average person of my gender.","average"
"3005.0999999046326","","","html-slider-response","435","1463743","0.0-24.0-0.0-0.7","47195","List1B","white","man","","","","","","","","survey_gender","100","","","I feel solidarity with my gender.","solidarity"
"7184.200000047684","","","html-slider-response","436","1470929","0.0-24.0-0.0-0.8","47195","List1B","white","man","","","","","","","","survey_gender","51","","","People of my gender have a lot in common with each other.","common"
"4568.200000047684","","","html-slider-response","437","1475500","0.0-24.0-0.0-0.9","47195","List1B","white","man","","","","","","","","survey_gender","100","","","I have a lot in common with my friends.","filler"
"2244.7000000476837","","","html-slider-response","438","1477747","0.0-24.0-0.0-0.10","47195","List1B","white","man","","","","","","","","survey_gender","100","","","I am glad to have the friends that I have.","filler"
"2401.4000000953674","","","html-slider-response","439","1480151","0.0-24.0-0.0-0.11","47195","List1B","white","man","","","","","","","","survey_gender","100","","","My friends understand me.","filler"
"9003.200000047684","","","html-slider-response","440","1489157","0.0-24.0-0.0-0.12","47195","List1B","white","man","","","","","","","","survey_gender","51","","","I think that my gender has a lot to be proud of.","proud"
"4272.700000047684","","","html-slider-response","441","1493433","0.0-24.0-0.0-0.13","47195","List1B","white","man","","","","","","","","survey_gender","28","","","I am similar to the average person of my gender.","similar"
"4153.5","","","html-slider-response","442","1497589","0.0-24.0-0.0-0.14","47195","List1B","white","man","","","","","","","","survey_gender","100","","","I feel committed to my gender.","committed"
"5429.600000143051","","","html-slider-response","443","1503021","0.0-24.0-0.0-0.15","47195","List1B","white","man","","","","","","","","survey_gender","100","","","My friends have a lot in common with each other.","filler"
"5510.900000095367","","","html-slider-response","444","1508535","0.0-24.0-0.0-0.16","47195","List1B","white","man","","","","","","","","survey_gender","100","","","I feel a bond with my gender.","bond"
"3425.5","","","html-slider-response","445","1511963","0.0-24.0-0.0-0.17","47195","List1B","white","man","","","","","","","","survey_gender","100","","","Being my gender gives me a good feeling.","feeling"
"5378","","","html-slider-response","446","1517343","0.0-24.0-0.0-0.18","47195","List1B","white","man","","","","","","","","survey_gender","51","","","People of my gender are very similar to each other.","verysimilar"
"3143.5999999046326","","","html-slider-response","447","1520489","0.0-24.0-0.0-0.19","47195","List1B","white","man","","","","","","","","survey_gender","100","","","I feel solidarity with my friends.","filler"
"5061.5","","","html-slider-response","448","1525553","0.0-24.0-0.0-0.20","47195","List1B","white","man","","","","","","","","survey_gender","100","","","Being my gender is an important part of how I see myself.","important"
"3432.2999999523163","","","html-slider-response","449","1528988","0.0-24.0-0.0-0.21","47195","List1B","white","man","","","","","","","","survey_gender","100","","","I often think about my actions.","filler"
"5016.900000095367","","","html-slider-response","450","1534008","0.0-24.0-0.0-0.22","47195","List1B","white","man","","","","","","","","survey_gender","73","","","Family is not more important to me than friendship.","filler"
"4101.799999952316","","","html-slider-response","451","1538112","0.0-24.0-0.0-0.23","47195","List1B","white","man","","","","","","","","survey_gender","0","","","I often think about the fact that I am my gender.","often"
"4228.299999952316","","","html-slider-response","452","1542343","0.0-24.0-0.0-0.24","47195","List1B","white","man","","","","","","","","survey_gender","75","","","It is pleasant to be my gender.","pleasant"
"3969.300000190735","","","html-slider-response","453","1546314","0.0-24.0-0.0-0.25","47195","List1B","white","man","","","","","","","","survey_gender","100","","","I consider myself a highly empathetic person.","filler"
"4014.7000000476837","","","html-slider-response","454","1550332","0.0-24.0-0.0-0.26","47195","List1B","white","man","","","","","","","","survey_gender","100","","","I feel a bond with my friends.","filler"
"8016.100000143051","","","html-slider-response","455","1558350","0.0-24.0-0.0-0.27","47195","List1B","white","man","","","","","","","","survey_gender","76","","","It is not always easy for people to know what I am thinking.","filler"
"10116.700000047684","","","html-slider-response","456","1568469","0.0-24.0-1.0-0.0","47195","List1B","white","man","","","","","","","","survey_race","64","","","I have a lot in common with the average person of my race.","average"
"3477","","","html-slider-response","457","1571949","0.0-24.0-1.0-0.1","47195","List1B","white","man","","","","","","","","survey_race","100","","","I am glad to be my race.","glad"
"4655.200000047684","","","html-slider-response","458","1576606","0.0-24.0-1.0-0.2","47195","List1B","white","man","","","","","","","","survey_race","0","","","Being my race is an important part of how I see myself.","important"
"5215.800000190735","","","html-slider-response","459","1581824","0.0-24.0-1.0-0.3","47195","List1B","white","man","","","","","","","","survey_race","75","","","I have a lot in common with people of a similar age to me.","filler"
"2643.600000143051","","","html-slider-response","460","1584470","0.0-24.0-1.0-0.4","47195","List1B","white","man","","","","","","","","survey_race","100","","","The older I get, the wiser I feel.","filler"
"2740.2999999523163","","","html-slider-response","461","1587212","0.0-24.0-1.0-0.5","47195","List1B","white","man","","","","","","","","survey_race","100","","","I feel solidarity with my race.","solidarity"
"2806.2000000476837","","","html-slider-response","462","1590021","0.0-24.0-1.0-0.6","47195","List1B","white","man","","","","","","","","survey_race","75","","","It is pleasant to be my race.","pleasant"
"4811.200000047684","","","html-slider-response","463","1594833","0.0-24.0-1.0-0.7","47195","List1B","white","man","","","","","","","","survey_race","0","","","The fact that I am my race is an important part of my identity.","identity"
"4250.399999856949","","","html-slider-response","464","1599086","0.0-24.0-1.0-0.8","47195","List1B","white","man","","","","","","","","survey_race","70","","","I think that my race has a lot to be proud of.","proud"
"6903.599999904633","","","html-slider-response","465","1605993","0.0-24.0-1.0-0.9","47195","List1B","white","man","","","","","","","","survey_race","100","","","I feel committed to my race.","committed"
"8060.400000095367","","","html-slider-response","466","1614056","0.0-24.0-1.0-0.10","47195","List1B","white","man","","","","","","","","survey_race","58","","","People of my race have a lot in common with each other.","common"
"4743.700000047684","","","html-slider-response","467","1618802","0.0-24.0-1.0-0.11","47195","List1B","white","man","","","","","","","","survey_race","73","","","People of my race are very similar to each other.","verysimilar"
"6350.299999952316","","","html-slider-response","468","1625154","0.0-24.0-1.0-0.12","47195","List1B","white","man","","","","","","","","survey_race","100","","","I am glad to be my age.","filler"
"3159.399999856949","","","html-slider-response","469","1628316","0.0-24.0-1.0-0.13","47195","List1B","white","man","","","","","","","","survey_race","100","","","I feel solidarity with people the same age as me.","filler"
"2954.2999999523163","","","html-slider-response","470","1631273","0.0-24.0-1.0-0.14","47195","List1B","white","man","","","","","","","","survey_race","100","","","I am glad to be the age I am.","filler"
"4044","","","html-slider-response","471","1635319","0.0-24.0-1.0-0.15","47195","List1B","white","man","","","","","","","","survey_race","100","","","Being my age gives me a good feeling.","filler"
"3438.7000000476837","","","html-slider-response","472","1638760","0.0-24.0-1.0-0.16","47195","List1B","white","man","","","","","","","","survey_race","100","","","Being my race gives me a good feeling.","feeling"
"7876.5","","","html-slider-response","473","1646640","0.0-24.0-1.0-0.17","47195","List1B","white","man","","","","","","","","survey_race","82","","","I am similar to the average person of my race.","similar"
"4757.299999952316","","","html-slider-response","474","1651400","0.0-24.0-1.0-0.18","47195","List1B","white","man","","","","","","","","survey_race","24","","","My age is not an important part of who I am.","filler"
"6535.400000095367","","","html-slider-response","475","1657938","0.0-24.0-1.0-0.19","47195","List1B","white","man","","","","","","","","survey_race","26","","","I often think about the fact that I am my age.","filler"
"5584.900000095367","","","html-slider-response","476","1663525","0.0-24.0-1.0-0.20","47195","List1B","white","man","","","","","","","","survey_race","52","","","People my age have a lot in common with each other.","filler"
"5171.099999904633","","","html-slider-response","477","1668699","0.0-24.0-1.0-0.21","47195","List1B","white","man","","","","","","","","survey_race","77","","","I feel a bond with people the same age as me.","filler"
"3322.199999809265","","","html-slider-response","478","1672024","0.0-24.0-1.0-0.22","47195","List1B","white","man","","","","","","","","survey_race","100","","","I consider myself an introvert.","filler"
"4545.400000095367","","","html-slider-response","479","1676572","0.0-24.0-1.0-0.23","47195","List1B","white","man","","","","","","","","survey_race","0","","","Getting older does not worry me.","filler"
