rt,stimulus,button_pressed,trial_type,trial_index,time_elapsed,internal_node_id,subject,list,ppt_race,ppt_gender,url,first_guess,correct,key_press,responses,image_type,phrase_type,test_part,response,stimulus1,stimulus2,question_type,survey_item
1472.1,Welcome to the experiment. Press Continue to begin.,0,html-button-response,0,1478,0.0-0.0,47808,List1B,white,woman,,,,,,,,,,,,,
40529.2,,,external-html,1,43159,0.0-1.0,47808,List1B,white,woman,consent.html,,,,,,,,,,,,
10044.1,"<p>On the next page, you will see portraits of 8 people and their names.</p><p>Your first task is to take a few minutes to memorise the names of these people.</p><p>You will have to recall their names during the rest of the experiment, so it is</p><p>essential that you try to memorise these people and their names as best as you can.</p><br><p><strong>You will then be tested on your memory of these names and portraits.</strong></p><br><p>The experiment will start after you have completed this memory test.</p><br><p>Ready?</p>",0,html-button-response,2,53204,0.0-2.0,47808,List1B,white,woman,,,,,,,,,,,,,
76065.8,"<img src='img/portrait_matrix_list1.jpg' style='width:900px;height:500px;''></img><p>If you have memorised all the portraits and names and are ready to start, press Continue.</p><p><strong>Please note: Your memory of these faces will be tested 4 times during this experiment.</strong></p>",0,html-button-response,3,130275,0.0-3.0-0.0,47808,List1B,white,woman,,,,,,,,,,,,,
5737.6,"<img src=""portrait/BM2.jpg""style=""height:400px;""></img>",5,html-button-response,4,137015,0.0-3.0-1.0,47808,List1B,white,woman,,TRUE,5,,,,,,,,,,
null,CORRECT,,html-keyboard-response,5,138520,0.0-3.0-2.0-0.0,47808,List1B,white,woman,,,,null,,,,,,,,,
2639.9,"<img src=""portrait/BW1.jpg""style=""height:400px;""></img>",0,html-button-response,6,141162,0.0-3.0-4.0,47808,List1B,white,woman,,TRUE,0,,,,,,,,,,
null,CORRECT,,html-keyboard-response,7,142669,0.0-3.0-5.0-0.0,47808,List1B,white,woman,,,,null,,,,,,,,,
2600.1,"<img src=""portrait/WW1.jpg""style=""height:400px;""></img>",1,html-button-response,8,145270,0.0-3.0-7.0,47808,List1B,white,woman,,TRUE,1,,,,,,,,,,
null,CORRECT,,html-keyboard-response,9,146777,0.0-3.0-8.0-0.0,47808,List1B,white,woman,,,,null,,,,,,,,,
4417.4,"<img src=""portrait/BM1.jpg""style=""height:400px;""></img>",4,html-button-response,10,151196,0.0-3.0-10.0,47808,List1B,white,woman,,TRUE,4,,,,,,,,,,
null,CORRECT,,html-keyboard-response,11,152700,0.0-3.0-11.0-0.0,47808,List1B,white,woman,,,,null,,,,,,,,,
5192.4,"<img src=""portrait/WW2.jpg""style=""height:400px;""></img>",3,html-button-response,12,157894,0.0-3.0-13.0,47808,List1B,white,woman,,TRUE,3,,,,,,,,,,
null,CORRECT,,html-keyboard-response,13,159401,0.0-3.0-14.0-0.0,47808,List1B,white,woman,,,,null,,,,,,,,,
2872.4,"<img src=""portrait/WM2.jpg""style=""height:400px;""></img>",7,html-button-response,14,162275,0.0-3.0-16.0,47808,List1B,white,woman,,TRUE,7,,,,,,,,,,
null,CORRECT,,html-keyboard-response,15,163780,0.0-3.0-17.0-0.0,47808,List1B,white,woman,,,,null,,,,,,,,,
2905,"<img src=""portrait/BW2.jpg""style=""height:400px;""></img>",2,html-button-response,16,166686,0.0-3.0-19.0,47808,List1B,white,woman,,TRUE,2,,,,,,,,,,
null,CORRECT,,html-keyboard-response,17,168193,0.0-3.0-20.0-0.0,47808,List1B,white,woman,,,,null,,,,,,,,,
3454.5,"<img src=""portrait/WM1.jpg""style=""height:400px;""></img>",6,html-button-response,18,171648,0.0-3.0-22.0,47808,List1B,white,woman,,TRUE,6,,,,,,,,,,
null,CORRECT,,html-keyboard-response,19,173155,0.0-3.0-23.0-0.0,47808,List1B,white,woman,,,,null,,,,,,,,,
1801.2,<p>You got 8 out of 8 right first time. Press Continue.</p>,0,html-button-response,20,174958,0.0-3.0-25.0,47808,List1B,white,woman,,,,,,,,,,,,,
15553.5,"<p>In this experiment, you will view photographs of the people from the memory game interacting.</p><p>By using the <strong>exact</strong> phrase given <i>after</i> the photograph appears and recalling the correct names of the people in the photographs, form a sentence describing the interaction. You do not need to capitalise names.</p><p>Type your answer in the space provided. Please complete every sentence before moving onto the next trial.</p><p>You will only have a few seconds to memorise each given photograph and phrase before you can respond, so try your best to focus.</p><p>An example is given below. Press 'Continue' when you are ready.</p><img src='img/speaking_example.jpg' style='width:800px;height:460px;''></img>",0,html-button-response,21,191516,0.0-4.0,47808,List1B,white,woman,,,,,,,,,,,,,
1693,"<p>Before the experiment starts, you will watch two example trials. Press 'Continue'.</p>",0,html-button-response,22,194212,0.0-5.0,47808,List1B,white,woman,,,,,,,,,,,,,
null,<img src='img/play_eg.gif' style='height:400px;''></img>,,html-keyboard-response,23,197219,0.0-6.0,47808,List1B,white,woman,,,,null,,,,,,,,,
null,<p>is playing with</p>,,html-keyboard-response,24,199225,0.0-7.0,47808,List1B,white,woman,,,,null,,,,,,,,,
7226.1,<p><b>Answer:</b> kate is playing with beth</p>,0,html-button-response,25,206452,0.0-8.0,47808,List1B,white,woman,,,,,,,,,,,,,
null,<img src='img/dance_eg.gif' style='height:400px;''></img>,,html-keyboard-response,26,209459,0.0-9.0,47808,List1B,white,woman,,,,null,,,,,,,,,
null,<p>is being entertained by</p>,,html-keyboard-response,27,211463,0.0-10.0,47808,List1B,white,woman,,,,null,,,,,,,,,
4196.3,<p><b>Answer:</b> luke is being entertained by dave</p>,0,html-button-response,28,215660,0.0-11.0,47808,List1B,white,woman,,,,,,,,,,,,,
10835.1,"<p>Ready to start the experiment?</p><br><p><strong>Remember to describe the picture using a full sentence,</strong></p><p><strong>that combines the names of the people with the <i>exact</i> phrase given.</strong></p><p><strong>To receive full payment you must do this correctly.</strong></p><p><strong> You do not need to capitalise names or use punctuation.</strong></p><br><p>Press 'Continue' to begin.</p>",0,html-button-response,29,227498,0.0-12.0,47808,List1B,white,woman,,,,,,,,,,,,,
null,"<div style=""font-size:60px;"">+</div>",,html-keyboard-response,30,229004,0.0-13.0-0.0,47808,List1B,white,woman,,,,null,,,,,,,,,
null,"<img src=""stim_listB/challenge8.gif""style=""height:400px;""></stim_listB>",,html-keyboard-response,31,231011,0.0-13.0-1.0,47808,List1B,white,woman,,,,null,,,,,,,,,
null,is being challenged by,,html-keyboard-response,32,233012,0.0-13.0-2.0,47808,List1B,white,woman,,,,null,,,,,,,,,
11886.5,,,survey-text,33,244905,0.0-13.0-3.0,47808,List1B,white,woman,,,,,"{""Q0"":""Beth is being challenged by Jane""}","<img src=""stim_listB/challenge8.gif""style=""height:400px;""></stim_listB>",is being challenged by,,,,,,
null,"<div style=""font-size:60px;"">+</div>",,html-keyboard-response,34,245408,0.0-13.0-0.1,47808,List1B,white,woman,,,,null,,,,,,,,,
null,"<img src=""stim_listB/hug1.gif""style=""height:400px;""></stim_listB>",,html-keyboard-response,35,247411,0.0-13.0-1.1,47808,List1B,white,woman,,,,null,,,,,,,,,
null,is hugging,,html-keyboard-response,36,249417,0.0-13.0-2.1,47808,List1B,white,woman,,,,null,,,,,,,,,
10695.8,,,survey-text,37,260116,0.0-13.0-3.1,47808,List1B,white,woman,,,,,"{""Q0"":""Beth is being hugged by Fred.""}","<img src=""stim_listB/hug1.gif""style=""height:400px;""></stim_listB>",is hugging,,,,,,
null,"<div style=""font-size:60px;"">+</div>",,html-keyboard-response,38,260617,0.0-13.0-0.2,47808,List1B,white,woman,,,,null,,,,,,,,,
null,"<img src=""stim_listB/copy4.gif""style=""height:400px;""></stim_listB>",,html-keyboard-response,39,262623,0.0-13.0-1.2,47808,List1B,white,woman,,,,null,,,,,,,,,
null,is being copied by,,html-keyboard-response,40,264629,0.0-13.0-2.2,47808,List1B,white,woman,,,,null,,,,,,,,,
13612.1,,,survey-text,41,278244,0.0-13.0-3.2,47808,List1B,white,woman,,,,,"{""Q0"":""Jane is being copied by Luke""}","<img src=""stim_listB/copy4.gif""style=""height:400px;""></stim_listB>",is being copied by,,,,,,
null,"<div style=""font-size:60px;"">+</div>",,html-keyboard-response,42,278745,0.0-13.0-0.3,47808,List1B,white,woman,,,,null,,,,,,,,,
null,"<img src=""stim_listB/touch1.gif""style=""height:400px;""></stim_listB>",,html-keyboard-response,43,280747,0.0-13.0-1.3,47808,List1B,white,woman,,,,null,,,,,,,,,
null,is touching,,html-keyboard-response,44,282748,0.0-13.0-2.3,47808,List1B,white,woman,,,,null,,,,,,,,,
6574.9,,,survey-text,45,289325,0.0-13.0-3.3,47808,List1B,white,woman,,,,,"{""Q0"":""Kate is touching Luke""}","<img src=""stim_listB/touch1.gif""style=""height:400px;""></stim_listB>",is touching,,,,,,
null,"<div style=""font-size:60px;"">+</div>",,html-keyboard-response,46,289827,0.0-13.0-0.4,47808,List1B,white,woman,,,,null,,,,,,,,,
null,"<img src=""stim_listB/kiss2.gif""style=""height:400px;""></stim_listB>",,html-keyboard-response,47,291833,0.0-13.0-1.4,47808,List1B,white,woman,,,,null,,,,,,,,,
null,is being kissed by,,html-keyboard-response,48,293840,0.0-13.0-2.4,47808,List1B,white,woman,,,,null,,,,,,,,,
6741.3,,,survey-text,49,300584,0.0-13.0-3.4,47808,List1B,white,woman,,,,,"{""Q0"":""Kate is being kissed by Mike""}","<img src=""stim_listB/kiss2.gif""style=""height:400px;""></stim_listB>",is being kissed by,,,,,,
null,"<div style=""font-size:60px;"">+</div>",,html-keyboard-response,50,301086,0.0-13.0-0.5,47808,List1B,white,woman,,,,null,,,,,,,,,
null,"<img src=""stim_listB/kiss1.gif""style=""height:400px;""></stim_listB>",,html-keyboard-response,51,303088,0.0-13.0-1.5,47808,List1B,white,woman,,,,null,,,,,,,,,
null,is kissing,,html-keyboard-response,52,305090,0.0-13.0-2.5,47808,List1B,white,woman,,,,null,,,,,,,,,
9659.2,,,survey-text,53,314754,0.0-13.0-3.5,47808,List1B,white,woman,,,,,"{""Q0"":""Beth is kissing Fred""}","<img src=""stim_listB/kiss1.gif""style=""height:400px;""></stim_listB>",is kissing,,,,,,
null,"<div style=""font-size:60px;"">+</div>",,html-keyboard-response,54,315256,0.0-13.0-0.6,47808,List1B,white,woman,,,,null,,,,,,,,,
null,"<img src=""stim_listB/hug5.gif""style=""height:400px;""></stim_listB>",,html-keyboard-response,55,317258,0.0-13.0-1.6,47808,List1B,white,woman,,,,null,,,,,,,,,
null,is hugging,,html-keyboard-response,56,319260,0.0-13.0-2.6,47808,List1B,white,woman,,,,null,,,,,,,,,
5511.4,,,survey-text,57,324775,0.0-13.0-3.6,47808,List1B,white,woman,,,,,"{""Q0"":""Fred is hugging Luke""}","<img src=""stim_listB/hug5.gif""style=""height:400px;""></stim_listB>",is hugging,,,,,,
null,"<div style=""font-size:60px;"">+</div>",,html-keyboard-response,58,325277,0.0-13.0-0.7,47808,List1B,white,woman,,,,null,,,,,,,,,
null,"<img src=""stim_listB/touch5.gif""style=""height:400px;""></stim_listB>",,html-keyboard-response,59,327283,0.0-13.0-1.7,47808,List1B,white,woman,,,,null,,,,,,,,,
null,is touching,,html-keyboard-response,60,329287,0.0-13.0-2.7,47808,List1B,white,woman,,,,null,,,,,,,,,
4741.7,,,survey-text,61,334033,0.0-13.0-3.7,47808,List1B,white,woman,,,,,"{""Q0"":""Dave is touching Mike""}","<img src=""stim_listB/touch5.gif""style=""height:400px;""></stim_listB>",is touching,,,,,,
null,"<div style=""font-size:60px;"">+</div>",,html-keyboard-response,62,334535,0.0-13.0-0.8,47808,List1B,white,woman,,,,null,,,,,,,,,
null,"<img src=""stim_listB/hug7.gif""style=""height:400px;""></stim_listB>",,html-keyboard-response,63,336542,0.0-13.0-1.8,47808,List1B,white,woman,,,,null,,,,,,,,,
null,is hugging,,html-keyboard-response,64,338548,0.0-13.0-2.8,47808,List1B,white,woman,,,,null,,,,,,,,,
4698.9,,,survey-text,65,343250,0.0-13.0-3.8,47808,List1B,white,woman,,,,,"{""Q0"":""Ruth is hugging Beth""}","<img src=""stim_listB/hug7.gif""style=""height:400px;""></stim_listB>",is hugging,,,,,,
null,"<div style=""font-size:60px;"">+</div>",,html-keyboard-response,66,343751,0.0-13.0-0.9,47808,List1B,white,woman,,,,null,,,,,,,,,
null,"<img src=""stim_listB/greet4.gif""style=""height:400px;""></stim_listB>",,html-keyboard-response,67,345753,0.0-13.0-1.9,47808,List1B,white,woman,,,,null,,,,,,,,,
null,is being greeted by,,html-keyboard-response,68,347758,0.0-13.0-2.9,47808,List1B,white,woman,,,,null,,,,,,,,,
7118.2,,,survey-text,69,354879,0.0-13.0-3.9,47808,List1B,white,woman,,,,,"{""Q0"":""Jane is greeting Luke""}","<img src=""stim_listB/greet4.gif""style=""height:400px;""></stim_listB>",is being greeted by,,,,,,
null,"<div style=""font-size:60px;"">+</div>",,html-keyboard-response,70,355381,0.0-13.0-0.10,47808,List1B,white,woman,,,,null,,,,,,,,,
null,"<img src=""stim_listB/shout8.gif""style=""height:400px;""></stim_listB>",,html-keyboard-response,71,357383,0.0-13.0-1.10,47808,List1B,white,woman,,,,null,,,,,,,,,
null,is being shouted at by,,html-keyboard-response,72,359388,0.0-13.0-2.10,47808,List1B,white,woman,,,,null,,,,,,,,,
15140.3,,,survey-text,73,374531,0.0-13.0-3.10,47808,List1B,white,woman,,,,,"{""Q0"":""Jane is being shouted at by Kate""}","<img src=""stim_listB/shout8.gif""style=""height:400px;""></stim_listB>",is being shouted at by,,,,,,
null,"<div style=""font-size:60px;"">+</div>",,html-keyboard-response,74,375033,0.0-13.0-0.11,47808,List1B,white,woman,,,,null,,,,,,,,,
null,"<img src=""stim_listB/look1.gif""style=""height:400px;""></stim_listB>",,html-keyboard-response,75,377036,0.0-13.0-1.11,47808,List1B,white,woman,,,,null,,,,,,,,,
null,is looking at,,html-keyboard-response,76,379041,0.0-13.0-2.11,47808,List1B,white,woman,,,,null,,,,,,,,,
6058.4,,,survey-text,77,385103,0.0-13.0-3.11,47808,List1B,white,woman,,,,,"{""Q0"":""Beth is looking at Fred""}","<img src=""stim_listB/look1.gif""style=""height:400px;""></stim_listB>",is looking at,,,,,,
null,"<div style=""font-size:60px;"">+</div>",,html-keyboard-response,78,385604,0.0-13.0-0.12,47808,List1B,white,woman,,,,null,,,,,,,,,
null,"<img src=""stim_listB/hug2.gif""style=""height:400px;""></stim_listB>",,html-keyboard-response,79,387612,0.0-13.0-1.12,47808,List1B,white,woman,,,,null,,,,,,,,,
null,is being hugged by,,html-keyboard-response,80,389617,0.0-13.0-2.12,47808,List1B,white,woman,,,,null,,,,,,,,,
5634.5,,,survey-text,81,395254,0.0-13.0-3.12,47808,List1B,white,woman,,,,,"{""Q0"":""Mike is being hugged by Kate""}","<img src=""stim_listB/hug2.gif""style=""height:400px;""></stim_listB>",is being hugged by,,,,,,
null,"<div style=""font-size:60px;"">+</div>",,html-keyboard-response,82,395756,0.0-13.0-0.13,47808,List1B,white,woman,,,,null,,,,,,,,,
null,"<img src=""stim_listB/look5.gif""style=""height:400px;""></stim_listB>",,html-keyboard-response,83,397758,0.0-13.0-1.13,47808,List1B,white,woman,,,,null,,,,,,,,,
null,is looking at,,html-keyboard-response,84,399763,0.0-13.0-2.13,47808,List1B,white,woman,,,,null,,,,,,,,,
5401.8,,,survey-text,85,405169,0.0-13.0-3.13,47808,List1B,white,woman,,,,,"{""Q0"":""Fred is looking at Dave""}","<img src=""stim_listB/look5.gif""style=""height:400px;""></stim_listB>",is looking at,,,,,,
null,"<div style=""font-size:60px;"">+</div>",,html-keyboard-response,86,405670,0.0-13.0-0.14,47808,List1B,white,woman,,,,null,,,,,,,,,
null,"<img src=""stim_listB/greet3.gif""style=""height:400px;""></stim_listB>",,html-keyboard-response,87,407678,0.0-13.0-1.14,47808,List1B,white,woman,,,,null,,,,,,,,,
null,is greeting,,html-keyboard-response,88,409679,0.0-13.0-2.14,47808,List1B,white,woman,,,,null,,,,,,,,,
6327.8,,,survey-text,89,416010,0.0-13.0-3.14,47808,List1B,white,woman,,,,,"{""Q0"":""Ruth is greeting Dave""}","<img src=""stim_listB/greet3.gif""style=""height:400px;""></stim_listB>",is greeting,,,,,,
null,"<div style=""font-size:60px;"">+</div>",,html-keyboard-response,90,416511,0.0-13.0-0.15,47808,List1B,white,woman,,,,null,,,,,,,,,
null,"<img src=""stim_listB/touch2.gif""style=""height:400px;""></stim_listB>",,html-keyboard-response,91,418514,0.0-13.0-1.15,47808,List1B,white,woman,,,,null,,,,,,,,,
null,is being touched by,,html-keyboard-response,92,420520,0.0-13.0-2.15,47808,List1B,white,woman,,,,null,,,,,,,,,
6135.4,,,survey-text,93,426658,0.0-13.0-3.15,47808,List1B,white,woman,,,,,"{""Q0"":""Fred is being touched by Beth""}","<img src=""stim_listB/touch2.gif""style=""height:400px;""></stim_listB>",is being touched by,,,,,,
null,"<div style=""font-size:60px;"">+</div>",,html-keyboard-response,94,427159,0.0-13.0-0.16,47808,List1B,white,woman,,,,null,,,,,,,,,
null,"<img src=""stim_listB/touch4.gif""style=""height:400px;""></stim_listB>",,html-keyboard-response,95,429163,0.0-13.0-1.16,47808,List1B,white,woman,,,,null,,,,,,,,,
null,is being touched by,,html-keyboard-response,96,431165,0.0-13.0-2.16,47808,List1B,white,woman,,,,null,,,,,,,,,
9934.8,,,survey-text,97,441103,0.0-13.0-3.16,47808,List1B,white,woman,,,,,"{""Q0"":""Luke is being touched by Ruth""}","<img src=""stim_listB/touch4.gif""style=""height:400px;""></stim_listB>",is being touched by,,,,,,
null,"<div style=""font-size:60px;"">+</div>",,html-keyboard-response,98,441604,0.0-13.0-0.17,47808,List1B,white,woman,,,,null,,,,,,,,,
null,"<img src=""stim_listB/shout7.gif""style=""height:400px;""></stim_listB>",,html-keyboard-response,99,443611,0.0-13.0-1.17,47808,List1B,white,woman,,,,null,,,,,,,,,
null,is shouting at,,html-keyboard-response,100,445613,0.0-13.0-2.17,47808,List1B,white,woman,,,,null,,,,,,,,,
6595,,,survey-text,101,452212,0.0-13.0-3.17,47808,List1B,white,woman,,,,,"{""Q0"":""Beth is shouting at Ruth""}","<img src=""stim_listB/shout7.gif""style=""height:400px;""></stim_listB>",is shouting at,,,,,,
null,"<div style=""font-size:60px;"">+</div>",,html-keyboard-response,102,452714,0.0-13.0-0.18,47808,List1B,white,woman,,,,null,,,,,,,,,
null,"<img src=""stim_listB/challenge1.gif""style=""height:400px;""></stim_listB>",,html-keyboard-response,103,454720,0.0-13.0-1.18,47808,List1B,white,woman,,,,null,,,,,,,,,
null,is challenging,,html-keyboard-response,104,456723,0.0-13.0-2.18,47808,List1B,white,woman,,,,null,,,,,,,,,
5071.6,,,survey-text,105,461797,0.0-13.0-3.18,47808,List1B,white,woman,,,,,"{""Q0"":""Beth is challenging Mike""}","<img src=""stim_listB/challenge1.gif""style=""height:400px;""></stim_listB>",is challenging,,,,,,
null,"<div style=""font-size:60px;"">+</div>",,html-keyboard-response,106,462299,0.0-13.0-0.19,47808,List1B,white,woman,,,,null,,,,,,,,,
null,"<img src=""stim_listB/shout5.gif""style=""height:400px;""></stim_listB>",,html-keyboard-response,107,464303,0.0-13.0-1.19,47808,List1B,white,woman,,,,null,,,,,,,,,
null,is shouting at,,html-keyboard-response,108,466305,0.0-13.0-2.19,47808,List1B,white,woman,,,,null,,,,,,,,,
4625.9,,,survey-text,109,470934,0.0-13.0-3.19,47808,List1B,white,woman,,,,,"{""Q0"":""Luke is shouting at Fred""}","<img src=""stim_listB/shout5.gif""style=""height:400px;""></stim_listB>",is shouting at,,,,,,
24868.2,"<img src='img/portrait_matrix_list1.jpg' style='width:900px;height:500px;''></img><p>If you have memorised all the portraits and names and are ready to start, press Continue.</p><p><strong>Please note: Your memory of these faces will be tested 4 times during this experiment.</strong></p>",0,html-button-response,110,495805,0.0-14.0-0.0,47808,List1B,white,woman,,,,,,,,,,,,,
2106,"<img src=""portrait/WM2.jpg""style=""height:400px;""></img>",7,html-button-response,111,498914,0.0-14.0-1.0,47808,List1B,white,woman,,TRUE,7,,,,,,,,,,
null,CORRECT,,html-keyboard-response,112,500417,0.0-14.0-2.0-0.0,47808,List1B,white,woman,,,,null,,,,,,,,,
2728.6,"<img src=""portrait/WM1.jpg""style=""height:400px;""></img>",6,html-button-response,113,503147,0.0-14.0-4.0,47808,List1B,white,woman,,TRUE,6,,,,,,,,,,
null,CORRECT,,html-keyboard-response,114,504650,0.0-14.0-5.0-0.0,47808,List1B,white,woman,,,,null,,,,,,,,,
1922.2,"<img src=""portrait/BW2.jpg""style=""height:400px;""></img>",2,html-button-response,115,506574,0.0-14.0-7.0,47808,List1B,white,woman,,TRUE,2,,,,,,,,,,
null,CORRECT,,html-keyboard-response,116,508076,0.0-14.0-8.0-0.0,47808,List1B,white,woman,,,,null,,,,,,,,,
2387.3,"<img src=""portrait/BW1.jpg""style=""height:400px;""></img>",0,html-button-response,117,510465,0.0-14.0-10.0,47808,List1B,white,woman,,TRUE,0,,,,,,,,,,
null,CORRECT,,html-keyboard-response,118,511972,0.0-14.0-11.0-0.0,47808,List1B,white,woman,,,,null,,,,,,,,,
2374.4,"<img src=""portrait/WW1.jpg""style=""height:400px;""></img>",1,html-button-response,119,514348,0.0-14.0-13.0,47808,List1B,white,woman,,TRUE,1,,,,,,,,,,
null,CORRECT,,html-keyboard-response,120,515852,0.0-14.0-14.0-0.0,47808,List1B,white,woman,,,,null,,,,,,,,,
1949.7,"<img src=""portrait/BM1.jpg""style=""height:400px;""></img>",4,html-button-response,121,517804,0.0-14.0-16.0,47808,List1B,white,woman,,TRUE,4,,,,,,,,,,
null,CORRECT,,html-keyboard-response,122,519311,0.0-14.0-17.0-0.0,47808,List1B,white,woman,,,,null,,,,,,,,,
2760.4,"<img src=""portrait/WW2.jpg""style=""height:400px;""></img>",3,html-button-response,123,522074,0.0-14.0-19.0,47808,List1B,white,woman,,TRUE,3,,,,,,,,,,
null,CORRECT,,html-keyboard-response,124,523579,0.0-14.0-20.0-0.0,47808,List1B,white,woman,,,,null,,,,,,,,,
2472.4,"<img src=""portrait/BM2.jpg""style=""height:400px;""></img>",5,html-button-response,125,526053,0.0-14.0-22.0,47808,List1B,white,woman,,TRUE,5,,,,,,,,,,
null,CORRECT,,html-keyboard-response,126,527561,0.0-14.0-23.0-0.0,47808,List1B,white,woman,,,,null,,,,,,,,,
1314.9,<p>You got 8 out of 8 right first time. Press Continue.</p>,0,html-button-response,127,528878,0.0-14.0-25.0,47808,List1B,white,woman,,,,,,,,,,,,,
null,"<div style=""font-size:60px;"">+</div>",,html-keyboard-response,128,530386,0.0-15.0-0.0,47808,List1B,white,woman,,,,null,,,,,,,,,
null,"<img src=""stim_listB/kiss7.gif""style=""height:400px;""></stim_listB>",,html-keyboard-response,129,532393,0.0-15.0-1.0,47808,List1B,white,woman,,,,null,,,,,,,,,
null,is kissing,,html-keyboard-response,130,534399,0.0-15.0-2.0,47808,List1B,white,woman,,,,null,,,,,,,,,
4752.8,,,survey-text,131,539155,0.0-15.0-3.0,47808,List1B,white,woman,,,,,"{""Q0"":""Beth is kissing Ruth""}","<img src=""stim_listB/kiss7.gif""style=""height:400px;""></stim_listB>",is kissing,,,,,,
null,"<div style=""font-size:60px;"">+</div>",,html-keyboard-response,132,539656,0.0-15.0-0.1,47808,List1B,white,woman,,,,null,,,,,,,,,
null,"<img src=""stim_listB/shout1.gif""style=""height:400px;""></stim_listB>",,html-keyboard-response,133,541661,0.0-15.0-1.1,47808,List1B,white,woman,,,,null,,,,,,,,,
null,is shouting at,,html-keyboard-response,134,543667,0.0-15.0-2.1,47808,List1B,white,woman,,,,null,,,,,,,,,
9209.7,,,survey-text,135,552880,0.0-15.0-3.1,47808,List1B,white,woman,,,,,"{""Q0"":""Beth is shouting at Fred""}","<img src=""stim_listB/shout1.gif""style=""height:400px;""></stim_listB>",is shouting at,,,,,,
null,"<div style=""font-size:60px;"">+</div>",,html-keyboard-response,136,553382,0.0-15.0-0.2,47808,List1B,white,woman,,,,null,,,,,,,,,
null,"<img src=""stim_listB/hug4.gif""style=""height:400px;""></stim_listB>",,html-keyboard-response,137,555388,0.0-15.0-1.2,47808,List1B,white,woman,,,,null,,,,,,,,,
null,is being hugged by,,html-keyboard-response,138,557390,0.0-15.0-2.2,47808,List1B,white,woman,,,,null,,,,,,,,,
5611.3,,,survey-text,139,563004,0.0-15.0-3.2,47808,List1B,white,woman,,,,,"{""Q0"":""Dave is being hugged by Jane""}","<img src=""stim_listB/hug4.gif""style=""height:400px;""></stim_listB>",is being hugged by,,,,,,
null,"<div style=""font-size:60px;"">+</div>",,html-keyboard-response,140,563507,0.0-15.0-0.3,47808,List1B,white,woman,,,,null,,,,,,,,,
null,"<img src=""stim_listB/seduce7.gif""style=""height:400px;""></stim_listB>",,html-keyboard-response,141,565512,0.0-15.0-1.3,47808,List1B,white,woman,,,,null,,,,,,,,,
null,is seducing,,html-keyboard-response,142,567514,0.0-15.0-2.3,47808,List1B,white,woman,,,,null,,,,,,,,,
5056.6,,,survey-text,143,572574,0.0-15.0-3.3,47808,List1B,white,woman,,,,,"{""Q0"":""Jane is seducing Beth""}","<img src=""stim_listB/seduce7.gif""style=""height:400px;""></stim_listB>",is seducing,,,,,,
null,"<div style=""font-size:60px;"">+</div>",,html-keyboard-response,144,573076,0.0-15.0-0.4,47808,List1B,white,woman,,,,null,,,,,,,,,
null,"<img src=""stim_listB/challenge2.gif""style=""height:400px;""></stim_listB>",,html-keyboard-response,145,575079,0.0-15.0-1.4,47808,List1B,white,woman,,,,null,,,,,,,,,
null,is being challenged by,,html-keyboard-response,146,577081,0.0-15.0-2.4,47808,List1B,white,woman,,,,null,,,,,,,,,
7808.3,,,survey-text,147,584892,0.0-15.0-3.4,47808,List1B,white,woman,,,,,"{""Q0"":""Kate is being challenged by Fred""}","<img src=""stim_listB/challenge2.gif""style=""height:400px;""></stim_listB>",is being challenged by,,,,,,
null,"<div style=""font-size:60px;"">+</div>",,html-keyboard-response,148,585393,0.0-15.0-0.5,47808,List1B,white,woman,,,,null,,,,,,,,,
null,"<img src=""stim_listB/shout3.gif""style=""height:400px;""></stim_listB>",,html-keyboard-response,149,587397,0.0-15.0-1.5,47808,List1B,white,woman,,,,null,,,,,,,,,
null,is shouting at,,html-keyboard-response,150,589402,0.0-15.0-2.5,47808,List1B,white,woman,,,,null,,,,,,,,,
5200,,,survey-text,151,594606,0.0-15.0-3.5,47808,List1B,white,woman,,,,,"{""Q0"":""Ruth is shouting at Luke""}","<img src=""stim_listB/shout3.gif""style=""height:400px;""></stim_listB>",is shouting at,,,,,,
null,"<div style=""font-size:60px;"">+</div>",,html-keyboard-response,152,595109,0.0-15.0-0.6,47808,List1B,white,woman,,,,null,,,,,,,,,
null,"<img src=""stim_listB/seduce5.gif""style=""height:400px;""></stim_listB>",,html-keyboard-response,153,597116,0.0-15.0-1.6,47808,List1B,white,woman,,,,null,,,,,,,,,
null,is seducing,,html-keyboard-response,154,599123,0.0-15.0-2.6,47808,List1B,white,woman,,,,null,,,,,,,,,
4193.6,,,survey-text,155,603319,0.0-15.0-3.6,47808,List1B,white,woman,,,,,"{""Q0"":""Fred is seducing Dave""}","<img src=""stim_listB/seduce5.gif""style=""height:400px;""></stim_listB>",is seducing,,,,,,
null,"<div style=""font-size:60px;"">+</div>",,html-keyboard-response,156,603820,0.0-15.0-0.7,47808,List1B,white,woman,,,,null,,,,,,,,,
null,"<img src=""stim_listB/challenge7.gif""style=""height:400px;""></stim_listB>",,html-keyboard-response,157,605823,0.0-15.0-1.7,47808,List1B,white,woman,,,,null,,,,,,,,,
null,is challenging,,html-keyboard-response,158,607826,0.0-15.0-2.7,47808,List1B,white,woman,,,,null,,,,,,,,,
3816.1,,,survey-text,159,611645,0.0-15.0-3.7,47808,List1B,white,woman,,,,,"{""Q0"":""Ruth is challenging Kate""}","<img src=""stim_listB/challenge7.gif""style=""height:400px;""></stim_listB>",is challenging,,,,,,
null,"<div style=""font-size:60px;"">+</div>",,html-keyboard-response,160,612146,0.0-15.0-0.8,47808,List1B,white,woman,,,,null,,,,,,,,,
null,"<img src=""stim_listB/kiss8.gif""style=""height:400px;""></stim_listB>",,html-keyboard-response,161,614148,0.0-15.0-1.8,47808,List1B,white,woman,,,,null,,,,,,,,,
null,is being kissed by,,html-keyboard-response,162,616153,0.0-15.0-2.8,47808,List1B,white,woman,,,,null,,,,,,,,,
8170.4,,,survey-text,163,624326,0.0-15.0-3.8,47808,List1B,white,woman,,,,,"{""Q0"":""Jane is being kissed by Kate""}","<img src=""stim_listB/kiss8.gif""style=""height:400px;""></stim_listB>",is being kissed by,,,,,,
null,"<div style=""font-size:60px;"">+</div>",,html-keyboard-response,164,624828,0.0-15.0-0.9,47808,List1B,white,woman,,,,null,,,,,,,,,
null,"<img src=""stim_listB/oppose8.gif""style=""height:400px;""></stim_listB>",,html-keyboard-response,165,626832,0.0-15.0-1.9,47808,List1B,white,woman,,,,null,,,,,,,,,
null,is being opposed by,,html-keyboard-response,166,628833,0.0-15.0-2.9,47808,List1B,white,woman,,,,null,,,,,,,,,
6809.5,,,survey-text,167,635645,0.0-15.0-3.9,47808,List1B,white,woman,,,,,"{""Q0"":""Ruth is being opposed by Beth""}","<img src=""stim_listB/oppose8.gif""style=""height:400px;""></stim_listB>",is being opposed by,,,,,,
null,"<div style=""font-size:60px;"">+</div>",,html-keyboard-response,168,636147,0.0-15.0-0.10,47808,List1B,white,woman,,,,null,,,,,,,,,
null,"<img src=""stim_listB/copy8.gif""style=""height:400px;""></stim_listB>",,html-keyboard-response,169,638153,0.0-15.0-1.10,47808,List1B,white,woman,,,,null,,,,,,,,,
null,is being copied by,,html-keyboard-response,170,640157,0.0-15.0-2.10,47808,List1B,white,woman,,,,null,,,,,,,,,
6401.3,,,survey-text,171,646562,0.0-15.0-3.10,47808,List1B,white,woman,,,,,"{""Q0"":""Jane is being copied by Beth""}","<img src=""stim_listB/copy8.gif""style=""height:400px;""></stim_listB>",is being copied by,,,,,,
null,"<div style=""font-size:60px;"">+</div>",,html-keyboard-response,172,647063,0.0-15.0-0.11,47808,List1B,white,woman,,,,null,,,,,,,,,
null,"<img src=""stim_listB/kiss4.gif""style=""height:400px;""></stim_listB>",,html-keyboard-response,173,649066,0.0-15.0-1.11,47808,List1B,white,woman,,,,null,,,,,,,,,
null,is being kissed by,,html-keyboard-response,174,651071,0.0-15.0-2.11,47808,List1B,white,woman,,,,null,,,,,,,,,
5252.1,,,survey-text,175,656327,0.0-15.0-3.11,47808,List1B,white,woman,,,,,"{""Q0"":""Jane is being kissed by Dave""}","<img src=""stim_listB/kiss4.gif""style=""height:400px;""></stim_listB>",is being kissed by,,,,,,
null,"<div style=""font-size:60px;"">+</div>",,html-keyboard-response,176,656831,0.0-15.0-0.12,47808,List1B,white,woman,,,,null,,,,,,,,,
null,"<img src=""stim_listB/kiss5.gif""style=""height:400px;""></stim_listB>",,html-keyboard-response,177,658838,0.0-15.0-1.12,47808,List1B,white,woman,,,,null,,,,,,,,,
null,is kissing,,html-keyboard-response,178,660839,0.0-15.0-2.12,47808,List1B,white,woman,,,,null,,,,,,,,,
5653.9,,,survey-text,179,666496,0.0-15.0-3.12,47808,List1B,white,woman,,,,,"{""Q0"":""Fred is kissing Luke""}","<img src=""stim_listB/kiss5.gif""style=""height:400px;""></stim_listB>",is kissing,,,,,,
null,"<div style=""font-size:60px;"">+</div>",,html-keyboard-response,180,666998,0.0-15.0-0.13,47808,List1B,white,woman,,,,null,,,,,,,,,
null,"<img src=""stim_listB/touch7.gif""style=""height:400px;""></stim_listB>",,html-keyboard-response,181,669003,0.0-15.0-1.13,47808,List1B,white,woman,,,,null,,,,,,,,,
null,is touching,,html-keyboard-response,182,671008,0.0-15.0-2.13,47808,List1B,white,woman,,,,null,,,,,,,,,
7187.1,,,survey-text,183,678198,0.0-15.0-3.13,47808,List1B,white,woman,,,,,"{""Q0"":""Jane is touching Kate""}","<img src=""stim_listB/touch7.gif""style=""height:400px;""></stim_listB>",is touching,,,,,,
null,"<div style=""font-size:60px;"">+</div>",,html-keyboard-response,184,678699,0.0-15.0-0.14,47808,List1B,white,woman,,,,null,,,,,,,,,
null,"<img src=""stim_listB/kiss3.gif""style=""height:400px;""></stim_listB>",,html-keyboard-response,185,680705,0.0-15.0-1.14,47808,List1B,white,woman,,,,null,,,,,,,,,
null,is kissing,,html-keyboard-response,186,682707,0.0-15.0-2.14,47808,List1B,white,woman,,,,null,,,,,,,,,
4121.1,,,survey-text,187,686831,0.0-15.0-3.14,47808,List1B,white,woman,,,,,"{""Q0"":""Ruth is kissing Luke""}","<img src=""stim_listB/kiss3.gif""style=""height:400px;""></stim_listB>",is kissing,,,,,,
null,"<div style=""font-size:60px;"">+</div>",,html-keyboard-response,188,687335,0.0-15.0-0.15,47808,List1B,white,woman,,,,null,,,,,,,,,
null,"<img src=""stim_listB/touch8.gif""style=""height:400px;""></stim_listB>",,html-keyboard-response,189,689342,0.0-15.0-1.15,47808,List1B,white,woman,,,,null,,,,,,,,,
null,is being touched by,,html-keyboard-response,190,691346,0.0-15.0-2.15,47808,List1B,white,woman,,,,null,,,,,,,,,
6772.7,,,survey-text,191,698122,0.0-15.0-3.15,47808,List1B,white,woman,,,,,"{""Q0"":""Ruth is being touched by Beth""}","<img src=""stim_listB/touch8.gif""style=""height:400px;""></stim_listB>",is being touched by,,,,,,
null,"<div style=""font-size:60px;"">+</div>",,html-keyboard-response,192,698626,0.0-15.0-0.16,47808,List1B,white,woman,,,,null,,,,,,,,,
null,"<img src=""stim_listB/oppose5.gif""style=""height:400px;""></stim_listB>",,html-keyboard-response,193,700628,0.0-15.0-1.16,47808,List1B,white,woman,,,,null,,,,,,,,,
null,is opposing,,html-keyboard-response,194,702631,0.0-15.0-2.16,47808,List1B,white,woman,,,,null,,,,,,,,,
3663.7,,,survey-text,195,706299,0.0-15.0-3.16,47808,List1B,white,woman,,,,,"{""Q0"":""Dave is opposing Mike""}","<img src=""stim_listB/oppose5.gif""style=""height:400px;""></stim_listB>",is opposing,,,,,,
null,"<div style=""font-size:60px;"">+</div>",,html-keyboard-response,196,706800,0.0-15.0-0.17,47808,List1B,white,woman,,,,null,,,,,,,,,
null,"<img src=""stim_listB/look6.gif""style=""height:400px;""></stim_listB>",,html-keyboard-response,197,708807,0.0-15.0-1.17,47808,List1B,white,woman,,,,null,,,,,,,,,
null,is being looked at by,,html-keyboard-response,198,710811,0.0-15.0-2.17,47808,List1B,white,woman,,,,null,,,,,,,,,
5100.5,,,survey-text,199,715916,0.0-15.0-3.17,47808,List1B,white,woman,,,,,"{""Q0"":""Dave is being looked at by Mike""}","<img src=""stim_listB/look6.gif""style=""height:400px;""></stim_listB>",is being looked at by,,,,,,
null,"<div style=""font-size:60px;"">+</div>",,html-keyboard-response,200,716419,0.0-15.0-0.18,47808,List1B,white,woman,,,,null,,,,,,,,,
null,"<img src=""stim_listB/oppose4.gif""style=""height:400px;""></stim_listB>",,html-keyboard-response,201,718422,0.0-15.0-1.18,47808,List1B,white,woman,,,,null,,,,,,,,,
null,is being opposed by,,html-keyboard-response,202,720423,0.0-15.0-2.18,47808,List1B,white,woman,,,,null,,,,,,,,,
5968.3,,,survey-text,203,726394,0.0-15.0-3.18,47808,List1B,white,woman,,,,,"{""Q0"":""Ruth is being opposed by Luke""}","<img src=""stim_listB/oppose4.gif""style=""height:400px;""></stim_listB>",is being opposed by,,,,,,
null,"<div style=""font-size:60px;"">+</div>",,html-keyboard-response,204,726896,0.0-15.0-0.19,47808,List1B,white,woman,,,,null,,,,,,,,,
null,"<img src=""stim_listB/hug6.gif""style=""height:400px;""></stim_listB>",,html-keyboard-response,205,728898,0.0-15.0-1.19,47808,List1B,white,woman,,,,null,,,,,,,,,
null,is being hugged by,,html-keyboard-response,206,730902,0.0-15.0-2.19,47808,List1B,white,woman,,,,null,,,,,,,,,
8415.2,,,survey-text,207,739321,0.0-15.0-3.19,47808,List1B,white,woman,,,,,"{""Q0"":""Dave is being hugged by Mike""}","<img src=""stim_listB/hug6.gif""style=""height:400px;""></stim_listB>",is being hugged by,,,,,,
10917.4,"<img src='img/portrait_matrix_list1.jpg' style='width:900px;height:500px;''></img><p>If you have memorised all the portraits and names and are ready to start, press Continue.</p><p><strong>Please note: Your memory of these faces will be tested 4 times during this experiment.</strong></p>",0,html-button-response,208,750240,0.0-16.0-0.0,47808,List1B,white,woman,,,,,,,,,,,,,
2239.3,"<img src=""portrait/WM1.jpg""style=""height:400px;""></img>",6,html-button-response,209,753481,0.0-16.0-1.0,47808,List1B,white,woman,,TRUE,6,,,,,,,,,,
null,CORRECT,,html-keyboard-response,210,754989,0.0-16.0-2.0-0.0,47808,List1B,white,woman,,,,null,,,,,,,,,
1764.7,"<img src=""portrait/BM1.jpg""style=""height:400px;""></img>",4,html-button-response,211,756755,0.0-16.0-4.0,47808,List1B,white,woman,,TRUE,4,,,,,,,,,,
null,CORRECT,,html-keyboard-response,212,758256,0.0-16.0-5.0-0.0,47808,List1B,white,woman,,,,null,,,,,,,,,
2917.3,"<img src=""portrait/WW2.jpg""style=""height:400px;""></img>",3,html-button-response,213,761174,0.0-16.0-7.0,47808,List1B,white,woman,,TRUE,3,,,,,,,,,,
null,CORRECT,,html-keyboard-response,214,762677,0.0-16.0-8.0-0.0,47808,List1B,white,woman,,,,null,,,,,,,,,
2564.9,"<img src=""portrait/BW1.jpg""style=""height:400px;""></img>",0,html-button-response,215,765242,0.0-16.0-10.0,47808,List1B,white,woman,,TRUE,0,,,,,,,,,,
null,CORRECT,,html-keyboard-response,216,766748,0.0-16.0-11.0-0.0,47808,List1B,white,woman,,,,null,,,,,,,,,
2329.1,"<img src=""portrait/WW1.jpg""style=""height:400px;""></img>",1,html-button-response,217,769079,0.0-16.0-13.0,47808,List1B,white,woman,,TRUE,1,,,,,,,,,,
null,CORRECT,,html-keyboard-response,218,770584,0.0-16.0-14.0-0.0,47808,List1B,white,woman,,,,null,,,,,,,,,
1723.7,"<img src=""portrait/BM2.jpg""style=""height:400px;""></img>",5,html-button-response,219,772309,0.0-16.0-16.0,47808,List1B,white,woman,,TRUE,5,,,,,,,,,,
null,CORRECT,,html-keyboard-response,220,773810,0.0-16.0-17.0-0.0,47808,List1B,white,woman,,,,null,,,,,,,,,
2043.5,"<img src=""portrait/BW2.jpg""style=""height:400px;""></img>",2,html-button-response,221,775855,0.0-16.0-19.0,47808,List1B,white,woman,,TRUE,2,,,,,,,,,,
null,CORRECT,,html-keyboard-response,222,777358,0.0-16.0-20.0-0.0,47808,List1B,white,woman,,,,null,,,,,,,,,
3433.5,"<img src=""portrait/WM2.jpg""style=""height:400px;""></img>",7,html-button-response,223,780792,0.0-16.0-22.0,47808,List1B,white,woman,,TRUE,7,,,,,,,,,,
null,CORRECT,,html-keyboard-response,224,782299,0.0-16.0-23.0-0.0,47808,List1B,white,woman,,,,null,,,,,,,,,
1962.4,<p>You got 8 out of 8 right first time. Press Continue.</p>,0,html-button-response,225,784263,0.0-16.0-25.0,47808,List1B,white,woman,,,,,,,,,,,,,
null,"<div style=""font-size:60px;"">+</div>",,html-keyboard-response,226,785771,0.0-17.0-0.0,47808,List1B,white,woman,,,,null,,,,,,,,,
null,"<img src=""stim_listB/seduce1.gif""style=""height:400px;""></stim_listB>",,html-keyboard-response,227,787777,0.0-17.0-1.0,47808,List1B,white,woman,,,,null,,,,,,,,,
null,is seducing,,html-keyboard-response,228,789781,0.0-17.0-2.0,47808,List1B,white,woman,,,,null,,,,,,,,,
7280.2,,,survey-text,229,797066,0.0-17.0-3.0,47808,List1B,white,woman,,,,,"{""Q0"":""Kate is seducing Fred""}","<img src=""stim_listB/seduce1.gif""style=""height:400px;""></stim_listB>",is seducing,,,,,,
null,"<div style=""font-size:60px;"">+</div>",,html-keyboard-response,230,797567,0.0-17.0-0.1,47808,List1B,white,woman,,,,null,,,,,,,,,
null,"<img src=""stim_listB/touch6.gif""style=""height:400px;""></stim_listB>",,html-keyboard-response,231,799572,0.0-17.0-1.1,47808,List1B,white,woman,,,,null,,,,,,,,,
null,is being touched by,,html-keyboard-response,232,801577,0.0-17.0-2.1,47808,List1B,white,woman,,,,null,,,,,,,,,
4392.1,,,survey-text,233,805972,0.0-17.0-3.1,47808,List1B,white,woman,,,,,"{""Q0"":""Luke is being touched by Fred""}","<img src=""stim_listB/touch6.gif""style=""height:400px;""></stim_listB>",is being touched by,,,,,,
null,"<div style=""font-size:60px;"">+</div>",,html-keyboard-response,234,806476,0.0-17.0-0.2,47808,List1B,white,woman,,,,null,,,,,,,,,
null,"<img src=""stim_listB/challenge6.gif""style=""height:400px;""></stim_listB>",,html-keyboard-response,235,808482,0.0-17.0-1.2,47808,List1B,white,woman,,,,null,,,,,,,,,
null,is being challenged by,,html-keyboard-response,236,810488,0.0-17.0-2.2,47808,List1B,white,woman,,,,null,,,,,,,,,
5427.9,,,survey-text,237,815919,0.0-17.0-3.2,47808,List1B,white,woman,,,,,"{""Q0"":""Fred is being challenged by Dave""}","<img src=""stim_listB/challenge6.gif""style=""height:400px;""></stim_listB>",is being challenged by,,,,,,
null,"<div style=""font-size:60px;"">+</div>",,html-keyboard-response,238,816422,0.0-17.0-0.3,47808,List1B,white,woman,,,,null,,,,,,,,,
null,"<img src=""stim_listB/copy3.gif""style=""height:400px;""></stim_listB>",,html-keyboard-response,239,818428,0.0-17.0-1.3,47808,List1B,white,woman,,,,null,,,,,,,,,
null,is copying,,html-keyboard-response,240,820431,0.0-17.0-2.3,47808,List1B,white,woman,,,,null,,,,,,,,,
4810.1,,,survey-text,241,825244,0.0-17.0-3.3,47808,List1B,white,woman,,,,,"{""Q0"":""Dave is copying Ruth""}","<img src=""stim_listB/copy3.gif""style=""height:400px;""></stim_listB>",is copying,,,,,,
null,"<div style=""font-size:60px;"">+</div>",,html-keyboard-response,242,825747,0.0-17.0-0.4,47808,List1B,white,woman,,,,null,,,,,,,,,
null,"<img src=""stim_listB/challenge4.gif""style=""height:400px;""></stim_listB>",,html-keyboard-response,243,827750,0.0-17.0-1.4,47808,List1B,white,woman,,,,null,,,,,,,,,
null,is being challenged by,,html-keyboard-response,244,829752,0.0-17.0-2.4,47808,List1B,white,woman,,,,null,,,,,,,,,
6422.6,,,survey-text,245,836178,0.0-17.0-3.4,47808,List1B,white,woman,,,,,"{""Q0"":""Luke is being challenged by Jane""}","<img src=""stim_listB/challenge4.gif""style=""height:400px;""></stim_listB>",is being challenged by,,,,,,
null,"<div style=""font-size:60px;"">+</div>",,html-keyboard-response,246,836680,0.0-17.0-0.5,47808,List1B,white,woman,,,,null,,,,,,,,,
null,"<img src=""stim_listB/oppose7.gif""style=""height:400px;""></stim_listB>",,html-keyboard-response,247,838681,0.0-17.0-1.5,47808,List1B,white,woman,,,,null,,,,,,,,,
null,is opposing,,html-keyboard-response,248,840687,0.0-17.0-2.5,47808,List1B,white,woman,,,,null,,,,,,,,,
3770.8,,,survey-text,249,844461,0.0-17.0-3.5,47808,List1B,white,woman,,,,,"{""Q0"":""Kate is opposing Jane""}","<img src=""stim_listB/oppose7.gif""style=""height:400px;""></stim_listB>",is opposing,,,,,,
null,"<div style=""font-size:60px;"">+</div>",,html-keyboard-response,250,844964,0.0-17.0-0.6,47808,List1B,white,woman,,,,null,,,,,,,,,
null,"<img src=""stim_listB/copy6.gif""style=""height:400px;""></stim_listB>",,html-keyboard-response,251,846970,0.0-17.0-1.6,47808,List1B,white,woman,,,,null,,,,,,,,,
null,is being copied by,,html-keyboard-response,252,848975,0.0-17.0-2.6,47808,List1B,white,woman,,,,null,,,,,,,,,
8265.7,,,survey-text,253,857246,0.0-17.0-3.6,47808,List1B,white,woman,,,,,"{""Q0"":""Fred is being copied by Dave""}","<img src=""stim_listB/copy6.gif""style=""height:400px;""></stim_listB>",is being copied by,,,,,,
null,"<div style=""font-size:60px;"">+</div>",,html-keyboard-response,254,857748,0.0-17.0-0.7,47808,List1B,white,woman,,,,null,,,,,,,,,
null,"<img src=""stim_listB/look4.gif""style=""height:400px;""></stim_listB>",,html-keyboard-response,255,859752,0.0-17.0-1.7,47808,List1B,white,woman,,,,null,,,,,,,,,
null,is being looked at by,,html-keyboard-response,256,861757,0.0-17.0-2.7,47808,List1B,white,woman,,,,null,,,,,,,,,
5061.1,,,survey-text,257,866822,0.0-17.0-3.7,47808,List1B,white,woman,,,,,"{""Q0"":""Dave is being looked at by Jane""}","<img src=""stim_listB/look4.gif""style=""height:400px;""></stim_listB>",is being looked at by,,,,,,
null,"<div style=""font-size:60px;"">+</div>",,html-keyboard-response,258,867325,0.0-17.0-0.8,47808,List1B,white,woman,,,,null,,,,,,,,,
null,"<img src=""stim_listB/look7.gif""style=""height:400px;""></stim_listB>",,html-keyboard-response,259,869332,0.0-17.0-1.8,47808,List1B,white,woman,,,,null,,,,,,,,,
null,is looking at,,html-keyboard-response,260,871339,0.0-17.0-2.8,47808,List1B,white,woman,,,,null,,,,,,,,,
7263.8,,,survey-text,261,878607,0.0-17.0-3.8,47808,List1B,white,woman,,,,,"{""Q0"":""Ruth is looking at Beth""}","<img src=""stim_listB/look7.gif""style=""height:400px;""></stim_listB>",is looking at,,,,,,
null,"<div style=""font-size:60px;"">+</div>",,html-keyboard-response,262,879108,0.0-17.0-0.9,47808,List1B,white,woman,,,,null,,,,,,,,,
null,"<img src=""stim_listB/look3.gif""style=""height:400px;""></stim_listB>",,html-keyboard-response,263,881112,0.0-17.0-1.9,47808,List1B,white,woman,,,,null,,,,,,,,,
null,is looking at,,html-keyboard-response,264,883114,0.0-17.0-2.9,47808,List1B,white,woman,,,,null,,,,,,,,,
4523.8,,,survey-text,265,887641,0.0-17.0-3.9,47808,List1B,white,woman,,,,,"{""Q0"":""Ruth is looking at Luke""}","<img src=""stim_listB/look3.gif""style=""height:400px;""></stim_listB>",is looking at,,,,,,
null,"<div style=""font-size:60px;"">+</div>",,html-keyboard-response,266,888143,0.0-17.0-0.10,47808,List1B,white,woman,,,,null,,,,,,,,,
null,"<img src=""stim_listB/oppose3.gif""style=""height:400px;""></stim_listB>",,html-keyboard-response,267,890147,0.0-17.0-1.10,47808,List1B,white,woman,,,,null,,,,,,,,,
null,is opposing,,html-keyboard-response,268,892150,0.0-17.0-2.10,47808,List1B,white,woman,,,,null,,,,,,,,,
3441.7,,,survey-text,269,895596,0.0-17.0-3.10,47808,List1B,white,woman,,,,,"{""Q0"":""Jane is opposing Dave""}","<img src=""stim_listB/oppose3.gif""style=""height:400px;""></stim_listB>",is opposing,,,,,,
null,"<div style=""font-size:60px;"">+</div>",,html-keyboard-response,270,896099,0.0-17.0-0.11,47808,List1B,white,woman,,,,null,,,,,,,,,
null,"<img src=""stim_listB/seduce2.gif""style=""height:400px;""></stim_listB>",,html-keyboard-response,271,898102,0.0-17.0-1.11,47808,List1B,white,woman,,,,null,,,,,,,,,
null,is being seduced by,,html-keyboard-response,272,900104,0.0-17.0-2.11,47808,List1B,white,woman,,,,null,,,,,,,,,
5898.8,,,survey-text,273,906007,0.0-17.0-3.11,47808,List1B,white,woman,,,,,"{""Q0"":""Mike is being seduced by Beth""}","<img src=""stim_listB/seduce2.gif""style=""height:400px;""></stim_listB>",is being seduced by,,,,,,
null,"<div style=""font-size:60px;"">+</div>",,html-keyboard-response,274,906509,0.0-17.0-0.12,47808,List1B,white,woman,,,,null,,,,,,,,,
null,"<img src=""stim_listB/look8.gif""style=""height:400px;""></stim_listB>",,html-keyboard-response,275,908516,0.0-17.0-1.12,47808,List1B,white,woman,,,,null,,,,,,,,,
null,is being looked at by,,html-keyboard-response,276,910519,0.0-17.0-2.12,47808,List1B,white,woman,,,,null,,,,,,,,,
6008,,,survey-text,277,916531,0.0-17.0-3.12,47808,List1B,white,woman,,,,,"{""Q0"":""Kate is being looked at by Jane""}","<img src=""stim_listB/look8.gif""style=""height:400px;""></stim_listB>",is being looked at by,,,,,,
null,"<div style=""font-size:60px;"">+</div>",,html-keyboard-response,278,917035,0.0-17.0-0.13,47808,List1B,white,woman,,,,null,,,,,,,,,
null,"<img src=""stim_listB/copy7.gif""style=""height:400px;""></stim_listB>",,html-keyboard-response,279,919042,0.0-17.0-1.13,47808,List1B,white,woman,,,,null,,,,,,,,,
null,is copying,,html-keyboard-response,280,921044,0.0-17.0-2.13,47808,List1B,white,woman,,,,null,,,,,,,,,
4272.6,,,survey-text,281,925321,0.0-17.0-3.13,47808,List1B,white,woman,,,,,"{""Q0"":""Kate is copying Ruth""}","<img src=""stim_listB/copy7.gif""style=""height:400px;""></stim_listB>",is copying,,,,,,
null,"<div style=""font-size:60px;"">+</div>",,html-keyboard-response,282,925824,0.0-17.0-0.14,47808,List1B,white,woman,,,,null,,,,,,,,,
null,"<img src=""stim_listB/look2.gif""style=""height:400px;""></stim_listB>",,html-keyboard-response,283,927827,0.0-17.0-1.14,47808,List1B,white,woman,,,,null,,,,,,,,,
null,is being looked at by,,html-keyboard-response,284,929829,0.0-17.0-2.14,47808,List1B,white,woman,,,,null,,,,,,,,,
5407.9,,,survey-text,285,935241,0.0-17.0-3.14,47808,List1B,white,woman,,,,,"{""Q0"":""Mike is being looked at by Kate""}","<img src=""stim_listB/look2.gif""style=""height:400px;""></stim_listB>",is being looked at by,,,,,,
null,"<div style=""font-size:60px;"">+</div>",,html-keyboard-response,286,935743,0.0-17.0-0.15,47808,List1B,white,woman,,,,null,,,,,,,,,
null,"<img src=""stim_listB/greet6.gif""style=""height:400px;""></stim_listB>",,html-keyboard-response,287,937747,0.0-17.0-1.15,47808,List1B,white,woman,,,,null,,,,,,,,,
null,is being greeted by,,html-keyboard-response,288,939754,0.0-17.0-2.15,47808,List1B,white,woman,,,,null,,,,,,,,,
8238.8,,,survey-text,289,947996,0.0-17.0-3.15,47808,List1B,white,woman,,,,,"{""Q0"":""Fred is being greeted by Dave""}","<img src=""stim_listB/greet6.gif""style=""height:400px;""></stim_listB>",is being greeted by,,,,,,
null,"<div style=""font-size:60px;"">+</div>",,html-keyboard-response,290,948497,0.0-17.0-0.16,47808,List1B,white,woman,,,,null,,,,,,,,,
null,"<img src=""stim_listB/hug8.gif""style=""height:400px;""></stim_listB>",,html-keyboard-response,291,950504,0.0-17.0-1.16,47808,List1B,white,woman,,,,null,,,,,,,,,
null,is being hugged by,,html-keyboard-response,292,952508,0.0-17.0-2.16,47808,List1B,white,woman,,,,null,,,,,,,,,
4962,,,survey-text,293,957473,0.0-17.0-3.16,47808,List1B,white,woman,,,,,"{""Q0"":""Kate is being hugged by Jane""}","<img src=""stim_listB/hug8.gif""style=""height:400px;""></stim_listB>",is being hugged by,,,,,,
null,"<div style=""font-size:60px;"">+</div>",,html-keyboard-response,294,957975,0.0-17.0-0.17,47808,List1B,white,woman,,,,null,,,,,,,,,
null,"<img src=""stim_listB/shout4.gif""style=""height:400px;""></stim_listB>",,html-keyboard-response,295,959982,0.0-17.0-1.17,47808,List1B,white,woman,,,,null,,,,,,,,,
null,is being shouted at by,,html-keyboard-response,296,961988,0.0-17.0-2.17,47808,List1B,white,woman,,,,null,,,,,,,,,
7755.7,,,survey-text,297,969747,0.0-17.0-3.17,47808,List1B,white,woman,,,,,"{""Q0"":""Jane is being shouted at by Dave""}","<img src=""stim_listB/shout4.gif""style=""height:400px;""></stim_listB>",is being shouted at by,,,,,,
null,"<div style=""font-size:60px;"">+</div>",,html-keyboard-response,298,970248,0.0-17.0-0.18,47808,List1B,white,woman,,,,null,,,,,,,,,
null,"<img src=""stim_listB/seduce8.gif""style=""height:400px;""></stim_listB>",,html-keyboard-response,299,972254,0.0-17.0-1.18,47808,List1B,white,woman,,,,null,,,,,,,,,
null,is being seduced by,,html-keyboard-response,300,974255,0.0-17.0-2.18,47808,List1B,white,woman,,,,null,,,,,,,,,
7384.2,,,survey-text,301,981642,0.0-17.0-3.18,47808,List1B,white,woman,,,,,"{""Q0"":""Ruth is being seduced by Kate""}","<img src=""stim_listB/seduce8.gif""style=""height:400px;""></stim_listB>",is being seduced by,,,,,,
null,"<div style=""font-size:60px;"">+</div>",,html-keyboard-response,302,982144,0.0-17.0-0.19,47808,List1B,white,woman,,,,null,,,,,,,,,
null,"<img src=""stim_listB/seduce3.gif""style=""height:400px;""></stim_listB>",,html-keyboard-response,303,984150,0.0-17.0-1.19,47808,List1B,white,woman,,,,null,,,,,,,,,
null,is seducing,,html-keyboard-response,304,986156,0.0-17.0-2.19,47808,List1B,white,woman,,,,null,,,,,,,,,
7380.8,,,survey-text,305,993539,0.0-17.0-3.19,47808,List1B,white,woman,,,,,"{""Q0"":""Luke is seducing Jane""}","<img src=""stim_listB/seduce3.gif""style=""height:400px;""></stim_listB>",is seducing,,,,,,
10280.9,"<img src='img/portrait_matrix_list1.jpg' style='width:900px;height:500px;''></img><p>If you have memorised all the portraits and names and are ready to start, press Continue.</p><p><strong>Please note: Your memory of these faces will be tested 4 times during this experiment.</strong></p>",0,html-button-response,306,1003822,0.0-18.0-0.0,47808,List1B,white,woman,,,,,,,,,,,,,
1809.3,"<img src=""portrait/WW2.jpg""style=""height:400px;""></img>",3,html-button-response,307,1006634,0.0-18.0-1.0,47808,List1B,white,woman,,TRUE,3,,,,,,,,,,
null,CORRECT,,html-keyboard-response,308,1008141,0.0-18.0-2.0-0.0,47808,List1B,white,woman,,,,null,,,,,,,,,
1861.6,"<img src=""portrait/BM1.jpg""style=""height:400px;""></img>",4,html-button-response,309,1010004,0.0-18.0-4.0,47808,List1B,white,woman,,TRUE,4,,,,,,,,,,
null,CORRECT,,html-keyboard-response,310,1011509,0.0-18.0-5.0-0.0,47808,List1B,white,woman,,,,null,,,,,,,,,
1516.9,"<img src=""portrait/BM2.jpg""style=""height:400px;""></img>",5,html-button-response,311,1013028,0.0-18.0-7.0,47808,List1B,white,woman,,TRUE,5,,,,,,,,,,
null,CORRECT,,html-keyboard-response,312,1014536,0.0-18.0-8.0-0.0,47808,List1B,white,woman,,,,null,,,,,,,,,
2844.1,"<img src=""portrait/BW1.jpg""style=""height:400px;""></img>",0,html-button-response,313,1017381,0.0-18.0-10.0,47808,List1B,white,woman,,TRUE,0,,,,,,,,,,
null,CORRECT,,html-keyboard-response,314,1018889,0.0-18.0-11.0-0.0,47808,List1B,white,woman,,,,null,,,,,,,,,
2797.6,"<img src=""portrait/WM1.jpg""style=""height:400px;""></img>",6,html-button-response,315,1021688,0.0-18.0-13.0,47808,List1B,white,woman,,TRUE,6,,,,,,,,,,
null,CORRECT,,html-keyboard-response,316,1023191,0.0-18.0-14.0-0.0,47808,List1B,white,woman,,,,null,,,,,,,,,
1366,"<img src=""portrait/BW2.jpg""style=""height:400px;""></img>",2,html-button-response,317,1024559,0.0-18.0-16.0,47808,List1B,white,woman,,TRUE,2,,,,,,,,,,
null,CORRECT,,html-keyboard-response,318,1026066,0.0-18.0-17.0-0.0,47808,List1B,white,woman,,,,null,,,,,,,,,
1660.9,"<img src=""portrait/WM2.jpg""style=""height:400px;""></img>",7,html-button-response,319,1027729,0.0-18.0-19.0,47808,List1B,white,woman,,TRUE,7,,,,,,,,,,
null,CORRECT,,html-keyboard-response,320,1029237,0.0-18.0-20.0-0.0,47808,List1B,white,woman,,,,null,,,,,,,,,
1780.4,"<img src=""portrait/WW1.jpg""style=""height:400px;""></img>",1,html-button-response,321,1031019,0.0-18.0-22.0,47808,List1B,white,woman,,TRUE,1,,,,,,,,,,
null,CORRECT,,html-keyboard-response,322,1032527,0.0-18.0-23.0-0.0,47808,List1B,white,woman,,,,null,,,,,,,,,
1509.2,<p>You got 8 out of 8 right first time. Press Continue.</p>,0,html-button-response,323,1034038,0.0-18.0-25.0,47808,List1B,white,woman,,,,,,,,,,,,,
null,"<div style=""font-size:60px;"">+</div>",,html-keyboard-response,324,1035541,0.0-19.0-0.0,47808,List1B,white,woman,,,,null,,,,,,,,,
null,"<img src=""stim_listB/greet2.gif""style=""height:400px;""></stim_listB>",,html-keyboard-response,325,1037547,0.0-19.0-1.0,47808,List1B,white,woman,,,,null,,,,,,,,,
null,is being greeted by,,html-keyboard-response,326,1039552,0.0-19.0-2.0,47808,List1B,white,woman,,,,null,,,,,,,,,
4874.3,,,survey-text,327,1044430,0.0-19.0-3.0,47808,List1B,white,woman,,,,,"{""Q0"":""Fred is being greeted by Kate""}","<img src=""stim_listB/greet2.gif""style=""height:400px;""></stim_listB>",is being greeted by,,,,,,
null,"<div style=""font-size:60px;"">+</div>",,html-keyboard-response,328,1044932,0.0-19.0-0.1,47808,List1B,white,woman,,,,null,,,,,,,,,
null,"<img src=""stim_listB/shout2.gif""style=""height:400px;""></stim_listB>",,html-keyboard-response,329,1046935,0.0-19.0-1.1,47808,List1B,white,woman,,,,null,,,,,,,,,
null,is being shouted at by,,html-keyboard-response,330,1048938,0.0-19.0-2.1,47808,List1B,white,woman,,,,null,,,,,,,,,
4412.9,,,survey-text,331,1053355,0.0-19.0-3.1,47808,List1B,white,woman,,,,,"{""Q0"":""Mike is being shouted at by Kate""}","<img src=""stim_listB/shout2.gif""style=""height:400px;""></stim_listB>",is being shouted at by,,,,,,
null,"<div style=""font-size:60px;"">+</div>",,html-keyboard-response,332,1053857,0.0-19.0-0.2,47808,List1B,white,woman,,,,null,,,,,,,,,
null,"<img src=""stim_listB/greet1.gif""style=""height:400px;""></stim_listB>",,html-keyboard-response,333,1055863,0.0-19.0-1.2,47808,List1B,white,woman,,,,null,,,,,,,,,
null,is greeting,,html-keyboard-response,334,1057864,0.0-19.0-2.2,47808,List1B,white,woman,,,,null,,,,,,,,,
4774.6,,,survey-text,335,1062643,0.0-19.0-3.2,47808,List1B,white,woman,,,,,"{""Q0"":""Beth is greeting Mike""}","<img src=""stim_listB/greet1.gif""style=""height:400px;""></stim_listB>",is greeting,,,,,,
null,"<div style=""font-size:60px;"">+</div>",,html-keyboard-response,336,1063144,0.0-19.0-0.3,47808,List1B,white,woman,,,,null,,,,,,,,,
null,"<img src=""stim_listB/kiss6.gif""style=""height:400px;""></stim_listB>",,html-keyboard-response,337,1065151,0.0-19.0-1.3,47808,List1B,white,woman,,,,null,,,,,,,,,
null,is being kissed by,,html-keyboard-response,338,1067157,0.0-19.0-2.3,47808,List1B,white,woman,,,,null,,,,,,,,,
6950.3,,,survey-text,339,1074112,0.0-19.0-3.3,47808,List1B,white,woman,,,,,"{""Q0"":""Dave is being kissed by Mike""}","<img src=""stim_listB/kiss6.gif""style=""height:400px;""></stim_listB>",is being kissed by,,,,,,
null,"<div style=""font-size:60px;"">+</div>",,html-keyboard-response,340,1074614,0.0-19.0-0.4,47808,List1B,white,woman,,,,null,,,,,,,,,
null,"<img src=""stim_listB/copy2.gif""style=""height:400px;""></stim_listB>",,html-keyboard-response,341,1076620,0.0-19.0-1.4,47808,List1B,white,woman,,,,null,,,,,,,,,
null,is being copied by,,html-keyboard-response,342,1078622,0.0-19.0-2.4,47808,List1B,white,woman,,,,null,,,,,,,,,
4213.3,,,survey-text,343,1082839,0.0-19.0-3.4,47808,List1B,white,woman,,,,,"{""Q0"":""Fred is being copied by Kate""}","<img src=""stim_listB/copy2.gif""style=""height:400px;""></stim_listB>",is being copied by,,,,,,
null,"<div style=""font-size:60px;"">+</div>",,html-keyboard-response,344,1083342,0.0-19.0-0.5,47808,List1B,white,woman,,,,null,,,,,,,,,
null,"<img src=""stim_listB/copy1.gif""style=""height:400px;""></stim_listB>",,html-keyboard-response,345,1085344,0.0-19.0-1.5,47808,List1B,white,woman,,,,null,,,,,,,,,
null,is copying,,html-keyboard-response,346,1087351,0.0-19.0-2.5,47808,List1B,white,woman,,,,null,,,,,,,,,
6517.4,,,survey-text,347,1093872,0.0-19.0-3.5,47808,List1B,white,woman,,,,,"{""Q0"":""Mike is copying Beth""}","<img src=""stim_listB/copy1.gif""style=""height:400px;""></stim_listB>",is copying,,,,,,
null,"<div style=""font-size:60px;"">+</div>",,html-keyboard-response,348,1094374,0.0-19.0-0.6,47808,List1B,white,woman,,,,null,,,,,,,,,
null,"<img src=""stim_listB/greet7.gif""style=""height:400px;""></stim_listB>",,html-keyboard-response,349,1096381,0.0-19.0-1.6,47808,List1B,white,woman,,,,null,,,,,,,,,
null,is greeting,,html-keyboard-response,350,1098388,0.0-19.0-2.6,47808,List1B,white,woman,,,,null,,,,,,,,,
5031.5,,,survey-text,351,1103423,0.0-19.0-3.6,47808,List1B,white,woman,,,,,"{""Q0"":""Ruth is greeting Kate""}","<img src=""stim_listB/greet7.gif""style=""height:400px;""></stim_listB>",is greeting,,,,,,
null,"<div style=""font-size:60px;"">+</div>",,html-keyboard-response,352,1103926,0.0-19.0-0.7,47808,List1B,white,woman,,,,null,,,,,,,,,
null,"<img src=""stim_listB/touch3.gif""style=""height:400px;""></stim_listB>",,html-keyboard-response,353,1105934,0.0-19.0-1.7,47808,List1B,white,woman,,,,null,,,,,,,,,
null,is touching,,html-keyboard-response,354,1107939,0.0-19.0-2.7,47808,List1B,white,woman,,,,null,,,,,,,,,
4294,,,survey-text,355,1112237,0.0-19.0-3.7,47808,List1B,white,woman,,,,,"{""Q0"":""Jane is touching Dave""}","<img src=""stim_listB/touch3.gif""style=""height:400px;""></stim_listB>",is touching,,,,,,
null,"<div style=""font-size:60px;"">+</div>",,html-keyboard-response,356,1112739,0.0-19.0-0.8,47808,List1B,white,woman,,,,null,,,,,,,,,
null,"<img src=""stim_listB/greet5.gif""style=""height:400px;""></stim_listB>",,html-keyboard-response,357,1114745,0.0-19.0-1.8,47808,List1B,white,woman,,,,null,,,,,,,,,
null,is greeting,,html-keyboard-response,358,1116752,0.0-19.0-2.8,47808,List1B,white,woman,,,,null,,,,,,,,,
4943.3,,,survey-text,359,1121699,0.0-19.0-3.8,47808,List1B,white,woman,,,,,"{""Q0"":""Luke is greeting Mike""}","<img src=""stim_listB/greet5.gif""style=""height:400px;""></stim_listB>",is greeting,,,,,,
null,"<div style=""font-size:60px;"">+</div>",,html-keyboard-response,360,1122201,0.0-19.0-0.9,47808,List1B,white,woman,,,,null,,,,,,,,,
null,"<img src=""stim_listB/seduce4.gif""style=""height:400px;""></stim_listB>",,html-keyboard-response,361,1124206,0.0-19.0-1.9,47808,List1B,white,woman,,,,null,,,,,,,,,
null,is being seduced by,,html-keyboard-response,362,1126209,0.0-19.0-2.9,47808,List1B,white,woman,,,,null,,,,,,,,,
7059.6,,,survey-text,363,1133272,0.0-19.0-3.9,47808,List1B,white,woman,,,,,"{""Q0"":""Dave is being seduced by Ruth""}","<img src=""stim_listB/seduce4.gif""style=""height:400px;""></stim_listB>",is being seduced by,,,,,,
null,"<div style=""font-size:60px;"">+</div>",,html-keyboard-response,364,1133775,0.0-19.0-0.10,47808,List1B,white,woman,,,,null,,,,,,,,,
null,"<img src=""stim_listB/shout6.gif""style=""height:400px;""></stim_listB>",,html-keyboard-response,365,1135781,0.0-19.0-1.10,47808,List1B,white,woman,,,,null,,,,,,,,,
null,is being shouted at by,,html-keyboard-response,366,1137782,0.0-19.0-2.10,47808,List1B,white,woman,,,,null,,,,,,,,,
5090.4,,,survey-text,367,1142875,0.0-19.0-3.10,47808,List1B,white,woman,,,,,"{""Q0"":""Mike is being shouted at by Dave""}","<img src=""stim_listB/shout6.gif""style=""height:400px;""></stim_listB>",is being shouted at by,,,,,,
null,"<div style=""font-size:60px;"">+</div>",,html-keyboard-response,368,1143378,0.0-19.0-0.11,47808,List1B,white,woman,,,,null,,,,,,,,,
null,"<img src=""stim_listB/copy5.gif""style=""height:400px;""></stim_listB>",,html-keyboard-response,369,1145381,0.0-19.0-1.11,47808,List1B,white,woman,,,,null,,,,,,,,,
null,is copying,,html-keyboard-response,370,1147382,0.0-19.0-2.11,47808,List1B,white,woman,,,,null,,,,,,,,,
6483.7,,,survey-text,371,1153869,0.0-19.0-3.11,47808,List1B,white,woman,,,,,"{""Q0"":""Mike is copying Luke""}","<img src=""stim_listB/copy5.gif""style=""height:400px;""></stim_listB>",is copying,,,,,,
null,"<div style=""font-size:60px;"">+</div>",,html-keyboard-response,372,1154372,0.0-19.0-0.12,47808,List1B,white,woman,,,,null,,,,,,,,,
null,"<img src=""stim_listB/challenge5.gif""style=""height:400px;""></stim_listB>",,html-keyboard-response,373,1156378,0.0-19.0-1.12,47808,List1B,white,woman,,,,null,,,,,,,,,
null,is challenging,,html-keyboard-response,374,1158379,0.0-19.0-2.12,47808,List1B,white,woman,,,,null,,,,,,,,,
4102.5,,,survey-text,375,1162485,0.0-19.0-3.12,47808,List1B,white,woman,,,,,"{""Q0"":""Mike is challenging Luke""}","<img src=""stim_listB/challenge5.gif""style=""height:400px;""></stim_listB>",is challenging,,,,,,
null,"<div style=""font-size:60px;"">+</div>",,html-keyboard-response,376,1162987,0.0-19.0-0.13,47808,List1B,white,woman,,,,null,,,,,,,,,
null,"<img src=""stim_listB/challenge3.gif""style=""height:400px;""></stim_listB>",,html-keyboard-response,377,1164988,0.0-19.0-1.13,47808,List1B,white,woman,,,,null,,,,,,,,,
null,is challenging,,html-keyboard-response,378,1166993,0.0-19.0-2.13,47808,List1B,white,woman,,,,null,,,,,,,,,
6216.4,,,survey-text,379,1173212,0.0-19.0-3.13,47808,List1B,white,woman,,,,,"{""Q0"":""Ruth is challenging Dave""}","<img src=""stim_listB/challenge3.gif""style=""height:400px;""></stim_listB>",is challenging,,,,,,
null,"<div style=""font-size:60px;"">+</div>",,html-keyboard-response,380,1173715,0.0-19.0-0.14,47808,List1B,white,woman,,,,null,,,,,,,,,
null,"<img src=""stim_listB/oppose2.gif""style=""height:400px;""></stim_listB>",,html-keyboard-response,381,1175722,0.0-19.0-1.14,47808,List1B,white,woman,,,,null,,,,,,,,,
null,is being opposed by,,html-keyboard-response,382,1177728,0.0-19.0-2.14,47808,List1B,white,woman,,,,null,,,,,,,,,
5326.6,,,survey-text,383,1183058,0.0-19.0-3.14,47808,List1B,white,woman,,,,,"{""Q0"":""Beth is being opposed by Fred""}","<img src=""stim_listB/oppose2.gif""style=""height:400px;""></stim_listB>",is being opposed by,,,,,,
null,"<div style=""font-size:60px;"">+</div>",,html-keyboard-response,384,1183562,0.0-19.0-0.15,47808,List1B,white,woman,,,,null,,,,,,,,,
null,"<img src=""stim_listB/hug3.gif""style=""height:400px;""></stim_listB>",,html-keyboard-response,385,1185565,0.0-19.0-1.15,47808,List1B,white,woman,,,,null,,,,,,,,,
null,is hugging,,html-keyboard-response,386,1187567,0.0-19.0-2.15,47808,List1B,white,woman,,,,null,,,,,,,,,
2972.7,,,survey-text,387,1190542,0.0-19.0-3.15,47808,List1B,white,woman,,,,,"{""Q0"":""Ruth is hugging Luke""}","<img src=""stim_listB/hug3.gif""style=""height:400px;""></stim_listB>",is hugging,,,,,,
null,"<div style=""font-size:60px;"">+</div>",,html-keyboard-response,388,1191043,0.0-19.0-0.16,47808,List1B,white,woman,,,,null,,,,,,,,,
null,"<img src=""stim_listB/greet8.gif""style=""height:400px;""></stim_listB>",,html-keyboard-response,389,1193045,0.0-19.0-1.16,47808,List1B,white,woman,,,,null,,,,,,,,,
null,is being greeted by,,html-keyboard-response,390,1195047,0.0-19.0-2.16,47808,List1B,white,woman,,,,null,,,,,,,,,
5583.8,,,survey-text,391,1200636,0.0-19.0-3.16,47808,List1B,white,woman,,,,,"{""Q0"":""Beth is being greeted by Jane""}","<img src=""stim_listB/greet8.gif""style=""height:400px;""></stim_listB>",is being greeted by,,,,,,
null,"<div style=""font-size:60px;"">+</div>",,html-keyboard-response,392,1201140,0.0-19.0-0.17,47808,List1B,white,woman,,,,null,,,,,,,,,
null,"<img src=""stim_listB/oppose6.gif""style=""height:400px;""></stim_listB>",,html-keyboard-response,393,1203142,0.0-19.0-1.17,47808,List1B,white,woman,,,,null,,,,,,,,,
null,is being opposed by,,html-keyboard-response,394,1205145,0.0-19.0-2.17,47808,List1B,white,woman,,,,null,,,,,,,,,
6875.2,,,survey-text,395,1212023,0.0-19.0-3.17,47808,List1B,white,woman,,,,,"{""Q0"":""Luke is being opposed by Fred""}","<img src=""stim_listB/oppose6.gif""style=""height:400px;""></stim_listB>",is being opposed by,,,,,,
null,"<div style=""font-size:60px;"">+</div>",,html-keyboard-response,396,1212527,0.0-19.0-0.18,47808,List1B,white,woman,,,,null,,,,,,,,,
null,"<img src=""stim_listB/seduce6.gif""style=""height:400px;""></stim_listB>",,html-keyboard-response,397,1214531,0.0-19.0-1.18,47808,List1B,white,woman,,,,null,,,,,,,,,
null,is being seduced by,,html-keyboard-response,398,1216533,0.0-19.0-2.18,47808,List1B,white,woman,,,,null,,,,,,,,,
6467.1,,,survey-text,399,1223003,0.0-19.0-3.18,47808,List1B,white,woman,,,,,"{""Q0"":""Mike is being seduced by Luke""}","<img src=""stim_listB/seduce6.gif""style=""height:400px;""></stim_listB>",is being seduced by,,,,,,
null,"<div style=""font-size:60px;"">+</div>",,html-keyboard-response,400,1223505,0.0-19.0-0.19,47808,List1B,white,woman,,,,null,,,,,,,,,
null,"<img src=""stim_listB/oppose1.gif""style=""height:400px;""></stim_listB>",,html-keyboard-response,401,1225510,0.0-19.0-1.19,47808,List1B,white,woman,,,,null,,,,,,,,,
null,is opposing,,html-keyboard-response,402,1227516,0.0-19.0-2.19,47808,List1B,white,woman,,,,null,,,,,,,,,
3687.4,,,survey-text,403,1231207,0.0-19.0-3.19,47808,List1B,white,woman,,,,,"{""Q0"":""Kate is opposing Mike""}","<img src=""stim_listB/oppose1.gif""style=""height:400px;""></stim_listB>",is opposing,,,,,,
2397.4,<p>Thank you for completing that task.</p><p>The final part of this session is a questionnaire that will take about 4 minutes.</p><p>Press Continue.</p>,0,html-button-response,404,1233606,0.0-20.0,47808,List1B,white,woman,,,,,,,,,,,,,
62139.9,,,survey-text,405,1296755,0.0-21.0,47808,List1B,white,woman,,,,,"{""Q0"":""18"",""Q1"":""English"",""Q2"":""English"",""Q3"":""United States"",""Q4"":""American"",""Q5"":""Caucasian"",""Q6"":""Woman""}",,,demographics,,,,,
2898.4,<p>Have you lived in the USA for the last 5 years or more?</p>,0,html-button-response,406,1299658,0.0-22.0,47808,List1B,white,woman,,,,,,,,fiveyears,,,,,
2106.4,<p>Move the slider to show the extent to which you agree with the following statements.</p>,0,html-button-response,407,1302768,0.0-23.0,47808,List1B,white,woman,,,,,,,,,,,,,
4478.9,,,html-slider-response,408,1308254,0.0-24.0-0.0-0.0,47808,List1B,white,woman,,,,,,,,survey_gender,81,,,I feel a bond with my friends.,filler
3724.6,,,html-slider-response,409,1311983,0.0-24.0-0.0-0.1,47808,List1B,white,woman,,,,,,,,survey_gender,88,,,I would say I am an animal person.,filler
9552.7,,,html-slider-response,410,1321538,0.0-24.0-0.0-0.2,47808,List1B,white,woman,,,,,,,,survey_gender,52,,,It is pleasant to be my gender.,pleasant
3083.9,,,html-slider-response,411,1324626,0.0-24.0-0.0-0.3,47808,List1B,white,woman,,,,,,,,survey_gender,88,,,I think that my gender has a lot to be proud of.,proud
4196.5,,,html-slider-response,412,1328827,0.0-24.0-0.0-0.4,47808,List1B,white,woman,,,,,,,,survey_gender,61,,,I have a lot in common with the average person of my gender.,average
4171.9,,,html-slider-response,413,1333001,0.0-24.0-0.0-0.5,47808,List1B,white,woman,,,,,,,,survey_gender,54,,,Routine is not important to me.,filler
3000.2,,,html-slider-response,414,1336007,0.0-24.0-0.0-0.6,47808,List1B,white,woman,,,,,,,,survey_gender,81,,,My friends understand me.,filler
6822.9,,,html-slider-response,415,1342832,0.0-24.0-0.0-0.7,47808,List1B,white,woman,,,,,,,,survey_gender,81,,,Most of the friends in my life are very similar to me.,filler
2996.6,,,html-slider-response,416,1345830,0.0-24.0-0.0-0.8,47808,List1B,white,woman,,,,,,,,survey_gender,80,,,I have a lot in common with my friends.,filler
3034.8,,,html-slider-response,417,1348867,0.0-24.0-0.0-0.9,47808,List1B,white,woman,,,,,,,,survey_gender,84,,,Being around my friends gives me a good feeling.,filler
4818.5,,,html-slider-response,418,1353687,0.0-24.0-0.0-0.10,47808,List1B,white,woman,,,,,,,,survey_gender,26,,,Being my gender is an important part of how I see myself.,important
3834.3,,,html-slider-response,419,1357524,0.0-24.0-0.0-0.11,47808,List1B,white,woman,,,,,,,,survey_gender,18,,,I feel committed to my gender.,committed
4114.6,,,html-slider-response,420,1361640,0.0-24.0-0.0-0.12,47808,List1B,white,woman,,,,,,,,survey_gender,16,,,People of my gender are very similar to each other.,verysimilar
5735.9,,,html-slider-response,421,1367378,0.0-24.0-0.0-0.13,47808,List1B,white,woman,,,,,,,,survey_gender,62,,,Being my gender gives me a good feeling.,feeling
5509.2,,,html-slider-response,422,1372889,0.0-24.0-0.0-0.14,47808,List1B,white,woman,,,,,,,,survey_gender,53,,,Family is not more important to me than friendship.,filler
2812.3,,,html-slider-response,423,1375704,0.0-24.0-0.0-0.15,47808,List1B,white,woman,,,,,,,,survey_gender,86,,,I feel solidarity with my gender.,solidarity
3490.2,,,html-slider-response,424,1379197,0.0-24.0-0.0-0.16,47808,List1B,white,woman,,,,,,,,survey_gender,89,,,I am glad to have the friends that I have.,filler
2885.7,,,html-slider-response,425,1382084,0.0-24.0-0.0-0.17,47808,List1B,white,woman,,,,,,,,survey_gender,85,,,My friends have a lot in common with each other.,filler
3220.3,,,html-slider-response,426,1385307,0.0-24.0-0.0-0.18,47808,List1B,white,woman,,,,,,,,survey_gender,52,,,I consider myself a highly empathetic person.,filler
5698,,,html-slider-response,427,1391006,0.0-24.0-0.0-0.19,47808,List1B,white,woman,,,,,,,,survey_gender,53,,,I often think about the fact that I am my gender.,often
2546.2,,,html-slider-response,428,1393555,0.0-24.0-0.0-0.20,47808,List1B,white,woman,,,,,,,,survey_gender,88,,,I feel solidarity with my friends.,filler
4581.4,,,html-slider-response,429,1398139,0.0-24.0-0.0-0.21,47808,List1B,white,woman,,,,,,,,survey_gender,53,,,I am similar to the average person of my gender.,similar
3773.9,,,html-slider-response,430,1401917,0.0-24.0-0.0-0.22,47808,List1B,white,woman,,,,,,,,survey_gender,53,,,People of my gender have a lot in common with each other.,common
4165.7,,,html-slider-response,431,1406085,0.0-24.0-0.0-0.23,47808,List1B,white,woman,,,,,,,,survey_gender,87,,,I often think about my actions.,filler
2792.3,,,html-slider-response,432,1408880,0.0-24.0-0.0-0.24,47808,List1B,white,woman,,,,,,,,survey_gender,58,,,I feel a bond with my gender.,bond
3824.6,,,html-slider-response,433,1412706,0.0-24.0-0.0-0.25,47808,List1B,white,woman,,,,,,,,survey_gender,24,,,The fact that I am my gender is an important part of my identity.,identity
4214.5,,,html-slider-response,434,1416923,0.0-24.0-0.0-0.26,47808,List1B,white,woman,,,,,,,,survey_gender,55,,,I am glad to be my gender.,glad
3467.6,,,html-slider-response,435,1420392,0.0-24.0-0.0-0.27,47808,List1B,white,woman,,,,,,,,survey_gender,58,,,It is not always easy for people to know what I am thinking.,filler
4304.9,,,html-slider-response,436,1424699,0.0-24.0-1.0-0.0,47808,List1B,white,woman,,,,,,,,survey_race,23,,,The fact that I am my race is an important part of my identity.,identity
3172.7,,,html-slider-response,437,1427875,0.0-24.0-1.0-0.1,47808,List1B,white,woman,,,,,,,,survey_race,65,,,People my age have a lot in common with each other.,filler
3832.8,,,html-slider-response,438,1431710,0.0-24.0-1.0-0.2,47808,List1B,white,woman,,,,,,,,survey_race,23,,,I feel committed to my race.,committed
5743.4,,,html-slider-response,439,1437456,0.0-24.0-1.0-0.3,47808,List1B,white,woman,,,,,,,,survey_race,39,,,I often think about the fact that I am my age.,filler
2544.4,,,html-slider-response,440,1440002,0.0-24.0-1.0-0.4,47808,List1B,white,woman,,,,,,,,survey_race,38,,,I consider myself an extrovert.,filler
3986.7,,,html-slider-response,441,1443991,0.0-24.0-1.0-0.5,47808,List1B,white,woman,,,,,,,,survey_race,59,,,I have a lot in common with the average person of my race.,average
3027.4,,,html-slider-response,442,1447021,0.0-24.0-1.0-0.6,47808,List1B,white,woman,,,,,,,,survey_race,64,,,I am glad to be the age I am.,filler
2841.1,,,html-slider-response,443,1449864,0.0-24.0-1.0-0.7,47808,List1B,white,woman,,,,,,,,survey_race,60,,,I have a lot in common with people of a similar age to me.,filler
3425.6,,,html-slider-response,444,1453291,0.0-24.0-1.0-0.8,47808,List1B,white,woman,,,,,,,,survey_race,71,,,I enjoy being in large groups.,filler
2660.4,,,html-slider-response,445,1455954,0.0-24.0-1.0-0.9,47808,List1B,white,woman,,,,,,,,survey_race,28,,,I feel a bond with my race.,bond
2774.9,,,html-slider-response,446,1458730,0.0-24.0-1.0-0.10,47808,List1B,white,woman,,,,,,,,survey_race,60,,,"The older I get, the wiser I feel.",filler
2797.7,,,html-slider-response,447,1461529,0.0-24.0-1.0-0.11,47808,List1B,white,woman,,,,,,,,survey_race,61,,,I am similar to the average person of my race.,similar
2607.2,,,html-slider-response,448,1464138,0.0-24.0-1.0-0.12,47808,List1B,white,woman,,,,,,,,survey_race,62,,,I feel a bond with people the same age as me.,filler
5041.4,,,html-slider-response,449,1469181,0.0-24.0-1.0-0.13,47808,List1B,white,woman,,,,,,,,survey_race,52,,,I am glad to be my race.,glad
2909.5,,,html-slider-response,450,1472092,0.0-24.0-1.0-0.14,47808,List1B,white,woman,,,,,,,,survey_race,58,,,I am glad to be my age.,filler
2598.6,,,html-slider-response,451,1474693,0.0-24.0-1.0-0.15,47808,List1B,white,woman,,,,,,,,survey_race,65,,,I consider myself an introvert.,filler
2720.9,,,html-slider-response,452,1477415,0.0-24.0-1.0-0.16,47808,List1B,white,woman,,,,,,,,survey_race,60,,,It is pleasant to be my race.,pleasant
3021.7,,,html-slider-response,453,1480437,0.0-24.0-1.0-0.17,47808,List1B,white,woman,,,,,,,,survey_race,21,,,I feel solidarity with my race.,solidarity
3730.9,,,html-slider-response,454,1484170,0.0-24.0-1.0-0.18,47808,List1B,white,woman,,,,,,,,survey_race,66,,,My age is not an important part of who I am.,filler
3267.1,,,html-slider-response,455,1487439,0.0-24.0-1.0-0.19,47808,List1B,white,woman,,,,,,,,survey_race,30,,,Being my race is an important part of how I see myself.,important
2898.5,,,html-slider-response,456,1490338,0.0-24.0-1.0-0.20,47808,List1B,white,woman,,,,,,,,survey_race,62,,,People of my race are very similar to each other.,verysimilar
4946.3,,,html-slider-response,457,1495289,0.0-24.0-1.0-0.21,47808,List1B,white,woman,,,,,,,,survey_race,62,,,I feel solidarity with people the same age as me.,filler
5841.7,,,html-slider-response,458,1501133,0.0-24.0-1.0-0.22,47808,List1B,white,woman,,,,,,,,survey_race,25,,,Being my race gives me a good feeling.,feeling
3937.7,,,html-slider-response,459,1505073,0.0-24.0-1.0-0.23,47808,List1B,white,woman,,,,,,,,survey_race,51,,,I think that my race has a lot to be proud of.,proud
4977,,,html-slider-response,460,1510051,0.0-24.0-1.0-0.24,47808,List1B,white,woman,,,,,,,,survey_race,36,,,Getting older does not worry me.,filler
3718.2,,,html-slider-response,461,1513772,0.0-24.0-1.0-0.25,47808,List1B,white,woman,,,,,,,,survey_race,63,,,Being my age gives me a good feeling.,filler
2602.8,,,html-slider-response,462,1516377,0.0-24.0-1.0-0.26,47808,List1B,white,woman,,,,,,,,survey_race,19,,,I often think about the fact that I am my race.,often
3505.4,,,html-slider-response,463,1519884,0.0-24.0-1.0-0.27,47808,List1B,white,woman,,,,,,,,survey_race,53,,,People of my race have a lot in common with each other.,common
6174.4,,,survey-text,464,1526061,0.0-25.0,47808,List1B,white,woman,,,,,"{""Q0"":""ccc""}",,,worker_id,,,,,
22653,,,external-html,465,1548940,0.0-26.0,47808,List1B,white,woman,debrief.html,,,,,,,,,,,,
