"rt","stimulus","button_pressed","trial_type","trial_index","time_elapsed","internal_node_id","subject","list","ppt_race","ppt_gender","url","first_guess","correct","key_press","responses","image_type","phrase_type","test_part","response","stimulus1","stimulus2","question_type","survey_item"
"2050.199999999255","Welcome to the experiment. Press Continue to begin.","0","html-button-response","0","2054","0.0-0.0","48155","List1A","white","woman","","","","","","","","","","","","",""
"96328.79999999888","","","external-html","1","99536","0.0-1.0","48155","List1A","white","woman","consent.html","","","","","","","","","","","",""
"12107.400000000373","<p>On the next page, you will see portraits of 8 people and their names.</p><p>Your first task is to take a few minutes to memorise the names of these people.</p><p>You will have to recall their names during the rest of the experiment, so it is</p><p>essential that you try to memorise these people and their names as best as you can.</p><br><p><strong>You will then be tested on your memory of these names and portraits.</strong></p><br><p>The experiment will start after you have completed this memory test.</p><br><p>Ready?</p>","0","html-button-response","2","111645","0.0-2.0","48155","List1A","white","woman","","","","","","","","","","","","",""
"100486.90000000037","<img src='img/portrait_matrix_list1.jpg' style='width:900px;height:500px;''></img><p>If you have memorised all the portraits and names and are ready to start, press Continue.</p><p><strong>Please note: Your memory of these faces will be tested 4 times during this experiment.</strong></p>","0","html-button-response","3","213137","0.0-3.0-0.0","48155","List1A","white","woman","","","","","","","","","","","","",""
"4628.200000001118","<img src=""portrait/BW1.jpg""style=""height:400px;""></img>","0","html-button-response","4","218774","0.0-3.0-1.0","48155","List1A","white","woman","","true","0","","","","","","","","","",""
"null","CORRECT","","html-keyboard-response","5","220286","0.0-3.0-2.0-0.0","48155","List1A","white","woman","","","","null","","","","","","","","",""
"4601.699999999255","<img src=""portrait/WW1.jpg""style=""height:400px;""></img>","1","html-button-response","6","224891","0.0-3.0-4.0","48155","List1A","white","woman","","true","1","","","","","","","","","",""
"null","CORRECT","","html-keyboard-response","7","226406","0.0-3.0-5.0-0.0","48155","List1A","white","woman","","","","null","","","","","","","","",""
"3843.9000000003725","<img src=""portrait/WM2.jpg""style=""height:400px;""></img>","4","html-button-response","8","230252","0.0-3.0-7.0","48155","List1A","white","woman","","true","7","","","","","","","","","",""
"3511.5999999996275","<img src=""portrait/WM2.jpg""style=""height:400px;""></img>","7","html-button-response","9","234767","0.0-3.0-9.0-0.0","48155","List1A","white","woman","","false","7","","","","","","","","","",""
"null","CORRECT","","html-keyboard-response","10","236274","0.0-3.0-9.0-1.0-0.0","48155","List1A","white","woman","","","","null","","","","","","","","",""
"3403.300000000745","<img src=""portrait/BM2.jpg""style=""height:400px;""></img>","5","html-button-response","11","239679","0.0-3.0-10.0","48155","List1A","white","woman","","true","5","","","","","","","","","",""
"null","CORRECT","","html-keyboard-response","12","241188","0.0-3.0-11.0-0.0","48155","List1A","white","woman","","","","null","","","","","","","","",""
"2410.0999999996275","<img src=""portrait/WM1.jpg""style=""height:400px;""></img>","6","html-button-response","13","243600","0.0-3.0-13.0","48155","List1A","white","woman","","true","6","","","","","","","","","",""
"null","CORRECT","","html-keyboard-response","14","245112","0.0-3.0-14.0-0.0","48155","List1A","white","woman","","","","null","","","","","","","","",""
"3199.0999999996275","<img src=""portrait/WW2.jpg""style=""height:400px;""></img>","3","html-button-response","15","248313","0.0-3.0-16.0","48155","List1A","white","woman","","true","3","","","","","","","","","",""
"null","CORRECT","","html-keyboard-response","16","249823","0.0-3.0-17.0-0.0","48155","List1A","white","woman","","","","null","","","","","","","","",""
"6177.9000000003725","<img src=""portrait/BM1.jpg""style=""height:400px;""></img>","4","html-button-response","17","256003","0.0-3.0-19.0","48155","List1A","white","woman","","true","4","","","","","","","","","",""
"null","CORRECT","","html-keyboard-response","18","257511","0.0-3.0-20.0-0.0","48155","List1A","white","woman","","","","null","","","","","","","","",""
"5271.5999999996275","<img src=""portrait/BW2.jpg""style=""height:400px;""></img>","2","html-button-response","19","262784","0.0-3.0-22.0","48155","List1A","white","woman","","true","2","","","","","","","","","",""
"null","CORRECT","","html-keyboard-response","20","264296","0.0-3.0-23.0-0.0","48155","List1A","white","woman","","","","null","","","","","","","","",""
"1663.4000000003725","<p>You got 7 out of 8 right first time. Press Continue.</p>","0","html-button-response","21","265962","0.0-3.0-25.0","48155","List1A","white","woman","","","","","","","","","","","","",""
"3091.199999999255","As you did not score 100%, the memory game will repeat. Press Continue.","0","html-button-response","22","270060","0.0-3.0-26.0-0.0","48155","List1A","white","woman","","","","","","","","","","","","",""
"17408.300000000745","<img src='img/portrait_matrix_list1.jpg' style='width:900px;height:500px;''></img><p>If you have memorised all the portraits and names and are ready to start, press Continue.</p><p><strong>Please note: Your memory of these faces will be tested 4 times during this experiment.</strong></p>","0","html-button-response","23","288474","0.0-3.1-0.1","48155","List1A","white","woman","","","","","","","","","","","","",""
"3941.7000000011176","<img src=""portrait/BW1.jpg""style=""height:400px;""></img>","0","html-button-response","24","293418","0.0-3.1-1.1","48155","List1A","white","woman","","true","0","","","","","","","","","",""
"null","CORRECT","","html-keyboard-response","25","294928","0.0-3.1-2.1-0.1","48155","List1A","white","woman","","","","null","","","","","","","","",""
"3324","<img src=""portrait/WW1.jpg""style=""height:400px;""></img>","1","html-button-response","26","298254","0.0-3.1-4.1","48155","List1A","white","woman","","true","1","","","","","","","","","",""
"null","CORRECT","","html-keyboard-response","27","299766","0.0-3.1-5.1-0.1","48155","List1A","white","woman","","","","null","","","","","","","","",""
"3274.800000000745","<img src=""portrait/WM2.jpg""style=""height:400px;""></img>","7","html-button-response","28","303043","0.0-3.1-7.1","48155","List1A","white","woman","","true","7","","","","","","","","","",""
"null","CORRECT","","html-keyboard-response","29","304555","0.0-3.1-8.1-0.1","48155","List1A","white","woman","","","","null","","","","","","","","",""
"3592.7999999988824","<img src=""portrait/BM2.jpg""style=""height:400px;""></img>","5","html-button-response","30","308152","0.0-3.1-10.1","48155","List1A","white","woman","","true","5","","","","","","","","","",""
"null","CORRECT","","html-keyboard-response","31","309664","0.0-3.1-11.1-0.1","48155","List1A","white","woman","","","","null","","","","","","","","",""
"3044.5","<img src=""portrait/WM1.jpg""style=""height:400px;""></img>","6","html-button-response","32","312711","0.0-3.1-13.1","48155","List1A","white","woman","","true","6","","","","","","","","","",""
"null","CORRECT","","html-keyboard-response","33","314221","0.0-3.1-14.1-0.1","48155","List1A","white","woman","","","","null","","","","","","","","",""
"2486.0999999996275","<img src=""portrait/WW2.jpg""style=""height:400px;""></img>","3","html-button-response","34","316710","0.0-3.1-16.1","48155","List1A","white","woman","","true","3","","","","","","","","","",""
"null","CORRECT","","html-keyboard-response","35","318221","0.0-3.1-17.1-0.1","48155","List1A","white","woman","","","","null","","","","","","","","",""
"2920.5999999996275","<img src=""portrait/BM1.jpg""style=""height:400px;""></img>","4","html-button-response","36","321143","0.0-3.1-19.1","48155","List1A","white","woman","","true","4","","","","","","","","","",""
"null","CORRECT","","html-keyboard-response","37","322654","0.0-3.1-20.1-0.1","48155","List1A","white","woman","","","","null","","","","","","","","",""
"4061.5","<img src=""portrait/BW2.jpg""style=""height:400px;""></img>","2","html-button-response","38","326717","0.0-3.1-22.1","48155","List1A","white","woman","","true","2","","","","","","","","","",""
"null","CORRECT","","html-keyboard-response","39","328229","0.0-3.1-23.1-0.1","48155","List1A","white","woman","","","","null","","","","","","","","",""
"1275.7000000011176","<p>You got 8 out of 8 right first time. Press Continue.</p>","0","html-button-response","40","329507","0.0-3.1-25.1","48155","List1A","white","woman","","","","","","","","","","","","",""
"39455.59999999963","<p>In this experiment, you will view photographs of the people from the memory game interacting.</p><p>By using the <strong>exact</strong> phrase given <i>after</i> the photograph appears and recalling the correct names of the people in the photographs, form a sentence describing the interaction. You do not need to capitalise names.</p><p>Type your answer in the space provided. Please complete every sentence before moving onto the next trial.</p><p>You will only have a few seconds to memorise each given photograph and phrase before you can respond, so try your best to focus.</p><p>An example is given below. Press 'Continue' when you are ready.</p><img src='img/speaking_example.jpg' style='width:800px;height:460px;''></img>","0","html-button-response","41","369966","0.0-4.0","48155","List1A","white","woman","","","","","","","","","","","","",""
"4595.60000000149","<p>Before the experiment starts, you will watch two example trials. Press 'Continue'.</p>","0","html-button-response","42","375565","0.0-5.0","48155","List1A","white","woman","","","","","","","","","","","","",""
"null","<img src='img/play_eg.gif' style='height:400px;''></img>","","html-keyboard-response","43","378572","0.0-6.0","48155","List1A","white","woman","","","","null","","","","","","","","",""
"null","<p>is playing with</p>","","html-keyboard-response","44","380578","0.0-7.0","48155","List1A","white","woman","","","","null","","","","","","","","",""
"2910.0999999996275","<p><b>Answer:</b> kate is playing with beth</p>","0","html-button-response","45","383490","0.0-8.0","48155","List1A","white","woman","","","","","","","","","","","","",""
"null","<img src='img/dance_eg.gif' style='height:400px;''></img>","","html-keyboard-response","46","386494","0.0-9.0","48155","List1A","white","woman","","","","null","","","","","","","","",""
"null","<p>is being entertained by</p>","","html-keyboard-response","47","388500","0.0-10.0","48155","List1A","white","woman","","","","null","","","","","","","","",""
"1449.4000000003725","<p><b>Answer:</b> luke is being entertained by dave</p>","0","html-button-response","48","389951","0.0-11.0","48155","List1A","white","woman","","","","","","","","","","","","",""
"6851.9000000003725","<p>Ready to start the experiment?</p><br><p><strong>Remember to describe the picture using a full sentence,</strong></p><p><strong>that combines the names of the people with the <i>exact</i> phrase given.</strong></p><p><strong>To receive full payment you must do this correctly.</strong></p><p><strong> You do not need to capitalise names or use punctuation.</strong></p><br><p>Press 'Continue' to begin.</p>","0","html-button-response","49","397811","0.0-12.0","48155","List1A","white","woman","","","","","","","","","","","","",""
"null","<div style=""font-size:60px;"">+</div>","","html-keyboard-response","50","399318","0.0-13.0-0.0","48155","List1A","white","woman","","","","null","","","","","","","","",""
"null","<img src=""stim_listA/greet8.gif""style=""height:400px;""></stim_listA>","","html-keyboard-response","51","401325","0.0-13.0-1.0","48155","List1A","white","woman","","","","null","","","","","","","","",""
"null","is being greeted by","","html-keyboard-response","52","403329","0.0-13.0-2.0","48155","List1A","white","woman","","","","null","","","","","","","","",""
"16025.400000000373","","","survey-text","53","419362","0.0-13.0-3.0","48155","List1A","white","woman","","","","","{""Q0"":""jane is being greated by beth""}","<img src=""stim_listA/greet8.gif""style=""height:400px;""></stim_listA>","is being greeted by","","","","","",""
"null","<div style=""font-size:60px;"">+</div>","","html-keyboard-response","54","419865","0.0-13.0-0.1","48155","List1A","white","woman","","","","null","","","","","","","","",""
"null","<img src=""stim_listA/shout8.gif""style=""height:400px;""></stim_listA>","","html-keyboard-response","55","421869","0.0-13.0-1.1","48155","List1A","white","woman","","","","null","","","","","","","","",""
"null","is being shouted at by","","html-keyboard-response","56","423871","0.0-13.0-2.1","48155","List1A","white","woman","","","","null","","","","","","","","",""
"14568.60000000149","","","survey-text","57","438447","0.0-13.0-3.1","48155","List1A","white","woman","","","","","{""Q0"":""kate is being shouted by jane""}","<img src=""stim_listA/shout8.gif""style=""height:400px;""></stim_listA>","is being shouted at by","","","","","",""
"null","<div style=""font-size:60px;"">+</div>","","html-keyboard-response","58","438949","0.0-13.0-0.2","48155","List1A","white","woman","","","","null","","","","","","","","",""
"null","<img src=""stim_listA/shout7.gif""style=""height:400px;""></stim_listA>","","html-keyboard-response","59","440952","0.0-13.0-1.2","48155","List1A","white","woman","","","","null","","","","","","","","",""
"null","is shouting at","","html-keyboard-response","60","442954","0.0-13.0-2.2","48155","List1A","white","woman","","","","null","","","","","","","","",""
"13165.099999999627","","","survey-text","61","456135","0.0-13.0-3.2","48155","List1A","white","woman","","","","","{""Q0"":""beth is by ruth""}","<img src=""stim_listA/shout7.gif""style=""height:400px;""></stim_listA>","is shouting at","","","","","",""
"null","<div style=""font-size:60px;"">+</div>","","html-keyboard-response","62","456637","0.0-13.0-0.3","48155","List1A","white","woman","","","","null","","","","","","","","",""
"null","<img src=""stim_listA/challenge8.gif""style=""height:400px;""></stim_listA>","","html-keyboard-response","63","458645","0.0-13.0-1.3","48155","List1A","white","woman","","","","null","","","","","","","","",""
"null","is being challenged by","","html-keyboard-response","64","460651","0.0-13.0-2.3","48155","List1A","white","woman","","","","null","","","","","","","","",""
"12628.5","","","survey-text","65","473291","0.0-13.0-3.3","48155","List1A","white","woman","","","","","{""Q0"":""beth is being challenged by jane""}","<img src=""stim_listA/challenge8.gif""style=""height:400px;""></stim_listA>","is being challenged by","","","","","",""
"null","<div style=""font-size:60px;"">+</div>","","html-keyboard-response","66","473793","0.0-13.0-0.4","48155","List1A","white","woman","","","","null","","","","","","","","",""
"null","<img src=""stim_listA/greet2.gif""style=""height:400px;""></stim_listA>","","html-keyboard-response","67","475799","0.0-13.0-1.4","48155","List1A","white","woman","","","","null","","","","","","","","",""
"null","is being greeted by","","html-keyboard-response","68","477801","0.0-13.0-2.4","48155","List1A","white","woman","","","","null","","","","","","","","",""
"9716.5","","","survey-text","69","487525","0.0-13.0-3.4","48155","List1A","white","woman","","","","","{""Q0"":""kate is being greeted by fred""}","<img src=""stim_listA/greet2.gif""style=""height:400px;""></stim_listA>","is being greeted by","","","","","",""
"null","<div style=""font-size:60px;"">+</div>","","html-keyboard-response","70","488028","0.0-13.0-0.5","48155","List1A","white","woman","","","","null","","","","","","","","",""
"null","<img src=""stim_listA/seduce4.gif""style=""height:400px;""></stim_listA>","","html-keyboard-response","71","490030","0.0-13.0-1.5","48155","List1A","white","woman","","","","null","","","","","","","","",""
"null","is being seduced by","","html-keyboard-response","72","492035","0.0-13.0-2.5","48155","List1A","white","woman","","","","null","","","","","","","","",""
"12282.300000000745","","","survey-text","73","504324","0.0-13.0-3.5","48155","List1A","white","woman","","","","","{""Q0"":""ruth is being seduced by dave""}","<img src=""stim_listA/seduce4.gif""style=""height:400px;""></stim_listA>","is being seduced by","","","","","",""
"null","<div style=""font-size:60px;"">+</div>","","html-keyboard-response","74","504826","0.0-13.0-0.6","48155","List1A","white","woman","","","","null","","","","","","","","",""
"null","<img src=""stim_listA/copy3.gif""style=""height:400px;""></stim_listA>","","html-keyboard-response","75","506828","0.0-13.0-1.6","48155","List1A","white","woman","","","","null","","","","","","","","",""
"null","is copying","","html-keyboard-response","76","508829","0.0-13.0-2.6","48155","List1A","white","woman","","","","null","","","","","","","","",""
"7106.4000000003725","","","survey-text","77","515942","0.0-13.0-3.6","48155","List1A","white","woman","","","","","{""Q0"":""dave is copying ruth""}","<img src=""stim_listA/copy3.gif""style=""height:400px;""></stim_listA>","is copying","","","","","",""
"null","<div style=""font-size:60px;"">+</div>","","html-keyboard-response","78","516444","0.0-13.0-0.7","48155","List1A","white","woman","","","","null","","","","","","","","",""
"null","<img src=""stim_listA/copy8.gif""style=""height:400px;""></stim_listA>","","html-keyboard-response","79","518449","0.0-13.0-1.7","48155","List1A","white","woman","","","","null","","","","","","","","",""
"null","is being copied by","","html-keyboard-response","80","520451","0.0-13.0-2.7","48155","List1A","white","woman","","","","null","","","","","","","","",""
"10104.200000001118","","","survey-text","81","530561","0.0-13.0-3.7","48155","List1A","white","woman","","","","","{""Q0"":""jane is copied by beth""}","<img src=""stim_listA/copy8.gif""style=""height:400px;""></stim_listA>","is being copied by","","","","","",""
"null","<div style=""font-size:60px;"">+</div>","","html-keyboard-response","82","531063","0.0-13.0-0.8","48155","List1A","white","woman","","","","null","","","","","","","","",""
"null","<img src=""stim_listA/challenge6.gif""style=""height:400px;""></stim_listA>","","html-keyboard-response","83","533069","0.0-13.0-1.8","48155","List1A","white","woman","","","","null","","","","","","","","",""
"null","is being challenged by","","html-keyboard-response","84","535070","0.0-13.0-2.8","48155","List1A","white","woman","","","","null","","","","","","","","",""
"10211.900000000373","","","survey-text","85","545288","0.0-13.0-3.8","48155","List1A","white","woman","","","","","{""Q0"":""dave is being challenged by fred""}","<img src=""stim_listA/challenge6.gif""style=""height:400px;""></stim_listA>","is being challenged by","","","","","",""
"null","<div style=""font-size:60px;"">+</div>","","html-keyboard-response","86","545790","0.0-13.0-0.9","48155","List1A","white","woman","","","","null","","","","","","","","",""
"null","<img src=""stim_listA/look1.gif""style=""height:400px;""></stim_listA>","","html-keyboard-response","87","547796","0.0-13.0-1.9","48155","List1A","white","woman","","","","null","","","","","","","","",""
"null","is looking at","","html-keyboard-response","88","549798","0.0-13.0-2.9","48155","List1A","white","woman","","","","null","","","","","","","","",""
"6310.699999999255","","","survey-text","89","556116","0.0-13.0-3.9","48155","List1A","white","woman","","","","","{""Q0"":""beth is looking at fred""}","<img src=""stim_listA/look1.gif""style=""height:400px;""></stim_listA>","is looking at","","","","","",""
"null","<div style=""font-size:60px;"">+</div>","","html-keyboard-response","90","556617","0.0-13.0-0.10","48155","List1A","white","woman","","","","null","","","","","","","","",""
"null","<img src=""stim_listA/touch6.gif""style=""height:400px;""></stim_listA>","","html-keyboard-response","91","558625","0.0-13.0-1.10","48155","List1A","white","woman","","","","null","","","","","","","","",""
"null","is being touched by","","html-keyboard-response","92","560626","0.0-13.0-2.10","48155","List1A","white","woman","","","","null","","","","","","","","",""
"7415.60000000149","","","survey-text","93","568047","0.0-13.0-3.10","48155","List1A","white","woman","","","","","{""Q0"":""fred is being touched by luke""}","<img src=""stim_listA/touch6.gif""style=""height:400px;""></stim_listA>","is being touched by","","","","","",""
"null","<div style=""font-size:60px;"">+</div>","","html-keyboard-response","94","568549","0.0-13.0-0.11","48155","List1A","white","woman","","","","null","","","","","","","","",""
"null","<img src=""stim_listA/kiss4.gif""style=""height:400px;""></stim_listA>","","html-keyboard-response","95","570556","0.0-13.0-1.11","48155","List1A","white","woman","","","","null","","","","","","","","",""
"null","is being kissed by","","html-keyboard-response","96","572558","0.0-13.0-2.11","48155","List1A","white","woman","","","","null","","","","","","","","",""
"7440.9000000003725","","","survey-text","97","580004","0.0-13.0-3.11","48155","List1A","white","woman","","","","","{""Q0"":""dave is being kissed by jane""}","<img src=""stim_listA/kiss4.gif""style=""height:400px;""></stim_listA>","is being kissed by","","","","","",""
"null","<div style=""font-size:60px;"">+</div>","","html-keyboard-response","98","580507","0.0-13.0-0.12","48155","List1A","white","woman","","","","null","","","","","","","","",""
"null","<img src=""stim_listA/copy1.gif""style=""height:400px;""></stim_listA>","","html-keyboard-response","99","582514","0.0-13.0-1.12","48155","List1A","white","woman","","","","null","","","","","","","","",""
"null","is copying","","html-keyboard-response","100","584520","0.0-13.0-2.12","48155","List1A","white","woman","","","","null","","","","","","","","",""
"9091.799999998882","","","survey-text","101","593618","0.0-13.0-3.12","48155","List1A","white","woman","","","","","{""Q0"":""beth is copying mike""}","<img src=""stim_listA/copy1.gif""style=""height:400px;""></stim_listA>","is copying","","","","","",""
"null","<div style=""font-size:60px;"">+</div>","","html-keyboard-response","102","594120","0.0-13.0-0.13","48155","List1A","white","woman","","","","null","","","","","","","","",""
"null","<img src=""stim_listA/touch3.gif""style=""height:400px;""></stim_listA>","","html-keyboard-response","103","596127","0.0-13.0-1.13","48155","List1A","white","woman","","","","null","","","","","","","","",""
"null","is touching","","html-keyboard-response","104","598132","0.0-13.0-2.13","48155","List1A","white","woman","","","","null","","","","","","","","",""
"4686.0999999996275","","","survey-text","105","602824","0.0-13.0-3.13","48155","List1A","white","woman","","","","","{""Q0"":""jane is touching dave""}","<img src=""stim_listA/touch3.gif""style=""height:400px;""></stim_listA>","is touching","","","","","",""
"null","<div style=""font-size:60px;"">+</div>","","html-keyboard-response","106","603326","0.0-13.0-0.14","48155","List1A","white","woman","","","","null","","","","","","","","",""
"null","<img src=""stim_listA/shout3.gif""style=""height:400px;""></stim_listA>","","html-keyboard-response","107","605332","0.0-13.0-1.14","48155","List1A","white","woman","","","","null","","","","","","","","",""
"null","is shouting at","","html-keyboard-response","108","607339","0.0-13.0-2.14","48155","List1A","white","woman","","","","null","","","","","","","","",""
"6872.200000001118","","","survey-text","109","614217","0.0-13.0-3.14","48155","List1A","white","woman","","","","","{""Q0"":""beth is shouting at luke""}","<img src=""stim_listA/shout3.gif""style=""height:400px;""></stim_listA>","is shouting at","","","","","",""
"null","<div style=""font-size:60px;"">+</div>","","html-keyboard-response","110","614719","0.0-13.0-0.15","48155","List1A","white","woman","","","","null","","","","","","","","",""
"null","<img src=""stim_listA/greet7.gif""style=""height:400px;""></stim_listA>","","html-keyboard-response","111","616724","0.0-13.0-1.15","48155","List1A","white","woman","","","","null","","","","","","","","",""
"null","is greeting","","html-keyboard-response","112","618731","0.0-13.0-2.15","48155","List1A","white","woman","","","","null","","","","","","","","",""
"7453.4000000003725","","","survey-text","113","626191","0.0-13.0-3.15","48155","List1A","white","woman","","","","","{""Q0"":""ruth is greeting kate""}","<img src=""stim_listA/greet7.gif""style=""height:400px;""></stim_listA>","is greeting","","","","","",""
"null","<div style=""font-size:60px;"">+</div>","","html-keyboard-response","114","626693","0.0-13.0-0.16","48155","List1A","white","woman","","","","null","","","","","","","","",""
"null","<img src=""stim_listA/shout5.gif""style=""height:400px;""></stim_listA>","","html-keyboard-response","115","628700","0.0-13.0-1.16","48155","List1A","white","woman","","","","null","","","","","","","","",""
"null","is shouting at","","html-keyboard-response","116","630707","0.0-13.0-2.16","48155","List1A","white","woman","","","","null","","","","","","","","",""
"6777","","","survey-text","117","637490","0.0-13.0-3.16","48155","List1A","white","woman","","","","","{""Q0"":""fred is shouting at luke""}","<img src=""stim_listA/shout5.gif""style=""height:400px;""></stim_listA>","is shouting at","","","","","",""
"null","<div style=""font-size:60px;"">+</div>","","html-keyboard-response","118","637992","0.0-13.0-0.17","48155","List1A","white","woman","","","","null","","","","","","","","",""
"null","<img src=""stim_listA/copy4.gif""style=""height:400px;""></stim_listA>","","html-keyboard-response","119","639999","0.0-13.0-1.17","48155","List1A","white","woman","","","","null","","","","","","","","",""
"null","is being copied by","","html-keyboard-response","120","642006","0.0-13.0-2.17","48155","List1A","white","woman","","","","null","","","","","","","","",""
"2966.300000000745","","","survey-text","121","644978","0.0-13.0-3.17","48155","List1A","white","woman","","","","","{""Q0"":""luke and jane""}","<img src=""stim_listA/copy4.gif""style=""height:400px;""></stim_listA>","is being copied by","","","","","",""
"null","<div style=""font-size:60px;"">+</div>","","html-keyboard-response","122","645482","0.0-13.0-0.18","48155","List1A","white","woman","","","","null","","","","","","","","",""
"null","<img src=""stim_listA/seduce3.gif""style=""height:400px;""></stim_listA>","","html-keyboard-response","123","647489","0.0-13.0-1.18","48155","List1A","white","woman","","","","null","","","","","","","","",""
"null","is seducing","","html-keyboard-response","124","649492","0.0-13.0-2.18","48155","List1A","white","woman","","","","null","","","","","","","","",""
"5790.5","","","survey-text","125","655289","0.0-13.0-3.18","48155","List1A","white","woman","","","","","{""Q0"":""luke is seducing jane""}","<img src=""stim_listA/seduce3.gif""style=""height:400px;""></stim_listA>","is seducing","","","","","",""
"null","<div style=""font-size:60px;"">+</div>","","html-keyboard-response","126","655793","0.0-13.0-0.19","48155","List1A","white","woman","","","","null","","","","","","","","",""
"null","<img src=""stim_listA/hug7.gif""style=""height:400px;""></stim_listA>","","html-keyboard-response","127","657800","0.0-13.0-1.19","48155","List1A","white","woman","","","","null","","","","","","","","",""
"null","is hugging","","html-keyboard-response","128","659806","0.0-13.0-2.19","48155","List1A","white","woman","","","","null","","","","","","","","",""
"5397.300000000745","","","survey-text","129","665210","0.0-13.0-3.19","48155","List1A","white","woman","","","","","{""Q0"":""ruth is hugging beth""}","<img src=""stim_listA/hug7.gif""style=""height:400px;""></stim_listA>","is hugging","","","","","",""
"9853.299999998882","<img src='img/portrait_matrix_list1.jpg' style='width:900px;height:500px;''></img><p>If you have memorised all the portraits and names and are ready to start, press Continue.</p><p><strong>Please note: Your memory of these faces will be tested 4 times during this experiment.</strong></p>","0","html-button-response","130","675066","0.0-14.0-0.0","48155","List1A","white","woman","","","","","","","","","","","","",""
"2708.7999999988824","<img src=""portrait/WW2.jpg""style=""height:400px;""></img>","3","html-button-response","131","678780","0.0-14.0-1.0","48155","List1A","white","woman","","true","3","","","","","","","","","",""
"null","CORRECT","","html-keyboard-response","132","680288","0.0-14.0-2.0-0.0","48155","List1A","white","woman","","","","null","","","","","","","","",""
"4040.9000000003725","<img src=""portrait/BW1.jpg""style=""height:400px;""></img>","0","html-button-response","133","684331","0.0-14.0-4.0","48155","List1A","white","woman","","true","0","","","","","","","","","",""
"null","CORRECT","","html-keyboard-response","134","685840","0.0-14.0-5.0-0.0","48155","List1A","white","woman","","","","null","","","","","","","","",""
"4894","<img src=""portrait/BW2.jpg""style=""height:400px;""></img>","2","html-button-response","135","690735","0.0-14.0-7.0","48155","List1A","white","woman","","true","2","","","","","","","","","",""
"null","CORRECT","","html-keyboard-response","136","692243","0.0-14.0-8.0-0.0","48155","List1A","white","woman","","","","null","","","","","","","","",""
"2447.300000000745","<img src=""portrait/WM1.jpg""style=""height:400px;""></img>","6","html-button-response","137","694693","0.0-14.0-10.0","48155","List1A","white","woman","","true","6","","","","","","","","","",""
"null","CORRECT","","html-keyboard-response","138","696200","0.0-14.0-11.0-0.0","48155","List1A","white","woman","","","","null","","","","","","","","",""
"4474","<img src=""portrait/WW1.jpg""style=""height:400px;""></img>","1","html-button-response","139","700676","0.0-14.0-13.0","48155","List1A","white","woman","","true","1","","","","","","","","","",""
"null","CORRECT","","html-keyboard-response","140","702185","0.0-14.0-14.0-0.0","48155","List1A","white","woman","","","","null","","","","","","","","",""
"3203","<img src=""portrait/BM2.jpg""style=""height:400px;""></img>","5","html-button-response","141","705390","0.0-14.0-16.0","48155","List1A","white","woman","","true","5","","","","","","","","","",""
"null","CORRECT","","html-keyboard-response","142","706898","0.0-14.0-17.0-0.0","48155","List1A","white","woman","","","","null","","","","","","","","",""
"3995.5999999996275","<img src=""portrait/BM1.jpg""style=""height:400px;""></img>","4","html-button-response","143","710896","0.0-14.0-19.0","48155","List1A","white","woman","","true","4","","","","","","","","","",""
"null","CORRECT","","html-keyboard-response","144","712408","0.0-14.0-20.0-0.0","48155","List1A","white","woman","","","","null","","","","","","","","",""
"7619.199999999255","<img src=""portrait/WM2.jpg""style=""height:400px;""></img>","7","html-button-response","145","720029","0.0-14.0-22.0","48155","List1A","white","woman","","true","7","","","","","","","","","",""
"null","CORRECT","","html-keyboard-response","146","721535","0.0-14.0-23.0-0.0","48155","List1A","white","woman","","","","null","","","","","","","","",""
"1180.2999999988824","<p>You got 8 out of 8 right first time. Press Continue.</p>","0","html-button-response","147","722717","0.0-14.0-25.0","48155","List1A","white","woman","","","","","","","","","","","","",""
"null","<div style=""font-size:60px;"">+</div>","","html-keyboard-response","148","724229","0.0-15.0-0.0","48155","List1A","white","woman","","","","null","","","","","","","","",""
"null","<img src=""stim_listA/copy6.gif""style=""height:400px;""></stim_listA>","","html-keyboard-response","149","726245","0.0-15.0-1.0","48155","List1A","white","woman","","","","null","","","","","","","","",""
"null","is being copied by","","html-keyboard-response","150","728251","0.0-15.0-2.0","48155","List1A","white","woman","","","","null","","","","","","","","",""
"7910.699999999255","","","survey-text","151","736168","0.0-15.0-3.0","48155","List1A","white","woman","","","","","{""Q0"":""fred is being copied by dave""}","<img src=""stim_listA/copy6.gif""style=""height:400px;""></stim_listA>","is being copied by","","","","","",""
"null","<div style=""font-size:60px;"">+</div>","","html-keyboard-response","152","736672","0.0-15.0-0.1","48155","List1A","white","woman","","","","null","","","","","","","","",""
"null","<img src=""stim_listA/look3.gif""style=""height:400px;""></stim_listA>","","html-keyboard-response","153","738678","0.0-15.0-1.1","48155","List1A","white","woman","","","","null","","","","","","","","",""
"null","is looking at","","html-keyboard-response","154","740685","0.0-15.0-2.1","48155","List1A","white","woman","","","","null","","","","","","","","",""
"4885.9000000003725","","","survey-text","155","745577","0.0-15.0-3.1","48155","List1A","white","woman","","","","","{""Q0"":""luke is looking at ruth""}","<img src=""stim_listA/look3.gif""style=""height:400px;""></stim_listA>","is looking at","","","","","",""
"null","<div style=""font-size:60px;"">+</div>","","html-keyboard-response","156","746079","0.0-15.0-0.2","48155","List1A","white","woman","","","","null","","","","","","","","",""
"null","<img src=""stim_listA/oppose6.gif""style=""height:400px;""></stim_listA>","","html-keyboard-response","157","748082","0.0-15.0-1.2","48155","List1A","white","woman","","","","null","","","","","","","","",""
"null","is being opposed by","","html-keyboard-response","158","750089","0.0-15.0-2.2","48155","List1A","white","woman","","","","null","","","","","","","","",""
"5446.0999999996275","","","survey-text","159","755541","0.0-15.0-3.2","48155","List1A","white","woman","","","","","{""Q0"":""fred is being opposed by luke""}","<img src=""stim_listA/oppose6.gif""style=""height:400px;""></stim_listA>","is being opposed by","","","","","",""
"null","<div style=""font-size:60px;"">+</div>","","html-keyboard-response","160","756045","0.0-15.0-0.3","48155","List1A","white","woman","","","","null","","","","","","","","",""
"null","<img src=""stim_listA/oppose1.gif""style=""height:400px;""></stim_listA>","","html-keyboard-response","161","758051","0.0-15.0-1.3","48155","List1A","white","woman","","","","null","","","","","","","","",""
"null","is opposing","","html-keyboard-response","162","760057","0.0-15.0-2.3","48155","List1A","white","woman","","","","null","","","","","","","","",""
"5161.5999999996275","","","survey-text","163","765225","0.0-15.0-3.3","48155","List1A","white","woman","","","","","{""Q0"":""kate is opposing mike""}","<img src=""stim_listA/oppose1.gif""style=""height:400px;""></stim_listA>","is opposing","","","","","",""
"null","<div style=""font-size:60px;"">+</div>","","html-keyboard-response","164","765729","0.0-15.0-0.4","48155","List1A","white","woman","","","","null","","","","","","","","",""
"null","<img src=""stim_listA/hug5.gif""style=""height:400px;""></stim_listA>","","html-keyboard-response","165","767736","0.0-15.0-1.4","48155","List1A","white","woman","","","","null","","","","","","","","",""
"null","is hugging","","html-keyboard-response","166","769743","0.0-15.0-2.4","48155","List1A","white","woman","","","","null","","","","","","","","",""
"6019.800000000745","","","survey-text","167","775769","0.0-15.0-3.4","48155","List1A","white","woman","","","","","{""Q0"":""fred is hugging luke""}","<img src=""stim_listA/hug5.gif""style=""height:400px;""></stim_listA>","is hugging","","","","","",""
"null","<div style=""font-size:60px;"">+</div>","","html-keyboard-response","168","776273","0.0-15.0-0.5","48155","List1A","white","woman","","","","null","","","","","","","","",""
"null","<img src=""stim_listA/look8.gif""style=""height:400px;""></stim_listA>","","html-keyboard-response","169","778279","0.0-15.0-1.5","48155","List1A","white","woman","","","","null","","","","","","","","",""
"null","is being looked at by","","html-keyboard-response","170","780286","0.0-15.0-2.5","48155","List1A","white","woman","","","","null","","","","","","","","",""
"8280.200000001118","","","survey-text","171","788572","0.0-15.0-3.5","48155","List1A","white","woman","","","","","{""Q0"":""jane is being looked at by kate""}","<img src=""stim_listA/look8.gif""style=""height:400px;""></stim_listA>","is being looked at by","","","","","",""
"null","<div style=""font-size:60px;"">+</div>","","html-keyboard-response","172","789076","0.0-15.0-0.6","48155","List1A","white","woman","","","","null","","","","","","","","",""
"null","<img src=""stim_listA/touch7.gif""style=""height:400px;""></stim_listA>","","html-keyboard-response","173","791084","0.0-15.0-1.6","48155","List1A","white","woman","","","","null","","","","","","","","",""
"null","is touching","","html-keyboard-response","174","793090","0.0-15.0-2.6","48155","List1A","white","woman","","","","null","","","","","","","","",""
"3868.7999999988824","","","survey-text","175","796966","0.0-15.0-3.6","48155","List1A","white","woman","","","","","{""Q0"":""jane is touching kate""}","<img src=""stim_listA/touch7.gif""style=""height:400px;""></stim_listA>","is touching","","","","","",""
"null","<div style=""font-size:60px;"">+</div>","","html-keyboard-response","176","797469","0.0-15.0-0.7","48155","List1A","white","woman","","","","null","","","","","","","","",""
"null","<img src=""stim_listA/kiss6.gif""style=""height:400px;""></stim_listA>","","html-keyboard-response","177","799477","0.0-15.0-1.7","48155","List1A","white","woman","","","","null","","","","","","","","",""
"null","is being kissed by","","html-keyboard-response","178","801480","0.0-15.0-2.7","48155","List1A","white","woman","","","","null","","","","","","","","",""
"7827.799999998882","","","survey-text","179","809314","0.0-15.0-3.7","48155","List1A","white","woman","","","","","{""Q0"":""mike is being kissed by dave""}","<img src=""stim_listA/kiss6.gif""style=""height:400px;""></stim_listA>","is being kissed by","","","","","",""
"null","<div style=""font-size:60px;"">+</div>","","html-keyboard-response","180","809818","0.0-15.0-0.8","48155","List1A","white","woman","","","","null","","","","","","","","",""
"null","<img src=""stim_listA/oppose8.gif""style=""height:400px;""></stim_listA>","","html-keyboard-response","181","811825","0.0-15.0-1.8","48155","List1A","white","woman","","","","null","","","","","","","","",""
"null","is being opposed by","","html-keyboard-response","182","813829","0.0-15.0-2.8","48155","List1A","white","woman","","","","null","","","","","","","","",""
"6590.700000001118","","","survey-text","183","820426","0.0-15.0-3.8","48155","List1A","white","woman","","","","","{""Q0"":""ruth is being opposed by beth""}","<img src=""stim_listA/oppose8.gif""style=""height:400px;""></stim_listA>","is being opposed by","","","","","",""
"null","<div style=""font-size:60px;"">+</div>","","html-keyboard-response","184","820929","0.0-15.0-0.9","48155","List1A","white","woman","","","","null","","","","","","","","",""
"null","<img src=""stim_listA/look2.gif""style=""height:400px;""></stim_listA>","","html-keyboard-response","185","822936","0.0-15.0-1.9","48155","List1A","white","woman","","","","null","","","","","","","","",""
"null","is being looked at by","","html-keyboard-response","186","824942","0.0-15.0-2.9","48155","List1A","white","woman","","","","null","","","","","","","","",""
"5545.800000000745","","","survey-text","187","830494","0.0-15.0-3.9","48155","List1A","white","woman","","","","","{""Q0"":""kate is being looked at by mike""}","<img src=""stim_listA/look2.gif""style=""height:400px;""></stim_listA>","is being looked at by","","","","","",""
"null","<div style=""font-size:60px;"">+</div>","","html-keyboard-response","188","830998","0.0-15.0-0.10","48155","List1A","white","woman","","","","null","","","","","","","","",""
"null","<img src=""stim_listA/kiss7.gif""style=""height:400px;""></stim_listA>","","html-keyboard-response","189","833005","0.0-15.0-1.10","48155","List1A","white","woman","","","","null","","","","","","","","",""
"null","is kissing","","html-keyboard-response","190","835011","0.0-15.0-2.10","48155","List1A","white","woman","","","","null","","","","","","","","",""
"3877.60000000149","","","survey-text","191","838894","0.0-15.0-3.10","48155","List1A","white","woman","","","","","{""Q0"":""beth is kissing ruth""}","<img src=""stim_listA/kiss7.gif""style=""height:400px;""></stim_listA>","is kissing","","","","","",""
"null","<div style=""font-size:60px;"">+</div>","","html-keyboard-response","192","839396","0.0-15.0-0.11","48155","List1A","white","woman","","","","null","","","","","","","","",""
"null","<img src=""stim_listA/kiss3.gif""style=""height:400px;""></stim_listA>","","html-keyboard-response","193","841398","0.0-15.0-1.11","48155","List1A","white","woman","","","","null","","","","","","","","",""
"null","is kissing","","html-keyboard-response","194","843400","0.0-15.0-2.11","48155","List1A","white","woman","","","","null","","","","","","","","",""
"3470.89999999851","","","survey-text","195","846877","0.0-15.0-3.11","48155","List1A","white","woman","","","","","{""Q0"":""ruth is kissing luke""}","<img src=""stim_listA/kiss3.gif""style=""height:400px;""></stim_listA>","is kissing","","","","","",""
"null","<div style=""font-size:60px;"">+</div>","","html-keyboard-response","196","847381","0.0-15.0-0.12","48155","List1A","white","woman","","","","null","","","","","","","","",""
"null","<img src=""stim_listA/challenge1.gif""style=""height:400px;""></stim_listA>","","html-keyboard-response","197","849388","0.0-15.0-1.12","48155","List1A","white","woman","","","","null","","","","","","","","",""
"null","is challenging","","html-keyboard-response","198","851394","0.0-15.0-2.12","48155","List1A","white","woman","","","","null","","","","","","","","",""
"9514.5","","","survey-text","199","860914","0.0-15.0-3.12","48155","List1A","white","woman","","","","","{""Q0"":""beth is challenging mike""}","<img src=""stim_listA/challenge1.gif""style=""height:400px;""></stim_listA>","is challenging","","","","","",""
"null","<div style=""font-size:60px;"">+</div>","","html-keyboard-response","200","861416","0.0-15.0-0.13","48155","List1A","white","woman","","","","null","","","","","","","","",""
"null","<img src=""stim_listA/oppose4.gif""style=""height:400px;""></stim_listA>","","html-keyboard-response","201","863423","0.0-15.0-1.13","48155","List1A","white","woman","","","","null","","","","","","","","",""
"null","is being opposed by","","html-keyboard-response","202","865426","0.0-15.0-2.13","48155","List1A","white","woman","","","","null","","","","","","","","",""
"8004.9000000003725","","","survey-text","203","873437","0.0-15.0-3.13","48155","List1A","white","woman","","","","","{""Q0"":""ruth is being opposed by luke""}","<img src=""stim_listA/oppose4.gif""style=""height:400px;""></stim_listA>","is being opposed by","","","","","",""
"null","<div style=""font-size:60px;"">+</div>","","html-keyboard-response","204","873941","0.0-15.0-0.14","48155","List1A","white","woman","","","","null","","","","","","","","",""
"null","<img src=""stim_listA/touch2.gif""style=""height:400px;""></stim_listA>","","html-keyboard-response","205","875948","0.0-15.0-1.14","48155","List1A","white","woman","","","","null","","","","","","","","",""
"null","is being touched by","","html-keyboard-response","206","877949","0.0-15.0-2.14","48155","List1A","white","woman","","","","null","","","","","","","","",""
"7521.699999999255","","","survey-text","207","885477","0.0-15.0-3.14","48155","List1A","white","woman","","","","","{""Q0"":""beth is being touched by fred""}","<img src=""stim_listA/touch2.gif""style=""height:400px;""></stim_listA>","is being touched by","","","","","",""
"null","<div style=""font-size:60px;"">+</div>","","html-keyboard-response","208","885980","0.0-15.0-0.15","48155","List1A","white","woman","","","","null","","","","","","","","",""
"null","<img src=""stim_listA/look6.gif""style=""height:400px;""></stim_listA>","","html-keyboard-response","209","887984","0.0-15.0-1.15","48155","List1A","white","woman","","","","null","","","","","","","","",""
"null","is being looked at by","","html-keyboard-response","210","889991","0.0-15.0-2.15","48155","List1A","white","woman","","","","null","","","","","","","","",""
"6812.0999999996275","","","survey-text","211","896809","0.0-15.0-3.15","48155","List1A","white","woman","","","","","{""Q0"":""dave is looking at mike""}","<img src=""stim_listA/look6.gif""style=""height:400px;""></stim_listA>","is being looked at by","","","","","",""
"null","<div style=""font-size:60px;"">+</div>","","html-keyboard-response","212","897313","0.0-15.0-0.16","48155","List1A","white","woman","","","","null","","","","","","","","",""
"null","<img src=""stim_listA/touch4.gif""style=""height:400px;""></stim_listA>","","html-keyboard-response","213","899320","0.0-15.0-1.16","48155","List1A","white","woman","","","","null","","","","","","","","",""
"null","is being touched by","","html-keyboard-response","214","901326","0.0-15.0-2.16","48155","List1A","white","woman","","","","null","","","","","","","","",""
"5434.9000000003725","","","survey-text","215","906767","0.0-15.0-3.16","48155","List1A","white","woman","","","","","{""Q0"":""ruth is being touched by luke""}","<img src=""stim_listA/touch4.gif""style=""height:400px;""></stim_listA>","is being touched by","","","","","",""
"null","<div style=""font-size:60px;"">+</div>","","html-keyboard-response","216","907271","0.0-15.0-0.17","48155","List1A","white","woman","","","","null","","","","","","","","",""
"null","<img src=""stim_listA/look5.gif""style=""height:400px;""></stim_listA>","","html-keyboard-response","217","909278","0.0-15.0-1.17","48155","List1A","white","woman","","","","null","","","","","","","","",""
"null","is looking at","","html-keyboard-response","218","911284","0.0-15.0-2.17","48155","List1A","white","woman","","","","null","","","","","","","","",""
"4940","","","survey-text","219","916230","0.0-15.0-3.17","48155","List1A","white","woman","","","","","{""Q0"":""fred is looking at luke""}","<img src=""stim_listA/look5.gif""style=""height:400px;""></stim_listA>","is looking at","","","","","",""
"null","<div style=""font-size:60px;"">+</div>","","html-keyboard-response","220","916732","0.0-15.0-0.18","48155","List1A","white","woman","","","","null","","","","","","","","",""
"null","<img src=""stim_listA/kiss8.gif""style=""height:400px;""></stim_listA>","","html-keyboard-response","221","918739","0.0-15.0-1.18","48155","List1A","white","woman","","","","null","","","","","","","","",""
"null","is being kissed by","","html-keyboard-response","222","920745","0.0-15.0-2.18","48155","List1A","white","woman","","","","null","","","","","","","","",""
"5417.89999999851","","","survey-text","223","926168","0.0-15.0-3.18","48155","List1A","white","woman","","","","","{""Q0"":""jane is being kissed by kate""}","<img src=""stim_listA/kiss8.gif""style=""height:400px;""></stim_listA>","is being kissed by","","","","","",""
"null","<div style=""font-size:60px;"">+</div>","","html-keyboard-response","224","926670","0.0-15.0-0.19","48155","List1A","white","woman","","","","null","","","","","","","","",""
"null","<img src=""stim_listA/copy2.gif""style=""height:400px;""></stim_listA>","","html-keyboard-response","225","928677","0.0-15.0-1.19","48155","List1A","white","woman","","","","null","","","","","","","","",""
"null","is being copied by","","html-keyboard-response","226","930683","0.0-15.0-2.19","48155","List1A","white","woman","","","","null","","","","","","","","",""
"5168","","","survey-text","227","935857","0.0-15.0-3.19","48155","List1A","white","woman","","","","","{""Q0"":""kate is being copied by fred""}","<img src=""stim_listA/copy2.gif""style=""height:400px;""></stim_listA>","is being copied by","","","","","",""
"4261.5","<img src='img/portrait_matrix_list1.jpg' style='width:900px;height:500px;''></img><p>If you have memorised all the portraits and names and are ready to start, press Continue.</p><p><strong>Please note: Your memory of these faces will be tested 4 times during this experiment.</strong></p>","0","html-button-response","228","940121","0.0-16.0-0.0","48155","List1A","white","woman","","","","","","","","","","","","",""
"3569","<img src=""portrait/WM2.jpg""style=""height:400px;""></img>","7","html-button-response","229","944694","0.0-16.0-1.0","48155","List1A","white","woman","","true","7","","","","","","","","","",""
"null","CORRECT","","html-keyboard-response","230","946206","0.0-16.0-2.0-0.0","48155","List1A","white","woman","","","","null","","","","","","","","",""
"2980.2000000011176","<img src=""portrait/WM1.jpg""style=""height:400px;""></img>","6","html-button-response","231","949189","0.0-16.0-4.0","48155","List1A","white","woman","","true","6","","","","","","","","","",""
"null","CORRECT","","html-keyboard-response","232","950697","0.0-16.0-5.0-0.0","48155","List1A","white","woman","","","","null","","","","","","","","",""
"3714.300000000745","<img src=""portrait/WW1.jpg""style=""height:400px;""></img>","1","html-button-response","233","954414","0.0-16.0-7.0","48155","List1A","white","woman","","true","1","","","","","","","","","",""
"null","CORRECT","","html-keyboard-response","234","955924","0.0-16.0-8.0-0.0","48155","List1A","white","woman","","","","null","","","","","","","","",""
"2010.1000000014901","<img src=""portrait/BW1.jpg""style=""height:400px;""></img>","0","html-button-response","235","957936","0.0-16.0-10.0","48155","List1A","white","woman","","true","0","","","","","","","","","",""
"null","CORRECT","","html-keyboard-response","236","959444","0.0-16.0-11.0-0.0","48155","List1A","white","woman","","","","null","","","","","","","","",""
"1833.4000000003725","<img src=""portrait/BM1.jpg""style=""height:400px;""></img>","4","html-button-response","237","961280","0.0-16.0-13.0","48155","List1A","white","woman","","true","4","","","","","","","","","",""
"null","CORRECT","","html-keyboard-response","238","962791","0.0-16.0-14.0-0.0","48155","List1A","white","woman","","","","null","","","","","","","","",""
"1436.699999999255","<img src=""portrait/BW2.jpg""style=""height:400px;""></img>","2","html-button-response","239","964230","0.0-16.0-16.0","48155","List1A","white","woman","","true","2","","","","","","","","","",""
"null","CORRECT","","html-keyboard-response","240","965742","0.0-16.0-17.0-0.0","48155","List1A","white","woman","","","","null","","","","","","","","",""
"1191.9000000003725","<img src=""portrait/WW2.jpg""style=""height:400px;""></img>","3","html-button-response","241","966936","0.0-16.0-19.0","48155","List1A","white","woman","","true","3","","","","","","","","","",""
"null","CORRECT","","html-keyboard-response","242","968448","0.0-16.0-20.0-0.0","48155","List1A","white","woman","","","","null","","","","","","","","",""
"1560","<img src=""portrait/BM2.jpg""style=""height:400px;""></img>","5","html-button-response","243","970011","0.0-16.0-22.0","48155","List1A","white","woman","","true","5","","","","","","","","","",""
"null","CORRECT","","html-keyboard-response","244","971518","0.0-16.0-23.0-0.0","48155","List1A","white","woman","","","","null","","","","","","","","",""
"1455.6000000014901","<p>You got 8 out of 8 right first time. Press Continue.</p>","0","html-button-response","245","972976","0.0-16.0-25.0","48155","List1A","white","woman","","","","","","","","","","","","",""
"null","<div style=""font-size:60px;"">+</div>","","html-keyboard-response","246","974482","0.0-17.0-0.0","48155","List1A","white","woman","","","","null","","","","","","","","",""
"null","<img src=""stim_listA/challenge7.gif""style=""height:400px;""></stim_listA>","","html-keyboard-response","247","976484","0.0-17.0-1.0","48155","List1A","white","woman","","","","null","","","","","","","","",""
"null","is challenging","","html-keyboard-response","248","978486","0.0-17.0-2.0","48155","List1A","white","woman","","","","null","","","","","","","","",""
"5754.10000000149","","","survey-text","249","984245","0.0-17.0-3.0","48155","List1A","white","woman","","","","","{""Q0"":""kate is challenging ruth""}","<img src=""stim_listA/challenge7.gif""style=""height:400px;""></stim_listA>","is challenging","","","","","",""
"null","<div style=""font-size:60px;"">+</div>","","html-keyboard-response","250","984747","0.0-17.0-0.1","48155","List1A","white","woman","","","","null","","","","","","","","",""
"null","<img src=""stim_listA/challenge3.gif""style=""height:400px;""></stim_listA>","","html-keyboard-response","251","986752","0.0-17.0-1.1","48155","List1A","white","woman","","","","null","","","","","","","","",""
"null","is challenging","","html-keyboard-response","252","988756","0.0-17.0-2.1","48155","List1A","white","woman","","","","null","","","","","","","","",""
"5859.5","","","survey-text","253","994621","0.0-17.0-3.1","48155","List1A","white","woman","","","","","{""Q0"":"" ruth is challenging dave""}","<img src=""stim_listA/challenge3.gif""style=""height:400px;""></stim_listA>","is challenging","","","","","",""
"null","<div style=""font-size:60px;"">+</div>","","html-keyboard-response","254","995123","0.0-17.0-0.2","48155","List1A","white","woman","","","","null","","","","","","","","",""
"null","<img src=""stim_listA/hug2.gif""style=""height:400px;""></stim_listA>","","html-keyboard-response","255","997125","0.0-17.0-1.2","48155","List1A","white","woman","","","","null","","","","","","","","",""
"null","is being hugged by","","html-keyboard-response","256","999127","0.0-17.0-2.2","48155","List1A","white","woman","","","","null","","","","","","","","",""
"6635.300000000745","","","survey-text","257","1005767","0.0-17.0-3.2","48155","List1A","white","woman","","","","","{""Q0"":""kate is being hugged by mike""}","<img src=""stim_listA/hug2.gif""style=""height:400px;""></stim_listA>","is being hugged by","","","","","",""
"null","<div style=""font-size:60px;"">+</div>","","html-keyboard-response","258","1006270","0.0-17.0-0.3","48155","List1A","white","woman","","","","null","","","","","","","","",""
"null","<img src=""stim_listA/hug3.gif""style=""height:400px;""></stim_listA>","","html-keyboard-response","259","1008273","0.0-17.0-1.3","48155","List1A","white","woman","","","","null","","","","","","","","",""
"null","is hugging","","html-keyboard-response","260","1010276","0.0-17.0-2.3","48155","List1A","white","woman","","","","null","","","","","","","","",""
"3412","","","survey-text","261","1013694","0.0-17.0-3.3","48155","List1A","white","woman","","","","","{""Q0"":""ruth is hugging luke""}","<img src=""stim_listA/hug3.gif""style=""height:400px;""></stim_listA>","is hugging","","","","","",""
"null","<div style=""font-size:60px;"">+</div>","","html-keyboard-response","262","1014198","0.0-17.0-0.4","48155","List1A","white","woman","","","","null","","","","","","","","",""
"null","<img src=""stim_listA/greet5.gif""style=""height:400px;""></stim_listA>","","html-keyboard-response","263","1016203","0.0-17.0-1.4","48155","List1A","white","woman","","","","null","","","","","","","","",""
"null","is greeting","","html-keyboard-response","264","1018207","0.0-17.0-2.4","48155","List1A","white","woman","","","","null","","","","","","","","",""
"5613.199999999255","","","survey-text","265","1023826","0.0-17.0-3.4","48155","List1A","white","woman","","","","","{""Q0"":""luke is greeting mike""}","<img src=""stim_listA/greet5.gif""style=""height:400px;""></stim_listA>","is greeting","","","","","",""
"null","<div style=""font-size:60px;"">+</div>","","html-keyboard-response","266","1024328","0.0-17.0-0.5","48155","List1A","white","woman","","","","null","","","","","","","","",""
"null","<img src=""stim_listA/kiss1.gif""style=""height:400px;""></stim_listA>","","html-keyboard-response","267","1026335","0.0-17.0-1.5","48155","List1A","white","woman","","","","null","","","","","","","","",""
"null","is kissing","","html-keyboard-response","268","1028341","0.0-17.0-2.5","48155","List1A","white","woman","","","","null","","","","","","","","",""
"4392.300000000745","","","survey-text","269","1032739","0.0-17.0-3.5","48155","List1A","white","woman","","","","","{""Q0"":""beth is kissing fred""}","<img src=""stim_listA/kiss1.gif""style=""height:400px;""></stim_listA>","is kissing","","","","","",""
"null","<div style=""font-size:60px;"">+</div>","","html-keyboard-response","270","1033244","0.0-17.0-0.6","48155","List1A","white","woman","","","","null","","","","","","","","",""
"null","<img src=""stim_listA/oppose2.gif""style=""height:400px;""></stim_listA>","","html-keyboard-response","271","1035251","0.0-17.0-1.6","48155","List1A","white","woman","","","","null","","","","","","","","",""
"null","is being opposed by","","html-keyboard-response","272","1037257","0.0-17.0-2.6","48155","List1A","white","woman","","","","null","","","","","","","","",""
"5672.5","","","survey-text","273","1042935","0.0-17.0-3.6","48155","List1A","white","woman","","","","","{""Q0"":""beth is being opposed by fred""}","<img src=""stim_listA/oppose2.gif""style=""height:400px;""></stim_listA>","is being opposed by","","","","","",""
"null","<div style=""font-size:60px;"">+</div>","","html-keyboard-response","274","1043439","0.0-17.0-0.7","48155","List1A","white","woman","","","","null","","","","","","","","",""
"null","<img src=""stim_listA/challenge4.gif""style=""height:400px;""></stim_listA>","","html-keyboard-response","275","1045445","0.0-17.0-1.7","48155","List1A","white","woman","","","","null","","","","","","","","",""
"null","is being challenged by","","html-keyboard-response","276","1047451","0.0-17.0-2.7","48155","List1A","white","woman","","","","null","","","","","","","","",""
"8223.900000000373","","","survey-text","277","1055681","0.0-17.0-3.7","48155","List1A","white","woman","","","","","{""Q0"":""jane is being challenged by luke""}","<img src=""stim_listA/challenge4.gif""style=""height:400px;""></stim_listA>","is being challenged by","","","","","",""
"null","<div style=""font-size:60px;"">+</div>","","html-keyboard-response","278","1056183","0.0-17.0-0.8","48155","List1A","white","woman","","","","null","","","","","","","","",""
"null","<img src=""stim_listA/seduce6.gif""style=""height:400px;""></stim_listA>","","html-keyboard-response","279","1058190","0.0-17.0-1.8","48155","List1A","white","woman","","","","null","","","","","","","","",""
"null","is being seduced by","","html-keyboard-response","280","1060192","0.0-17.0-2.8","48155","List1A","white","woman","","","","null","","","","","","","","",""
"5597.4000000003725","","","survey-text","281","1065795","0.0-17.0-3.8","48155","List1A","white","woman","","","","","{""Q0"":""luke is being seduced by mike""}","<img src=""stim_listA/seduce6.gif""style=""height:400px;""></stim_listA>","is being seduced by","","","","","",""
"null","<div style=""font-size:60px;"">+</div>","","html-keyboard-response","282","1066297","0.0-17.0-0.9","48155","List1A","white","woman","","","","null","","","","","","","","",""
"null","<img src=""stim_listA/hug6.gif""style=""height:400px;""></stim_listA>","","html-keyboard-response","283","1068304","0.0-17.0-1.9","48155","List1A","white","woman","","","","null","","","","","","","","",""
"null","is being hugged by","","html-keyboard-response","284","1070306","0.0-17.0-2.9","48155","List1A","white","woman","","","","null","","","","","","","","",""
"7005.5999999996275","","","survey-text","285","1077318","0.0-17.0-3.9","48155","List1A","white","woman","","","","","{""Q0"":""mike is being hugged by dave""}","<img src=""stim_listA/hug6.gif""style=""height:400px;""></stim_listA>","is being hugged by","","","","","",""
"null","<div style=""font-size:60px;"">+</div>","","html-keyboard-response","286","1077822","0.0-17.0-0.10","48155","List1A","white","woman","","","","null","","","","","","","","",""
"null","<img src=""stim_listA/greet1.gif""style=""height:400px;""></stim_listA>","","html-keyboard-response","287","1079829","0.0-17.0-1.10","48155","List1A","white","woman","","","","null","","","","","","","","",""
"null","is greeting","","html-keyboard-response","288","1081833","0.0-17.0-2.10","48155","List1A","white","woman","","","","null","","","","","","","","",""
"5662.0999999996275","","","survey-text","289","1087501","0.0-17.0-3.10","48155","List1A","white","woman","","","","","{""Q0"":""beth is greeting mike""}","<img src=""stim_listA/greet1.gif""style=""height:400px;""></stim_listA>","is greeting","","","","","",""
"null","<div style=""font-size:60px;"">+</div>","","html-keyboard-response","290","1088005","0.0-17.0-0.11","48155","List1A","white","woman","","","","null","","","","","","","","",""
"null","<img src=""stim_listA/copy7.gif""style=""height:400px;""></stim_listA>","","html-keyboard-response","291","1090012","0.0-17.0-1.11","48155","List1A","white","woman","","","","null","","","","","","","","",""
"null","is copying","","html-keyboard-response","292","1092018","0.0-17.0-2.11","48155","List1A","white","woman","","","","null","","","","","","","","",""
"5412.800000000745","","","survey-text","293","1097437","0.0-17.0-3.11","48155","List1A","white","woman","","","","","{""Q0"":""ruth is copying kate""}","<img src=""stim_listA/copy7.gif""style=""height:400px;""></stim_listA>","is copying","","","","","",""
"null","<div style=""font-size:60px;"">+</div>","","html-keyboard-response","294","1097941","0.0-17.0-0.12","48155","List1A","white","woman","","","","null","","","","","","","","",""
"null","<img src=""stim_listA/greet4.gif""style=""height:400px;""></stim_listA>","","html-keyboard-response","295","1099948","0.0-17.0-1.12","48155","List1A","white","woman","","","","null","","","","","","","","",""
"null","is being greeted by","","html-keyboard-response","296","1101954","0.0-17.0-2.12","48155","List1A","white","woman","","","","null","","","","","","","","",""
"5993.0999999996275","","","survey-text","297","1107954","0.0-17.0-3.12","48155","List1A","white","woman","","","","","{""Q0"":""jane is being greeted by luke""}","<img src=""stim_listA/greet4.gif""style=""height:400px;""></stim_listA>","is being greeted by","","","","","",""
"null","<div style=""font-size:60px;"">+</div>","","html-keyboard-response","298","1108456","0.0-17.0-0.13","48155","List1A","white","woman","","","","null","","","","","","","","",""
"null","<img src=""stim_listA/greet3.gif""style=""height:400px;""></stim_listA>","","html-keyboard-response","299","1110463","0.0-17.0-1.13","48155","List1A","white","woman","","","","null","","","","","","","","",""
"null","is greeting","","html-keyboard-response","300","1112470","0.0-17.0-2.13","48155","List1A","white","woman","","","","null","","","","","","","","",""
"4074.199999999255","","","survey-text","301","1116550","0.0-17.0-3.13","48155","List1A","white","woman","","","","","{""Q0"":""ruth is greeting dave""}","<img src=""stim_listA/greet3.gif""style=""height:400px;""></stim_listA>","is greeting","","","","","",""
"null","<div style=""font-size:60px;"">+</div>","","html-keyboard-response","302","1117052","0.0-17.0-0.14","48155","List1A","white","woman","","","","null","","","","","","","","",""
"null","<img src=""stim_listA/challenge2.gif""style=""height:400px;""></stim_listA>","","html-keyboard-response","303","1119059","0.0-17.0-1.14","48155","List1A","white","woman","","","","null","","","","","","","","",""
"null","is being challenged by","","html-keyboard-response","304","1121063","0.0-17.0-2.14","48155","List1A","white","woman","","","","null","","","","","","","","",""
"5289.5999999996275","","","survey-text","305","1126359","0.0-17.0-3.14","48155","List1A","white","woman","","","","","{""Q0"":""kate is being challenged by fred""}","<img src=""stim_listA/challenge2.gif""style=""height:400px;""></stim_listA>","is being challenged by","","","","","",""
"null","<div style=""font-size:60px;"">+</div>","","html-keyboard-response","306","1126861","0.0-17.0-0.15","48155","List1A","white","woman","","","","null","","","","","","","","",""
"null","<img src=""stim_listA/shout6.gif""style=""height:400px;""></stim_listA>","","html-keyboard-response","307","1128867","0.0-17.0-1.15","48155","List1A","white","woman","","","","null","","","","","","","","",""
"null","is being shouted at by","","html-keyboard-response","308","1130873","0.0-17.0-2.15","48155","List1A","white","woman","","","","null","","","","","","","","",""
"10144.900000000373","","","survey-text","309","1141024","0.0-17.0-3.15","48155","List1A","white","woman","","","","","{""Q0"":""dave is being shouted at by mike""}","<img src=""stim_listA/shout6.gif""style=""height:400px;""></stim_listA>","is being shouted at by","","","","","",""
"null","<div style=""font-size:60px;"">+</div>","","html-keyboard-response","310","1141528","0.0-17.0-0.16","48155","List1A","white","woman","","","","null","","","","","","","","",""
"null","<img src=""stim_listA/oppose7.gif""style=""height:400px;""></stim_listA>","","html-keyboard-response","311","1143535","0.0-17.0-1.16","48155","List1A","white","woman","","","","null","","","","","","","","",""
"null","is opposing","","html-keyboard-response","312","1145540","0.0-17.0-2.16","48155","List1A","white","woman","","","","null","","","","","","","","",""
"3797.5999999996275","","","survey-text","313","1149344","0.0-17.0-3.16","48155","List1A","white","woman","","","","","{""Q0"":""kate is opposing jane""}","<img src=""stim_listA/oppose7.gif""style=""height:400px;""></stim_listA>","is opposing","","","","","",""
"null","<div style=""font-size:60px;"">+</div>","","html-keyboard-response","314","1149848","0.0-17.0-0.17","48155","List1A","white","woman","","","","null","","","","","","","","",""
"null","<img src=""stim_listA/oppose5.gif""style=""height:400px;""></stim_listA>","","html-keyboard-response","315","1151850","0.0-17.0-1.17","48155","List1A","white","woman","","","","null","","","","","","","","",""
"null","is opposing","","html-keyboard-response","316","1153853","0.0-17.0-2.17","48155","List1A","white","woman","","","","null","","","","","","","","",""
"4611.0999999996275","","","survey-text","317","1158470","0.0-17.0-3.17","48155","List1A","white","woman","","","","","{""Q0"":""mike is oppsing dave""}","<img src=""stim_listA/oppose5.gif""style=""height:400px;""></stim_listA>","is opposing","","","","","",""
"null","<div style=""font-size:60px;"">+</div>","","html-keyboard-response","318","1158974","0.0-17.0-0.18","48155","List1A","white","woman","","","","null","","","","","","","","",""
"null","<img src=""stim_listA/look7.gif""style=""height:400px;""></stim_listA>","","html-keyboard-response","319","1160981","0.0-17.0-1.18","48155","List1A","white","woman","","","","null","","","","","","","","",""
"null","is looking at","","html-keyboard-response","320","1162987","0.0-17.0-2.18","48155","List1A","white","woman","","","","null","","","","","","","","",""
"5032.0999999996275","","","survey-text","321","1168026","0.0-17.0-3.18","48155","List1A","white","woman","","","","","{""Q0"":""beth is looking at ruth""}","<img src=""stim_listA/look7.gif""style=""height:400px;""></stim_listA>","is looking at","","","","","",""
"null","<div style=""font-size:60px;"">+</div>","","html-keyboard-response","322","1168529","0.0-17.0-0.19","48155","List1A","white","woman","","","","null","","","","","","","","",""
"null","<img src=""stim_listA/seduce1.gif""style=""height:400px;""></stim_listA>","","html-keyboard-response","323","1170536","0.0-17.0-1.19","48155","List1A","white","woman","","","","null","","","","","","","","",""
"null","is seducing","","html-keyboard-response","324","1172543","0.0-17.0-2.19","48155","List1A","white","woman","","","","null","","","","","","","","",""
"5618.5","","","survey-text","325","1178167","0.0-17.0-3.19","48155","List1A","white","woman","","","","","{""Q0"":""fred is seducing kate""}","<img src=""stim_listA/seduce1.gif""style=""height:400px;""></stim_listA>","is seducing","","","","","",""
"2911","<img src='img/portrait_matrix_list1.jpg' style='width:900px;height:500px;''></img><p>If you have memorised all the portraits and names and are ready to start, press Continue.</p><p><strong>Please note: Your memory of these faces will be tested 4 times during this experiment.</strong></p>","0","html-button-response","326","1181090","0.0-18.0-0.0","48155","List1A","white","woman","","","","","","","","","","","","",""
"2770.9000000003725","<img src=""portrait/BW1.jpg""style=""height:400px;""></img>","0","html-button-response","327","1184868","0.0-18.0-1.0","48155","List1A","white","woman","","true","0","","","","","","","","","",""
"null","CORRECT","","html-keyboard-response","328","1186381","0.0-18.0-2.0-0.0","48155","List1A","white","woman","","","","null","","","","","","","","",""
"1221.5","<img src=""portrait/WW1.jpg""style=""height:400px;""></img>","1","html-button-response","329","1187604","0.0-18.0-4.0","48155","List1A","white","woman","","true","1","","","","","","","","","",""
"null","CORRECT","","html-keyboard-response","330","1189111","0.0-18.0-5.0-0.0","48155","List1A","white","woman","","","","null","","","","","","","","",""
"1963","<img src=""portrait/BM1.jpg""style=""height:400px;""></img>","4","html-button-response","331","1191076","0.0-18.0-7.0","48155","List1A","white","woman","","true","4","","","","","","","","","",""
"null","CORRECT","","html-keyboard-response","332","1192585","0.0-18.0-8.0-0.0","48155","List1A","white","woman","","","","null","","","","","","","","",""
"1628.5","<img src=""portrait/BM2.jpg""style=""height:400px;""></img>","5","html-button-response","333","1194215","0.0-18.0-10.0","48155","List1A","white","woman","","true","5","","","","","","","","","",""
"null","CORRECT","","html-keyboard-response","334","1195727","0.0-18.0-11.0-0.0","48155","List1A","white","woman","","","","null","","","","","","","","",""
"2170.7000000011176","<img src=""portrait/WM2.jpg""style=""height:400px;""></img>","7","html-button-response","335","1197900","0.0-18.0-13.0","48155","List1A","white","woman","","true","7","","","","","","","","","",""
"null","CORRECT","","html-keyboard-response","336","1199408","0.0-18.0-14.0-0.0","48155","List1A","white","woman","","","","null","","","","","","","","",""
"1173.5999999996275","<img src=""portrait/WM1.jpg""style=""height:400px;""></img>","6","html-button-response","337","1200584","0.0-18.0-16.0","48155","List1A","white","woman","","true","6","","","","","","","","","",""
"null","CORRECT","","html-keyboard-response","338","1202096","0.0-18.0-17.0-0.0","48155","List1A","white","woman","","","","null","","","","","","","","",""
"1550.5","<img src=""portrait/WW2.jpg""style=""height:400px;""></img>","3","html-button-response","339","1203648","0.0-18.0-19.0","48155","List1A","white","woman","","true","3","","","","","","","","","",""
"null","CORRECT","","html-keyboard-response","340","1205159","0.0-18.0-20.0-0.0","48155","List1A","white","woman","","","","null","","","","","","","","",""
"1443.9000000003725","<img src=""portrait/BW2.jpg""style=""height:400px;""></img>","2","html-button-response","341","1206604","0.0-18.0-22.0","48155","List1A","white","woman","","true","2","","","","","","","","","",""
"null","CORRECT","","html-keyboard-response","342","1208115","0.0-18.0-23.0-0.0","48155","List1A","white","woman","","","","null","","","","","","","","",""
"1264.5999999996275","<p>You got 8 out of 8 right first time. Press Continue.</p>","0","html-button-response","343","1209381","0.0-18.0-25.0","48155","List1A","white","woman","","","","","","","","","","","","",""
"null","<div style=""font-size:60px;"">+</div>","","html-keyboard-response","344","1210893","0.0-19.0-0.0","48155","List1A","white","woman","","","","null","","","","","","","","",""
"null","<img src=""stim_listA/look4.gif""style=""height:400px;""></stim_listA>","","html-keyboard-response","345","1212909","0.0-19.0-1.0","48155","List1A","white","woman","","","","null","","","","","","","","",""
"null","is being looked at by","","html-keyboard-response","346","1214910","0.0-19.0-2.0","48155","List1A","white","woman","","","","null","","","","","","","","",""
"5835","","","survey-text","347","1220751","0.0-19.0-3.0","48155","List1A","white","woman","","","","","{""Q0"":""jane is being looked at by mike""}","<img src=""stim_listA/look4.gif""style=""height:400px;""></stim_listA>","is being looked at by","","","","","",""
"null","<div style=""font-size:60px;"">+</div>","","html-keyboard-response","348","1221255","0.0-19.0-0.1","48155","List1A","white","woman","","","","null","","","","","","","","",""
"null","<img src=""stim_listA/seduce5.gif""style=""height:400px;""></stim_listA>","","html-keyboard-response","349","1223260","0.0-19.0-1.1","48155","List1A","white","woman","","","","null","","","","","","","","",""
"null","is seducing","","html-keyboard-response","350","1225262","0.0-19.0-2.1","48155","List1A","white","woman","","","","null","","","","","","","","",""
"7477.5","","","survey-text","351","1232746","0.0-19.0-3.1","48155","List1A","white","woman","","","","","{""Q0"":""dave is seducing fred""}","<img src=""stim_listA/seduce5.gif""style=""height:400px;""></stim_listA>","is seducing","","","","","",""
"null","<div style=""font-size:60px;"">+</div>","","html-keyboard-response","352","1233249","0.0-19.0-0.2","48155","List1A","white","woman","","","","null","","","","","","","","",""
"null","<img src=""stim_listA/seduce8.gif""style=""height:400px;""></stim_listA>","","html-keyboard-response","353","1235256","0.0-19.0-1.2","48155","List1A","white","woman","","","","null","","","","","","","","",""
"null","is being seduced by","","html-keyboard-response","354","1237260","0.0-19.0-2.2","48155","List1A","white","woman","","","","null","","","","","","","","",""
"6020.39999999851","","","survey-text","355","1243286","0.0-19.0-3.2","48155","List1A","white","woman","","","","","{""Q0"":""ruth is being seduced by kate""}","<img src=""stim_listA/seduce8.gif""style=""height:400px;""></stim_listA>","is being seduced by","","","","","",""
"null","<div style=""font-size:60px;"">+</div>","","html-keyboard-response","356","1243788","0.0-19.0-0.3","48155","List1A","white","woman","","","","null","","","","","","","","",""
"null","<img src=""stim_listA/copy5.gif""style=""height:400px;""></stim_listA>","","html-keyboard-response","357","1245791","0.0-19.0-1.3","48155","List1A","white","woman","","","","null","","","","","","","","",""
"null","is copying","","html-keyboard-response","358","1247797","0.0-19.0-2.3","48155","List1A","white","woman","","","","null","","","","","","","","",""
"7831.800000000745","","","survey-text","359","1255636","0.0-19.0-3.3","48155","List1A","white","woman","","","","","{""Q0"":""mike is copying luke""}","<img src=""stim_listA/copy5.gif""style=""height:400px;""></stim_listA>","is copying","","","","","",""
"null","<div style=""font-size:60px;"">+</div>","","html-keyboard-response","360","1256139","0.0-19.0-0.4","48155","List1A","white","woman","","","","null","","","","","","","","",""
"null","<img src=""stim_listA/shout1.gif""style=""height:400px;""></stim_listA>","","html-keyboard-response","361","1258147","0.0-19.0-1.4","48155","List1A","white","woman","","","","null","","","","","","","","",""
"null","is shouting at","","html-keyboard-response","362","1260153","0.0-19.0-2.4","48155","List1A","white","woman","","","","null","","","","","","","","",""
"3901.5","","","survey-text","363","1264061","0.0-19.0-3.4","48155","List1A","white","woman","","","","","{""Q0"":""fred is shouting at beth""}","<img src=""stim_listA/shout1.gif""style=""height:400px;""></stim_listA>","is shouting at","","","","","",""
"null","<div style=""font-size:60px;"">+</div>","","html-keyboard-response","364","1264563","0.0-19.0-0.5","48155","List1A","white","woman","","","","null","","","","","","","","",""
"null","<img src=""stim_listA/hug4.gif""style=""height:400px;""></stim_listA>","","html-keyboard-response","365","1266570","0.0-19.0-1.5","48155","List1A","white","woman","","","","null","","","","","","","","",""
"null","is being hugged by","","html-keyboard-response","366","1268573","0.0-19.0-2.5","48155","List1A","white","woman","","","","null","","","","","","","","",""
"5897.699999999255","","","survey-text","367","1274477","0.0-19.0-3.5","48155","List1A","white","woman","","","","","{""Q0"":""jane is being hugged by dave""}","<img src=""stim_listA/hug4.gif""style=""height:400px;""></stim_listA>","is being hugged by","","","","","",""
"null","<div style=""font-size:60px;"">+</div>","","html-keyboard-response","368","1274981","0.0-19.0-0.6","48155","List1A","white","woman","","","","null","","","","","","","","",""
"null","<img src=""stim_listA/shout4.gif""style=""height:400px;""></stim_listA>","","html-keyboard-response","369","1276988","0.0-19.0-1.6","48155","List1A","white","woman","","","","null","","","","","","","","",""
"null","is being shouted at by","","html-keyboard-response","370","1278994","0.0-19.0-2.6","48155","List1A","white","woman","","","","null","","","","","","","","",""
"5157.60000000149","","","survey-text","371","1284158","0.0-19.0-3.6","48155","List1A","white","woman","","","","","{""Q0"":""jane is being shouted at by dave""}","<img src=""stim_listA/shout4.gif""style=""height:400px;""></stim_listA>","is being shouted at by","","","","","",""
"null","<div style=""font-size:60px;"">+</div>","","html-keyboard-response","372","1284661","0.0-19.0-0.7","48155","List1A","white","woman","","","","null","","","","","","","","",""
"null","<img src=""stim_listA/kiss2.gif""style=""height:400px;""></stim_listA>","","html-keyboard-response","373","1286665","0.0-19.0-1.7","48155","List1A","white","woman","","","","null","","","","","","","","",""
"null","is being kissed by","","html-keyboard-response","374","1288671","0.0-19.0-2.7","48155","List1A","white","woman","","","","null","","","","","","","","",""
"6370.200000001118","","","survey-text","375","1295048","0.0-19.0-3.7","48155","List1A","white","woman","","","","","{""Q0"":""kate is being kissed by mike""}","<img src=""stim_listA/kiss2.gif""style=""height:400px;""></stim_listA>","is being kissed by","","","","","",""
"null","<div style=""font-size:60px;"">+</div>","","html-keyboard-response","376","1295552","0.0-19.0-0.8","48155","List1A","white","woman","","","","null","","","","","","","","",""
"null","<img src=""stim_listA/touch5.gif""style=""height:400px;""></stim_listA>","","html-keyboard-response","377","1297559","0.0-19.0-1.8","48155","List1A","white","woman","","","","null","","","","","","","","",""
"null","is touching","","html-keyboard-response","378","1299566","0.0-19.0-2.8","48155","List1A","white","woman","","","","null","","","","","","","","",""
"4049.89999999851","","","survey-text","379","1303622","0.0-19.0-3.8","48155","List1A","white","woman","","","","","{""Q0"":""mike is touching dave""}","<img src=""stim_listA/touch5.gif""style=""height:400px;""></stim_listA>","is touching","","","","","",""
"null","<div style=""font-size:60px;"">+</div>","","html-keyboard-response","380","1304126","0.0-19.0-0.9","48155","List1A","white","woman","","","","null","","","","","","","","",""
"null","<img src=""stim_listA/seduce7.gif""style=""height:400px;""></stim_listA>","","html-keyboard-response","381","1306133","0.0-19.0-1.9","48155","List1A","white","woman","","","","null","","","","","","","","",""
"null","is seducing","","html-keyboard-response","382","1308139","0.0-19.0-2.9","48155","List1A","white","woman","","","","null","","","","","","","","",""
"4126.89999999851","","","survey-text","383","1312272","0.0-19.0-3.9","48155","List1A","white","woman","","","","","{""Q0"":""beth is seducing jane""}","<img src=""stim_listA/seduce7.gif""style=""height:400px;""></stim_listA>","is seducing","","","","","",""
"null","<div style=""font-size:60px;"">+</div>","","html-keyboard-response","384","1312776","0.0-19.0-0.10","48155","List1A","white","woman","","","","null","","","","","","","","",""
"null","<img src=""stim_listA/seduce2.gif""style=""height:400px;""></stim_listA>","","html-keyboard-response","385","1314783","0.0-19.0-1.10","48155","List1A","white","woman","","","","null","","","","","","","","",""
"null","is being seduced by","","html-keyboard-response","386","1316790","0.0-19.0-2.10","48155","List1A","white","woman","","","","null","","","","","","","","",""
"8908.599999999627","","","survey-text","387","1325707","0.0-19.0-3.10","48155","List1A","white","woman","","","","","{""Q0"":""beth is being seduced by mike""}","<img src=""stim_listA/seduce2.gif""style=""height:400px;""></stim_listA>","is being seduced by","","","","","",""
"null","<div style=""font-size:60px;"">+</div>","","html-keyboard-response","388","1326210","0.0-19.0-0.11","48155","List1A","white","woman","","","","null","","","","","","","","",""
"null","<img src=""stim_listA/kiss5.gif""style=""height:400px;""></stim_listA>","","html-keyboard-response","389","1328213","0.0-19.0-1.11","48155","List1A","white","woman","","","","null","","","","","","","","",""
"null","is kissing","","html-keyboard-response","390","1330216","0.0-19.0-2.11","48155","List1A","white","woman","","","","null","","","","","","","","",""
"7486.200000001118","","","survey-text","391","1337708","0.0-19.0-3.11","48155","List1A","white","woman","","","","","{""Q0"":""fred is kissing luke""}","<img src=""stim_listA/kiss5.gif""style=""height:400px;""></stim_listA>","is kissing","","","","","",""
"null","<div style=""font-size:60px;"">+</div>","","html-keyboard-response","392","1338211","0.0-19.0-0.12","48155","List1A","white","woman","","","","null","","","","","","","","",""
"null","<img src=""stim_listA/touch8.gif""style=""height:400px;""></stim_listA>","","html-keyboard-response","393","1340218","0.0-19.0-1.12","48155","List1A","white","woman","","","","null","","","","","","","","",""
"null","is being touched by","","html-keyboard-response","394","1342225","0.0-19.0-2.12","48155","List1A","white","woman","","","","null","","","","","","","","",""
"4943.199999999255","","","survey-text","395","1347175","0.0-19.0-3.12","48155","List1A","white","woman","","","","","{""Q0"":""ruth is being touched by beth""}","<img src=""stim_listA/touch8.gif""style=""height:400px;""></stim_listA>","is being touched by","","","","","",""
"null","<div style=""font-size:60px;"">+</div>","","html-keyboard-response","396","1347678","0.0-19.0-0.13","48155","List1A","white","woman","","","","null","","","","","","","","",""
"null","<img src=""stim_listA/oppose3.gif""style=""height:400px;""></stim_listA>","","html-keyboard-response","397","1349686","0.0-19.0-1.13","48155","List1A","white","woman","","","","null","","","","","","","","",""
"null","is opposing","","html-keyboard-response","398","1351689","0.0-19.0-2.13","48155","List1A","white","woman","","","","null","","","","","","","","",""
"4947.0999999996275","","","survey-text","399","1356642","0.0-19.0-3.13","48155","List1A","white","woman","","","","","{""Q0"":""dave is opposing jane""}","<img src=""stim_listA/oppose3.gif""style=""height:400px;""></stim_listA>","is opposing","","","","","",""
"null","<div style=""font-size:60px;"">+</div>","","html-keyboard-response","400","1357146","0.0-19.0-0.14","48155","List1A","white","woman","","","","null","","","","","","","","",""
"null","<img src=""stim_listA/hug8.gif""style=""height:400px;""></stim_listA>","","html-keyboard-response","401","1359153","0.0-19.0-1.14","48155","List1A","white","woman","","","","null","","","","","","","","",""
"null","is being hugged by","","html-keyboard-response","402","1361159","0.0-19.0-2.14","48155","List1A","white","woman","","","","null","","","","","","","","",""
"5088","","","survey-text","403","1366253","0.0-19.0-3.14","48155","List1A","white","woman","","","","","{""Q0"":""jane is being hugged by kate""}","<img src=""stim_listA/hug8.gif""style=""height:400px;""></stim_listA>","is being hugged by","","","","","",""
"null","<div style=""font-size:60px;"">+</div>","","html-keyboard-response","404","1366757","0.0-19.0-0.15","48155","List1A","white","woman","","","","null","","","","","","","","",""
"null","<img src=""stim_listA/hug1.gif""style=""height:400px;""></stim_listA>","","html-keyboard-response","405","1368764","0.0-19.0-1.15","48155","List1A","white","woman","","","","null","","","","","","","","",""
"null","is hugging","","html-keyboard-response","406","1370771","0.0-19.0-2.15","48155","List1A","white","woman","","","","null","","","","","","","","",""
"5349.199999999255","","","survey-text","407","1376126","0.0-19.0-3.15","48155","List1A","white","woman","","","","","{""Q0"":""fred is hugging beth""}","<img src=""stim_listA/hug1.gif""style=""height:400px;""></stim_listA>","is hugging","","","","","",""
"null","<div style=""font-size:60px;"">+</div>","","html-keyboard-response","408","1376630","0.0-19.0-0.16","48155","List1A","white","woman","","","","null","","","","","","","","",""
"null","<img src=""stim_listA/challenge5.gif""style=""height:400px;""></stim_listA>","","html-keyboard-response","409","1378638","0.0-19.0-1.16","48155","List1A","white","woman","","","","null","","","","","","","","",""
"null","is challenging","","html-keyboard-response","410","1380644","0.0-19.0-2.16","48155","List1A","white","woman","","","","null","","","","","","","","",""
"6039.299999998882","","","survey-text","411","1386690","0.0-19.0-3.16","48155","List1A","white","woman","","","","","{""Q0"":""mike is challenging luke""}","<img src=""stim_listA/challenge5.gif""style=""height:400px;""></stim_listA>","is challenging","","","","","",""
"null","<div style=""font-size:60px;"">+</div>","","html-keyboard-response","412","1387194","0.0-19.0-0.17","48155","List1A","white","woman","","","","null","","","","","","","","",""
"null","<img src=""stim_listA/shout2.gif""style=""height:400px;""></stim_listA>","","html-keyboard-response","413","1389200","0.0-19.0-1.17","48155","List1A","white","woman","","","","null","","","","","","","","",""
"null","is being shouted at by","","html-keyboard-response","414","1391201","0.0-19.0-2.17","48155","List1A","white","woman","","","","null","","","","","","","","",""
"5984.4000000003725","","","survey-text","415","1397192","0.0-19.0-3.17","48155","List1A","white","woman","","","","","{""Q0"":""kate is being shouted at by mike""}","<img src=""stim_listA/shout2.gif""style=""height:400px;""></stim_listA>","is being shouted at by","","","","","",""
"null","<div style=""font-size:60px;"">+</div>","","html-keyboard-response","416","1397696","0.0-19.0-0.18","48155","List1A","white","woman","","","","null","","","","","","","","",""
"null","<img src=""stim_listA/greet6.gif""style=""height:400px;""></stim_listA>","","html-keyboard-response","417","1399700","0.0-19.0-1.18","48155","List1A","white","woman","","","","null","","","","","","","","",""
"null","is being greeted by","","html-keyboard-response","418","1401706","0.0-19.0-2.18","48155","List1A","white","woman","","","","null","","","","","","","","",""
"6584.199999999255","","","survey-text","419","1408296","0.0-19.0-3.18","48155","List1A","white","woman","","","","","{""Q0"":""dave is being greeted by fred""}","<img src=""stim_listA/greet6.gif""style=""height:400px;""></stim_listA>","is being greeted by","","","","","",""
"null","<div style=""font-size:60px;"">+</div>","","html-keyboard-response","420","1408800","0.0-19.0-0.19","48155","List1A","white","woman","","","","null","","","","","","","","",""
"null","<img src=""stim_listA/touch1.gif""style=""height:400px;""></stim_listA>","","html-keyboard-response","421","1410804","0.0-19.0-1.19","48155","List1A","white","woman","","","","null","","","","","","","","",""
"null","is touching","","html-keyboard-response","422","1412806","0.0-19.0-2.19","48155","List1A","white","woman","","","","null","","","","","","","","",""
"3947.5","","","survey-text","423","1416759","0.0-19.0-3.19","48155","List1A","white","woman","","","","","{""Q0"":""mike is touching kate""}","<img src=""stim_listA/touch1.gif""style=""height:400px;""></stim_listA>","is touching","","","","","",""
"2640.699999999255","<p>Thank you for completing that task.</p><p>The final part of this session is a questionnaire that will take about 4 minutes.</p><p>Press Continue.</p>","0","html-button-response","424","1419401","0.0-20.0","48155","List1A","white","woman","","","","","","","","","","","","",""
"30307.89999999851","","","survey-text","425","1450725","0.0-21.0","48155","List1A","white","woman","","","","","{""Q0"":""22"",""Q1"":""english"",""Q2"":""english"",""Q3"":""USA"",""Q4"":""american"",""Q5"":""white"",""Q6"":""female""}","","","demographics","","","","",""
"8393.200000001118","<p>Have you lived in the USA for the last 5 years or more?</p>","1","html-button-response","426","1459128","0.0-22.0","48155","List1A","white","woman","","","","","","","","fiveyears","","","","",""
"2040.5999999996275","<p>Move the slider to show the extent to which you agree with the following statements.</p>","0","html-button-response","427","1462174","0.0-23.0","48155","List1A","white","woman","","","","","","","","","","","","",""
"5613.300000000745","","","html-slider-response","428","1468809","0.0-24.0-0.0-0.0","48155","List1A","white","woman","","","","","","","","survey_race","74","","","I consider myself an introvert.","filler"
"11181.5","","","html-slider-response","429","1479997","0.0-24.0-0.0-0.1","48155","List1A","white","woman","","","","","","","","survey_race","68","","","It is pleasant to be my race.","pleasant"
"8232","","","html-slider-response","430","1488234","0.0-24.0-0.0-0.2","48155","List1A","white","woman","","","","","","","","survey_race","5","","","I think that my race has a lot to be proud of.","proud"
"5246.5","","","html-slider-response","431","1493485","0.0-24.0-0.0-0.3","48155","List1A","white","woman","","","","","","","","survey_race","60","","","People my age have a lot in common with each other.","filler"
"5697.5999999996275","","","html-slider-response","432","1499185","0.0-24.0-0.0-0.4","48155","List1A","white","woman","","","","","","","","survey_race","55","","","I have a lot in common with the average person of my race.","average"
"2869.5","","","html-slider-response","433","1502058","0.0-24.0-0.0-0.5","48155","List1A","white","woman","","","","","","","","survey_race","61","","","People of my race have a lot in common with each other.","common"
"8275","","","html-slider-response","434","1510336","0.0-24.0-0.0-0.6","48155","List1A","white","woman","","","","","","","","survey_race","50","","","I feel a bond with my race.","bond"
"9173.5","","","html-slider-response","435","1519512","0.0-24.0-0.0-0.7","48155","List1A","white","woman","","","","","","","","survey_race","30","","","The fact that I am my race is an important part of my identity.","identity"
"3053","","","html-slider-response","436","1522568","0.0-24.0-0.0-0.8","48155","List1A","white","woman","","","","","","","","survey_race","63","","","Being my age gives me a good feeling.","filler"
"3422.5999999996275","","","html-slider-response","437","1525993","0.0-24.0-0.0-0.9","48155","List1A","white","woman","","","","","","","","survey_race","45","","","I have a lot in common with people of a similar age to me.","filler"
"3810.4000000003725","","","html-slider-response","438","1529806","0.0-24.0-0.0-0.10","48155","List1A","white","woman","","","","","","","","survey_race","98","","","Getting older does not worry me.","filler"
"2797.0999999996275","","","html-slider-response","439","1532605","0.0-24.0-0.0-0.11","48155","List1A","white","woman","","","","","","","","survey_race","27","","","I enjoy being in large groups.","filler"
"2501.7999999988824","","","html-slider-response","440","1535109","0.0-24.0-0.0-0.12","48155","List1A","white","woman","","","","","","","","survey_race","64","","","I am glad to be my age.","filler"
"2970.5999999996275","","","html-slider-response","441","1538081","0.0-24.0-0.0-0.13","48155","List1A","white","woman","","","","","","","","survey_race","18","","","Being my race gives me a good feeling.","feeling"
"2428.0999999996275","","","html-slider-response","442","1540512","0.0-24.0-0.0-0.14","48155","List1A","white","woman","","","","","","","","survey_race","28","","","I feel solidarity with my race.","solidarity"
"4239.4000000003725","","","html-slider-response","443","1544753","0.0-24.0-0.0-0.15","48155","List1A","white","woman","","","","","","","","survey_race","96","","","The older I get, the wiser I feel.","filler"
"3935","","","html-slider-response","444","1548691","0.0-24.0-0.0-0.16","48155","List1A","white","woman","","","","","","","","survey_race","65","","","People of my race are very similar to each other.","verysimilar"
"2890.2000000011176","","","html-slider-response","445","1551583","0.0-24.0-0.0-0.17","48155","List1A","white","woman","","","","","","","","survey_race","55","","","I feel solidarity with people the same age as me.","filler"
"4291.699999999255","","","html-slider-response","446","1555877","0.0-24.0-0.0-0.18","48155","List1A","white","woman","","","","","","","","survey_race","52","","","I feel a bond with people the same age as me.","filler"
"6300.5999999996275","","","html-slider-response","447","1562180","0.0-24.0-0.0-0.19","48155","List1A","white","woman","","","","","","","","survey_race","45","","","I am similar to the average person of my race.","similar"
"5096.0999999996275","","","html-slider-response","448","1567285","0.0-24.0-0.0-0.20","48155","List1A","white","woman","","","","","","","","survey_race","35","","","I feel committed to my race.","committed"
"2903.2000000011176","","","html-slider-response","449","1570191","0.0-24.0-0.0-0.21","48155","List1A","white","woman","","","","","","","","survey_race","24","","","I consider myself an extrovert.","filler"
"3694.9000000003725","","","html-slider-response","450","1573888","0.0-24.0-0.0-0.22","48155","List1A","white","woman","","","","","","","","survey_race","74","","","I often think about the fact that I am my race.","often"
"2674","","","html-slider-response","451","1576564","0.0-24.0-0.0-0.23","48155","List1A","white","woman","","","","","","","","survey_race","79","","","I often think about the fact that I am my age.","filler"
"7255.4000000003725","","","html-slider-response","452","1583822","0.0-24.0-0.0-0.24","48155","List1A","white","woman","","","","","","","","survey_race","74","","","I am glad to be the age I am.","filler"
"9539.599999999627","","","html-slider-response","453","1593364","0.0-24.0-0.0-0.25","48155","List1A","white","woman","","","","","","","","survey_race","72","","","My age is not an important part of who I am.","filler"
"4426.699999999255","","","html-slider-response","454","1597793","0.0-24.0-0.0-0.26","48155","List1A","white","woman","","","","","","","","survey_race","27","","","Being my race is an important part of how I see myself.","important"
"4176.5","","","html-slider-response","455","1601972","0.0-24.0-0.0-0.27","48155","List1A","white","woman","","","","","","","","survey_race","46","","","I am glad to be my race.","glad"
"7535.700000001118","","","html-slider-response","456","1609510","0.0-24.0-1.0-0.0","48155","List1A","white","woman","","","","","","","","survey_gender","15","","","Family is not more important to me than friendship.","filler"
"6152","","","html-slider-response","457","1615665","0.0-24.0-1.0-0.1","48155","List1A","white","woman","","","","","","","","survey_gender","100","","","Being my gender is an important part of how I see myself.","important"
"6370.5999999996275","","","html-slider-response","458","1622038","0.0-24.0-1.0-0.2","48155","List1A","white","woman","","","","","","","","survey_gender","94","","","It is not always easy for people to know what I am thinking.","filler"
"3881.0999999996275","","","html-slider-response","459","1625921","0.0-24.0-1.0-0.3","48155","List1A","white","woman","","","","","","","","survey_gender","12","","","Routine is not important to me.","filler"
"2575.2999999988824","","","html-slider-response","460","1628499","0.0-24.0-1.0-0.4","48155","List1A","white","woman","","","","","","","","survey_gender","82","","","Being around my friends gives me a good feeling.","filler"
"3611.699999999255","","","html-slider-response","461","1632113","0.0-24.0-1.0-0.5","48155","List1A","white","woman","","","","","","","","survey_gender","100","","","I would say I am an animal person.","filler"
"3529.5","","","html-slider-response","462","1635646","0.0-24.0-1.0-0.6","48155","List1A","white","woman","","","","","","","","survey_gender","93","","","The fact that I am my gender is an important part of my identity.","identity"
"3253.300000000745","","","html-slider-response","463","1638901","0.0-24.0-1.0-0.7","48155","List1A","white","woman","","","","","","","","survey_gender","100","","","I consider myself a highly empathetic person.","filler"
"5008.4000000003725","","","html-slider-response","464","1643911","0.0-24.0-1.0-0.8","48155","List1A","white","woman","","","","","","","","survey_gender","65","","","My friends understand me.","filler"
"14905.300000000745","","","html-slider-response","465","1658819","0.0-24.0-1.0-0.9","48155","List1A","white","woman","","","","","","","","survey_gender","75","","","Being my gender gives me a good feeling.","feeling"
"5049.299999998882","","","html-slider-response","466","1663871","0.0-24.0-1.0-0.10","48155","List1A","white","woman","","","","","","","","survey_gender","91","","","I feel a bond with my friends.","filler"
"5128.5","","","html-slider-response","467","1669002","0.0-24.0-1.0-0.11","48155","List1A","white","woman","","","","","","","","survey_gender","79","","","People of my gender are very similar to each other.","verysimilar"
"3437.5999999996275","","","html-slider-response","468","1672442","0.0-24.0-1.0-0.12","48155","List1A","white","woman","","","","","","","","survey_gender","81","","","I have a lot in common with the average person of my gender.","average"
"2972.699999999255","","","html-slider-response","469","1675417","0.0-24.0-1.0-0.13","48155","List1A","white","woman","","","","","","","","survey_gender","99","","","I often think about my actions.","filler"
"2866.9000000003725","","","html-slider-response","470","1678286","0.0-24.0-1.0-0.14","48155","List1A","white","woman","","","","","","","","survey_gender","100","","","I feel committed to my gender.","committed"
"2813","","","html-slider-response","471","1681101","0.0-24.0-1.0-0.15","48155","List1A","white","woman","","","","","","","","survey_gender","86","","","I often think about the fact that I am my gender.","often"
"3388.7999999988824","","","html-slider-response","472","1684492","0.0-24.0-1.0-0.16","48155","List1A","white","woman","","","","","","","","survey_gender","99","","","I feel a bond with my gender.","bond"
"2478.39999999851","","","html-slider-response","473","1686972","0.0-24.0-1.0-0.17","48155","List1A","white","woman","","","","","","","","survey_gender","98","","","I am glad to be my gender.","glad"
"4462.800000000745","","","html-slider-response","474","1691438","0.0-24.0-1.0-0.18","48155","List1A","white","woman","","","","","","","","survey_gender","54","","","Most of the friends in my life are very similar to me.","filler"
"3507.4000000003725","","","html-slider-response","475","1694947","0.0-24.0-1.0-0.19","48155","List1A","white","woman","","","","","","","","survey_gender","67","","","My friends have a lot in common with each other.","filler"
