"rt","stimulus","button_pressed","trial_type","trial_index","time_elapsed","internal_node_id","subject","list","ppt_race","ppt_gender","url","first_guess","correct","key_press","responses","image_type","phrase_type","test_part","response","stimulus1","stimulus2","question_type","survey_item"
"4429.9449999962235","Welcome to the experiment. Press Continue to begin.","0","html-button-response","0","4433","0.0-0.0","48415","List1B","black","man","","","","","","","","","","","","",""
"35982.88499999035","","","external-html","1","41824","0.0-1.0","48415","List1B","black","man","consent.html","","","","","","","","","","","",""
"14009.009999994305","<p>On the next page, you will see portraits of 8 people and their names.</p><p>Your first task is to take a few minutes to memorise the names of these people.</p><p>You will have to recall their names during the rest of the experiment, so it is</p><p>essential that you try to memorise these people and their names as best as you can.</p><br><p><strong>You will then be tested on your memory of these names and portraits.</strong></p><br><p>The experiment will start after you have completed this memory test.</p><br><p>Ready?</p>","0","html-button-response","2","55834","0.0-2.0","48415","List1B","black","man","","","","","","","","","","","","",""
"87142.55999999295","<img src='img/portrait_matrix_list1.jpg' style='width:900px;height:500px;''></img><p>If you have memorised all the portraits and names and are ready to start, press Continue.</p><p><strong>Please note: Your memory of these faces will be tested 4 times during this experiment.</strong></p>","0","html-button-response","3","143974","0.0-3.0-0.0","48415","List1B","black","man","","","","","","","","","","","","",""
"7882.754999998724","<img src=""portrait/WM2.jpg""style=""height:400px;""></img>","7","html-button-response","4","152864","0.0-3.0-1.0","48415","List1B","black","man","","true","7","","","","","","","","","",""
"null","CORRECT","","html-keyboard-response","5","154376","0.0-3.0-2.0-0.0","48415","List1B","black","man","","","","null","","","","","","","","",""
"6178.055000011227","<img src=""portrait/WW1.jpg""style=""height:400px;""></img>","1","html-button-response","6","160556","0.0-3.0-4.0","48415","List1B","black","man","","true","1","","","","","","","","","",""
"null","CORRECT","","html-keyboard-response","7","162069","0.0-3.0-5.0-0.0","48415","List1B","black","man","","","","null","","","","","","","","",""
"3427.300000010291","<img src=""portrait/WM1.jpg""style=""height:400px;""></img>","6","html-button-response","8","165497","0.0-3.0-7.0","48415","List1B","black","man","","true","6","","","","","","","","","",""
"null","CORRECT","","html-keyboard-response","9","167007","0.0-3.0-8.0-0.0","48415","List1B","black","man","","","","null","","","","","","","","",""
"5551.324999993085","<img src=""portrait/BW2.jpg""style=""height:400px;""></img>","2","html-button-response","10","172559","0.0-3.0-10.0","48415","List1B","black","man","","true","2","","","","","","","","","",""
"null","CORRECT","","html-keyboard-response","11","174067","0.0-3.0-11.0-0.0","48415","List1B","black","man","","","","null","","","","","","","","",""
"9603.90999999072","<img src=""portrait/BM1.jpg""style=""height:400px;""></img>","4","html-button-response","12","183672","0.0-3.0-13.0","48415","List1B","black","man","","true","4","","","","","","","","","",""
"null","CORRECT","","html-keyboard-response","13","185178","0.0-3.0-14.0-0.0","48415","List1B","black","man","","","","null","","","","","","","","",""
"6830.094999997527","<img src=""portrait/BM2.jpg""style=""height:400px;""></img>","5","html-button-response","14","192010","0.0-3.0-16.0","48415","List1B","black","man","","true","5","","","","","","","","","",""
"null","CORRECT","","html-keyboard-response","15","193516","0.0-3.0-17.0-0.0","48415","List1B","black","man","","","","null","","","","","","","","",""
"3866.519999995944","<img src=""portrait/WW2.jpg""style=""height:400px;""></img>","3","html-button-response","16","197384","0.0-3.0-19.0","48415","List1B","black","man","","true","3","","","","","","","","","",""
"null","CORRECT","","html-keyboard-response","17","198895","0.0-3.0-20.0-0.0","48415","List1B","black","man","","","","null","","","","","","","","",""
"13380.074999993667","<img src=""portrait/BW1.jpg""style=""height:400px;""></img>","0","html-button-response","18","212276","0.0-3.0-22.0","48415","List1B","black","man","","true","0","","","","","","","","","",""
"null","CORRECT","","html-keyboard-response","19","213787","0.0-3.0-23.0-0.0","48415","List1B","black","man","","","","null","","","","","","","","",""
"2314.1299999988405","<p>You got 8 out of 8 right first time. Press Continue.</p>","0","html-button-response","20","216103","0.0-3.0-25.0","48415","List1B","black","man","","","","","","","","","","","","",""
"42028.23999999964","<p>In this experiment, you will view photographs of the people from the memory game interacting.</p><p>By using the <strong>exact</strong> phrase given <i>after</i> the photograph appears and recalling the correct names of the people in the photographs, form a sentence describing the interaction. You do not need to capitalise names.</p><p>Type your answer in the space provided. Please complete every sentence before moving onto the next trial.</p><p>You will only have a few seconds to memorise each given photograph and phrase before you can respond, so try your best to focus.</p><p>An example is given below. Press 'Continue' when you are ready.</p><img src='img/speaking_example.jpg' style='width:800px;height:460px;''></img>","0","html-button-response","21","259134","0.0-4.0","48415","List1B","black","man","","","","","","","","","","","","",""
"5452.5549999962095","<p>Before the experiment starts, you will watch two example trials. Press 'Continue'.</p>","0","html-button-response","22","265589","0.0-5.0","48415","List1B","black","man","","","","","","","","","","","","",""
"null","<img src='img/play_eg.gif' style='height:400px;''></img>","","html-keyboard-response","23","268592","0.0-6.0","48415","List1B","black","man","","","","null","","","","","","","","",""
"null","<p>is playing with</p>","","html-keyboard-response","24","270593","0.0-7.0","48415","List1B","black","man","","","","null","","","","","","","","",""
"8936.700000005658","<p><b>Answer:</b> kate is playing with beth</p>","0","html-button-response","25","279530","0.0-8.0","48415","List1B","black","man","","","","","","","","","","","","",""
"null","<img src='img/dance_eg.gif' style='height:400px;''></img>","","html-keyboard-response","26","282542","0.0-9.0","48415","List1B","black","man","","","","null","","","","","","","","",""
"null","<p>is being entertained by</p>","","html-keyboard-response","27","284544","0.0-10.0","48415","List1B","black","man","","","","null","","","","","","","","",""
"3103.7349999969592","<p><b>Answer:</b> luke is being entertained by dave</p>","0","html-button-response","28","287649","0.0-11.0","48415","List1B","black","man","","","","","","","","","","","","",""
"2090.8049999998184","<p>Ready to start the experiment?</p><br><p><strong>Remember to describe the picture using a full sentence,</strong></p><p><strong>that combines the names of the people with the <i>exact</i> phrase given.</strong></p><p><strong>To receive full payment you must do this correctly.</strong></p><p><strong> You do not need to capitalise names or use punctuation.</strong></p><br><p>Press 'Continue' to begin.</p>","0","html-button-response","29","290746","0.0-12.0","48415","List1B","black","man","","","","","","","","","","","","",""
"null","<div style=""font-size:60px;"">+</div>","","html-keyboard-response","30","292253","0.0-13.0-0.0","48415","List1B","black","man","","","","null","","","","","","","","",""
"null","<img src=""stim_listB/copy3.gif""style=""height:400px;""></stim_listB>","","html-keyboard-response","31","294255","0.0-13.0-1.0","48415","List1B","black","man","","","","null","","","","","","","","",""
"null","is copying","","html-keyboard-response","32","296256","0.0-13.0-2.0","48415","List1B","black","man","","","","null","","","","","","","","",""
"21086.705000008806","","","survey-text","33","317346","0.0-13.0-3.0","48415","List1B","black","man","","","","","{""Q0"":""Dave and Jane are having fun.""}","<img src=""stim_listB/copy3.gif""style=""height:400px;""></stim_listB>","is copying","","","","","",""
"null","<div style=""font-size:60px;"">+</div>","","html-keyboard-response","34","317853","0.0-13.0-0.1","48415","List1B","black","man","","","","null","","","","","","","","",""
"null","<img src=""stim_listB/shout6.gif""style=""height:400px;""></stim_listB>","","html-keyboard-response","35","319858","0.0-13.0-1.1","48415","List1B","black","man","","","","null","","","","","","","","",""
"null","is being shouted at by","","html-keyboard-response","36","321864","0.0-13.0-2.1","48415","List1B","black","man","","","","null","","","","","","","","",""
"18430.690000008326","","","survey-text","37","340297","0.0-13.0-3.1","48415","List1B","black","man","","","","","{""Q0"":""Dave and Mike are arguing .""}","<img src=""stim_listB/shout6.gif""style=""height:400px;""></stim_listB>","is being shouted at by","","","","","",""
"null","<div style=""font-size:60px;"">+</div>","","html-keyboard-response","38","340803","0.0-13.0-0.2","48415","List1B","black","man","","","","null","","","","","","","","",""
"null","<img src=""stim_listB/touch7.gif""style=""height:400px;""></stim_listB>","","html-keyboard-response","39","342808","0.0-13.0-1.2","48415","List1B","black","man","","","","null","","","","","","","","",""
"null","is touching","","html-keyboard-response","40","344813","0.0-13.0-2.2","48415","List1B","black","man","","","","null","","","","","","","","",""
"22183.069999999134","","","survey-text","41","366997","0.0-13.0-3.2","48415","List1B","black","man","","","","","{""Q0"":""Kate and Jane are touching.""}","<img src=""stim_listB/touch7.gif""style=""height:400px;""></stim_listB>","is touching","","","","","",""
"null","<div style=""font-size:60px;"">+</div>","","html-keyboard-response","42","367501","0.0-13.0-0.3","48415","List1B","black","man","","","","null","","","","","","","","",""
"null","<img src=""stim_listB/touch1.gif""style=""height:400px;""></stim_listB>","","html-keyboard-response","43","369506","0.0-13.0-1.3","48415","List1B","black","man","","","","null","","","","","","","","",""
"null","is touching","","html-keyboard-response","44","371508","0.0-13.0-2.3","48415","List1B","black","man","","","","null","","","","","","","","",""
"20576.149999993504","","","survey-text","45","392085","0.0-13.0-3.3","48415","List1B","black","man","","","","","{""Q0"":""Kate and MIke is touching.""}","<img src=""stim_listB/touch1.gif""style=""height:400px;""></stim_listB>","is touching","","","","","",""
"null","<div style=""font-size:60px;"">+</div>","","html-keyboard-response","46","392587","0.0-13.0-0.4","48415","List1B","black","man","","","","null","","","","","","","","",""
"null","<img src=""stim_listB/greet6.gif""style=""height:400px;""></stim_listB>","","html-keyboard-response","47","394594","0.0-13.0-1.4","48415","List1B","black","man","","","","null","","","","","","","","",""
"null","is being greeted by","","html-keyboard-response","48","396598","0.0-13.0-2.4","48415","List1B","black","man","","","","null","","","","","","","","",""
"26881.72499999928","","","survey-text","49","423481","0.0-13.0-3.4","48415","List1B","black","man","","","","","{""Q0"":""Kate and Mike is Touching.""}","<img src=""stim_listB/greet6.gif""style=""height:400px;""></stim_listB>","is being greeted by","","","","","",""
"null","<div style=""font-size:60px;"">+</div>","","html-keyboard-response","50","423985","0.0-13.0-0.5","48415","List1B","black","man","","","","null","","","","","","","","",""
"null","<img src=""stim_listB/greet4.gif""style=""height:400px;""></stim_listB>","","html-keyboard-response","51","425991","0.0-13.0-1.5","48415","List1B","black","man","","","","null","","","","","","","","",""
"null","is being greeted by","","html-keyboard-response","52","427996","0.0-13.0-2.5","48415","List1B","black","man","","","","null","","","","","","","","",""
"20443.020000006072","","","survey-text","53","448441","0.0-13.0-3.5","48415","List1B","black","man","","","","","{""Q0"":""Jane is being greeted by Luke.""}","<img src=""stim_listB/greet4.gif""style=""height:400px;""></stim_listB>","is being greeted by","","","","","",""
"null","<div style=""font-size:60px;"">+</div>","","html-keyboard-response","54","448945","0.0-13.0-0.6","48415","List1B","black","man","","","","null","","","","","","","","",""
"null","<img src=""stim_listB/seduce2.gif""style=""height:400px;""></stim_listB>","","html-keyboard-response","55","450951","0.0-13.0-1.6","48415","List1B","black","man","","","","null","","","","","","","","",""
"null","is being seduced by","","html-keyboard-response","56","452952","0.0-13.0-2.6","48415","List1B","black","man","","","","null","","","","","","","","",""
"18368.499999996857","","","survey-text","57","471322","0.0-13.0-3.6","48415","List1B","black","man","","","","","{""Q0"":""Mike is being seduced by Beth.""}","<img src=""stim_listB/seduce2.gif""style=""height:400px;""></stim_listB>","is being seduced by","","","","","",""
"null","<div style=""font-size:60px;"">+</div>","","html-keyboard-response","58","471824","0.0-13.0-0.7","48415","List1B","black","man","","","","null","","","","","","","","",""
"null","<img src=""stim_listB/touch2.gif""style=""height:400px;""></stim_listB>","","html-keyboard-response","59","473830","0.0-13.0-1.7","48415","List1B","black","man","","","","null","","","","","","","","",""
"null","is being touched by","","html-keyboard-response","60","475833","0.0-13.0-2.7","48415","List1B","black","man","","","","null","","","","","","","","",""
"27132.23499999731","","","survey-text","61","502966","0.0-13.0-3.7","48415","List1B","black","man","","","","","{""Q0"":""Beth is being touched by Dave.""}","<img src=""stim_listB/touch2.gif""style=""height:400px;""></stim_listB>","is being touched by","","","","","",""
"null","<div style=""font-size:60px;"">+</div>","","html-keyboard-response","62","503470","0.0-13.0-0.8","48415","List1B","black","man","","","","null","","","","","","","","",""
"null","<img src=""stim_listB/copy2.gif""style=""height:400px;""></stim_listB>","","html-keyboard-response","63","505476","0.0-13.0-1.8","48415","List1B","black","man","","","","null","","","","","","","","",""
"null","is being copied by","","html-keyboard-response","64","507481","0.0-13.0-2.8","48415","List1B","black","man","","","","null","","","","","","","","",""
"22958.565000008093","","","survey-text","65","530441","0.0-13.0-3.8","48415","List1B","black","man","","","","","{""Q0"":""Dave is being copied by Kate.""}","<img src=""stim_listB/copy2.gif""style=""height:400px;""></stim_listB>","is being copied by","","","","","",""
"null","<div style=""font-size:60px;"">+</div>","","html-keyboard-response","66","530945","0.0-13.0-0.9","48415","List1B","black","man","","","","null","","","","","","","","",""
"null","<img src=""stim_listB/challenge1.gif""style=""height:400px;""></stim_listB>","","html-keyboard-response","67","532954","0.0-13.0-1.9","48415","List1B","black","man","","","","null","","","","","","","","",""
"null","is challenging","","html-keyboard-response","68","534959","0.0-13.0-2.9","48415","List1B","black","man","","","","null","","","","","","","","",""
"12747.325000003912","","","survey-text","69","547708","0.0-13.0-3.9","48415","List1B","black","man","","","","","{""Q0"":""Mike is challenging Kate.""}","<img src=""stim_listB/challenge1.gif""style=""height:400px;""></stim_listB>","is challenging","","","","","",""
"null","<div style=""font-size:60px;"">+</div>","","html-keyboard-response","70","548212","0.0-13.0-0.10","48415","List1B","black","man","","","","null","","","","","","","","",""
"null","<img src=""stim_listB/seduce4.gif""style=""height:400px;""></stim_listB>","","html-keyboard-response","71","550215","0.0-13.0-1.10","48415","List1B","black","man","","","","null","","","","","","","","",""
"null","is being seduced by","","html-keyboard-response","72","552220","0.0-13.0-2.10","48415","List1B","black","man","","","","null","","","","","","","","",""
"11273.240000009537","","","survey-text","73","563496","0.0-13.0-3.10","48415","List1B","black","man","","","","","{""Q0"":""Ruth likes Dave.""}","<img src=""stim_listB/seduce4.gif""style=""height:400px;""></stim_listB>","is being seduced by","","","","","",""
"null","<div style=""font-size:60px;"">+</div>","","html-keyboard-response","74","563998","0.0-13.0-0.11","48415","List1B","black","man","","","","null","","","","","","","","",""
"null","<img src=""stim_listB/hug1.gif""style=""height:400px;""></stim_listB>","","html-keyboard-response","75","566004","0.0-13.0-1.11","48415","List1B","black","man","","","","null","","","","","","","","",""
"null","is hugging","","html-keyboard-response","76","568009","0.0-13.0-2.11","48415","List1B","black","man","","","","null","","","","","","","","",""
"14601.34000000835","","","survey-text","77","582613","0.0-13.0-3.11","48415","List1B","black","man","","","","","{""Q0"":""Dave is Hugging Kate.""}","<img src=""stim_listB/hug1.gif""style=""height:400px;""></stim_listB>","is hugging","","","","","",""
"null","<div style=""font-size:60px;"">+</div>","","html-keyboard-response","78","583116","0.0-13.0-0.12","48415","List1B","black","man","","","","null","","","","","","","","",""
"null","<img src=""stim_listB/shout4.gif""style=""height:400px;""></stim_listB>","","html-keyboard-response","79","585118","0.0-13.0-1.12","48415","List1B","black","man","","","","null","","","","","","","","",""
"null","is being shouted at by","","html-keyboard-response","80","587118","0.0-13.0-2.12","48415","List1B","black","man","","","","null","","","","","","","","",""
"17508.815000008326","","","survey-text","81","604629","0.0-13.0-3.12","48415","List1B","black","man","","","","","{""Q0"":""dave.""}","<img src=""stim_listB/shout4.gif""style=""height:400px;""></stim_listB>","is being shouted at by","","","","","",""
"null","<div style=""font-size:60px;"">+</div>","","html-keyboard-response","82","605133","0.0-13.0-0.13","48415","List1B","black","man","","","","null","","","","","","","","",""
"null","<img src=""stim_listB/look6.gif""style=""height:400px;""></stim_listB>","","html-keyboard-response","83","607139","0.0-13.0-1.13","48415","List1B","black","man","","","","null","","","","","","","","",""
"null","is being looked at by","","html-keyboard-response","84","609142","0.0-13.0-2.13","48415","List1B","black","man","","","","null","","","","","","","","",""
"29344.375000000582","","","survey-text","85","638487","0.0-13.0-3.13","48415","List1B","black","man","","","","","{""Q0"":""Dave is being looked at by Mike.""}","<img src=""stim_listB/look6.gif""style=""height:400px;""></stim_listB>","is being looked at by","","","","","",""
"null","<div style=""font-size:60px;"">+</div>","","html-keyboard-response","86","638990","0.0-13.0-0.14","48415","List1B","black","man","","","","null","","","","","","","","",""
"null","<img src=""stim_listB/shout3.gif""style=""height:400px;""></stim_listB>","","html-keyboard-response","87","640996","0.0-13.0-1.14","48415","List1B","black","man","","","","null","","","","","","","","",""
"null","is shouting at","","html-keyboard-response","88","643001","0.0-13.0-2.14","48415","List1B","black","man","","","","null","","","","","","","","",""
"10565.170000001672","","","survey-text","89","653568","0.0-13.0-3.14","48415","List1B","black","man","","","","","{""Q0"":""Luke is mad at Ruth.""}","<img src=""stim_listB/shout3.gif""style=""height:400px;""></stim_listB>","is shouting at","","","","","",""
"null","<div style=""font-size:60px;"">+</div>","","html-keyboard-response","90","654072","0.0-13.0-0.15","48415","List1B","black","man","","","","null","","","","","","","","",""
"null","<img src=""stim_listB/kiss6.gif""style=""height:400px;""></stim_listB>","","html-keyboard-response","91","656078","0.0-13.0-1.15","48415","List1B","black","man","","","","null","","","","","","","","",""
"null","is being kissed by","","html-keyboard-response","92","658081","0.0-13.0-2.15","48415","List1B","black","man","","","","null","","","","","","","","",""
"18724.60499999579","","","survey-text","93","676808","0.0-13.0-3.15","48415","List1B","black","man","","","","","{""Q0"":""Dave is being kissed by Fred.""}","<img src=""stim_listB/kiss6.gif""style=""height:400px;""></stim_listB>","is being kissed by","","","","","",""
"null","<div style=""font-size:60px;"">+</div>","","html-keyboard-response","94","677312","0.0-13.0-0.16","48415","List1B","black","man","","","","null","","","","","","","","",""
"null","<img src=""stim_listB/greet7.gif""style=""height:400px;""></stim_listB>","","html-keyboard-response","95","679318","0.0-13.0-1.16","48415","List1B","black","man","","","","null","","","","","","","","",""
"null","is greeting","","html-keyboard-response","96","681321","0.0-13.0-2.16","48415","List1B","black","man","","","","null","","","","","","","","",""
"17535.0599999947","","","survey-text","97","698857","0.0-13.0-3.16","48415","List1B","black","man","","","","","{""Q0"":""Kate is greeting Jane.""}","<img src=""stim_listB/greet7.gif""style=""height:400px;""></stim_listB>","is greeting","","","","","",""
"null","<div style=""font-size:60px;"">+</div>","","html-keyboard-response","98","699359","0.0-13.0-0.17","48415","List1B","black","man","","","","null","","","","","","","","",""
"null","<img src=""stim_listB/look5.gif""style=""height:400px;""></stim_listB>","","html-keyboard-response","99","701361","0.0-13.0-1.17","48415","List1B","black","man","","","","null","","","","","","","","",""
"null","is looking at","","html-keyboard-response","100","703366","0.0-13.0-2.17","48415","List1B","black","man","","","","null","","","","","","","","",""
"18842.74999999616","","","survey-text","101","722211","0.0-13.0-3.17","48415","List1B","black","man","","","","","{""Q0"":""Fred is looking at Luke.""}","<img src=""stim_listB/look5.gif""style=""height:400px;""></stim_listB>","is looking at","","","","","",""
"null","<div style=""font-size:60px;"">+</div>","","html-keyboard-response","102","722715","0.0-13.0-0.18","48415","List1B","black","man","","","","null","","","","","","","","",""
"null","<img src=""stim_listB/greet8.gif""style=""height:400px;""></stim_listB>","","html-keyboard-response","103","724718","0.0-13.0-1.18","48415","List1B","black","man","","","","null","","","","","","","","",""
"null","is being greeted by","","html-keyboard-response","104","726723","0.0-13.0-2.18","48415","List1B","black","man","","","","null","","","","","","","","",""
"13992.175000006682","","","survey-text","105","740718","0.0-13.0-3.18","48415","List1B","black","man","","","","","{""Q0"":""Beth is being greeted by Jane.""}","<img src=""stim_listB/greet8.gif""style=""height:400px;""></stim_listB>","is being greeted by","","","","","",""
"null","<div style=""font-size:60px;"">+</div>","","html-keyboard-response","106","741219","0.0-13.0-0.19","48415","List1B","black","man","","","","null","","","","","","","","",""
"null","<img src=""stim_listB/challenge8.gif""style=""height:400px;""></stim_listB>","","html-keyboard-response","107","743226","0.0-13.0-1.19","48415","List1B","black","man","","","","null","","","","","","","","",""
"null","is being challenged by","","html-keyboard-response","108","745231","0.0-13.0-2.19","48415","List1B","black","man","","","","null","","","","","","","","",""
"17197.534999999334","","","survey-text","109","762430","0.0-13.0-3.19","48415","List1B","black","man","","","","","{""Q0"":""Beth is being challenged by Jane.""}","<img src=""stim_listB/challenge8.gif""style=""height:400px;""></stim_listB>","is being challenged by","","","","","",""
"27562.649999992573","<img src='img/portrait_matrix_list1.jpg' style='width:900px;height:500px;''></img><p>If you have memorised all the portraits and names and are ready to start, press Continue.</p><p><strong>Please note: Your memory of these faces will be tested 4 times during this experiment.</strong></p>","0","html-button-response","110","789993","0.0-14.0-0.0","48415","List1B","black","man","","","","","","","","","","","","",""
"14692.739999998594","<img src=""portrait/WW1.jpg""style=""height:400px;""></img>","1","html-button-response","111","805883","0.0-14.0-1.0","48415","List1B","black","man","","true","1","","","","","","","","","",""
"null","CORRECT","","html-keyboard-response","112","807390","0.0-14.0-2.0-0.0","48415","List1B","black","man","","","","null","","","","","","","","",""
"7028.275000004214","<img src=""portrait/WW2.jpg""style=""height:400px;""></img>","3","html-button-response","113","814420","0.0-14.0-4.0","48415","List1B","black","man","","true","3","","","","","","","","","",""
"null","CORRECT","","html-keyboard-response","114","815929","0.0-14.0-5.0-0.0","48415","List1B","black","man","","","","null","","","","","","","","",""
"9346.26500000013","<img src=""portrait/BW1.jpg""style=""height:400px;""></img>","0","html-button-response","115","825277","0.0-14.0-7.0","48415","List1B","black","man","","true","0","","","","","","","","","",""
"null","CORRECT","","html-keyboard-response","116","826786","0.0-14.0-8.0-0.0","48415","List1B","black","man","","","","null","","","","","","","","",""
"4186.774999994668","<img src=""portrait/BW2.jpg""style=""height:400px;""></img>","2","html-button-response","117","830974","0.0-14.0-10.0","48415","List1B","black","man","","true","2","","","","","","","","","",""
"null","CORRECT","","html-keyboard-response","118","832483","0.0-14.0-11.0-0.0","48415","List1B","black","man","","","","null","","","","","","","","",""
"4362.364999993588","<img src=""portrait/BM1.jpg""style=""height:400px;""></img>","4","html-button-response","119","836847","0.0-14.0-13.0","48415","List1B","black","man","","true","4","","","","","","","","","",""
"null","CORRECT","","html-keyboard-response","120","838355","0.0-14.0-14.0-0.0","48415","List1B","black","man","","","","null","","","","","","","","",""
"3122.625000003609","<img src=""portrait/WM1.jpg""style=""height:400px;""></img>","6","html-button-response","121","841480","0.0-14.0-16.0","48415","List1B","black","man","","true","6","","","","","","","","","",""
"null","CORRECT","","html-keyboard-response","122","842984","0.0-14.0-17.0-0.0","48415","List1B","black","man","","","","null","","","","","","","","",""
"7986.209999988205","<img src=""portrait/BM2.jpg""style=""height:400px;""></img>","5","html-button-response","123","850972","0.0-14.0-19.0","48415","List1B","black","man","","true","5","","","","","","","","","",""
"null","CORRECT","","html-keyboard-response","124","852480","0.0-14.0-20.0-0.0","48415","List1B","black","man","","","","null","","","","","","","","",""
"6657.849999988684","<img src=""portrait/WM2.jpg""style=""height:400px;""></img>","7","html-button-response","125","859140","0.0-14.0-22.0","48415","List1B","black","man","","true","7","","","","","","","","","",""
"null","CORRECT","","html-keyboard-response","126","860645","0.0-14.0-23.0-0.0","48415","List1B","black","man","","","","null","","","","","","","","",""
"2265.079999997397","<p>You got 8 out of 8 right first time. Press Continue.</p>","0","html-button-response","127","862912","0.0-14.0-25.0","48415","List1B","black","man","","","","","","","","","","","","",""
"null","<div style=""font-size:60px;"">+</div>","","html-keyboard-response","128","864421","0.0-15.0-0.0","48415","List1B","black","man","","","","null","","","","","","","","",""
"null","<img src=""stim_listB/look4.gif""style=""height:400px;""></stim_listB>","","html-keyboard-response","129","866425","0.0-15.0-1.0","48415","List1B","black","man","","","","null","","","","","","","","",""
"null","is being looked at by","","html-keyboard-response","130","868429","0.0-15.0-2.0","48415","List1B","black","man","","","","null","","","","","","","","",""
"19381.380000006175","","","survey-text","131","887814","0.0-15.0-3.0","48415","List1B","black","man","","","","","{""Q0"":""Dave is being looked at by Jane.""}","<img src=""stim_listB/look4.gif""style=""height:400px;""></stim_listB>","is being looked at by","","","","","",""
"null","<div style=""font-size:60px;"">+</div>","","html-keyboard-response","132","888318","0.0-15.0-0.1","48415","List1B","black","man","","","","null","","","","","","","","",""
"null","<img src=""stim_listB/touch6.gif""style=""height:400px;""></stim_listB>","","html-keyboard-response","133","890325","0.0-15.0-1.1","48415","List1B","black","man","","","","null","","","","","","","","",""
"null","is being touched by","","html-keyboard-response","134","892329","0.0-15.0-2.1","48415","List1B","black","man","","","","null","","","","","","","","",""
"13168.655000001309","","","survey-text","135","905501","0.0-15.0-3.1","48415","List1B","black","man","","","","","{""Q0"":""Fred is being touched by Luke.""}","<img src=""stim_listB/touch6.gif""style=""height:400px;""></stim_listB>","is being touched by","","","","","",""
"null","<div style=""font-size:60px;"">+</div>","","html-keyboard-response","136","906005","0.0-15.0-0.2","48415","List1B","black","man","","","","null","","","","","","","","",""
"null","<img src=""stim_listB/seduce8.gif""style=""height:400px;""></stim_listB>","","html-keyboard-response","137","908010","0.0-15.0-1.2","48415","List1B","black","man","","","","null","","","","","","","","",""
"null","is being seduced by","","html-keyboard-response","138","910015","0.0-15.0-2.2","48415","List1B","black","man","","","","null","","","","","","","","",""
"14533.519999997225","","","survey-text","139","924552","0.0-15.0-3.2","48415","List1B","black","man","","","","","{""Q0"":""Ruth is being seduced by Kate.""}","<img src=""stim_listB/seduce8.gif""style=""height:400px;""></stim_listB>","is being seduced by","","","","","",""
"null","<div style=""font-size:60px;"">+</div>","","html-keyboard-response","140","925056","0.0-15.0-0.3","48415","List1B","black","man","","","","null","","","","","","","","",""
"null","<img src=""stim_listB/hug8.gif""style=""height:400px;""></stim_listB>","","html-keyboard-response","141","927061","0.0-15.0-1.3","48415","List1B","black","man","","","","null","","","","","","","","",""
"null","is being hugged by","","html-keyboard-response","142","929064","0.0-15.0-2.3","48415","List1B","black","man","","","","null","","","","","","","","",""
"12535.16500000842","","","survey-text","143","941603","0.0-15.0-3.3","48415","List1B","black","man","","","","","{""Q0"":""Kate is being hugged by Jane.""}","<img src=""stim_listB/hug8.gif""style=""height:400px;""></stim_listB>","is being hugged by","","","","","",""
"null","<div style=""font-size:60px;"">+</div>","","html-keyboard-response","144","942104","0.0-15.0-0.4","48415","List1B","black","man","","","","null","","","","","","","","",""
"null","<img src=""stim_listB/oppose5.gif""style=""height:400px;""></stim_listB>","","html-keyboard-response","145","944107","0.0-15.0-1.4","48415","List1B","black","man","","","","null","","","","","","","","",""
"null","is opposing","","html-keyboard-response","146","946111","0.0-15.0-2.4","48415","List1B","black","man","","","","null","","","","","","","","",""
"25848.11500000069","","","survey-text","147","971962","0.0-15.0-3.4","48415","List1B","black","man","","","","","{""Q0"":""Mike is opposing Dave.""}","<img src=""stim_listB/oppose5.gif""style=""height:400px;""></stim_listB>","is opposing","","","","","",""
"null","<div style=""font-size:60px;"">+</div>","","html-keyboard-response","148","972469","0.0-15.0-0.5","48415","List1B","black","man","","","","null","","","","","","","","",""
"null","<img src=""stim_listB/seduce6.gif""style=""height:400px;""></stim_listB>","","html-keyboard-response","149","974475","0.0-15.0-1.5","48415","List1B","black","man","","","","null","","","","","","","","",""
"null","is being seduced by","","html-keyboard-response","150","976477","0.0-15.0-2.5","48415","List1B","black","man","","","","null","","","","","","","","",""
"23400.24000000267","","","survey-text","151","999882","0.0-15.0-3.5","48415","List1B","black","man","","","","","{""Q0"":""Mike is being seduced by Luke.""}","<img src=""stim_listB/seduce6.gif""style=""height:400px;""></stim_listB>","is being seduced by","","","","","",""
"null","<div style=""font-size:60px;"">+</div>","","html-keyboard-response","152","1000387","0.0-15.0-0.6","48415","List1B","black","man","","","","null","","","","","","","","",""
"null","<img src=""stim_listB/hug6.gif""style=""height:400px;""></stim_listB>","","html-keyboard-response","153","1002393","0.0-15.0-1.6","48415","List1B","black","man","","","","null","","","","","","","","",""
"null","is being hugged by","","html-keyboard-response","154","1004396","0.0-15.0-2.6","48415","List1B","black","man","","","","null","","","","","","","","",""
"16191.260000006878","","","survey-text","155","1020591","0.0-15.0-3.6","48415","List1B","black","man","","","","","{""Q0"":""MIke is being hugged by Dave.""}","<img src=""stim_listB/hug6.gif""style=""height:400px;""></stim_listB>","is being hugged by","","","","","",""
"null","<div style=""font-size:60px;"">+</div>","","html-keyboard-response","156","1021097","0.0-15.0-0.7","48415","List1B","black","man","","","","null","","","","","","","","",""
"null","<img src=""stim_listB/kiss1.gif""style=""height:400px;""></stim_listB>","","html-keyboard-response","157","1023103","0.0-15.0-1.7","48415","List1B","black","man","","","","null","","","","","","","","",""
"null","is kissing","","html-keyboard-response","158","1025108","0.0-15.0-2.7","48415","List1B","black","man","","","","null","","","","","","","","",""
"19454.49999999255","","","survey-text","159","1044566","0.0-15.0-3.7","48415","List1B","black","man","","","","","{""Q0"":""Fred is being kissed by Beth.""}","<img src=""stim_listB/kiss1.gif""style=""height:400px;""></stim_listB>","is kissing","","","","","",""
"null","<div style=""font-size:60px;"">+</div>","","html-keyboard-response","160","1045068","0.0-15.0-0.8","48415","List1B","black","man","","","","null","","","","","","","","",""
"null","<img src=""stim_listB/oppose6.gif""style=""height:400px;""></stim_listB>","","html-keyboard-response","161","1047074","0.0-15.0-1.8","48415","List1B","black","man","","","","null","","","","","","","","",""
"null","is being opposed by","","html-keyboard-response","162","1049075","0.0-15.0-2.8","48415","List1B","black","man","","","","null","","","","","","","","",""
"11967.714999991469","","","survey-text","163","1061046","0.0-15.0-3.8","48415","List1B","black","man","","","","","{""Q0"":""Fred is being opposed by Luke.""}","<img src=""stim_listB/oppose6.gif""style=""height:400px;""></stim_listB>","is being opposed by","","","","","",""
"null","<div style=""font-size:60px;"">+</div>","","html-keyboard-response","164","1061548","0.0-15.0-0.9","48415","List1B","black","man","","","","null","","","","","","","","",""
"null","<img src=""stim_listB/copy6.gif""style=""height:400px;""></stim_listB>","","html-keyboard-response","165","1063554","0.0-15.0-1.9","48415","List1B","black","man","","","","null","","","","","","","","",""
"null","is being copied by","","html-keyboard-response","166","1065556","0.0-15.0-2.9","48415","List1B","black","man","","","","null","","","","","","","","",""
"17198.604999997653","","","survey-text","167","1082758","0.0-15.0-3.9","48415","List1B","black","man","","","","","{""Q0"":""dave is being copied Fred. ""}","<img src=""stim_listB/copy6.gif""style=""height:400px;""></stim_listB>","is being copied by","","","","","",""
"null","<div style=""font-size:60px;"">+</div>","","html-keyboard-response","168","1083262","0.0-15.0-0.10","48415","List1B","black","man","","","","null","","","","","","","","",""
"null","<img src=""stim_listB/kiss4.gif""style=""height:400px;""></stim_listB>","","html-keyboard-response","169","1085266","0.0-15.0-1.10","48415","List1B","black","man","","","","null","","","","","","","","",""
"null","is being kissed by","","html-keyboard-response","170","1087271","0.0-15.0-2.10","48415","List1B","black","man","","","","null","","","","","","","","",""
"11294.364999994403","","","survey-text","171","1098568","0.0-15.0-3.10","48415","List1B","black","man","","","","","{""Q0"":""Dave is being kissed by Jane.""}","<img src=""stim_listB/kiss4.gif""style=""height:400px;""></stim_listB>","is being kissed by","","","","","",""
"null","<div style=""font-size:60px;"">+</div>","","html-keyboard-response","172","1099073","0.0-15.0-0.11","48415","List1B","black","man","","","","null","","","","","","","","",""
"null","<img src=""stim_listB/kiss3.gif""style=""height:400px;""></stim_listB>","","html-keyboard-response","173","1101079","0.0-15.0-1.11","48415","List1B","black","man","","","","null","","","","","","","","",""
"null","is kissing","","html-keyboard-response","174","1103083","0.0-15.0-2.11","48415","List1B","black","man","","","","null","","","","","","","","",""
"10629.76500000502","","","survey-text","175","1113715","0.0-15.0-3.11","48415","List1B","black","man","","","","","{""Q0"":""Luke is being kissed by Ruth.""}","<img src=""stim_listB/kiss3.gif""style=""height:400px;""></stim_listB>","is kissing","","","","","",""
"null","<div style=""font-size:60px;"">+</div>","","html-keyboard-response","176","1114217","0.0-15.0-0.12","48415","List1B","black","man","","","","null","","","","","","","","",""
"null","<img src=""stim_listB/kiss7.gif""style=""height:400px;""></stim_listB>","","html-keyboard-response","177","1116224","0.0-15.0-1.12","48415","List1B","black","man","","","","null","","","","","","","","",""
"null","is kissing","","html-keyboard-response","178","1118229","0.0-15.0-2.12","48415","List1B","black","man","","","","null","","","","","","","","",""
"10733.074999996461","","","survey-text","179","1128965","0.0-15.0-3.12","48415","List1B","black","man","","","","","{""Q0"":""Ruth is being kissed by Beth.""}","<img src=""stim_listB/kiss7.gif""style=""height:400px;""></stim_listB>","is kissing","","","","","",""
"null","<div style=""font-size:60px;"">+</div>","","html-keyboard-response","180","1129467","0.0-15.0-0.13","48415","List1B","black","man","","","","null","","","","","","","","",""
"null","<img src=""stim_listB/seduce1.gif""style=""height:400px;""></stim_listB>","","html-keyboard-response","181","1131473","0.0-15.0-1.13","48415","List1B","black","man","","","","null","","","","","","","","",""
"null","is seducing","","html-keyboard-response","182","1133475","0.0-15.0-2.13","48415","List1B","black","man","","","","null","","","","","","","","",""
"26937.14000000921","","","survey-text","183","1160416","0.0-15.0-3.13","48415","List1B","black","man","","","","","{""Q0"":""Fred is being seduced by Kate.""}","<img src=""stim_listB/seduce1.gif""style=""height:400px;""></stim_listB>","is seducing","","","","","",""
"null","<div style=""font-size:60px;"">+</div>","","html-keyboard-response","184","1160918","0.0-15.0-0.14","48415","List1B","black","man","","","","null","","","","","","","","",""
"null","<img src=""stim_listB/look2.gif""style=""height:400px;""></stim_listB>","","html-keyboard-response","185","1162920","0.0-15.0-1.14","48415","List1B","black","man","","","","null","","","","","","","","",""
"null","is being looked at by","","html-keyboard-response","186","1164921","0.0-15.0-2.14","48415","List1B","black","man","","","","null","","","","","","","","",""
"25269.11000000825","","","survey-text","187","1190194","0.0-15.0-3.14","48415","List1B","black","man","","","","","{""Q0"":""Mike is being looked at by Kate.""}","<img src=""stim_listB/look2.gif""style=""height:400px;""></stim_listB>","is being looked at by","","","","","",""
"null","<div style=""font-size:60px;"">+</div>","","html-keyboard-response","188","1190697","0.0-15.0-0.15","48415","List1B","black","man","","","","null","","","","","","","","",""
"null","<img src=""stim_listB/look3.gif""style=""height:400px;""></stim_listB>","","html-keyboard-response","189","1192699","0.0-15.0-1.15","48415","List1B","black","man","","","","null","","","","","","","","",""
"null","is looking at","","html-keyboard-response","190","1194700","0.0-15.0-2.15","48415","List1B","black","man","","","","null","","","","","","","","",""
"14764.760000005364","","","survey-text","191","1209467","0.0-15.0-3.15","48415","List1B","black","man","","","","","{""Q0"":""Ruth is looking at Luke.""}","<img src=""stim_listB/look3.gif""style=""height:400px;""></stim_listB>","is looking at","","","","","",""
"null","<div style=""font-size:60px;"">+</div>","","html-keyboard-response","192","1209969","0.0-15.0-0.16","48415","List1B","black","man","","","","null","","","","","","","","",""
"null","<img src=""stim_listB/oppose7.gif""style=""height:400px;""></stim_listB>","","html-keyboard-response","193","1211970","0.0-15.0-1.16","48415","List1B","black","man","","","","null","","","","","","","","",""
"null","is opposing","","html-keyboard-response","194","1213975","0.0-15.0-2.16","48415","List1B","black","man","","","","null","","","","","","","","",""
"13797.059999997029","","","survey-text","195","1227774","0.0-15.0-3.16","48415","List1B","black","man","","","","","{""Q0"":""Kate is opposing Jane.""}","<img src=""stim_listB/oppose7.gif""style=""height:400px;""></stim_listB>","is opposing","","","","","",""
"null","<div style=""font-size:60px;"">+</div>","","html-keyboard-response","196","1228276","0.0-15.0-0.17","48415","List1B","black","man","","","","null","","","","","","","","",""
"null","<img src=""stim_listB/challenge7.gif""style=""height:400px;""></stim_listB>","","html-keyboard-response","197","1230279","0.0-15.0-1.17","48415","List1B","black","man","","","","null","","","","","","","","",""
"null","is challenging","","html-keyboard-response","198","1232284","0.0-15.0-2.17","48415","List1B","black","man","","","","null","","","","","","","","",""
"10612.854999999516","","","survey-text","199","1242900","0.0-15.0-3.17","48415","List1B","black","man","","","","","{""Q0"":""Kate is challenging Jane.""}","<img src=""stim_listB/challenge7.gif""style=""height:400px;""></stim_listB>","is challenging","","","","","",""
"null","<div style=""font-size:60px;"">+</div>","","html-keyboard-response","200","1243402","0.0-15.0-0.18","48415","List1B","black","man","","","","null","","","","","","","","",""
"null","<img src=""stim_listB/touch3.gif""style=""height:400px;""></stim_listB>","","html-keyboard-response","201","1245404","0.0-15.0-1.18","48415","List1B","black","man","","","","null","","","","","","","","",""
"null","is touching","","html-keyboard-response","202","1247406","0.0-15.0-2.18","48415","List1B","black","man","","","","null","","","","","","","","",""
"9487.564999988535","","","survey-text","203","1256896","0.0-15.0-3.18","48415","List1B","black","man","","","","","{""Q0"":""Dave is touching Jane.""}","<img src=""stim_listB/touch3.gif""style=""height:400px;""></stim_listB>","is touching","","","","","",""
"null","<div style=""font-size:60px;"">+</div>","","html-keyboard-response","204","1257401","0.0-15.0-0.19","48415","List1B","black","man","","","","null","","","","","","","","",""
"null","<img src=""stim_listB/challenge6.gif""style=""height:400px;""></stim_listB>","","html-keyboard-response","205","1259404","0.0-15.0-1.19","48415","List1B","black","man","","","","null","","","","","","","","",""
"null","is being challenged by","","html-keyboard-response","206","1261405","0.0-15.0-2.19","48415","List1B","black","man","","","","null","","","","","","","","",""
"11025.630000003846","","","survey-text","207","1272435","0.0-15.0-3.19","48415","List1B","black","man","","","","","{""Q0"":""Fred is being challenged by Dave.""}","<img src=""stim_listB/challenge6.gif""style=""height:400px;""></stim_listB>","is being challenged by","","","","","",""
"14414.209999988088","<img src='img/portrait_matrix_list1.jpg' style='width:900px;height:500px;''></img><p>If you have memorised all the portraits and names and are ready to start, press Continue.</p><p><strong>Please note: Your memory of these faces will be tested 4 times during this experiment.</strong></p>","0","html-button-response","208","1286852","0.0-16.0-0.0","48415","List1B","black","man","","","","","","","","","","","","",""
"3614.8399999947287","<img src=""portrait/BM2.jpg""style=""height:400px;""></img>","5","html-button-response","209","1291473","0.0-16.0-1.0","48415","List1B","black","man","","true","5","","","","","","","","","",""
"null","CORRECT","","html-keyboard-response","210","1292978","0.0-16.0-2.0-0.0","48415","List1B","black","man","","","","null","","","","","","","","",""
"1633.1100000098813","<img src=""portrait/BM1.jpg""style=""height:400px;""></img>","4","html-button-response","211","1294612","0.0-16.0-4.0","48415","List1B","black","man","","true","4","","","","","","","","","",""
"null","CORRECT","","html-keyboard-response","212","1296122","0.0-16.0-5.0-0.0","48415","List1B","black","man","","","","null","","","","","","","","",""
"4745.589999991236","<img src=""portrait/BW2.jpg""style=""height:400px;""></img>","2","html-button-response","213","1300869","0.0-16.0-7.0","48415","List1B","black","man","","true","2","","","","","","","","","",""
"null","CORRECT","","html-keyboard-response","214","1302373","0.0-16.0-8.0-0.0","48415","List1B","black","man","","","","null","","","","","","","","",""
"3005.7899999956135","<img src=""portrait/WM2.jpg""style=""height:400px;""></img>","7","html-button-response","215","1305381","0.0-16.0-10.0","48415","List1B","black","man","","true","7","","","","","","","","","",""
"null","CORRECT","","html-keyboard-response","216","1306889","0.0-16.0-11.0-0.0","48415","List1B","black","man","","","","null","","","","","","","","",""
"5620.674999998417","<img src=""portrait/BW1.jpg""style=""height:400px;""></img>","0","html-button-response","217","1312512","0.0-16.0-13.0","48415","List1B","black","man","","true","0","","","","","","","","","",""
"null","CORRECT","","html-keyboard-response","218","1314019","0.0-16.0-14.0-0.0","48415","List1B","black","man","","","","null","","","","","","","","",""
"5461.9099999980535","<img src=""portrait/WW1.jpg""style=""height:400px;""></img>","1","html-button-response","219","1319483","0.0-16.0-16.0","48415","List1B","black","man","","true","1","","","","","","","","","",""
"null","CORRECT","","html-keyboard-response","220","1320988","0.0-16.0-17.0-0.0","48415","List1B","black","man","","","","null","","","","","","","","",""
"3766.455000004731","<img src=""portrait/WM1.jpg""style=""height:400px;""></img>","6","html-button-response","221","1324756","0.0-16.0-19.0","48415","List1B","black","man","","true","6","","","","","","","","","",""
"null","CORRECT","","html-keyboard-response","222","1326263","0.0-16.0-20.0-0.0","48415","List1B","black","man","","","","null","","","","","","","","",""
"2344.525000007823","<img src=""portrait/WW2.jpg""style=""height:400px;""></img>","3","html-button-response","223","1328609","0.0-16.0-22.0","48415","List1B","black","man","","true","3","","","","","","","","","",""
"null","CORRECT","","html-keyboard-response","224","1330119","0.0-16.0-23.0-0.0","48415","List1B","black","man","","","","null","","","","","","","","",""
"2020.7099999971688","<p>You got 8 out of 8 right first time. Press Continue.</p>","0","html-button-response","225","1332141","0.0-16.0-25.0","48415","List1B","black","man","","","","","","","","","","","","",""
"null","<div style=""font-size:60px;"">+</div>","","html-keyboard-response","226","1333648","0.0-17.0-0.0","48415","List1B","black","man","","","","null","","","","","","","","",""
"null","<img src=""stim_listB/oppose4.gif""style=""height:400px;""></stim_listB>","","html-keyboard-response","227","1335652","0.0-17.0-1.0","48415","List1B","black","man","","","","null","","","","","","","","",""
"null","is being opposed by","","html-keyboard-response","228","1337653","0.0-17.0-2.0","48415","List1B","black","man","","","","null","","","","","","","","",""
"19549.385000005597","","","survey-text","229","1357205","0.0-17.0-3.0","48415","List1B","black","man","","","","","{""Q0"":""Ruth is being opposed by Luke.""}","<img src=""stim_listB/oppose4.gif""style=""height:400px;""></stim_listB>","is being opposed by","","","","","",""
"null","<div style=""font-size:60px;"">+</div>","","html-keyboard-response","230","1357707","0.0-17.0-0.1","48415","List1B","black","man","","","","null","","","","","","","","",""
"null","<img src=""stim_listB/kiss2.gif""style=""height:400px;""></stim_listB>","","html-keyboard-response","231","1359714","0.0-17.0-1.1","48415","List1B","black","man","","","","null","","","","","","","","",""
"null","is being kissed by","","html-keyboard-response","232","1361719","0.0-17.0-2.1","48415","List1B","black","man","","","","null","","","","","","","","",""
"22070.110000000335","","","survey-text","233","1383793","0.0-17.0-3.1","48415","List1B","black","man","","","","","{""Q0"":""Kate is being kissed by Mike.""}","<img src=""stim_listB/kiss2.gif""style=""height:400px;""></stim_listB>","is being kissed by","","","","","",""
"null","<div style=""font-size:60px;"">+</div>","","html-keyboard-response","234","1384294","0.0-17.0-0.2","48415","List1B","black","man","","","","null","","","","","","","","",""
"null","<img src=""stim_listB/challenge5.gif""style=""height:400px;""></stim_listB>","","html-keyboard-response","235","1386301","0.0-17.0-1.2","48415","List1B","black","man","","","","null","","","","","","","","",""
"null","is challenging","","html-keyboard-response","236","1388306","0.0-17.0-2.2","48415","List1B","black","man","","","","null","","","","","","","","",""
"18338.335000007646","","","survey-text","237","1406648","0.0-17.0-3.2","48415","List1B","black","man","","","","","{""Q0"":""Mike is being challenged by Luke.""}","<img src=""stim_listB/challenge5.gif""style=""height:400px;""></stim_listB>","is challenging","","","","","",""
"null","<div style=""font-size:60px;"">+</div>","","html-keyboard-response","238","1407152","0.0-17.0-0.3","48415","List1B","black","man","","","","null","","","","","","","","",""
"null","<img src=""stim_listB/oppose2.gif""style=""height:400px;""></stim_listB>","","html-keyboard-response","239","1409158","0.0-17.0-1.3","48415","List1B","black","man","","","","null","","","","","","","","",""
"null","is being opposed by","","html-keyboard-response","240","1411159","0.0-17.0-2.3","48415","List1B","black","man","","","","null","","","","","","","","",""
"14164.304999998305","","","survey-text","241","1425327","0.0-17.0-3.3","48415","List1B","black","man","","","","","{""Q0"":""Dave is being opposed by Beth.""}","<img src=""stim_listB/oppose2.gif""style=""height:400px;""></stim_listB>","is being opposed by","","","","","",""
"null","<div style=""font-size:60px;"">+</div>","","html-keyboard-response","242","1425828","0.0-17.0-0.4","48415","List1B","black","man","","","","null","","","","","","","","",""
"null","<img src=""stim_listB/look7.gif""style=""height:400px;""></stim_listB>","","html-keyboard-response","243","1427834","0.0-17.0-1.4","48415","List1B","black","man","","","","null","","","","","","","","",""
"null","is looking at","","html-keyboard-response","244","1429840","0.0-17.0-2.4","48415","List1B","black","man","","","","null","","","","","","","","",""
"15795.635000002105","","","survey-text","245","1445639","0.0-17.0-3.4","48415","List1B","black","man","","","","","{""Q0"":""Beth is looking at Jane.""}","<img src=""stim_listB/look7.gif""style=""height:400px;""></stim_listB>","is looking at","","","","","",""
"null","<div style=""font-size:60px;"">+</div>","","html-keyboard-response","246","1446143","0.0-17.0-0.5","48415","List1B","black","man","","","","null","","","","","","","","",""
"null","<img src=""stim_listB/copy8.gif""style=""height:400px;""></stim_listB>","","html-keyboard-response","247","1448149","0.0-17.0-1.5","48415","List1B","black","man","","","","null","","","","","","","","",""
"null","is being copied by","","html-keyboard-response","248","1450154","0.0-17.0-2.5","48415","List1B","black","man","","","","null","","","","","","","","",""
"19897.88000000408","","","survey-text","249","1470056","0.0-17.0-3.5","48415","List1B","black","man","","","","","{""Q0"":""Beth is being copied by Jane.""}","<img src=""stim_listB/copy8.gif""style=""height:400px;""></stim_listB>","is being copied by","","","","","",""
"null","<div style=""font-size:60px;"">+</div>","","html-keyboard-response","250","1470559","0.0-17.0-0.6","48415","List1B","black","man","","","","null","","","","","","","","",""
"null","<img src=""stim_listB/look8.gif""style=""height:400px;""></stim_listB>","","html-keyboard-response","251","1472561","0.0-17.0-1.6","48415","List1B","black","man","","","","null","","","","","","","","",""
"null","is being looked at by","","html-keyboard-response","252","1474566","0.0-17.0-2.6","48415","List1B","black","man","","","","null","","","","","","","","",""
"14477.415000001434","","","survey-text","253","1489047","0.0-17.0-3.6","48415","List1B","black","man","","","","","{""Q0"":""Jane is being looked at by Kate.""}","<img src=""stim_listB/look8.gif""style=""height:400px;""></stim_listB>","is being looked at by","","","","","",""
"null","<div style=""font-size:60px;"">+</div>","","html-keyboard-response","254","1489548","0.0-17.0-0.7","48415","List1B","black","man","","","","null","","","","","","","","",""
"null","<img src=""stim_listB/greet3.gif""style=""height:400px;""></stim_listB>","","html-keyboard-response","255","1491551","0.0-17.0-1.7","48415","List1B","black","man","","","","null","","","","","","","","",""
"null","is greeting","","html-keyboard-response","256","1493556","0.0-17.0-2.7","48415","List1B","black","man","","","","null","","","","","","","","",""
"8074.030000003288","","","survey-text","257","1501633","0.0-17.0-3.7","48415","List1B","black","man","","","","","{""Q0"":""Dave is greeting Ruth.""}","<img src=""stim_listB/greet3.gif""style=""height:400px;""></stim_listB>","is greeting","","","","","",""
"null","<div style=""font-size:60px;"">+</div>","","html-keyboard-response","258","1502136","0.0-17.0-0.8","48415","List1B","black","man","","","","null","","","","","","","","",""
"null","<img src=""stim_listB/hug5.gif""style=""height:400px;""></stim_listB>","","html-keyboard-response","259","1504140","0.0-17.0-1.8","48415","List1B","black","man","","","","null","","","","","","","","",""
"null","is hugging","","html-keyboard-response","260","1506141","0.0-17.0-2.8","48415","List1B","black","man","","","","null","","","","","","","","",""
"10628.729999996722","","","survey-text","261","1516773","0.0-17.0-3.8","48415","List1B","black","man","","","","","{""Q0"":""Fred is hugging Luke.""}","<img src=""stim_listB/hug5.gif""style=""height:400px;""></stim_listB>","is hugging","","","","","",""
"null","<div style=""font-size:60px;"">+</div>","","html-keyboard-response","262","1517278","0.0-17.0-0.9","48415","List1B","black","man","","","","null","","","","","","","","",""
"null","<img src=""stim_listB/hug3.gif""style=""height:400px;""></stim_listB>","","html-keyboard-response","263","1519284","0.0-17.0-1.9","48415","List1B","black","man","","","","null","","","","","","","","",""
"null","is hugging","","html-keyboard-response","264","1521289","0.0-17.0-2.9","48415","List1B","black","man","","","","null","","","","","","","","",""
"29838.230000008596","","","survey-text","265","1551131","0.0-17.0-3.9","48415","List1B","black","man","","","","","{""Q0"":""Luke is hugging Ruth.""}","<img src=""stim_listB/hug3.gif""style=""height:400px;""></stim_listB>","is hugging","","","","","",""
"null","<div style=""font-size:60px;"">+</div>","","html-keyboard-response","266","1551636","0.0-17.0-0.10","48415","List1B","black","man","","","","null","","","","","","","","",""
"null","<img src=""stim_listB/seduce3.gif""style=""height:400px;""></stim_listB>","","html-keyboard-response","267","1553642","0.0-17.0-1.10","48415","List1B","black","man","","","","null","","","","","","","","",""
"null","is seducing","","html-keyboard-response","268","1555647","0.0-17.0-2.10","48415","List1B","black","man","","","","null","","","","","","","","",""
"24740.16500001028","","","survey-text","269","1580390","0.0-17.0-3.10","48415","List1B","black","man","","","","","{""Q0"":""Jane is seducing Luke""}","<img src=""stim_listB/seduce3.gif""style=""height:400px;""></stim_listB>","is seducing","","","","","",""
"null","<div style=""font-size:60px;"">+</div>","","html-keyboard-response","270","1580897","0.0-17.0-0.11","48415","List1B","black","man","","","","null","","","","","","","","",""
"null","<img src=""stim_listB/copy7.gif""style=""height:400px;""></stim_listB>","","html-keyboard-response","271","1582903","0.0-17.0-1.11","48415","List1B","black","man","","","","null","","","","","","","","",""
"null","is copying","","html-keyboard-response","272","1584908","0.0-17.0-2.11","48415","List1B","black","man","","","","null","","","","","","","","",""
"15890.480000001844","","","survey-text","273","1600802","0.0-17.0-3.11","48415","List1B","black","man","","","","","{""Q0"":""Kate is copying Jane.""}","<img src=""stim_listB/copy7.gif""style=""height:400px;""></stim_listB>","is copying","","","","","",""
"null","<div style=""font-size:60px;"">+</div>","","html-keyboard-response","274","1601304","0.0-17.0-0.12","48415","List1B","black","man","","","","null","","","","","","","","",""
"null","<img src=""stim_listB/hug4.gif""style=""height:400px;""></stim_listB>","","html-keyboard-response","275","1603310","0.0-17.0-1.12","48415","List1B","black","man","","","","null","","","","","","","","",""
"null","is being hugged by","","html-keyboard-response","276","1605315","0.0-17.0-2.12","48415","List1B","black","man","","","","null","","","","","","","","",""
"12022.664999996778","","","survey-text","277","1617341","0.0-17.0-3.12","48415","List1B","black","man","","","","","{""Q0"":""Jane is being hugged by Jane.""}","<img src=""stim_listB/hug4.gif""style=""height:400px;""></stim_listB>","is being hugged by","","","","","",""
"null","<div style=""font-size:60px;"">+</div>","","html-keyboard-response","278","1617843","0.0-17.0-0.13","48415","List1B","black","man","","","","null","","","","","","","","",""
"null","<img src=""stim_listB/kiss5.gif""style=""height:400px;""></stim_listB>","","html-keyboard-response","279","1619846","0.0-17.0-1.13","48415","List1B","black","man","","","","null","","","","","","","","",""
"null","is kissing","","html-keyboard-response","280","1621849","0.0-17.0-2.13","48415","List1B","black","man","","","","null","","","","","","","","",""
"7790.949999995064","","","survey-text","281","1629643","0.0-17.0-3.13","48415","List1B","black","man","","","","","{""Q0"":""Dave is kissing Luke.""}","<img src=""stim_listB/kiss5.gif""style=""height:400px;""></stim_listB>","is kissing","","","","","",""
"null","<div style=""font-size:60px;"">+</div>","","html-keyboard-response","282","1630147","0.0-17.0-0.14","48415","List1B","black","man","","","","null","","","","","","","","",""
"null","<img src=""stim_listB/look1.gif""style=""height:400px;""></stim_listB>","","html-keyboard-response","283","1632149","0.0-17.0-1.14","48415","List1B","black","man","","","","null","","","","","","","","",""
"null","is looking at","","html-keyboard-response","284","1634155","0.0-17.0-2.14","48415","List1B","black","man","","","","null","","","","","","","","",""
"11821.905000004219","","","survey-text","285","1645980","0.0-17.0-3.14","48415","List1B","black","man","","","","","{""Q0"":""Fred is looking at Beth.""}","<img src=""stim_listB/look1.gif""style=""height:400px;""></stim_listB>","is looking at","","","","","",""
"null","<div style=""font-size:60px;"">+</div>","","html-keyboard-response","286","1646483","0.0-17.0-0.15","48415","List1B","black","man","","","","null","","","","","","","","",""
"null","<img src=""stim_listB/seduce7.gif""style=""height:400px;""></stim_listB>","","html-keyboard-response","287","1648489","0.0-17.0-1.15","48415","List1B","black","man","","","","null","","","","","","","","",""
"null","is seducing","","html-keyboard-response","288","1650494","0.0-17.0-2.15","48415","List1B","black","man","","","","null","","","","","","","","",""
"8959.505000006175","","","survey-text","289","1659457","0.0-17.0-3.15","48415","List1B","black","man","","","","","{""Q0"":""Beth is seducing Jane.""}","<img src=""stim_listB/seduce7.gif""style=""height:400px;""></stim_listB>","is seducing","","","","","",""
"null","<div style=""font-size:60px;"">+</div>","","html-keyboard-response","290","1659959","0.0-17.0-0.16","48415","List1B","black","man","","","","null","","","","","","","","",""
"null","<img src=""stim_listB/copy5.gif""style=""height:400px;""></stim_listB>","","html-keyboard-response","291","1661966","0.0-17.0-1.16","48415","List1B","black","man","","","","null","","","","","","","","",""
"null","is copying","","html-keyboard-response","292","1663972","0.0-17.0-2.16","48415","List1B","black","man","","","","null","","","","","","","","",""
"10669.020000001183","","","survey-text","293","1674644","0.0-17.0-3.16","48415","List1B","black","man","","","","","{""Q0"":""Luke is copying Mike.""}","<img src=""stim_listB/copy5.gif""style=""height:400px;""></stim_listB>","is copying","","","","","",""
"null","<div style=""font-size:60px;"">+</div>","","html-keyboard-response","294","1675148","0.0-17.0-0.17","48415","List1B","black","man","","","","null","","","","","","","","",""
"null","<img src=""stim_listB/touch8.gif""style=""height:400px;""></stim_listB>","","html-keyboard-response","295","1677150","0.0-17.0-1.17","48415","List1B","black","man","","","","null","","","","","","","","",""
"null","is being touched by","","html-keyboard-response","296","1679156","0.0-17.0-2.17","48415","List1B","black","man","","","","null","","","","","","","","",""
"20376.41000001179","","","survey-text","297","1699536","0.0-17.0-3.17","48415","List1B","black","man","","","","","{""Q0"":""Beth is being touched by Kate""}","<img src=""stim_listB/touch8.gif""style=""height:400px;""></stim_listB>","is being touched by","","","","","",""
"null","<div style=""font-size:60px;"">+</div>","","html-keyboard-response","298","1700038","0.0-17.0-0.18","48415","List1B","black","man","","","","null","","","","","","","","",""
"null","<img src=""stim_listB/challenge2.gif""style=""height:400px;""></stim_listB>","","html-keyboard-response","299","1702045","0.0-17.0-1.18","48415","List1B","black","man","","","","null","","","","","","","","",""
"null","is being challenged by","","html-keyboard-response","300","1704050","0.0-17.0-2.18","48415","List1B","black","man","","","","null","","","","","","","","",""
"18990.54500000784","","","survey-text","301","1723044","0.0-17.0-3.18","48415","List1B","black","man","","","","","{""Q0"":""Fred is copying Kate.""}","<img src=""stim_listB/challenge2.gif""style=""height:400px;""></stim_listB>","is being challenged by","","","","","",""
"null","<div style=""font-size:60px;"">+</div>","","html-keyboard-response","302","1723550","0.0-17.0-0.19","48415","List1B","black","man","","","","null","","","","","","","","",""
"null","<img src=""stim_listB/shout1.gif""style=""height:400px;""></stim_listB>","","html-keyboard-response","303","1725557","0.0-17.0-1.19","48415","List1B","black","man","","","","null","","","","","","","","",""
"null","is shouting at","","html-keyboard-response","304","1727562","0.0-17.0-2.19","48415","List1B","black","man","","","","null","","","","","","","","",""
"12440.430000002263","","","survey-text","305","1740006","0.0-17.0-3.19","48415","List1B","black","man","","","","","{""Q0"":""Fred is shouting at Beth.""}","<img src=""stim_listB/shout1.gif""style=""height:400px;""></stim_listB>","is shouting at","","","","","",""
"27593.320000000065","<img src='img/portrait_matrix_list1.jpg' style='width:900px;height:500px;''></img><p>If you have memorised all the portraits and names and are ready to start, press Continue.</p><p><strong>Please note: Your memory of these faces will be tested 4 times during this experiment.</strong></p>","0","html-button-response","306","1767602","0.0-18.0-0.0","48415","List1B","black","man","","","","","","","","","","","","",""
"2368.7750000099186","<img src=""portrait/WW1.jpg""style=""height:400px;""></img>","1","html-button-response","307","1770974","0.0-18.0-1.0","48415","List1B","black","man","","true","1","","","","","","","","","",""
"null","CORRECT","","html-keyboard-response","308","1772485","0.0-18.0-2.0-0.0","48415","List1B","black","man","","","","null","","","","","","","","",""
"5433.569999993779","<img src=""portrait/BW1.jpg""style=""height:400px;""></img>","0","html-button-response","309","1777921","0.0-18.0-4.0","48415","List1B","black","man","","true","0","","","","","","","","","",""
"null","CORRECT","","html-keyboard-response","310","1779432","0.0-18.0-5.0-0.0","48415","List1B","black","man","","","","null","","","","","","","","",""
"4461.165000000503","<img src=""portrait/WW2.jpg""style=""height:400px;""></img>","3","html-button-response","311","1783895","0.0-18.0-7.0","48415","List1B","black","man","","true","3","","","","","","","","","",""
"null","CORRECT","","html-keyboard-response","312","1785403","0.0-18.0-8.0-0.0","48415","List1B","black","man","","","","null","","","","","","","","",""
"3189.579999990994","<img src=""portrait/WM2.jpg""style=""height:400px;""></img>","7","html-button-response","313","1788594","0.0-18.0-10.0","48415","List1B","black","man","","true","7","","","","","","","","","",""
"null","CORRECT","","html-keyboard-response","314","1790104","0.0-18.0-11.0-0.0","48415","List1B","black","man","","","","null","","","","","","","","",""
"3788.730000000214","<img src=""portrait/BW2.jpg""style=""height:400px;""></img>","2","html-button-response","315","1793894","0.0-18.0-13.0","48415","List1B","black","man","","true","2","","","","","","","","","",""
"null","CORRECT","","html-keyboard-response","316","1795404","0.0-18.0-14.0-0.0","48415","List1B","black","man","","","","null","","","","","","","","",""
"2125.7900000053924","<img src=""portrait/BM2.jpg""style=""height:400px;""></img>","5","html-button-response","317","1797532","0.0-18.0-16.0","48415","List1B","black","man","","true","5","","","","","","","","","",""
"null","CORRECT","","html-keyboard-response","318","1799038","0.0-18.0-17.0-0.0","48415","List1B","black","man","","","","null","","","","","","","","",""
"5191.9249999918975","<img src=""portrait/WM1.jpg""style=""height:400px;""></img>","6","html-button-response","319","1804231","0.0-18.0-19.0","48415","List1B","black","man","","true","6","","","","","","","","","",""
"null","CORRECT","","html-keyboard-response","320","1805737","0.0-18.0-20.0-0.0","48415","List1B","black","man","","","","null","","","","","","","","",""
"4083.2349999984726","<img src=""portrait/BM1.jpg""style=""height:400px;""></img>","4","html-button-response","321","1809822","0.0-18.0-22.0","48415","List1B","black","man","","true","4","","","","","","","","","",""
"null","CORRECT","","html-keyboard-response","322","1811333","0.0-18.0-23.0-0.0","48415","List1B","black","man","","","","null","","","","","","","","",""
"1850.3850000125822","<p>You got 8 out of 8 right first time. Press Continue.</p>","0","html-button-response","323","1813185","0.0-18.0-25.0","48415","List1B","black","man","","","","","","","","","","","","",""
"null","<div style=""font-size:60px;"">+</div>","","html-keyboard-response","324","1814690","0.0-19.0-0.0","48415","List1B","black","man","","","","null","","","","","","","","",""
"null","<img src=""stim_listB/hug2.gif""style=""height:400px;""></stim_listB>","","html-keyboard-response","325","1816693","0.0-19.0-1.0","48415","List1B","black","man","","","","null","","","","","","","","",""
"null","is being hugged by","","html-keyboard-response","326","1818695","0.0-19.0-2.0","48415","List1B","black","man","","","","null","","","","","","","","",""
"11124.880000002915","","","survey-text","327","1829823","0.0-19.0-3.0","48415","List1B","black","man","","","","","{""Q0"":""Mike is being hugged by Kate.""}","<img src=""stim_listB/hug2.gif""style=""height:400px;""></stim_listB>","is being hugged by","","","","","",""
"null","<div style=""font-size:60px;"">+</div>","","html-keyboard-response","328","1830327","0.0-19.0-0.1","48415","List1B","black","man","","","","null","","","","","","","","",""
"null","<img src=""stim_listB/touch4.gif""style=""height:400px;""></stim_listB>","","html-keyboard-response","329","1832334","0.0-19.0-1.1","48415","List1B","black","man","","","","null","","","","","","","","",""
"null","is being touched by","","html-keyboard-response","330","1834339","0.0-19.0-2.1","48415","List1B","black","man","","","","null","","","","","","","","",""
"12840.830000001006","","","survey-text","331","1847186","0.0-19.0-3.1","48415","List1B","black","man","","","","","{""Q0"":""Ruth is being touched by Luke.""}","<img src=""stim_listB/touch4.gif""style=""height:400px;""></stim_listB>","is being touched by","","","","","",""
"null","<div style=""font-size:60px;"">+</div>","","html-keyboard-response","332","1847689","0.0-19.0-0.2","48415","List1B","black","man","","","","null","","","","","","","","",""
"null","<img src=""stim_listB/touch5.gif""style=""height:400px;""></stim_listB>","","html-keyboard-response","333","1849694","0.0-19.0-1.2","48415","List1B","black","man","","","","null","","","","","","","","",""
"null","is touching","","html-keyboard-response","334","1851700","0.0-19.0-2.2","48415","List1B","black","man","","","","null","","","","","","","","",""
"12564.704999997048","","","survey-text","335","1864270","0.0-19.0-3.2","48415","List1B","black","man","","","","","{""Q0"":""Dave is touching Mike.""}","<img src=""stim_listB/touch5.gif""style=""height:400px;""></stim_listB>","is touching","","","","","",""
"null","<div style=""font-size:60px;"">+</div>","","html-keyboard-response","336","1864775","0.0-19.0-0.3","48415","List1B","black","man","","","","null","","","","","","","","",""
"null","<img src=""stim_listB/seduce5.gif""style=""height:400px;""></stim_listB>","","html-keyboard-response","337","1866779","0.0-19.0-1.3","48415","List1B","black","man","","","","null","","","","","","","","",""
"null","is seducing","","html-keyboard-response","338","1868781","0.0-19.0-2.3","48415","List1B","black","man","","","","null","","","","","","","","",""
"11081.039999990258","","","survey-text","339","1879866","0.0-19.0-3.3","48415","List1B","black","man","","","","","{""Q0"":""Fred is seducing Dave.""}","<img src=""stim_listB/seduce5.gif""style=""height:400px;""></stim_listB>","is seducing","","","","","",""
"null","<div style=""font-size:60px;"">+</div>","","html-keyboard-response","340","1880367","0.0-19.0-0.4","48415","List1B","black","man","","","","null","","","","","","","","",""
"null","<img src=""stim_listB/challenge4.gif""style=""height:400px;""></stim_listB>","","html-keyboard-response","341","1882374","0.0-19.0-1.4","48415","List1B","black","man","","","","null","","","","","","","","",""
"null","is being challenged by","","html-keyboard-response","342","1884379","0.0-19.0-2.4","48415","List1B","black","man","","","","null","","","","","","","","",""
"20461.844999997877","","","survey-text","343","1904845","0.0-19.0-3.4","48415","List1B","black","man","","","","","{""Q0"":""Luke is being challenged by Jane.""}","<img src=""stim_listB/challenge4.gif""style=""height:400px;""></stim_listB>","is being challenged by","","","","","",""
"null","<div style=""font-size:60px;"">+</div>","","html-keyboard-response","344","1905347","0.0-19.0-0.5","48415","List1B","black","man","","","","null","","","","","","","","",""
"null","<img src=""stim_listB/copy1.gif""style=""height:400px;""></stim_listB>","","html-keyboard-response","345","1907350","0.0-19.0-1.5","48415","List1B","black","man","","","","null","","","","","","","","",""
"null","is copying","","html-keyboard-response","346","1909351","0.0-19.0-2.5","48415","List1B","black","man","","","","null","","","","","","","","",""
"10709.325000003446","","","survey-text","347","1920063","0.0-19.0-3.5","48415","List1B","black","man","","","","","{""Q0"":""Beth is copying Mike.""}","<img src=""stim_listB/copy1.gif""style=""height:400px;""></stim_listB>","is copying","","","","","",""
"null","<div style=""font-size:60px;"">+</div>","","html-keyboard-response","348","1920568","0.0-19.0-0.6","48415","List1B","black","man","","","","null","","","","","","","","",""
"null","<img src=""stim_listB/greet5.gif""style=""height:400px;""></stim_listB>","","html-keyboard-response","349","1922574","0.0-19.0-1.6","48415","List1B","black","man","","","","null","","","","","","","","",""
"null","is greeting","","html-keyboard-response","350","1924579","0.0-19.0-2.6","48415","List1B","black","man","","","","null","","","","","","","","",""
"7630.644999997225","","","survey-text","351","1932213","0.0-19.0-3.6","48415","List1B","black","man","","","","","{""Q0"":""Mike is greeting Luke.""}","<img src=""stim_listB/greet5.gif""style=""height:400px;""></stim_listB>","is greeting","","","","","",""
"null","<div style=""font-size:60px;"">+</div>","","html-keyboard-response","352","1932717","0.0-19.0-0.7","48415","List1B","black","man","","","","null","","","","","","","","",""
"null","<img src=""stim_listB/oppose1.gif""style=""height:400px;""></stim_listB>","","html-keyboard-response","353","1934724","0.0-19.0-1.7","48415","List1B","black","man","","","","null","","","","","","","","",""
"null","is opposing","","html-keyboard-response","354","1936730","0.0-19.0-2.7","48415","List1B","black","man","","","","null","","","","","","","","",""
"9941.975000008708","","","survey-text","355","1946675","0.0-19.0-3.7","48415","List1B","black","man","","","","","{""Q0"":""Mike is opposing Kate.""}","<img src=""stim_listB/oppose1.gif""style=""height:400px;""></stim_listB>","is opposing","","","","","",""
"null","<div style=""font-size:60px;"">+</div>","","html-keyboard-response","356","1947180","0.0-19.0-0.8","48415","List1B","black","man","","","","null","","","","","","","","",""
"null","<img src=""stim_listB/shout7.gif""style=""height:400px;""></stim_listB>","","html-keyboard-response","357","1949185","0.0-19.0-1.8","48415","List1B","black","man","","","","null","","","","","","","","",""
"null","is shouting at","","html-keyboard-response","358","1951187","0.0-19.0-2.8","48415","List1B","black","man","","","","null","","","","","","","","",""
"21493.00499999663","","","survey-text","359","1972683","0.0-19.0-3.8","48415","List1B","black","man","","","","","{""Q0"":""Beth is shouting at Ruth.""}","<img src=""stim_listB/shout7.gif""style=""height:400px;""></stim_listB>","is shouting at","","","","","",""
"null","<div style=""font-size:60px;"">+</div>","","html-keyboard-response","360","1973186","0.0-19.0-0.9","48415","List1B","black","man","","","","null","","","","","","","","",""
"null","<img src=""stim_listB/greet2.gif""style=""height:400px;""></stim_listB>","","html-keyboard-response","361","1975193","0.0-19.0-1.9","48415","List1B","black","man","","","","null","","","","","","","","",""
"null","is being greeted by","","html-keyboard-response","362","1977194","0.0-19.0-2.9","48415","List1B","black","man","","","","null","","","","","","","","",""
"13247.560000003316","","","survey-text","363","1990445","0.0-19.0-3.9","48415","List1B","black","man","","","","","{""Q0"":""Fred is being greeted by Kate.""}","<img src=""stim_listB/greet2.gif""style=""height:400px;""></stim_listB>","is being greeted by","","","","","",""
"null","<div style=""font-size:60px;"">+</div>","","html-keyboard-response","364","1990949","0.0-19.0-0.10","48415","List1B","black","man","","","","null","","","","","","","","",""
"null","<img src=""stim_listB/copy4.gif""style=""height:400px;""></stim_listB>","","html-keyboard-response","365","1992955","0.0-19.0-1.10","48415","List1B","black","man","","","","null","","","","","","","","",""
"null","is being copied by","","html-keyboard-response","366","1994961","0.0-19.0-2.10","48415","List1B","black","man","","","","null","","","","","","","","",""
"11985.66500000027","","","survey-text","367","2006950","0.0-19.0-3.10","48415","List1B","black","man","","","","","{""Q0"":""Luke is being copied by Kate.""}","<img src=""stim_listB/copy4.gif""style=""height:400px;""></stim_listB>","is being copied by","","","","","",""
"null","<div style=""font-size:60px;"">+</div>","","html-keyboard-response","368","2007454","0.0-19.0-0.11","48415","List1B","black","man","","","","null","","","","","","","","",""
"null","<img src=""stim_listB/hug7.gif""style=""height:400px;""></stim_listB>","","html-keyboard-response","369","2009460","0.0-19.0-1.11","48415","List1B","black","man","","","","null","","","","","","","","",""
"null","is hugging","","html-keyboard-response","370","2011465","0.0-19.0-2.11","48415","List1B","black","man","","","","null","","","","","","","","",""
"16637.524999998044","","","survey-text","371","2028106","0.0-19.0-3.11","48415","List1B","black","man","","","","","{""Q0"":""Beth is hugging Ruth.""}","<img src=""stim_listB/hug7.gif""style=""height:400px;""></stim_listB>","is hugging","","","","","",""
"null","<div style=""font-size:60px;"">+</div>","","html-keyboard-response","372","2028610","0.0-19.0-0.12","48415","List1B","black","man","","","","null","","","","","","","","",""
"null","<img src=""stim_listB/shout2.gif""style=""height:400px;""></stim_listB>","","html-keyboard-response","373","2030616","0.0-19.0-1.12","48415","List1B","black","man","","","","null","","","","","","","","",""
"null","is being shouted at by","","html-keyboard-response","374","2032621","0.0-19.0-2.12","48415","List1B","black","man","","","","null","","","","","","","","",""
"27495.959999999963","","","survey-text","375","2060120","0.0-19.0-3.12","48415","List1B","black","man","","","","","{""Q0"":""Mike is being shouted at by Kate.""}","<img src=""stim_listB/shout2.gif""style=""height:400px;""></stim_listB>","is being shouted at by","","","","","",""
"null","<div style=""font-size:60px;"">+</div>","","html-keyboard-response","376","2060629","0.0-19.0-0.13","48415","List1B","black","man","","","","null","","","","","","","","",""
"null","<img src=""stim_listB/kiss8.gif""style=""height:400px;""></stim_listB>","","html-keyboard-response","377","2062635","0.0-19.0-1.13","48415","List1B","black","man","","","","null","","","","","","","","",""
"null","is being kissed by","","html-keyboard-response","378","2064639","0.0-19.0-2.13","48415","List1B","black","man","","","","null","","","","","","","","",""
"12292.339999999851","","","survey-text","379","2076935","0.0-19.0-3.13","48415","List1B","black","man","","","","","{""Q0"":""Kate is being kissed by Jane.""}","<img src=""stim_listB/kiss8.gif""style=""height:400px;""></stim_listB>","is being kissed by","","","","","",""
"null","<div style=""font-size:60px;"">+</div>","","html-keyboard-response","380","2077439","0.0-19.0-0.14","48415","List1B","black","man","","","","null","","","","","","","","",""
"null","<img src=""stim_listB/shout5.gif""style=""height:400px;""></stim_listB>","","html-keyboard-response","381","2079445","0.0-19.0-1.14","48415","List1B","black","man","","","","null","","","","","","","","",""
"null","is shouting at","","html-keyboard-response","382","2081450","0.0-19.0-2.14","48415","List1B","black","man","","","","null","","","","","","","","",""
"12839.120000004303","","","survey-text","383","2094293","0.0-19.0-3.14","48415","List1B","black","man","","","","","{""Q0"":""Fred is shouting at Luke.""}","<img src=""stim_listB/shout5.gif""style=""height:400px;""></stim_listB>","is shouting at","","","","","",""
"null","<div style=""font-size:60px;"">+</div>","","html-keyboard-response","384","2094797","0.0-19.0-0.15","48415","List1B","black","man","","","","null","","","","","","","","",""
"null","<img src=""stim_listB/oppose3.gif""style=""height:400px;""></stim_listB>","","html-keyboard-response","385","2096800","0.0-19.0-1.15","48415","List1B","black","man","","","","null","","","","","","","","",""
"null","is opposing","","html-keyboard-response","386","2098805","0.0-19.0-2.15","48415","List1B","black","man","","","","null","","","","","","","","",""
"8343.935000011697","","","survey-text","387","2107153","0.0-19.0-3.15","48415","List1B","black","man","","","","","{""Q0"":""Dave is opposing Jane.""}","<img src=""stim_listB/oppose3.gif""style=""height:400px;""></stim_listB>","is opposing","","","","","",""
"null","<div style=""font-size:60px;"">+</div>","","html-keyboard-response","388","2107656","0.0-19.0-0.16","48415","List1B","black","man","","","","null","","","","","","","","",""
"null","<img src=""stim_listB/shout8.gif""style=""height:400px;""></stim_listB>","","html-keyboard-response","389","2109663","0.0-19.0-1.16","48415","List1B","black","man","","","","null","","","","","","","","",""
"null","is being shouted at by","","html-keyboard-response","390","2111669","0.0-19.0-2.16","48415","List1B","black","man","","","","null","","","","","","","","",""
"15116.745000006631","","","survey-text","391","2126789","0.0-19.0-3.16","48415","List1B","black","man","","","","","{""Q0"":""Kate is being shouted at by Jane.""}","<img src=""stim_listB/shout8.gif""style=""height:400px;""></stim_listB>","is being shouted at by","","","","","",""
"null","<div style=""font-size:60px;"">+</div>","","html-keyboard-response","392","2127291","0.0-19.0-0.17","48415","List1B","black","man","","","","null","","","","","","","","",""
"null","<img src=""stim_listB/oppose8.gif""style=""height:400px;""></stim_listB>","","html-keyboard-response","393","2129297","0.0-19.0-1.17","48415","List1B","black","man","","","","null","","","","","","","","",""
"null","is being opposed by","","html-keyboard-response","394","2131303","0.0-19.0-2.17","48415","List1B","black","man","","","","null","","","","","","","","",""
"10988.840000005439","","","survey-text","395","2142295","0.0-19.0-3.17","48415","List1B","black","man","","","","","{""Q0"":""Ruth is being opposed by Beth.""}","<img src=""stim_listB/oppose8.gif""style=""height:400px;""></stim_listB>","is being opposed by","","","","","",""
"null","<div style=""font-size:60px;"">+</div>","","html-keyboard-response","396","2142799","0.0-19.0-0.18","48415","List1B","black","man","","","","null","","","","","","","","",""
"null","<img src=""stim_listB/challenge3.gif""style=""height:400px;""></stim_listB>","","html-keyboard-response","397","2144805","0.0-19.0-1.18","48415","List1B","black","man","","","","null","","","","","","","","",""
"null","is challenging","","html-keyboard-response","398","2146808","0.0-19.0-2.18","48415","List1B","black","man","","","","null","","","","","","","","",""
"17824.79499999294","","","survey-text","399","2164636","0.0-19.0-3.18","48415","List1B","black","man","","","","","{""Q0"":""Dave is challenging Jane.""}","<img src=""stim_listB/challenge3.gif""style=""height:400px;""></stim_listB>","is challenging","","","","","",""
"null","<div style=""font-size:60px;"">+</div>","","html-keyboard-response","400","2165140","0.0-19.0-0.19","48415","List1B","black","man","","","","null","","","","","","","","",""
"null","<img src=""stim_listB/greet1.gif""style=""height:400px;""></stim_listB>","","html-keyboard-response","401","2167142","0.0-19.0-1.19","48415","List1B","black","man","","","","null","","","","","","","","",""
"null","is greeting","","html-keyboard-response","402","2169143","0.0-19.0-2.19","48415","List1B","black","man","","","","null","","","","","","","","",""
"10643.674999999348","","","survey-text","403","2179790","0.0-19.0-3.19","48415","List1B","black","man","","","","","{""Q0"":""Beth is greeting Mike.""}","<img src=""stim_listB/greet1.gif""style=""height:400px;""></stim_listB>","is greeting","","","","","",""
"9182.54499998875","<p>Thank you for completing that task.</p><p>The final part of this session is a questionnaire that will take about 4 minutes.</p><p>Press Continue.</p>","0","html-button-response","404","2188975","0.0-20.0","48415","List1B","black","man","","","","","","","","","","","","",""
"34306.63000000641","","","survey-text","405","2224290","0.0-21.0","48415","List1B","black","man","","","","","{""Q0"":""29"",""Q1"":""english"",""Q2"":""english"",""Q3"":""United States"",""Q4"":""Jamaican"",""Q5"":""black"",""Q6"":""male""}","","","demographics","","","","",""
"4867.995000007562","<p>Have you lived in the USA for the last 5 years or more?</p>","0","html-button-response","406","2229162","0.0-22.0","48415","List1B","black","man","","","","","","","","fiveyears","","","","",""
"3917.9549999972805","<p>Move the slider to show the extent to which you agree with the following statements.</p>","0","html-button-response","407","2234086","0.0-23.0","48415","List1B","black","man","","","","","","","","","","","","",""
"5074.13500000257","","","html-slider-response","408","2240166","0.0-24.0-0.0-0.0","48415","List1B","black","man","","","","","","","","survey_gender","100","","","My friends understand me.","filler"
"4326.594999991357","","","html-slider-response","409","2244495","0.0-24.0-0.0-0.1","48415","List1B","black","man","","","","","","","","survey_gender","100","","","I feel a bond with my friends.","filler"
"4697.0899999868125","","","html-slider-response","410","2249195","0.0-24.0-0.0-0.2","48415","List1B","black","man","","","","","","","","survey_gender","100","","","I am glad to have the friends that I have.","filler"
"4449.764999997802","","","html-slider-response","411","2253647","0.0-24.0-0.0-0.3","48415","List1B","black","man","","","","","","","","survey_gender","100","","","I feel a bond with my gender.","bond"
"7174.805000002496","","","html-slider-response","412","2260825","0.0-24.0-0.0-0.4","48415","List1B","black","man","","","","","","","","survey_gender","52","","","Routine is not important to me.","filler"
"4776.625000013504","","","html-slider-response","413","2265604","0.0-24.0-0.0-0.5","48415","List1B","black","man","","","","","","","","survey_gender","100","","","People of my gender have a lot in common with each other.","common"
"5771.745000005234","","","html-slider-response","414","2271378","0.0-24.0-0.0-0.6","48415","List1B","black","man","","","","","","","","survey_gender","87","","","I consider myself a highly empathetic person.","filler"
"6020.285000006203","","","html-slider-response","415","2277401","0.0-24.0-0.0-0.7","48415","List1B","black","man","","","","","","","","survey_gender","100","","","People of my gender are very similar to each other.","verysimilar"
"4824.884999994654","","","html-slider-response","416","2282229","0.0-24.0-0.0-0.8","48415","List1B","black","man","","","","","","","","survey_gender","100","","","Being my gender gives me a good feeling.","feeling"
"4144.530000004917","","","html-slider-response","417","2286376","0.0-24.0-0.0-0.9","48415","List1B","black","man","","","","","","","","survey_gender","100","","","Being around my friends gives me a good feeling.","filler"
"4144.555000006221","","","html-slider-response","418","2290523","0.0-24.0-0.0-0.10","48415","List1B","black","man","","","","","","","","survey_gender","100","","","I often think about my actions.","filler"
"5951.960000006016","","","html-slider-response","419","2296478","0.0-24.0-0.0-0.11","48415","List1B","black","man","","","","","","","","survey_gender","67","","","My friends have a lot in common with each other.","filler"
"3984.0800000093877","","","html-slider-response","420","2300465","0.0-24.0-0.0-0.12","48415","List1B","black","man","","","","","","","","survey_gender","0","","","I would say I am an animal person.","filler"
"8754.470000000205","","","html-slider-response","421","2309222","0.0-24.0-0.0-0.13","48415","List1B","black","man","","","","","","","","survey_gender","51","","","Family is not more important to me than friendship.","filler"
"3975.9749999940395","","","html-slider-response","422","2313201","0.0-24.0-0.0-0.14","48415","List1B","black","man","","","","","","","","survey_gender","100","","","I feel solidarity with my friends.","filler"
"4936.654999997467","","","html-slider-response","423","2318139","0.0-24.0-0.0-0.15","48415","List1B","black","man","","","","","","","","survey_gender","100","","","I feel committed to my gender.","committed"
"11400.109999987297","","","html-slider-response","424","2329542","0.0-24.0-0.0-0.16","48415","List1B","black","man","","","","","","","","survey_gender","100","","","The fact that I am my gender is an important part of my identity.","identity"
"4088.5899999989197","","","html-slider-response","425","2333633","0.0-24.0-0.0-0.17","48415","List1B","black","man","","","","","","","","survey_gender","100","","","Most of the friends in my life are very similar to me.","filler"
"4896.3499999954365","","","html-slider-response","426","2338532","0.0-24.0-0.0-0.18","48415","List1B","black","man","","","","","","","","survey_gender","100","","","Being my gender is an important part of how I see myself.","important"
"7958.075000002515","","","html-slider-response","427","2346493","0.0-24.0-0.0-0.19","48415","List1B","black","man","","","","","","","","survey_gender","51","","","It is not always easy for people to know what I am thinking.","filler"
"3133.219999989029","","","html-slider-response","428","2349629","0.0-24.0-0.0-0.20","48415","List1B","black","man","","","","","","","","survey_gender","100","","","I am glad to be my gender.","glad"
"4400.540000002831","","","html-slider-response","429","2354032","0.0-24.0-0.0-0.21","48415","List1B","black","man","","","","","","","","survey_gender","100","","","I have a lot in common with the average person of my gender.","average"
"3720.3799999984913","","","html-slider-response","430","2357755","0.0-24.0-0.0-0.22","48415","List1B","black","man","","","","","","","","survey_gender","100","","","It is pleasant to be my gender.","pleasant"
"3520.7950000041164","","","html-slider-response","431","2361278","0.0-24.0-0.0-0.23","48415","List1B","black","man","","","","","","","","survey_gender","100","","","I feel solidarity with my gender.","solidarity"
"6372.100000008009","","","html-slider-response","432","2367652","0.0-24.0-0.0-0.24","48415","List1B","black","man","","","","","","","","survey_gender","92","","","I have a lot in common with my friends.","filler"
"3956.1649999958463","","","html-slider-response","433","2371611","0.0-24.0-0.0-0.25","48415","List1B","black","man","","","","","","","","survey_gender","100","","","I think that my gender has a lot to be proud of.","proud"
"10131.529999998864","","","html-slider-response","434","2381745","0.0-24.0-0.0-0.26","48415","List1B","black","man","","","","","","","","survey_gender","71","","","I often think about the fact that I am my gender.","often"
"7845.440000004601","","","html-slider-response","435","2389593","0.0-24.0-0.0-0.27","48415","List1B","black","man","","","","","","","","survey_gender","100","","","I am similar to the average person of my gender.","similar"
"3362.014999991283","","","html-slider-response","436","2392958","0.0-24.0-1.0-0.0","48415","List1B","black","man","","","","","","","","survey_race","100","","","Being my race gives me a good feeling.","feeling"
"9723.53500001179","","","html-slider-response","437","2402684","0.0-24.0-1.0-0.1","48415","List1B","black","man","","","","","","","","survey_race","0","","","My age is not an important part of who I am.","filler"
"3824.4649999979883","","","html-slider-response","438","2406512","0.0-24.0-1.0-0.2","48415","List1B","black","man","","","","","","","","survey_race","100","","","I feel committed to my race.","committed"
"6032.704999990761","","","html-slider-response","439","2412546","0.0-24.0-1.0-0.3","48415","List1B","black","man","","","","","","","","survey_race","67","","","I am similar to the average person of my race.","similar"
"23018.12500000233","","","html-slider-response","440","2435568","0.0-24.0-1.0-0.4","48415","List1B","black","man","","","","","","","","survey_race","100","","","Being my race is an important part of how I see myself.","important"
"8411.38000000501","","","html-slider-response","441","2443982","0.0-24.0-1.0-0.5","48415","List1B","black","man","","","","","","","","survey_race","0","","","I consider myself an introvert.","filler"
"5831.594999996014","","","html-slider-response","442","2449816","0.0-24.0-1.0-0.6","48415","List1B","black","man","","","","","","","","survey_race","100","","","I think that my race has a lot to be proud of.","proud"
"4096.74000000814","","","html-slider-response","443","2453916","0.0-24.0-1.0-0.7","48415","List1B","black","man","","","","","","","","survey_race","100","","","It is pleasant to be my race.","pleasant"
"3004.5449999887496","","","html-slider-response","444","2456923","0.0-24.0-1.0-0.8","48415","List1B","black","man","","","","","","","","survey_race","100","","","I am glad to be the age I am.","filler"
"7828.125","","","html-slider-response","445","2464753","0.0-24.0-1.0-0.9","48415","List1B","black","man","","","","","","","","survey_race","0","","","I often think about the fact that I am my race.","often"
"3052.9100000131875","","","html-slider-response","446","2467809","0.0-24.0-1.0-0.10","48415","List1B","black","man","","","","","","","","survey_race","100","","","I feel solidarity with my race.","solidarity"
"3923.790000000503","","","html-slider-response","447","2471735","0.0-24.0-1.0-0.11","48415","List1B","black","man","","","","","","","","survey_race","100","","","People of my race have a lot in common with each other.","common"
"4568.530000004452","","","html-slider-response","448","2476306","0.0-24.0-1.0-0.12","48415","List1B","black","man","","","","","","","","survey_race","52","","","I often think about the fact that I am my age.","filler"
"3907.8799999984913","","","html-slider-response","449","2480216","0.0-24.0-1.0-0.13","48415","List1B","black","man","","","","","","","","survey_race","100","","","The fact that I am my race is an important part of my identity.","identity"
"5051.980000003707","","","html-slider-response","450","2485271","0.0-24.0-1.0-0.14","48415","List1B","black","man","","","","","","","","survey_race","100","","","People my age have a lot in common with each other.","filler"
"5951.3699999949895","","","html-slider-response","451","2491225","0.0-24.0-1.0-0.15","48415","List1B","black","man","","","","","","","","survey_race","100","","","I feel a bond with people the same age as me.","filler"
"2876.4499999959953","","","html-slider-response","452","2494104","0.0-24.0-1.0-0.16","48415","List1B","black","man","","","","","","","","survey_race","100","","","I am glad to be my age.","filler"
"5283.90000000922","","","html-slider-response","453","2499391","0.0-24.0-1.0-0.17","48415","List1B","black","man","","","","","","","","survey_race","51","","","I feel solidarity with people the same age as me.","filler"
"7325.670000005979","","","html-slider-response","454","2506719","0.0-24.0-1.0-0.18","48415","List1B","black","man","","","","","","","","survey_race","25","","","Getting older does not worry me.","filler"
"4069.6750000058673","","","html-slider-response","455","2510792","0.0-24.0-1.0-0.19","48415","List1B","black","man","","","","","","","","survey_race","100","","","The older I get, the wiser I feel.","filler"
"3953.6050000023097","","","html-slider-response","456","2514748","0.0-24.0-1.0-0.20","48415","List1B","black","man","","","","","","","","survey_race","100","","","I enjoy being in large groups.","filler"
"2930.3050000015646","","","html-slider-response","457","2517681","0.0-24.0-1.0-0.21","48415","List1B","black","man","","","","","","","","survey_race","100","","","I feel a bond with my race.","bond"
"4689.915000010282","","","html-slider-response","458","2522373","0.0-24.0-1.0-0.22","48415","List1B","black","man","","","","","","","","survey_race","100","","","Being my age gives me a good feeling.","filler"
"3321.0649999966845","","","html-slider-response","459","2525697","0.0-24.0-1.0-0.23","48415","List1B","black","man","","","","","","","","survey_race","100","","","People of my race are very similar to each other.","verysimilar"
"2621.780000001192","","","html-slider-response","460","2528321","0.0-24.0-1.0-0.24","48415","List1B","black","man","","","","","","","","survey_race","100","","","I am glad to be my race.","glad"
"7476.32499999553","","","html-slider-response","461","2535799","0.0-24.0-1.0-0.25","48415","List1B","black","man","","","","","","","","survey_race","100","","","I consider myself an extrovert.","filler"
"4113.619999989402","","","html-slider-response","462","2539916","0.0-24.0-1.0-0.26","48415","List1B","black","man","","","","","","","","survey_race","100","","","I have a lot in common with people of a similar age to me.","filler"
"3361.469999989029","","","html-slider-response","463","2543280","0.0-24.0-1.0-0.27","48415","List1B","black","man","","","","","","","","survey_race","100","","","I have a lot in common with the average person of my race.","average"
"7672.114999993704","","","survey-text","464","2550956","0.0-25.0","48415","List1B","black","man","","","","","{""Q0"":""615e12caec826a45950bebfb""}","","","worker_id","","","","",""
"26628.444999995176","","","external-html","465","2577853","0.0-26.0","48415","List1B","black","man","debrief.html","","","","","","","","","","","",""
