rt,stimulus,button_pressed,trial_type,trial_index,time_elapsed,internal_node_id,subject,list,ppt_race,ppt_gender,url,first_guess,correct,key_press,responses,image_type,phrase_type,test_part,response,stimulus1,stimulus2,question_type,survey_item
2074,Welcome to the experiment. Press Continue to begin.,0,html-button-response,0,2079,0.0-0.0,48533,List2A,white,man,,,,,,,,,,,,,
23559,,,external-html,1,26790,0.0-1.0,48533,List2A,white,man,consent.html,,,,,,,,,,,,
60183,"<p>On the next page, you will see portraits of 8 people and their names.</p><p>Your first task is to take a few minutes to memorise the names of these people.</p><p>You will have to recall their names during the rest of the experiment, so it is</p><p>essential that you try to memorise these people and their names as best as you can.</p><br><p><strong>You will then be tested on your memory of these names and portraits.</strong></p><br><p>The experiment will start after you have completed this memory test.</p><br><p>Ready?</p>",0,html-button-response,2,86975,0.0-2.0,48533,List2A,white,man,,,,,,,,,,,,,
46262,"<img src='img/portrait_matrix_list2.jpg' style='width:900px;height:500px;''></img><p>If you have memorised all the portraits and names and are ready to start, press Continue.</p><p><strong>Please note: Your memory of these faces will be tested 4 times during this experiment.</strong></p>",0,html-button-response,3,134241,0.0-3.0-0.0,48533,List2A,white,man,,,,,,,,,,,,,
12912,"<img src=""portrait/WM1.jpg""style=""height:400px;""></img>",6,html-button-response,4,148156,0.0-3.0-1.0,48533,List2A,white,man,,TRUE,6,,,,,,,,,,
null,CORRECT,,html-keyboard-response,5,149659,0.0-3.0-2.0-0.0,48533,List2A,white,man,,,,null,,,,,,,,,
3979,"<img src=""portrait/BW2.jpg""style=""height:400px;""></img>",2,html-button-response,6,153640,0.0-3.0-4.0,48533,List2A,white,man,,TRUE,2,,,,,,,,,,
null,CORRECT,,html-keyboard-response,7,155142,0.0-3.0-5.0-0.0,48533,List2A,white,man,,,,null,,,,,,,,,
7799,"<img src=""portrait/WM2.jpg""style=""height:400px;""></img>",7,html-button-response,8,162942,0.0-3.0-7.0,48533,List2A,white,man,,TRUE,7,,,,,,,,,,
null,CORRECT,,html-keyboard-response,9,164445,0.0-3.0-8.0-0.0,48533,List2A,white,man,,,,null,,,,,,,,,
2618,"<img src=""portrait/WW2.jpg""style=""height:400px;""></img>",3,html-button-response,10,167064,0.0-3.0-10.0,48533,List2A,white,man,,TRUE,3,,,,,,,,,,
null,CORRECT,,html-keyboard-response,11,168566,0.0-3.0-11.0-0.0,48533,List2A,white,man,,,,null,,,,,,,,,
3104,"<img src=""portrait/WW1.jpg""style=""height:400px;""></img>",1,html-button-response,12,171672,0.0-3.0-13.0,48533,List2A,white,man,,TRUE,1,,,,,,,,,,
null,CORRECT,,html-keyboard-response,13,173175,0.0-3.0-14.0-0.0,48533,List2A,white,man,,,,null,,,,,,,,,
3212,"<img src=""portrait/BW1.jpg""style=""height:400px;""></img>",0,html-button-response,14,176388,0.0-3.0-16.0,48533,List2A,white,man,,TRUE,0,,,,,,,,,,
null,CORRECT,,html-keyboard-response,15,177890,0.0-3.0-17.0-0.0,48533,List2A,white,man,,,,null,,,,,,,,,
2209,"<img src=""portrait/BM2.jpg""style=""height:400px;""></img>",5,html-button-response,16,180100,0.0-3.0-19.0,48533,List2A,white,man,,TRUE,5,,,,,,,,,,
null,CORRECT,,html-keyboard-response,17,181603,0.0-3.0-20.0-0.0,48533,List2A,white,man,,,,null,,,,,,,,,
3682,"<img src=""portrait/BM1.jpg""style=""height:400px;""></img>",4,html-button-response,18,185287,0.0-3.0-22.0,48533,List2A,white,man,,TRUE,4,,,,,,,,,,
null,CORRECT,,html-keyboard-response,19,186791,0.0-3.0-23.0-0.0,48533,List2A,white,man,,,,null,,,,,,,,,
2654,<p>You got 8 out of 8 right first time. Press Continue.</p>,0,html-button-response,20,189447,0.0-3.0-25.0,48533,List2A,white,man,,,,,,,,,,,,,
49513,"<p>In this experiment, you will view photographs of the people from the memory game interacting.</p><p>By using the <strong>exact</strong> phrase given <i>after</i> the photograph appears and recalling the correct names of the people in the photographs, form a sentence describing the interaction. You do not need to capitalise names.</p><p>Type your answer in the space provided. Please complete every sentence before moving onto the next trial.</p><p>You will only have a few seconds to memorise each given photograph and phrase before you can respond, so try your best to focus.</p><p>An example is given below. Press 'Continue' when you are ready.</p><img src='img/speaking_example.jpg' style='width:800px;height:460px;''></img>",0,html-button-response,21,239962,0.0-4.0,48533,List2A,white,man,,,,,,,,,,,,,
1927,"<p>Before the experiment starts, you will watch two example trials. Press 'Continue'.</p>",0,html-button-response,22,242890,0.0-5.0,48533,List2A,white,man,,,,,,,,,,,,,
null,<img src='img/play_eg.gif' style='height:400px;''></img>,,html-keyboard-response,23,245894,0.0-6.0,48533,List2A,white,man,,,,null,,,,,,,,,
null,<p>is playing with</p>,,html-keyboard-response,24,247895,0.0-7.0,48533,List2A,white,man,,,,null,,,,,,,,,
2936,<p><b>Answer:</b> jane is playing with ruth</p>,0,html-button-response,25,250832,0.0-8.0,48533,List2A,white,man,,,,,,,,,,,,,
null,<img src='img/dance_eg.gif' style='height:400px;''></img>,,html-keyboard-response,26,253835,0.0-9.0,48533,List2A,white,man,,,,null,,,,,,,,,
null,<p>is being entertained by</p>,,html-keyboard-response,27,255836,0.0-10.0,48533,List2A,white,man,,,,null,,,,,,,,,
3120,<p><b>Answer:</b> fred is being entertained by mike</p>,0,html-button-response,28,258957,0.0-11.0,48533,List2A,white,man,,,,,,,,,,,,,
24562,"<p>Ready to start the experiment?</p><br><p><strong>Remember to describe the picture using a full sentence,</strong></p><p><strong>that combines the names of the people with the <i>exact</i> phrase given.</strong></p><p><strong>To receive full payment you must do this correctly.</strong></p><p><strong> You do not need to capitalise names or use punctuation.</strong></p><br><p>Press 'Continue' to begin.</p>",0,html-button-response,29,284521,0.0-12.0,48533,List2A,white,man,,,,,,,,,,,,,
null,"<div style=""font-size:60px;"">+</div>",,html-keyboard-response,30,286025,0.0-13.0-0.0,48533,List2A,white,man,,,,null,,,,,,,,,
null,"<img src=""stim_listA/copy3.gif""style=""height:400px;""></stim_listA>",,html-keyboard-response,31,288027,0.0-13.0-1.0,48533,List2A,white,man,,,,null,,,,,,,,,
null,is copying,,html-keyboard-response,32,290029,0.0-13.0-2.0,48533,List2A,white,man,,,,null,,,,,,,,,
246622,,,survey-text,33,536685,0.0-13.0-3.0,48533,List2A,white,man,,,,,"{""Q0"":""Mike is copying Beth""}","<img src=""stim_listA/copy3.gif""style=""height:400px;""></stim_listA>",is copying,,,,,,
null,"<div style=""font-size:60px;"">+</div>",,html-keyboard-response,34,537187,0.0-13.0-0.1,48533,List2A,white,man,,,,null,,,,,,,,,
null,"<img src=""stim_listA/greet1.gif""style=""height:400px;""></stim_listA>",,html-keyboard-response,35,539191,0.0-13.0-1.1,48533,List2A,white,man,,,,null,,,,,,,,,
null,is greeting,,html-keyboard-response,36,541193,0.0-13.0-2.1,48533,List2A,white,man,,,,null,,,,,,,,,
27488,,,survey-text,37,568687,0.0-13.0-3.1,48533,List2A,white,man,,,,,"{""Q0"":""Dave is greeting Ruth""}","<img src=""stim_listA/greet1.gif""style=""height:400px;""></stim_listA>",is greeting,,,,,,
null,"<div style=""font-size:60px;"">+</div>",,html-keyboard-response,38,569189,0.0-13.0-0.2,48533,List2A,white,man,,,,null,,,,,,,,,
null,"<img src=""stim_listA/hug6.gif""style=""height:400px;""></stim_listA>",,html-keyboard-response,39,571191,0.0-13.0-1.2,48533,List2A,white,man,,,,null,,,,,,,,,
null,is being hugged by,,html-keyboard-response,40,573193,0.0-13.0-2.2,48533,List2A,white,man,,,,null,,,,,,,,,
6663,,,survey-text,41,579862,0.0-13.0-3.2,48533,List2A,white,man,,,,,"{""Q0"":""Dave is being hugged by Mike""}","<img src=""stim_listA/hug6.gif""style=""height:400px;""></stim_listA>",is being hugged by,,,,,,
null,"<div style=""font-size:60px;"">+</div>",,html-keyboard-response,42,580365,0.0-13.0-0.3,48533,List2A,white,man,,,,null,,,,,,,,,
null,"<img src=""stim_listA/hug3.gif""style=""height:400px;""></stim_listA>",,html-keyboard-response,43,582367,0.0-13.0-1.3,48533,List2A,white,man,,,,null,,,,,,,,,
null,is hugging,,html-keyboard-response,44,584369,0.0-13.0-2.3,48533,List2A,white,man,,,,null,,,,,,,,,
10686,,,survey-text,45,595060,0.0-13.0-3.3,48533,List2A,white,man,,,,,"{""Q0"":""Fred is hugging Beth""}","<img src=""stim_listA/hug3.gif""style=""height:400px;""></stim_listA>",is hugging,,,,,,
null,"<div style=""font-size:60px;"">+</div>",,html-keyboard-response,46,595562,0.0-13.0-0.4,48533,List2A,white,man,,,,null,,,,,,,,,
null,"<img src=""stim_listA/oppose4.gif""style=""height:400px;""></stim_listA>",,html-keyboard-response,47,597564,0.0-13.0-1.4,48533,List2A,white,man,,,,null,,,,,,,,,
null,is being opposed by,,html-keyboard-response,48,599566,0.0-13.0-2.4,48533,List2A,white,man,,,,null,,,,,,,,,
9122,,,survey-text,49,608695,0.0-13.0-3.4,48533,List2A,white,man,,,,,"{""Q0"":""Fred is being opposed by Beth""}","<img src=""stim_listA/oppose4.gif""style=""height:400px;""></stim_listA>",is being opposed by,,,,,,
null,"<div style=""font-size:60px;"">+</div>",,html-keyboard-response,50,609197,0.0-13.0-0.5,48533,List2A,white,man,,,,null,,,,,,,,,
null,"<img src=""stim_listA/oppose8.gif""style=""height:400px;""></stim_listA>",,html-keyboard-response,51,611200,0.0-13.0-1.5,48533,List2A,white,man,,,,null,,,,,,,,,
null,is being opposed by,,html-keyboard-response,52,613202,0.0-13.0-2.5,48533,List2A,white,man,,,,null,,,,,,,,,
19061,,,survey-text,53,632269,0.0-13.0-3.5,48533,List2A,white,man,,,,,"{""Q0"":""Ruth is being opposed by Beth""}","<img src=""stim_listA/oppose8.gif""style=""height:400px;""></stim_listA>",is being opposed by,,,,,,
null,"<div style=""font-size:60px;"">+</div>",,html-keyboard-response,54,632771,0.0-13.0-0.6,48533,List2A,white,man,,,,null,,,,,,,,,
null,"<img src=""stim_listA/copy2.gif""style=""height:400px;""></stim_listA>",,html-keyboard-response,55,634773,0.0-13.0-1.6,48533,List2A,white,man,,,,null,,,,,,,,,
null,is being copied by,,html-keyboard-response,56,636775,0.0-13.0-2.6,48533,List2A,white,man,,,,null,,,,,,,,,
3417087,,,survey-text,57,5540601,0.0-13.0-3.6,48533,List2A,white,man,,,,,"{""Q0"":""Ruth is being copied by Luke""}","<img src=""stim_listA/copy2.gif""style=""height:400px;""></stim_listA>",is being copied by,,,,,,
null,"<div style=""font-size:60px;"">+</div>",,html-keyboard-response,58,5541104,0.0-13.0-0.7,48533,List2A,white,man,,,,null,,,,,,,,,
null,"<img src=""stim_listA/shout2.gif""style=""height:400px;""></stim_listA>",,html-keyboard-response,59,5543106,0.0-13.0-1.7,48533,List2A,white,man,,,,null,,,,,,,,,
null,is being shouted at by,,html-keyboard-response,60,5545109,0.0-13.0-2.7,48533,List2A,white,man,,,,null,,,,,,,,,
15972,,,survey-text,61,5561087,0.0-13.0-3.7,48533,List2A,white,man,,,,,"{""Q0"":""Jane is being shouted at by Dave""}","<img src=""stim_listA/shout2.gif""style=""height:400px;""></stim_listA>",is being shouted at by,,,,,,
null,"<div style=""font-size:60px;"">+</div>",,html-keyboard-response,62,5561589,0.0-13.0-0.8,48533,List2A,white,man,,,,null,,,,,,,,,
null,"<img src=""stim_listA/challenge6.gif""style=""height:400px;""></stim_listA>",,html-keyboard-response,63,5563592,0.0-13.0-1.8,48533,List2A,white,man,,,,null,,,,,,,,,
null,is being challenged by,,html-keyboard-response,64,5565593,0.0-13.0-2.8,48533,List2A,white,man,,,,null,,,,,,,,,
15147,,,survey-text,65,5580749,0.0-13.0-3.8,48533,List2A,white,man,,,,,"{""Q0"":""Luke is being challenged by Mike""}","<img src=""stim_listA/challenge6.gif""style=""height:400px;""></stim_listA>",is being challenged by,,,,,,
null,"<div style=""font-size:60px;"">+</div>",,html-keyboard-response,66,5581251,0.0-13.0-0.9,48533,List2A,white,man,,,,null,,,,,,,,,
null,"<img src=""stim_listA/greet3.gif""style=""height:400px;""></stim_listA>",,html-keyboard-response,67,5583253,0.0-13.0-1.9,48533,List2A,white,man,,,,null,,,,,,,,,
null,is greeting,,html-keyboard-response,68,5585256,0.0-13.0-2.9,48533,List2A,white,man,,,,null,,,,,,,,,
6533,,,survey-text,69,5591793,0.0-13.0-3.9,48533,List2A,white,man,,,,,"{""Q0"":""Beth is greeting Mike""}","<img src=""stim_listA/greet3.gif""style=""height:400px;""></stim_listA>",is greeting,,,,,,
null,"<div style=""font-size:60px;"">+</div>",,html-keyboard-response,70,5592296,0.0-13.0-0.10,48533,List2A,white,man,,,,null,,,,,,,,,
null,"<img src=""stim_listA/copy7.gif""style=""height:400px;""></stim_listA>",,html-keyboard-response,71,5594298,0.0-13.0-1.10,48533,List2A,white,man,,,,null,,,,,,,,,
null,is copying,,html-keyboard-response,72,5596300,0.0-13.0-2.10,48533,List2A,white,man,,,,null,,,,,,,,,
7653,,,survey-text,73,5603959,0.0-13.0-3.10,48533,List2A,white,man,,,,,"{""Q0"":""Beth is copying Ruth""}","<img src=""stim_listA/copy7.gif""style=""height:400px;""></stim_listA>",is copying,,,,,,
null,"<div style=""font-size:60px;"">+</div>",,html-keyboard-response,74,5604461,0.0-13.0-0.11,48533,List2A,white,man,,,,null,,,,,,,,,
null,"<img src=""stim_listA/hug2.gif""style=""height:400px;""></stim_listA>",,html-keyboard-response,75,5606464,0.0-13.0-1.11,48533,List2A,white,man,,,,null,,,,,,,,,
null,is being hugged by,,html-keyboard-response,76,5608466,0.0-13.0-2.11,48533,List2A,white,man,,,,null,,,,,,,,,
9881,,,survey-text,77,5618352,0.0-13.0-3.11,48533,List2A,white,man,,,,,"{""Q0"":""Jane is being hugged by Dave""}","<img src=""stim_listA/hug2.gif""style=""height:400px;""></stim_listA>",is being hugged by,,,,,,
null,"<div style=""font-size:60px;"">+</div>",,html-keyboard-response,78,5618853,0.0-13.0-0.12,48533,List2A,white,man,,,,null,,,,,,,,,
null,"<img src=""stim_listA/look1.gif""style=""height:400px;""></stim_listA>",,html-keyboard-response,79,5620856,0.0-13.0-1.12,48533,List2A,white,man,,,,null,,,,,,,,,
null,is looking at,,html-keyboard-response,80,5622858,0.0-13.0-2.12,48533,List2A,white,man,,,,null,,,,,,,,,
6155,,,survey-text,81,5629017,0.0-13.0-3.12,48533,List2A,white,man,,,,,"{""Q0"":""Ruth is looking at Luke""}","<img src=""stim_listA/look1.gif""style=""height:400px;""></stim_listA>",is looking at,,,,,,
null,"<div style=""font-size:60px;"">+</div>",,html-keyboard-response,82,5629519,0.0-13.0-0.13,48533,List2A,white,man,,,,null,,,,,,,,,
null,"<img src=""stim_listA/shout7.gif""style=""height:400px;""></stim_listA>",,html-keyboard-response,83,5631521,0.0-13.0-1.13,48533,List2A,white,man,,,,null,,,,,,,,,
null,is shouting at,,html-keyboard-response,84,5633523,0.0-13.0-2.13,48533,List2A,white,man,,,,null,,,,,,,,,
11920,,,survey-text,85,5645448,0.0-13.0-3.13,48533,List2A,white,man,,,,,"{""Q0"":""Ruth is shouting at Beth""}","<img src=""stim_listA/shout7.gif""style=""height:400px;""></stim_listA>",is shouting at,,,,,,
null,"<div style=""font-size:60px;"">+</div>",,html-keyboard-response,86,5645951,0.0-13.0-0.14,48533,List2A,white,man,,,,null,,,,,,,,,
null,"<img src=""stim_listA/seduce7.gif""style=""height:400px;""></stim_listA>",,html-keyboard-response,87,5647953,0.0-13.0-1.14,48533,List2A,white,man,,,,null,,,,,,,,,
null,is seducing,,html-keyboard-response,88,5649954,0.0-13.0-2.14,48533,List2A,white,man,,,,null,,,,,,,,,
5819,,,survey-text,89,5655779,0.0-13.0-3.14,48533,List2A,white,man,,,,,"{""Q0"":""Kate is seducing Ruth""}","<img src=""stim_listA/seduce7.gif""style=""height:400px;""></stim_listA>",is seducing,,,,,,
null,"<div style=""font-size:60px;"">+</div>",,html-keyboard-response,90,5656280,0.0-13.0-0.15,48533,List2A,white,man,,,,null,,,,,,,,,
null,"<img src=""stim_listA/oppose7.gif""style=""height:400px;""></stim_listA>",,html-keyboard-response,91,5658282,0.0-13.0-1.15,48533,List2A,white,man,,,,null,,,,,,,,,
null,is opposing,,html-keyboard-response,92,5660284,0.0-13.0-2.15,48533,List2A,white,man,,,,null,,,,,,,,,
7827,,,survey-text,93,5668117,0.0-13.0-3.15,48533,List2A,white,man,,,,,"{""Q0"":""Jane is opposing Kate""}","<img src=""stim_listA/oppose7.gif""style=""height:400px;""></stim_listA>",is opposing,,,,,,
null,"<div style=""font-size:60px;"">+</div>",,html-keyboard-response,94,5668620,0.0-13.0-0.16,48533,List2A,white,man,,,,null,,,,,,,,,
null,"<img src=""stim_listA/touch5.gif""style=""height:400px;""></stim_listA>",,html-keyboard-response,95,5670623,0.0-13.0-1.16,48533,List2A,white,man,,,,null,,,,,,,,,
null,is touching,,html-keyboard-response,96,5672624,0.0-13.0-2.16,48533,List2A,white,man,,,,null,,,,,,,,,
3450,,,survey-text,97,5676079,0.0-13.0-3.16,48533,List2A,white,man,,,,,"{""Q0"":""Mike is touching Dave""}","<img src=""stim_listA/touch5.gif""style=""height:400px;""></stim_listA>",is touching,,,,,,
null,"<div style=""font-size:60px;"">+</div>",,html-keyboard-response,98,5676582,0.0-13.0-0.17,48533,List2A,white,man,,,,null,,,,,,,,,
null,"<img src=""stim_listA/kiss7.gif""style=""height:400px;""></stim_listA>",,html-keyboard-response,99,5678583,0.0-13.0-1.17,48533,List2A,white,man,,,,null,,,,,,,,,
null,is kissing,,html-keyboard-response,100,5680585,0.0-13.0-2.17,48533,List2A,white,man,,,,null,,,,,,,,,
3811,,,survey-text,101,5684400,0.0-13.0-3.17,48533,List2A,white,man,,,,,"{""Q0"":""Ruth is kissing Beth""}","<img src=""stim_listA/kiss7.gif""style=""height:400px;""></stim_listA>",is kissing,,,,,,
null,"<div style=""font-size:60px;"">+</div>",,html-keyboard-response,102,5684902,0.0-13.0-0.18,48533,List2A,white,man,,,,null,,,,,,,,,
null,"<img src=""stim_listA/copy6.gif""style=""height:400px;""></stim_listA>",,html-keyboard-response,103,5686904,0.0-13.0-1.18,48533,List2A,white,man,,,,null,,,,,,,,,
null,is being copied by,,html-keyboard-response,104,5688906,0.0-13.0-2.18,48533,List2A,white,man,,,,null,,,,,,,,,
7087,,,survey-text,105,5695997,0.0-13.0-3.18,48533,List2A,white,man,,,,,"{""Q0"":""Luke is being copied by Mike""}","<img src=""stim_listA/copy6.gif""style=""height:400px;""></stim_listA>",is being copied by,,,,,,
null,"<div style=""font-size:60px;"">+</div>",,html-keyboard-response,106,5696499,0.0-13.0-0.19,48533,List2A,white,man,,,,null,,,,,,,,,
null,"<img src=""stim_listA/touch2.gif""style=""height:400px;""></stim_listA>",,html-keyboard-response,107,5698502,0.0-13.0-1.19,48533,List2A,white,man,,,,null,,,,,,,,,
null,is being touched by,,html-keyboard-response,108,5700504,0.0-13.0-2.19,48533,List2A,white,man,,,,null,,,,,,,,,
6165,,,survey-text,109,5706674,0.0-13.0-3.19,48533,List2A,white,man,,,,,"{""Q0"":""Luke is being touched by Ruth""}","<img src=""stim_listA/touch2.gif""style=""height:400px;""></stim_listA>",is being touched by,,,,,,
135355,"<img src='img/portrait_matrix_list2.jpg' style='width:900px;height:500px;''></img><p>If you have memorised all the portraits and names and are ready to start, press Continue.</p><p><strong>Please note: Your memory of these faces will be tested 4 times during this experiment.</strong></p>",0,html-button-response,110,5842034,0.0-14.0-0.0,48533,List2A,white,man,,,,,,,,,,,,,
2420,"<img src=""portrait/BM2.jpg""style=""height:400px;""></img>",5,html-button-response,111,5845457,0.0-14.0-1.0,48533,List2A,white,man,,TRUE,5,,,,,,,,,,
null,CORRECT,,html-keyboard-response,112,5846960,0.0-14.0-2.0-0.0,48533,List2A,white,man,,,,null,,,,,,,,,
1773,"<img src=""portrait/BM1.jpg""style=""height:400px;""></img>",4,html-button-response,113,5848735,0.0-14.0-4.0,48533,List2A,white,man,,TRUE,4,,,,,,,,,,
null,CORRECT,,html-keyboard-response,114,5850238,0.0-14.0-5.0-0.0,48533,List2A,white,man,,,,null,,,,,,,,,
2863,"<img src=""portrait/BW1.jpg""style=""height:400px;""></img>",0,html-button-response,115,5853103,0.0-14.0-7.0,48533,List2A,white,man,,TRUE,0,,,,,,,,,,
null,CORRECT,,html-keyboard-response,116,5854606,0.0-14.0-8.0-0.0,48533,List2A,white,man,,,,null,,,,,,,,,
5063,"<img src=""portrait/BW2.jpg""style=""height:400px;""></img>",2,html-button-response,117,5859671,0.0-14.0-10.0,48533,List2A,white,man,,TRUE,2,,,,,,,,,,
null,CORRECT,,html-keyboard-response,118,5861174,0.0-14.0-11.0-0.0,48533,List2A,white,man,,,,null,,,,,,,,,
1499,"<img src=""portrait/WW2.jpg""style=""height:400px;""></img>",3,html-button-response,119,5862675,0.0-14.0-13.0,48533,List2A,white,man,,TRUE,3,,,,,,,,,,
null,CORRECT,,html-keyboard-response,120,5864178,0.0-14.0-14.0-0.0,48533,List2A,white,man,,,,null,,,,,,,,,
4697,"<img src=""portrait/WW1.jpg""style=""height:400px;""></img>",1,html-button-response,121,5868876,0.0-14.0-16.0,48533,List2A,white,man,,TRUE,1,,,,,,,,,,
null,CORRECT,,html-keyboard-response,122,5870379,0.0-14.0-17.0-0.0,48533,List2A,white,man,,,,null,,,,,,,,,
2215,"<img src=""portrait/WM1.jpg""style=""height:400px;""></img>",6,html-button-response,123,5872595,0.0-14.0-19.0,48533,List2A,white,man,,TRUE,6,,,,,,,,,,
null,CORRECT,,html-keyboard-response,124,5874098,0.0-14.0-20.0-0.0,48533,List2A,white,man,,,,null,,,,,,,,,
1147,"<img src=""portrait/WM2.jpg""style=""height:400px;""></img>",7,html-button-response,125,5875248,0.0-14.0-22.0,48533,List2A,white,man,,TRUE,7,,,,,,,,,,
null,CORRECT,,html-keyboard-response,126,5876750,0.0-14.0-23.0-0.0,48533,List2A,white,man,,,,null,,,,,,,,,
1362,<p>You got 8 out of 8 right first time. Press Continue.</p>,0,html-button-response,127,5878113,0.0-14.0-25.0,48533,List2A,white,man,,,,,,,,,,,,,
null,"<div style=""font-size:60px;"">+</div>",,html-keyboard-response,128,5879616,0.0-15.0-0.0,48533,List2A,white,man,,,,null,,,,,,,,,
null,"<img src=""stim_listA/greet2.gif""style=""height:400px;""></stim_listA>",,html-keyboard-response,129,5881619,0.0-15.0-1.0,48533,List2A,white,man,,,,null,,,,,,,,,
null,is being greeted by,,html-keyboard-response,130,5883621,0.0-15.0-2.0,48533,List2A,white,man,,,,null,,,,,,,,,
5792,,,survey-text,131,5889419,0.0-15.0-3.0,48533,List2A,white,man,,,,,"{""Q0"":""Luke is being greeted by Jane""}","<img src=""stim_listA/greet2.gif""style=""height:400px;""></stim_listA>",is being greeted by,,,,,,
null,"<div style=""font-size:60px;"">+</div>",,html-keyboard-response,132,5889920,0.0-15.0-0.1,48533,List2A,white,man,,,,null,,,,,,,,,
null,"<img src=""stim_listA/look5.gif""style=""height:400px;""></stim_listA>",,html-keyboard-response,133,5891923,0.0-15.0-1.1,48533,List2A,white,man,,,,null,,,,,,,,,
null,is looking at,,html-keyboard-response,134,5893925,0.0-15.0-2.1,48533,List2A,white,man,,,,null,,,,,,,,,
4254,,,survey-text,135,5898184,0.0-15.0-3.1,48533,List2A,white,man,,,,,"{""Q0"":""Luke is looking at Fred""}","<img src=""stim_listA/look5.gif""style=""height:400px;""></stim_listA>",is looking at,,,,,,
null,"<div style=""font-size:60px;"">+</div>",,html-keyboard-response,136,5898686,0.0-15.0-0.2,48533,List2A,white,man,,,,null,,,,,,,,,
null,"<img src=""stim_listA/shout3.gif""style=""height:400px;""></stim_listA>",,html-keyboard-response,137,5900689,0.0-15.0-1.2,48533,List2A,white,man,,,,null,,,,,,,,,
null,is shouting at,,html-keyboard-response,138,5902691,0.0-15.0-2.2,48533,List2A,white,man,,,,null,,,,,,,,,
5884,,,survey-text,139,5908580,0.0-15.0-3.2,48533,List2A,white,man,,,,,"{""Q0"":""Fred is shouting at Beth""}","<img src=""stim_listA/shout3.gif""style=""height:400px;""></stim_listA>",is shouting at,,,,,,
null,"<div style=""font-size:60px;"">+</div>",,html-keyboard-response,140,5909082,0.0-15.0-0.3,48533,List2A,white,man,,,,null,,,,,,,,,
null,"<img src=""stim_listA/challenge4.gif""style=""height:400px;""></stim_listA>",,html-keyboard-response,141,5911084,0.0-15.0-1.3,48533,List2A,white,man,,,,null,,,,,,,,,
null,is being challenged by,,html-keyboard-response,142,5913087,0.0-15.0-2.3,48533,List2A,white,man,,,,null,,,,,,,,,
20660,,,survey-text,143,5933753,0.0-15.0-3.3,48533,List2A,white,man,,,,,"{""Q0"":""Fred is being challenged by Kate""}","<img src=""stim_listA/challenge4.gif""style=""height:400px;""></stim_listA>",is being challenged by,,,,,,
null,"<div style=""font-size:60px;"">+</div>",,html-keyboard-response,144,5934255,0.0-15.0-0.4,48533,List2A,white,man,,,,null,,,,,,,,,
null,"<img src=""stim_listA/kiss3.gif""style=""height:400px;""></stim_listA>",,html-keyboard-response,145,5936257,0.0-15.0-1.4,48533,List2A,white,man,,,,null,,,,,,,,,
null,is kissing,,html-keyboard-response,146,5938259,0.0-15.0-2.4,48533,List2A,white,man,,,,null,,,,,,,,,
7350,,,survey-text,147,5945613,0.0-15.0-3.4,48533,List2A,white,man,,,,,"{""Q0"":""Beth is kissing Fred""}","<img src=""stim_listA/kiss3.gif""style=""height:400px;""></stim_listA>",is kissing,,,,,,
null,"<div style=""font-size:60px;"">+</div>",,html-keyboard-response,148,5946116,0.0-15.0-0.5,48533,List2A,white,man,,,,null,,,,,,,,,
null,"<img src=""stim_listA/touch6.gif""style=""height:400px;""></stim_listA>",,html-keyboard-response,149,5948118,0.0-15.0-1.5,48533,List2A,white,man,,,,null,,,,,,,,,
null,is being touched by,,html-keyboard-response,150,5950120,0.0-15.0-2.5,48533,List2A,white,man,,,,null,,,,,,,,,
6370,,,survey-text,151,5956494,0.0-15.0-3.5,48533,List2A,white,man,,,,,"{""Q0"":""Fred is being touched by Luke""}","<img src=""stim_listA/touch6.gif""style=""height:400px;""></stim_listA>",is being touched by,,,,,,
null,"<div style=""font-size:60px;"">+</div>",,html-keyboard-response,152,5956997,0.0-15.0-0.6,48533,List2A,white,man,,,,null,,,,,,,,,
null,"<img src=""stim_listA/seduce3.gif""style=""height:400px;""></stim_listA>",,html-keyboard-response,153,5958999,0.0-15.0-1.6,48533,List2A,white,man,,,,null,,,,,,,,,
null,is seducing,,html-keyboard-response,154,5961001,0.0-15.0-2.6,48533,List2A,white,man,,,,null,,,,,,,,,
5728,,,survey-text,155,5966734,0.0-15.0-3.6,48533,List2A,white,man,,,,,"{""Q0"":""Fred is seducing Kate""}","<img src=""stim_listA/seduce3.gif""style=""height:400px;""></stim_listA>",is seducing,,,,,,
null,"<div style=""font-size:60px;"">+</div>",,html-keyboard-response,156,5967236,0.0-15.0-0.7,48533,List2A,white,man,,,,null,,,,,,,,,
null,"<img src=""stim_listA/hug4.gif""style=""height:400px;""></stim_listA>",,html-keyboard-response,157,5969238,0.0-15.0-1.7,48533,List2A,white,man,,,,null,,,,,,,,,
null,is being hugged by,,html-keyboard-response,158,5971240,0.0-15.0-2.7,48533,List2A,white,man,,,,null,,,,,,,,,
5441,,,survey-text,159,5976686,0.0-15.0-3.7,48533,List2A,white,man,,,,,"{""Q0"":""Dave is being hugged by Ruth""}","<img src=""stim_listA/hug4.gif""style=""height:400px;""></stim_listA>",is being hugged by,,,,,,
null,"<div style=""font-size:60px;"">+</div>",,html-keyboard-response,160,5977189,0.0-15.0-0.8,48533,List2A,white,man,,,,null,,,,,,,,,
null,"<img src=""stim_listA/shout6.gif""style=""height:400px;""></stim_listA>",,html-keyboard-response,161,5979191,0.0-15.0-1.8,48533,List2A,white,man,,,,null,,,,,,,,,
null,is being shouted at by,,html-keyboard-response,162,5981193,0.0-15.0-2.8,48533,List2A,white,man,,,,null,,,,,,,,,
9988,,,survey-text,163,5991185,0.0-15.0-3.8,48533,List2A,white,man,,,,,"{""Q0"":""Mike is being shouted at by Dave""}","<img src=""stim_listA/shout6.gif""style=""height:400px;""></stim_listA>",is being shouted at by,,,,,,
null,"<div style=""font-size:60px;"">+</div>",,html-keyboard-response,164,5991687,0.0-15.0-0.9,48533,List2A,white,man,,,,null,,,,,,,,,
null,"<img src=""stim_listA/hug5.gif""style=""height:400px;""></stim_listA>",,html-keyboard-response,165,5993689,0.0-15.0-1.9,48533,List2A,white,man,,,,null,,,,,,,,,
null,is hugging,,html-keyboard-response,166,5995691,0.0-15.0-2.9,48533,List2A,white,man,,,,null,,,,,,,,,
3434,,,survey-text,167,5999129,0.0-15.0-3.9,48533,List2A,white,man,,,,,"{""Q0"":""Fred is hugging Luke""}","<img src=""stim_listA/hug5.gif""style=""height:400px;""></stim_listA>",is hugging,,,,,,
null,"<div style=""font-size:60px;"">+</div>",,html-keyboard-response,168,5999631,0.0-15.0-0.10,48533,List2A,white,man,,,,null,,,,,,,,,
null,"<img src=""stim_listA/challenge1.gif""style=""height:400px;""></stim_listA>",,html-keyboard-response,169,6001633,0.0-15.0-1.10,48533,List2A,white,man,,,,null,,,,,,,,,
null,is challenging,,html-keyboard-response,170,6003635,0.0-15.0-2.10,48533,List2A,white,man,,,,null,,,,,,,,,
6143,,,survey-text,171,6009782,0.0-15.0-3.10,48533,List2A,white,man,,,,,"{""Q0"":""Dave is challenging Ruth""}","<img src=""stim_listA/challenge1.gif""style=""height:400px;""></stim_listA>",is challenging,,,,,,
null,"<div style=""font-size:60px;"">+</div>",,html-keyboard-response,172,6010285,0.0-15.0-0.11,48533,List2A,white,man,,,,null,,,,,,,,,
null,"<img src=""stim_listA/oppose3.gif""style=""height:400px;""></stim_listA>",,html-keyboard-response,173,6012287,0.0-15.0-1.11,48533,List2A,white,man,,,,null,,,,,,,,,
null,is opposing,,html-keyboard-response,174,6014289,0.0-15.0-2.11,48533,List2A,white,man,,,,null,,,,,,,,,
4271,,,survey-text,175,6018565,0.0-15.0-3.11,48533,List2A,white,man,,,,,"{""Q0"":""Kate is opposing Mike""}","<img src=""stim_listA/oppose3.gif""style=""height:400px;""></stim_listA>",is opposing,,,,,,
null,"<div style=""font-size:60px;"">+</div>",,html-keyboard-response,176,6019067,0.0-15.0-0.12,48533,List2A,white,man,,,,null,,,,,,,,,
null,"<img src=""stim_listA/copy1.gif""style=""height:400px;""></stim_listA>",,html-keyboard-response,177,6021069,0.0-15.0-1.12,48533,List2A,white,man,,,,null,,,,,,,,,
null,is copying,,html-keyboard-response,178,6023071,0.0-15.0-2.12,48533,List2A,white,man,,,,null,,,,,,,,,
4849,,,survey-text,179,6027924,0.0-15.0-3.12,48533,List2A,white,man,,,,,"{""Q0"":""Dave is copying Ruth""}","<img src=""stim_listA/copy1.gif""style=""height:400px;""></stim_listA>",is copying,,,,,,
null,"<div style=""font-size:60px;"">+</div>",,html-keyboard-response,180,6028426,0.0-15.0-0.13,48533,List2A,white,man,,,,null,,,,,,,,,
null,"<img src=""stim_listA/greet6.gif""style=""height:400px;""></stim_listA>",,html-keyboard-response,181,6030430,0.0-15.0-1.13,48533,List2A,white,man,,,,null,,,,,,,,,
null,is being greeted by,,html-keyboard-response,182,6032432,0.0-15.0-2.13,48533,List2A,white,man,,,,null,,,,,,,,,
9154,,,survey-text,183,6041592,0.0-15.0-3.13,48533,List2A,white,man,,,,,"{""Q0"":""Mike is being greeted by Luke""}","<img src=""stim_listA/greet6.gif""style=""height:400px;""></stim_listA>",is being greeted by,,,,,,
null,"<div style=""font-size:60px;"">+</div>",,html-keyboard-response,184,6042094,0.0-15.0-0.14,48533,List2A,white,man,,,,null,,,,,,,,,
null,"<img src=""stim_listA/touch8.gif""style=""height:400px;""></stim_listA>",,html-keyboard-response,185,6044096,0.0-15.0-1.14,48533,List2A,white,man,,,,null,,,,,,,,,
null,is being touched by,,html-keyboard-response,186,6046098,0.0-15.0-2.14,48533,List2A,white,man,,,,null,,,,,,,,,
7730,,,survey-text,187,6053835,0.0-15.0-3.14,48533,List2A,white,man,,,,,"{""Q0"":""Beth is being greeted by Ruth""}","<img src=""stim_listA/touch8.gif""style=""height:400px;""></stim_listA>",is being touched by,,,,,,
null,"<div style=""font-size:60px;"">+</div>",,html-keyboard-response,188,6054337,0.0-15.0-0.15,48533,List2A,white,man,,,,null,,,,,,,,,
null,"<img src=""stim_listA/look7.gif""style=""height:400px;""></stim_listA>",,html-keyboard-response,189,6056340,0.0-15.0-1.15,48533,List2A,white,man,,,,null,,,,,,,,,
null,is looking at,,html-keyboard-response,190,6058342,0.0-15.0-2.15,48533,List2A,white,man,,,,null,,,,,,,,,
4321,,,survey-text,191,6062667,0.0-15.0-3.15,48533,List2A,white,man,,,,,"{""Q0"":""Ruth is looking at Beth""}","<img src=""stim_listA/look7.gif""style=""height:400px;""></stim_listA>",is looking at,,,,,,
null,"<div style=""font-size:60px;"">+</div>",,html-keyboard-response,192,6063170,0.0-15.0-0.16,48533,List2A,white,man,,,,null,,,,,,,,,
null,"<img src=""stim_listA/oppose1.gif""style=""height:400px;""></stim_listA>",,html-keyboard-response,193,6065172,0.0-15.0-1.16,48533,List2A,white,man,,,,null,,,,,,,,,
null,is opposing,,html-keyboard-response,194,6067174,0.0-15.0-2.16,48533,List2A,white,man,,,,null,,,,,,,,,
4308,,,survey-text,195,6071487,0.0-15.0-3.16,48533,List2A,white,man,,,,,"{""Q0"":""Dave is opposing Jane""}","<img src=""stim_listA/oppose1.gif""style=""height:400px;""></stim_listA>",is opposing,,,,,,
null,"<div style=""font-size:60px;"">+</div>",,html-keyboard-response,196,6071989,0.0-15.0-0.17,48533,List2A,white,man,,,,null,,,,,,,,,
null,"<img src=""stim_listA/greet5.gif""style=""height:400px;""></stim_listA>",,html-keyboard-response,197,6073991,0.0-15.0-1.17,48533,List2A,white,man,,,,null,,,,,,,,,
null,is greeting,,html-keyboard-response,198,6075992,0.0-15.0-2.17,48533,List2A,white,man,,,,null,,,,,,,,,
3921,,,survey-text,199,6079917,0.0-15.0-3.17,48533,List2A,white,man,,,,,"{""Q0"":""Dave is greeting Fred""}","<img src=""stim_listA/greet5.gif""style=""height:400px;""></stim_listA>",is greeting,,,,,,
null,"<div style=""font-size:60px;"">+</div>",,html-keyboard-response,200,6080420,0.0-15.0-0.18,48533,List2A,white,man,,,,null,,,,,,,,,
null,"<img src=""stim_listA/hug1.gif""style=""height:400px;""></stim_listA>",,html-keyboard-response,201,6082421,0.0-15.0-1.18,48533,List2A,white,man,,,,null,,,,,,,,,
null,is hugging,,html-keyboard-response,202,6084425,0.0-15.0-2.18,48533,List2A,white,man,,,,null,,,,,,,,,
4710,,,survey-text,203,6089140,0.0-15.0-3.18,48533,List2A,white,man,,,,,"{""Q0"":""Luke is hugging Ruth""}","<img src=""stim_listA/hug1.gif""style=""height:400px;""></stim_listA>",is hugging,,,,,,
null,"<div style=""font-size:60px;"">+</div>",,html-keyboard-response,204,6089642,0.0-15.0-0.19,48533,List2A,white,man,,,,null,,,,,,,,,
null,"<img src=""stim_listA/kiss6.gif""style=""height:400px;""></stim_listA>",,html-keyboard-response,205,6091644,0.0-15.0-1.19,48533,List2A,white,man,,,,null,,,,,,,,,
null,is being kissed by,,html-keyboard-response,206,6093647,0.0-15.0-2.19,48533,List2A,white,man,,,,null,,,,,,,,,
5236,,,survey-text,207,6098887,0.0-15.0-3.19,48533,List2A,white,man,,,,,"{""Q0"":""Mike is being kissed by Dave""}","<img src=""stim_listA/kiss6.gif""style=""height:400px;""></stim_listA>",is being kissed by,,,,,,
2820,"<img src='img/portrait_matrix_list2.jpg' style='width:900px;height:500px;''></img><p>If you have memorised all the portraits and names and are ready to start, press Continue.</p><p><strong>Please note: Your memory of these faces will be tested 4 times during this experiment.</strong></p>",0,html-button-response,208,6101707,0.0-16.0-0.0,48533,List2A,white,man,,,,,,,,,,,,,
3022,"<img src=""portrait/BM2.jpg""style=""height:400px;""></img>",5,html-button-response,209,6105732,0.0-16.0-1.0,48533,List2A,white,man,,TRUE,5,,,,,,,,,,
null,CORRECT,,html-keyboard-response,210,6107234,0.0-16.0-2.0-0.0,48533,List2A,white,man,,,,null,,,,,,,,,
1635,"<img src=""portrait/WM1.jpg""style=""height:400px;""></img>",6,html-button-response,211,6108870,0.0-16.0-4.0,48533,List2A,white,man,,TRUE,6,,,,,,,,,,
null,CORRECT,,html-keyboard-response,212,6110372,0.0-16.0-5.0-0.0,48533,List2A,white,man,,,,null,,,,,,,,,
2296,"<img src=""portrait/WW1.jpg""style=""height:400px;""></img>",1,html-button-response,213,6112672,0.0-16.0-7.0,48533,List2A,white,man,,TRUE,1,,,,,,,,,,
null,CORRECT,,html-keyboard-response,214,6114175,0.0-16.0-8.0-0.0,48533,List2A,white,man,,,,null,,,,,,,,,
2494,"<img src=""portrait/BW1.jpg""style=""height:400px;""></img>",0,html-button-response,215,6116670,0.0-16.0-10.0,48533,List2A,white,man,,TRUE,0,,,,,,,,,,
null,CORRECT,,html-keyboard-response,216,6118173,0.0-16.0-11.0-0.0,48533,List2A,white,man,,,,null,,,,,,,,,
1848,"<img src=""portrait/BM1.jpg""style=""height:400px;""></img>",4,html-button-response,217,6120022,0.0-16.0-13.0,48533,List2A,white,man,,TRUE,4,,,,,,,,,,
null,CORRECT,,html-keyboard-response,218,6121524,0.0-16.0-14.0-0.0,48533,List2A,white,man,,,,null,,,,,,,,,
4255,"<img src=""portrait/BW2.jpg""style=""height:400px;""></img>",2,html-button-response,219,6125780,0.0-16.0-16.0,48533,List2A,white,man,,TRUE,2,,,,,,,,,,
null,CORRECT,,html-keyboard-response,220,6127283,0.0-16.0-17.0-0.0,48533,List2A,white,man,,,,null,,,,,,,,,
1636,"<img src=""portrait/WM2.jpg""style=""height:400px;""></img>",7,html-button-response,221,6128920,0.0-16.0-19.0,48533,List2A,white,man,,TRUE,7,,,,,,,,,,
null,CORRECT,,html-keyboard-response,222,6130423,0.0-16.0-20.0-0.0,48533,List2A,white,man,,,,null,,,,,,,,,
1090,"<img src=""portrait/WW2.jpg""style=""height:400px;""></img>",3,html-button-response,223,6131514,0.0-16.0-22.0,48533,List2A,white,man,,TRUE,3,,,,,,,,,,
null,CORRECT,,html-keyboard-response,224,6133016,0.0-16.0-23.0-0.0,48533,List2A,white,man,,,,null,,,,,,,,,
1657,<p>You got 8 out of 8 right first time. Press Continue.</p>,0,html-button-response,225,6134674,0.0-16.0-25.0,48533,List2A,white,man,,,,,,,,,,,,,
null,"<div style=""font-size:60px;"">+</div>",,html-keyboard-response,226,6136177,0.0-17.0-0.0,48533,List2A,white,man,,,,null,,,,,,,,,
null,"<img src=""stim_listA/seduce1.gif""style=""height:400px;""></stim_listA>",,html-keyboard-response,227,6138179,0.0-17.0-1.0,48533,List2A,white,man,,,,null,,,,,,,,,
null,is seducing,,html-keyboard-response,228,6140181,0.0-17.0-2.0,48533,List2A,white,man,,,,null,,,,,,,,,
4267,,,survey-text,229,6144454,0.0-17.0-3.0,48533,List2A,white,man,,,,,"{""Q0"":""Luke is seducing Jane""}","<img src=""stim_listA/seduce1.gif""style=""height:400px;""></stim_listA>",is seducing,,,,,,
null,"<div style=""font-size:60px;"">+</div>",,html-keyboard-response,230,6144956,0.0-17.0-0.1,48533,List2A,white,man,,,,null,,,,,,,,,
null,"<img src=""stim_listA/kiss8.gif""style=""height:400px;""></stim_listA>",,html-keyboard-response,231,6146959,0.0-17.0-1.1,48533,List2A,white,man,,,,null,,,,,,,,,
null,is being kissed by,,html-keyboard-response,232,6148961,0.0-17.0-2.1,48533,List2A,white,man,,,,null,,,,,,,,,
5356,,,survey-text,233,6154320,0.0-17.0-3.1,48533,List2A,white,man,,,,,"{""Q0"":""Jane is being kissed by Kate""}","<img src=""stim_listA/kiss8.gif""style=""height:400px;""></stim_listA>",is being kissed by,,,,,,
null,"<div style=""font-size:60px;"">+</div>",,html-keyboard-response,234,6154823,0.0-17.0-0.2,48533,List2A,white,man,,,,null,,,,,,,,,
null,"<img src=""stim_listA/challenge2.gif""style=""height:400px;""></stim_listA>",,html-keyboard-response,235,6156825,0.0-17.0-1.2,48533,List2A,white,man,,,,null,,,,,,,,,
null,is being challenged by,,html-keyboard-response,236,6158826,0.0-17.0-2.2,48533,List2A,white,man,,,,null,,,,,,,,,
5419,,,survey-text,237,6164249,0.0-17.0-3.2,48533,List2A,white,man,,,,,"{""Q0"":""Jane is being challenged by Luke""}","<img src=""stim_listA/challenge2.gif""style=""height:400px;""></stim_listA>",is being challenged by,,,,,,
null,"<div style=""font-size:60px;"">+</div>",,html-keyboard-response,238,6164751,0.0-17.0-0.3,48533,List2A,white,man,,,,null,,,,,,,,,
null,"<img src=""stim_listA/seduce5.gif""style=""height:400px;""></stim_listA>",,html-keyboard-response,239,6166753,0.0-17.0-1.3,48533,List2A,white,man,,,,null,,,,,,,,,
null,is seducing,,html-keyboard-response,240,6168756,0.0-17.0-2.3,48533,List2A,white,man,,,,null,,,,,,,,,
4153,,,survey-text,241,6172913,0.0-17.0-3.3,48533,List2A,white,man,,,,,"{""Q0"":""Luke is seducing Mike""}","<img src=""stim_listA/seduce5.gif""style=""height:400px;""></stim_listA>",is seducing,,,,,,
null,"<div style=""font-size:60px;"">+</div>",,html-keyboard-response,242,6173415,0.0-17.0-0.4,48533,List2A,white,man,,,,null,,,,,,,,,
null,"<img src=""stim_listA/seduce8.gif""style=""height:400px;""></stim_listA>",,html-keyboard-response,243,6175417,0.0-17.0-1.4,48533,List2A,white,man,,,,null,,,,,,,,,
null,is being seduced by,,html-keyboard-response,244,6177420,0.0-17.0-2.4,48533,List2A,white,man,,,,null,,,,,,,,,
7906,,,survey-text,245,6185332,0.0-17.0-3.4,48533,List2A,white,man,,,,,"{""Q0"":""Beth is being seduced by Jane""}","<img src=""stim_listA/seduce8.gif""style=""height:400px;""></stim_listA>",is being seduced by,,,,,,
null,"<div style=""font-size:60px;"">+</div>",,html-keyboard-response,246,6185834,0.0-17.0-0.5,48533,List2A,white,man,,,,null,,,,,,,,,
null,"<img src=""stim_listA/shout8.gif""style=""height:400px;""></stim_listA>",,html-keyboard-response,247,6187836,0.0-17.0-1.5,48533,List2A,white,man,,,,null,,,,,,,,,
null,is being shouted at by,,html-keyboard-response,248,6189839,0.0-17.0-2.5,48533,List2A,white,man,,,,null,,,,,,,,,
5657,,,survey-text,249,6195500,0.0-17.0-3.5,48533,List2A,white,man,,,,,"{""Q0"":""Jane is being shouted at by Kate""}","<img src=""stim_listA/shout8.gif""style=""height:400px;""></stim_listA>",is being shouted at by,,,,,,
null,"<div style=""font-size:60px;"">+</div>",,html-keyboard-response,250,6196002,0.0-17.0-0.6,48533,List2A,white,man,,,,null,,,,,,,,,
null,"<img src=""stim_listA/greet8.gif""style=""height:400px;""></stim_listA>",,html-keyboard-response,251,6198004,0.0-17.0-1.6,48533,List2A,white,man,,,,null,,,,,,,,,
null,is being greeted by,,html-keyboard-response,252,6200006,0.0-17.0-2.6,48533,List2A,white,man,,,,null,,,,,,,,,
10164,,,survey-text,253,6210175,0.0-17.0-3.6,48533,List2A,white,man,,,,,"{""Q0"":""Ruth is greeted by Kate""}","<img src=""stim_listA/greet8.gif""style=""height:400px;""></stim_listA>",is being greeted by,,,,,,
null,"<div style=""font-size:60px;"">+</div>",,html-keyboard-response,254,6210677,0.0-17.0-0.7,48533,List2A,white,man,,,,null,,,,,,,,,
null,"<img src=""stim_listA/look8.gif""style=""height:400px;""></stim_listA>",,html-keyboard-response,255,6212679,0.0-17.0-1.7,48533,List2A,white,man,,,,null,,,,,,,,,
null,is being looked at by,,html-keyboard-response,256,6214682,0.0-17.0-2.7,48533,List2A,white,man,,,,null,,,,,,,,,
5369,,,survey-text,257,6220054,0.0-17.0-3.7,48533,List2A,white,man,,,,,"{""Q0"":""Kate is being looked at by Jane""}","<img src=""stim_listA/look8.gif""style=""height:400px;""></stim_listA>",is being looked at by,,,,,,
null,"<div style=""font-size:60px;"">+</div>",,html-keyboard-response,258,6220557,0.0-17.0-0.8,48533,List2A,white,man,,,,null,,,,,,,,,
null,"<img src=""stim_listA/seduce6.gif""style=""height:400px;""></stim_listA>",,html-keyboard-response,259,6222558,0.0-17.0-1.8,48533,List2A,white,man,,,,null,,,,,,,,,
null,is being seduced by,,html-keyboard-response,260,6224560,0.0-17.0-2.8,48533,List2A,white,man,,,,null,,,,,,,,,
5352,,,survey-text,261,6229916,0.0-17.0-3.8,48533,List2A,white,man,,,,,"{""Q0"":""Fred is being seduced by Dave""}","<img src=""stim_listA/seduce6.gif""style=""height:400px;""></stim_listA>",is being seduced by,,,,,,
null,"<div style=""font-size:60px;"">+</div>",,html-keyboard-response,262,6230418,0.0-17.0-0.9,48533,List2A,white,man,,,,null,,,,,,,,,
null,"<img src=""stim_listA/shout1.gif""style=""height:400px;""></stim_listA>",,html-keyboard-response,263,6232420,0.0-17.0-1.9,48533,List2A,white,man,,,,null,,,,,,,,,
null,is shouting at,,html-keyboard-response,264,6234422,0.0-17.0-2.9,48533,List2A,white,man,,,,null,,,,,,,,,
4766,,,survey-text,265,6239192,0.0-17.0-3.9,48533,List2A,white,man,,,,,"{""Q0"":""Ruth is shouting at Luke""}","<img src=""stim_listA/shout1.gif""style=""height:400px;""></stim_listA>",is shouting at,,,,,,
null,"<div style=""font-size:60px;"">+</div>",,html-keyboard-response,266,6239694,0.0-17.0-0.10,48533,List2A,white,man,,,,null,,,,,,,,,
null,"<img src=""stim_listA/kiss2.gif""style=""height:400px;""></stim_listA>",,html-keyboard-response,267,6241697,0.0-17.0-1.10,48533,List2A,white,man,,,,null,,,,,,,,,
null,is being kissed by,,html-keyboard-response,268,6243699,0.0-17.0-2.10,48533,List2A,white,man,,,,null,,,,,,,,,
4831,,,survey-text,269,6248536,0.0-17.0-3.10,48533,List2A,white,man,,,,,"{""Q0"":""Dave is being kissed by Jane""}","<img src=""stim_listA/kiss2.gif""style=""height:400px;""></stim_listA>",is being kissed by,,,,,,
null,"<div style=""font-size:60px;"">+</div>",,html-keyboard-response,270,6249039,0.0-17.0-0.11,48533,List2A,white,man,,,,null,,,,,,,,,
null,"<img src=""stim_listA/copy4.gif""style=""height:400px;""></stim_listA>",,html-keyboard-response,271,6251041,0.0-17.0-1.11,48533,List2A,white,man,,,,null,,,,,,,,,
null,is being copied by,,html-keyboard-response,272,6253043,0.0-17.0-2.11,48533,List2A,white,man,,,,null,,,,,,,,,
7475,,,survey-text,273,6260523,0.0-17.0-3.11,48533,List2A,white,man,,,,,"{""Q0"":""Kate is being copied by Fred""}","<img src=""stim_listA/copy4.gif""style=""height:400px;""></stim_listA>",is being copied by,,,,,,
null,"<div style=""font-size:60px;"">+</div>",,html-keyboard-response,274,6261025,0.0-17.0-0.12,48533,List2A,white,man,,,,null,,,,,,,,,
null,"<img src=""stim_listA/kiss1.gif""style=""height:400px;""></stim_listA>",,html-keyboard-response,275,6263028,0.0-17.0-1.12,48533,List2A,white,man,,,,null,,,,,,,,,
null,is kissing,,html-keyboard-response,276,6265030,0.0-17.0-2.12,48533,List2A,white,man,,,,null,,,,,,,,,
3784,,,survey-text,277,6268819,0.0-17.0-3.12,48533,List2A,white,man,,,,,"{""Q0"":""Luke is kissing Ruth""}","<img src=""stim_listA/kiss1.gif""style=""height:400px;""></stim_listA>",is kissing,,,,,,
null,"<div style=""font-size:60px;"">+</div>",,html-keyboard-response,278,6269320,0.0-17.0-0.13,48533,List2A,white,man,,,,null,,,,,,,,,
null,"<img src=""stim_listA/shout5.gif""style=""height:400px;""></stim_listA>",,html-keyboard-response,279,6271322,0.0-17.0-1.13,48533,List2A,white,man,,,,null,,,,,,,,,
null,is shouting at,,html-keyboard-response,280,6273325,0.0-17.0-2.13,48533,List2A,white,man,,,,null,,,,,,,,,
4218,,,survey-text,281,6277546,0.0-17.0-3.13,48533,List2A,white,man,,,,,"{""Q0"":""Luke is shouting at Fred""}","<img src=""stim_listA/shout5.gif""style=""height:400px;""></stim_listA>",is shouting at,,,,,,
null,"<div style=""font-size:60px;"">+</div>",,html-keyboard-response,282,6278047,0.0-17.0-0.14,48533,List2A,white,man,,,,null,,,,,,,,,
null,"<img src=""stim_listA/oppose2.gif""style=""height:400px;""></stim_listA>",,html-keyboard-response,283,6280050,0.0-17.0-1.14,48533,List2A,white,man,,,,null,,,,,,,,,
null,is being opposed by,,html-keyboard-response,284,6282056,0.0-17.0-2.14,48533,List2A,white,man,,,,null,,,,,,,,,
5827,,,survey-text,285,6287887,0.0-17.0-3.14,48533,List2A,white,man,,,,,"{""Q0"":""Luke is being opposed by Ruth""}","<img src=""stim_listA/oppose2.gif""style=""height:400px;""></stim_listA>",is being opposed by,,,,,,
null,"<div style=""font-size:60px;"">+</div>",,html-keyboard-response,286,6288389,0.0-17.0-0.15,48533,List2A,white,man,,,,null,,,,,,,,,
null,"<img src=""stim_listA/seduce4.gif""style=""height:400px;""></stim_listA>",,html-keyboard-response,287,6290392,0.0-17.0-1.15,48533,List2A,white,man,,,,null,,,,,,,,,
null,is being seduced by,,html-keyboard-response,288,6292394,0.0-17.0-2.15,48533,List2A,white,man,,,,null,,,,,,,,,
5873,,,survey-text,289,6298271,0.0-17.0-3.15,48533,List2A,white,man,,,,,"{""Q0"":""Beth is being seduced by Mike""}","<img src=""stim_listA/seduce4.gif""style=""height:400px;""></stim_listA>",is being seduced by,,,,,,
null,"<div style=""font-size:60px;"">+</div>",,html-keyboard-response,290,6298773,0.0-17.0-0.16,48533,List2A,white,man,,,,null,,,,,,,,,
null,"<img src=""stim_listA/copy8.gif""style=""height:400px;""></stim_listA>",,html-keyboard-response,291,6300775,0.0-17.0-1.16,48533,List2A,white,man,,,,null,,,,,,,,,
null,is being copied by,,html-keyboard-response,292,6302779,0.0-17.0-2.16,48533,List2A,white,man,,,,null,,,,,,,,,
5640,,,survey-text,293,6308423,0.0-17.0-3.16,48533,List2A,white,man,,,,,"{""Q0"":""Kate is being copied by Ruth""}","<img src=""stim_listA/copy8.gif""style=""height:400px;""></stim_listA>",is being copied by,,,,,,
null,"<div style=""font-size:60px;"">+</div>",,html-keyboard-response,294,6308925,0.0-17.0-0.17,48533,List2A,white,man,,,,null,,,,,,,,,
null,"<img src=""stim_listA/challenge7.gif""style=""height:400px;""></stim_listA>",,html-keyboard-response,295,6310927,0.0-17.0-1.17,48533,List2A,white,man,,,,null,,,,,,,,,
null,is challenging,,html-keyboard-response,296,6312929,0.0-17.0-2.17,48533,List2A,white,man,,,,null,,,,,,,,,
6805,,,survey-text,297,6319738,0.0-17.0-3.17,48533,List2A,white,man,,,,,"{""Q0"":""Jane is challenging Beth""}","<img src=""stim_listA/challenge7.gif""style=""height:400px;""></stim_listA>",is challenging,,,,,,
null,"<div style=""font-size:60px;"">+</div>",,html-keyboard-response,298,6320240,0.0-17.0-0.18,48533,List2A,white,man,,,,null,,,,,,,,,
null,"<img src=""stim_listA/hug7.gif""style=""height:400px;""></stim_listA>",,html-keyboard-response,299,6322243,0.0-17.0-1.18,48533,List2A,white,man,,,,null,,,,,,,,,
null,is hugging,,html-keyboard-response,300,6324245,0.0-17.0-2.18,48533,List2A,white,man,,,,null,,,,,,,,,
4017,,,survey-text,301,6328266,0.0-17.0-3.18,48533,List2A,white,man,,,,,"{""Q0"":""Beth is hugging Ruth""}","<img src=""stim_listA/hug7.gif""style=""height:400px;""></stim_listA>",is hugging,,,,,,
null,"<div style=""font-size:60px;"">+</div>",,html-keyboard-response,302,6328768,0.0-17.0-0.19,48533,List2A,white,man,,,,null,,,,,,,,,
null,"<img src=""stim_listA/greet4.gif""style=""height:400px;""></stim_listA>",,html-keyboard-response,303,6330770,0.0-17.0-1.19,48533,List2A,white,man,,,,null,,,,,,,,,
null,is being greeted by,,html-keyboard-response,304,6332772,0.0-17.0-2.19,48533,List2A,white,man,,,,null,,,,,,,,,
5118,,,survey-text,305,6337895,0.0-17.0-3.19,48533,List2A,white,man,,,,,"{""Q0"":""Kate is being greeted by Fred""}","<img src=""stim_listA/greet4.gif""style=""height:400px;""></stim_listA>",is being greeted by,,,,,,
3018,"<img src='img/portrait_matrix_list2.jpg' style='width:900px;height:500px;''></img><p>If you have memorised all the portraits and names and are ready to start, press Continue.</p><p><strong>Please note: Your memory of these faces will be tested 4 times during this experiment.</strong></p>",0,html-button-response,306,6340915,0.0-18.0-0.0,48533,List2A,white,man,,,,,,,,,,,,,
5553,"<img src=""portrait/WW2.jpg""style=""height:400px;""></img>",3,html-button-response,307,6347471,0.0-18.0-1.0,48533,List2A,white,man,,TRUE,3,,,,,,,,,,
null,CORRECT,,html-keyboard-response,308,6348975,0.0-18.0-2.0-0.0,48533,List2A,white,man,,,,null,,,,,,,,,
2217,"<img src=""portrait/BW2.jpg""style=""height:400px;""></img>",2,html-button-response,309,6351194,0.0-18.0-4.0,48533,List2A,white,man,,TRUE,2,,,,,,,,,,
null,CORRECT,,html-keyboard-response,310,6352697,0.0-18.0-5.0-0.0,48533,List2A,white,man,,,,null,,,,,,,,,
1913,"<img src=""portrait/WM1.jpg""style=""height:400px;""></img>",6,html-button-response,311,6354612,0.0-18.0-7.0,48533,List2A,white,man,,TRUE,6,,,,,,,,,,
null,CORRECT,,html-keyboard-response,312,6356115,0.0-18.0-8.0-0.0,48533,List2A,white,man,,,,null,,,,,,,,,
1364,"<img src=""portrait/WM2.jpg""style=""height:400px;""></img>",7,html-button-response,313,6357480,0.0-18.0-10.0,48533,List2A,white,man,,TRUE,7,,,,,,,,,,
null,CORRECT,,html-keyboard-response,314,6358983,0.0-18.0-11.0-0.0,48533,List2A,white,man,,,,null,,,,,,,,,
2779,"<img src=""portrait/BW1.jpg""style=""height:400px;""></img>",0,html-button-response,315,6361763,0.0-18.0-13.0,48533,List2A,white,man,,TRUE,0,,,,,,,,,,
null,CORRECT,,html-keyboard-response,316,6363266,0.0-18.0-14.0-0.0,48533,List2A,white,man,,,,null,,,,,,,,,
2015,"<img src=""portrait/BM1.jpg""style=""height:400px;""></img>",4,html-button-response,317,6365282,0.0-18.0-16.0,48533,List2A,white,man,,TRUE,4,,,,,,,,,,
null,CORRECT,,html-keyboard-response,318,6366785,0.0-18.0-17.0-0.0,48533,List2A,white,man,,,,null,,,,,,,,,
2366,"<img src=""portrait/BM2.jpg""style=""height:400px;""></img>",5,html-button-response,319,6369152,0.0-18.0-19.0,48533,List2A,white,man,,TRUE,5,,,,,,,,,,
null,CORRECT,,html-keyboard-response,320,6370654,0.0-18.0-20.0-0.0,48533,List2A,white,man,,,,null,,,,,,,,,
2827,"<img src=""portrait/WW1.jpg""style=""height:400px;""></img>",1,html-button-response,321,6373482,0.0-18.0-22.0,48533,List2A,white,man,,TRUE,1,,,,,,,,,,
null,CORRECT,,html-keyboard-response,322,6374985,0.0-18.0-23.0-0.0,48533,List2A,white,man,,,,null,,,,,,,,,
2682,<p>You got 8 out of 8 right first time. Press Continue.</p>,0,html-button-response,323,6377669,0.0-18.0-25.0,48533,List2A,white,man,,,,,,,,,,,,,
null,"<div style=""font-size:60px;"">+</div>",,html-keyboard-response,324,6379174,0.0-19.0-0.0,48533,List2A,white,man,,,,null,,,,,,,,,
null,"<img src=""stim_listA/look2.gif""style=""height:400px;""></stim_listA>",,html-keyboard-response,325,6381177,0.0-19.0-1.0,48533,List2A,white,man,,,,null,,,,,,,,,
null,is being looked at by,,html-keyboard-response,326,6383179,0.0-19.0-2.0,48533,List2A,white,man,,,,null,,,,,,,,,
5790,,,survey-text,327,6388974,0.0-19.0-3.0,48533,List2A,white,man,,,,,"{""Q0"":""Jane is being looked at by Dave""}","<img src=""stim_listA/look2.gif""style=""height:400px;""></stim_listA>",is being looked at by,,,,,,
null,"<div style=""font-size:60px;"">+</div>",,html-keyboard-response,328,6389476,0.0-19.0-0.1,48533,List2A,white,man,,,,null,,,,,,,,,
null,"<img src=""stim_listA/shout4.gif""style=""height:400px;""></stim_listA>",,html-keyboard-response,329,6391478,0.0-19.0-1.1,48533,List2A,white,man,,,,null,,,,,,,,,
null,is being shouted at by,,html-keyboard-response,330,6393483,0.0-19.0-2.1,48533,List2A,white,man,,,,null,,,,,,,,,
5578,,,survey-text,331,6399066,0.0-19.0-3.1,48533,List2A,white,man,,,,,"{""Q0"":""Mike is being shouted at by Kate""}","<img src=""stim_listA/shout4.gif""style=""height:400px;""></stim_listA>",is being shouted at by,,,,,,
null,"<div style=""font-size:60px;"">+</div>",,html-keyboard-response,332,6399568,0.0-19.0-0.2,48533,List2A,white,man,,,,null,,,,,,,,,
null,"<img src=""stim_listA/hug8.gif""style=""height:400px;""></stim_listA>",,html-keyboard-response,333,6401570,0.0-19.0-1.2,48533,List2A,white,man,,,,null,,,,,,,,,
null,is being hugged by,,html-keyboard-response,334,6403572,0.0-19.0-2.2,48533,List2A,white,man,,,,null,,,,,,,,,
4453,,,survey-text,335,6408030,0.0-19.0-3.2,48533,List2A,white,man,,,,,"{""Q0"":""Kate is being hugged by Jane""}","<img src=""stim_listA/hug8.gif""style=""height:400px;""></stim_listA>",is being hugged by,,,,,,
null,"<div style=""font-size:60px;"">+</div>",,html-keyboard-response,336,6408532,0.0-19.0-0.3,48533,List2A,white,man,,,,null,,,,,,,,,
null,"<img src=""stim_listA/touch4.gif""style=""height:400px;""></stim_listA>",,html-keyboard-response,337,6410534,0.0-19.0-1.3,48533,List2A,white,man,,,,null,,,,,,,,,
null,is being touched by,,html-keyboard-response,338,6412536,0.0-19.0-2.3,48533,List2A,white,man,,,,null,,,,,,,,,
5123,,,survey-text,339,6417663,0.0-19.0-3.3,48533,List2A,white,man,,,,,"{""Q0"":""Fred is being touched by Beth""}","<img src=""stim_listA/touch4.gif""style=""height:400px;""></stim_listA>",is being touched by,,,,,,
null,"<div style=""font-size:60px;"">+</div>",,html-keyboard-response,340,6418166,0.0-19.0-0.4,48533,List2A,white,man,,,,null,,,,,,,,,
null,"<img src=""stim_listA/touch3.gif""style=""height:400px;""></stim_listA>",,html-keyboard-response,341,6420167,0.0-19.0-1.4,48533,List2A,white,man,,,,null,,,,,,,,,
null,is touching,,html-keyboard-response,342,6422170,0.0-19.0-2.4,48533,List2A,white,man,,,,null,,,,,,,,,
3085,,,survey-text,343,6425261,0.0-19.0-3.4,48533,List2A,white,man,,,,,"{""Q0"":""Mike is touching Kate""}","<img src=""stim_listA/touch3.gif""style=""height:400px;""></stim_listA>",is touching,,,,,,
null,"<div style=""font-size:60px;"">+</div>",,html-keyboard-response,344,6425764,0.0-19.0-0.5,48533,List2A,white,man,,,,null,,,,,,,,,
null,"<img src=""stim_listA/touch7.gif""style=""height:400px;""></stim_listA>",,html-keyboard-response,345,6427765,0.0-19.0-1.5,48533,List2A,white,man,,,,null,,,,,,,,,
null,is touching,,html-keyboard-response,346,6429768,0.0-19.0-2.5,48533,List2A,white,man,,,,null,,,,,,,,,
3370,,,survey-text,347,6433142,0.0-19.0-3.5,48533,List2A,white,man,,,,,"{""Q0"":""Kate is touching Jane""}","<img src=""stim_listA/touch7.gif""style=""height:400px;""></stim_listA>",is touching,,,,,,
null,"<div style=""font-size:60px;"">+</div>",,html-keyboard-response,348,6433643,0.0-19.0-0.6,48533,List2A,white,man,,,,null,,,,,,,,,
null,"<img src=""stim_listA/challenge5.gif""style=""height:400px;""></stim_listA>",,html-keyboard-response,349,6435646,0.0-19.0-1.6,48533,List2A,white,man,,,,null,,,,,,,,,
null,is challenging,,html-keyboard-response,350,6437648,0.0-19.0-2.6,48533,List2A,white,man,,,,null,,,,,,,,,
4088,,,survey-text,351,6441742,0.0-19.0-3.6,48533,List2A,white,man,,,,,"{""Q0"":""Dave is challenging Fred""}","<img src=""stim_listA/challenge5.gif""style=""height:400px;""></stim_listA>",is challenging,,,,,,
null,"<div style=""font-size:60px;"">+</div>",,html-keyboard-response,352,6442245,0.0-19.0-0.7,48533,List2A,white,man,,,,null,,,,,,,,,
null,"<img src=""stim_listA/touch1.gif""style=""height:400px;""></stim_listA>",,html-keyboard-response,353,6444247,0.0-19.0-1.7,48533,List2A,white,man,,,,null,,,,,,,,,
null,is touching,,html-keyboard-response,354,6446249,0.0-19.0-2.7,48533,List2A,white,man,,,,null,,,,,,,,,
3210,,,survey-text,355,6449463,0.0-19.0-3.7,48533,List2A,white,man,,,,,"{""Q0"":""Dave is touching Jane""}","<img src=""stim_listA/touch1.gif""style=""height:400px;""></stim_listA>",is touching,,,,,,
null,"<div style=""font-size:60px;"">+</div>",,html-keyboard-response,356,6449964,0.0-19.0-0.8,48533,List2A,white,man,,,,null,,,,,,,,,
null,"<img src=""stim_listA/copy5.gif""style=""height:400px;""></stim_listA>",,html-keyboard-response,357,6451967,0.0-19.0-1.8,48533,List2A,white,man,,,,null,,,,,,,,,
null,is copying,,html-keyboard-response,358,6453968,0.0-19.0-2.8,48533,List2A,white,man,,,,null,,,,,,,,,
3312,,,survey-text,359,6457284,0.0-19.0-3.8,48533,List2A,white,man,,,,,"{""Q0"":""Dave is copying Fred""}","<img src=""stim_listA/copy5.gif""style=""height:400px;""></stim_listA>",is copying,,,,,,
null,"<div style=""font-size:60px;"">+</div>",,html-keyboard-response,360,6457786,0.0-19.0-0.9,48533,List2A,white,man,,,,null,,,,,,,,,
null,"<img src=""stim_listA/kiss4.gif""style=""height:400px;""></stim_listA>",,html-keyboard-response,361,6459790,0.0-19.0-1.9,48533,List2A,white,man,,,,null,,,,,,,,,
null,is being kissed by,,html-keyboard-response,362,6461793,0.0-19.0-2.9,48533,List2A,white,man,,,,null,,,,,,,,,
4605,,,survey-text,363,6466403,0.0-19.0-3.9,48533,List2A,white,man,,,,,"{""Q0"":""Mike is being kissed by Kate""}","<img src=""stim_listA/kiss4.gif""style=""height:400px;""></stim_listA>",is being kissed by,,,,,,
null,"<div style=""font-size:60px;"">+</div>",,html-keyboard-response,364,6466905,0.0-19.0-0.10,48533,List2A,white,man,,,,null,,,,,,,,,
null,"<img src=""stim_listA/seduce2.gif""style=""height:400px;""></stim_listA>",,html-keyboard-response,365,6468907,0.0-19.0-1.10,48533,List2A,white,man,,,,null,,,,,,,,,
null,is being seduced by,,html-keyboard-response,366,6470909,0.0-19.0-2.10,48533,List2A,white,man,,,,null,,,,,,,,,
5402,,,survey-text,367,6476317,0.0-19.0-3.10,48533,List2A,white,man,,,,,"{""Q0"":""Dave is being seduced by Ruth""}","<img src=""stim_listA/seduce2.gif""style=""height:400px;""></stim_listA>",is being seduced by,,,,,,
null,"<div style=""font-size:60px;"">+</div>",,html-keyboard-response,368,6476819,0.0-19.0-0.11,48533,List2A,white,man,,,,null,,,,,,,,,
null,"<img src=""stim_listA/look3.gif""style=""height:400px;""></stim_listA>",,html-keyboard-response,369,6478822,0.0-19.0-1.11,48533,List2A,white,man,,,,null,,,,,,,,,
null,is looking at,,html-keyboard-response,370,6480823,0.0-19.0-2.11,48533,List2A,white,man,,,,null,,,,,,,,,
4033,,,survey-text,371,6484861,0.0-19.0-3.11,48533,List2A,white,man,,,,,"{""Q0"":""Fred is looking at Beth""}","<img src=""stim_listA/look3.gif""style=""height:400px;""></stim_listA>",is looking at,,,,,,
null,"<div style=""font-size:60px;"">+</div>",,html-keyboard-response,372,6485364,0.0-19.0-0.12,48533,List2A,white,man,,,,null,,,,,,,,,
null,"<img src=""stim_listA/greet7.gif""style=""height:400px;""></stim_listA>",,html-keyboard-response,373,6487366,0.0-19.0-1.12,48533,List2A,white,man,,,,null,,,,,,,,,
null,is greeting,,html-keyboard-response,374,6489368,0.0-19.0-2.12,48533,List2A,white,man,,,,null,,,,,,,,,
4288,,,survey-text,375,6493661,0.0-19.0-3.12,48533,List2A,white,man,,,,,"{""Q0"":""Jane is greeting Ruth""}","<img src=""stim_listA/greet7.gif""style=""height:400px;""></stim_listA>",is greeting,,,,,,
null,"<div style=""font-size:60px;"">+</div>",,html-keyboard-response,376,6494163,0.0-19.0-0.13,48533,List2A,white,man,,,,null,,,,,,,,,
null,"<img src=""stim_listA/look4.gif""style=""height:400px;""></stim_listA>",,html-keyboard-response,377,6496166,0.0-19.0-1.13,48533,List2A,white,man,,,,null,,,,,,,,,
null,is being looked at by,,html-keyboard-response,378,6498169,0.0-19.0-2.13,48533,List2A,white,man,,,,null,,,,,,,,,
5681,,,survey-text,379,6503854,0.0-19.0-3.13,48533,List2A,white,man,,,,,"{""Q0"":""Mike is being looked at by Kate""}","<img src=""stim_listA/look4.gif""style=""height:400px;""></stim_listA>",is being looked at by,,,,,,
null,"<div style=""font-size:60px;"">+</div>",,html-keyboard-response,380,6504357,0.0-19.0-0.14,48533,List2A,white,man,,,,null,,,,,,,,,
null,"<img src=""stim_listA/challenge3.gif""style=""height:400px;""></stim_listA>",,html-keyboard-response,381,6506360,0.0-19.0-1.14,48533,List2A,white,man,,,,null,,,,,,,,,
null,is challenging,,html-keyboard-response,382,6508362,0.0-19.0-2.14,48533,List2A,white,man,,,,null,,,,,,,,,
5226,,,survey-text,383,6513592,0.0-19.0-3.14,48533,List2A,white,man,,,,,"{""Q0"":""Mike is challenging Beth""}","<img src=""stim_listA/challenge3.gif""style=""height:400px;""></stim_listA>",is challenging,,,,,,
null,"<div style=""font-size:60px;"">+</div>",,html-keyboard-response,384,6514095,0.0-19.0-0.15,48533,List2A,white,man,,,,null,,,,,,,,,
null,"<img src=""stim_listA/oppose6.gif""style=""height:400px;""></stim_listA>",,html-keyboard-response,385,6516099,0.0-19.0-1.15,48533,List2A,white,man,,,,null,,,,,,,,,
null,is being opposed by,,html-keyboard-response,386,6518101,0.0-19.0-2.15,48533,List2A,white,man,,,,null,,,,,,,,,
5465,,,survey-text,387,6523575,0.0-19.0-3.15,48533,List2A,white,man,,,,,"{""Q0"":""Fred is being opposed by Luke""}","<img src=""stim_listA/oppose6.gif""style=""height:400px;""></stim_listA>",is being opposed by,,,,,,
null,"<div style=""font-size:60px;"">+</div>",,html-keyboard-response,388,6524077,0.0-19.0-0.16,48533,List2A,white,man,,,,null,,,,,,,,,
null,"<img src=""stim_listA/oppose5.gif""style=""height:400px;""></stim_listA>",,html-keyboard-response,389,6526080,0.0-19.0-1.16,48533,List2A,white,man,,,,null,,,,,,,,,
null,is opposing,,html-keyboard-response,390,6528082,0.0-19.0-2.16,48533,List2A,white,man,,,,null,,,,,,,,,
4479,,,survey-text,391,6532567,0.0-19.0-3.16,48533,List2A,white,man,,,,,"{""Q0"":""Dave is opposing Mike""}","<img src=""stim_listA/oppose5.gif""style=""height:400px;""></stim_listA>",is opposing,,,,,,
null,"<div style=""font-size:60px;"">+</div>",,html-keyboard-response,392,6533069,0.0-19.0-0.17,48533,List2A,white,man,,,,null,,,,,,,,,
null,"<img src=""stim_listA/kiss5.gif""style=""height:400px;""></stim_listA>",,html-keyboard-response,393,6535072,0.0-19.0-1.17,48533,List2A,white,man,,,,null,,,,,,,,,
null,is kissing,,html-keyboard-response,394,6537074,0.0-19.0-2.17,48533,List2A,white,man,,,,null,,,,,,,,,
3662,,,survey-text,395,6540741,0.0-19.0-3.17,48533,List2A,white,man,,,,,"{""Q0"":""Luke is kissing Fred""}","<img src=""stim_listA/kiss5.gif""style=""height:400px;""></stim_listA>",is kissing,,,,,,
null,"<div style=""font-size:60px;"">+</div>",,html-keyboard-response,396,6541243,0.0-19.0-0.18,48533,List2A,white,man,,,,null,,,,,,,,,
null,"<img src=""stim_listA/look6.gif""style=""height:400px;""></stim_listA>",,html-keyboard-response,397,6543246,0.0-19.0-1.18,48533,List2A,white,man,,,,null,,,,,,,,,
null,is being looked at by,,html-keyboard-response,398,6545248,0.0-19.0-2.18,48533,List2A,white,man,,,,null,,,,,,,,,
5501,,,survey-text,399,6550753,0.0-19.0-3.18,48533,List2A,white,man,,,,,"{""Q0"":""Mike is being looked at by Dave""}","<img src=""stim_listA/look6.gif""style=""height:400px;""></stim_listA>",is being looked at by,,,,,,
null,"<div style=""font-size:60px;"">+</div>",,html-keyboard-response,400,6551256,0.0-19.0-0.19,48533,List2A,white,man,,,,null,,,,,,,,,
null,"<img src=""stim_listA/challenge8.gif""style=""height:400px;""></stim_listA>",,html-keyboard-response,401,6553259,0.0-19.0-1.19,48533,List2A,white,man,,,,null,,,,,,,,,
null,is being challenged by,,html-keyboard-response,402,6555262,0.0-19.0-2.19,48533,List2A,white,man,,,,null,,,,,,,,,
5558,,,survey-text,403,6560825,0.0-19.0-3.19,48533,List2A,white,man,,,,,"{""Q0"":""Kate is being challenged by Ruth""}","<img src=""stim_listA/challenge8.gif""style=""height:400px;""></stim_listA>",is being challenged by,,,,,,
2667,<p>Thank you for completing that task.</p><p>The final part of this session is a questionnaire that will take about 4 minutes.</p><p>Press Continue.</p>,0,html-button-response,404,6563495,0.0-20.0,48533,List2A,white,man,,,,,,,,,,,,,
25637,,,survey-text,405,6590148,0.0-21.0,48533,List2A,white,man,,,,,"{""Q0"":""20"",""Q1"":""English"",""Q2"":""English"",""Q3"":""United States"",""Q4"":""American"",""Q5"":""White"",""Q6"":""Male""}",,,demographics,,,,,
2645,<p>Have you lived in the USA for the last 5 years or more?</p>,0,html-button-response,406,6592794,0.0-22.0,48533,List2A,white,man,,,,,,,,fiveyears,,,,,
2692,<p>Move the slider to show the extent to which you agree with the following statements.</p>,0,html-button-response,407,6596488,0.0-23.0,48533,List2A,white,man,,,,,,,,,,,,,
4978,,,html-slider-response,408,6602470,0.0-24.0-0.0-0.0,48533,List2A,white,man,,,,,,,,survey_race,24,,,I am glad to be my age.,filler
4379,,,html-slider-response,409,6606851,0.0-24.0-0.0-0.1,48533,List2A,white,man,,,,,,,,survey_race,72,,,Getting older does not worry me.,filler
6520,,,html-slider-response,410,6613373,0.0-24.0-0.0-0.2,48533,List2A,white,man,,,,,,,,survey_race,48,,,People of my race have a lot in common with each other.,common
6645,,,html-slider-response,411,6620020,0.0-24.0-0.0-0.3,48533,List2A,white,man,,,,,,,,survey_race,40,,,The fact that I am my race is an important part of my identity.,identity
5469,,,html-slider-response,412,6625490,0.0-24.0-0.0-0.4,48533,List2A,white,man,,,,,,,,survey_race,35,,,I am similar to the average person of my race.,similar
4678,,,html-slider-response,413,6630172,0.0-24.0-0.0-0.5,48533,List2A,white,man,,,,,,,,survey_race,41,,,I feel solidarity with people the same age as me.,filler
5996,,,html-slider-response,414,6636171,0.0-24.0-0.0-0.6,48533,List2A,white,man,,,,,,,,survey_race,49,,,I am glad to be my race.,glad
5020,,,html-slider-response,415,6641192,0.0-24.0-0.0-0.7,48533,List2A,white,man,,,,,,,,survey_race,51,,,"The older I get, the wiser I feel.",filler
6521,,,html-slider-response,416,6647715,0.0-24.0-0.0-0.8,48533,List2A,white,man,,,,,,,,survey_race,57,,,Being my age gives me a good feeling.,filler
4326,,,html-slider-response,417,6652043,0.0-24.0-0.0-0.9,48533,List2A,white,man,,,,,,,,survey_race,17,,,I often think about the fact that I am my race.,often
3885,,,html-slider-response,418,6655930,0.0-24.0-0.0-0.10,48533,List2A,white,man,,,,,,,,survey_race,45,,,I feel solidarity with my race.,solidarity
3744,,,html-slider-response,419,6659675,0.0-24.0-0.0-0.11,48533,List2A,white,man,,,,,,,,survey_race,40,,,Being my race is an important part of how I see myself.,important
5015,,,html-slider-response,420,6664692,0.0-24.0-0.0-0.12,48533,List2A,white,man,,,,,,,,survey_race,44,,,Being my race gives me a good feeling.,feeling
2564,,,html-slider-response,421,6667257,0.0-24.0-0.0-0.13,48533,List2A,white,man,,,,,,,,survey_race,53,,,I am glad to be the age I am.,filler
3599,,,html-slider-response,422,6670857,0.0-24.0-0.0-0.14,48533,List2A,white,man,,,,,,,,survey_race,52,,,I feel a bond with people the same age as me.,filler
8365,,,html-slider-response,423,6679223,0.0-24.0-0.0-0.15,48533,List2A,white,man,,,,,,,,survey_race,16,,,I feel a bond with my race.,bond
4991,,,html-slider-response,424,6684216,0.0-24.0-0.0-0.16,48533,List2A,white,man,,,,,,,,survey_race,60,,,I think that my race has a lot to be proud of.,proud
2919,,,html-slider-response,425,6687135,0.0-24.0-0.0-0.17,48533,List2A,white,man,,,,,,,,survey_race,38,,,I feel committed to my race.,committed
3589,,,html-slider-response,426,6690726,0.0-24.0-0.0-0.18,48533,List2A,white,man,,,,,,,,survey_race,45,,,I have a lot in common with people of a similar age to me.,filler
2900,,,html-slider-response,427,6693628,0.0-24.0-0.0-0.19,48533,List2A,white,man,,,,,,,,survey_race,31,,,I often think about the fact that I am my age.,filler
2924,,,html-slider-response,428,6696554,0.0-24.0-0.0-0.20,48533,List2A,white,man,,,,,,,,survey_race,47,,,It is pleasant to be my race.,pleasant
2814,,,html-slider-response,429,6699370,0.0-24.0-0.0-0.21,48533,List2A,white,man,,,,,,,,survey_race,39,,,I enjoy being in large groups.,filler
3471,,,html-slider-response,430,6702842,0.0-24.0-0.0-0.22,48533,List2A,white,man,,,,,,,,survey_race,40,,,I have a lot in common with the average person of my race.,average
3179,,,html-slider-response,431,6706022,0.0-24.0-0.0-0.23,48533,List2A,white,man,,,,,,,,survey_race,57,,,I consider myself an extrovert.,filler
5610,,,html-slider-response,432,6711635,0.0-24.0-0.0-0.24,48533,List2A,white,man,,,,,,,,survey_race,34,,,People of my race are very similar to each other.,verysimilar
4462,,,html-slider-response,433,6716099,0.0-24.0-0.0-0.25,48533,List2A,white,man,,,,,,,,survey_race,66,,,People my age have a lot in common with each other.,filler
6496,,,html-slider-response,434,6722599,0.0-24.0-0.0-0.26,48533,List2A,white,man,,,,,,,,survey_race,30,,,My age is not an important part of who I am.,filler
3018,,,html-slider-response,435,6725619,0.0-24.0-0.0-0.27,48533,List2A,white,man,,,,,,,,survey_race,35,,,I consider myself an introvert.,filler
4998,,,html-slider-response,436,6730619,0.0-24.0-1.0-0.0,48533,List2A,white,man,,,,,,,,survey_gender,70,,,The fact that I am my gender is an important part of my identity.,identity
2793,,,html-slider-response,437,6733413,0.0-24.0-1.0-0.1,48533,List2A,white,man,,,,,,,,survey_gender,62,,,I have a lot in common with my friends.,filler
3321,,,html-slider-response,438,6736735,0.0-24.0-1.0-0.2,48533,List2A,white,man,,,,,,,,survey_gender,36,,,People of my gender are very similar to each other.,verysimilar
3154,,,html-slider-response,439,6739891,0.0-24.0-1.0-0.3,48533,List2A,white,man,,,,,,,,survey_gender,60,,,I am glad to have the friends that I have.,filler
2195,,,html-slider-response,440,6742088,0.0-24.0-1.0-0.4,48533,List2A,white,man,,,,,,,,survey_gender,58,,,I am glad to be my gender.,glad
4534,,,html-slider-response,441,6746623,0.0-24.0-1.0-0.5,48533,List2A,white,man,,,,,,,,survey_gender,39,,,Most of the friends in my life are very similar to me.,filler
4802,,,html-slider-response,442,6751428,0.0-24.0-1.0-0.6,48533,List2A,white,man,,,,,,,,survey_gender,65,,,It is not always easy for people to know what I am thinking.,filler
2837,,,html-slider-response,443,6754266,0.0-24.0-1.0-0.7,48533,List2A,white,man,,,,,,,,survey_gender,37,,,I feel solidarity with my gender.,solidarity
2344,,,html-slider-response,444,6756611,0.0-24.0-1.0-0.8,48533,List2A,white,man,,,,,,,,survey_gender,58,,,I feel a bond with my friends.,filler
5823,,,html-slider-response,445,6762435,0.0-24.0-1.0-0.9,48533,List2A,white,man,,,,,,,,survey_gender,21,,,Family is not more important to me than friendship.,filler
5930,,,html-slider-response,446,6768366,0.0-24.0-1.0-0.10,48533,List2A,white,man,,,,,,,,survey_gender,28,,,Routine is not important to me.,filler
7230,,,html-slider-response,447,6775597,0.0-24.0-1.0-0.11,48533,List2A,white,man,,,,,,,,survey_gender,57,,,People of my gender have a lot in common with each other.,common
2374,,,html-slider-response,448,6777972,0.0-24.0-1.0-0.12,48533,List2A,white,man,,,,,,,,survey_gender,59,,,It is pleasant to be my gender.,pleasant
3919,,,html-slider-response,449,6781893,0.0-24.0-1.0-0.13,48533,List2A,white,man,,,,,,,,survey_gender,61,,,I often think about my actions.,filler
2984,,,html-slider-response,450,6784878,0.0-24.0-1.0-0.14,48533,List2A,white,man,,,,,,,,survey_gender,47,,,I consider myself a highly empathetic person.,filler
6351,,,html-slider-response,451,6791230,0.0-24.0-1.0-0.15,48533,List2A,white,man,,,,,,,,survey_gender,67,,,I am similar to the average person of my gender.,similar
2346,,,html-slider-response,452,6793578,0.0-24.0-1.0-0.16,48533,List2A,white,man,,,,,,,,survey_gender,60,,,Being around my friends gives me a good feeling.,filler
2086,,,html-slider-response,453,6795664,0.0-24.0-1.0-0.17,48533,List2A,white,man,,,,,,,,survey_gender,37,,,My friends have a lot in common with each other.,filler
2293,,,html-slider-response,454,6797958,0.0-24.0-1.0-0.18,48533,List2A,white,man,,,,,,,,survey_gender,36,,,Being my gender is an important part of how I see myself.,important
4148,,,html-slider-response,455,6802108,0.0-24.0-1.0-0.19,48533,List2A,white,man,,,,,,,,survey_gender,73,,,I would say I am an animal person.,filler
3069,,,html-slider-response,456,6805178,0.0-24.0-1.0-0.20,48533,List2A,white,man,,,,,,,,survey_gender,39,,,I have a lot in common with the average person of my gender.,average
1986,,,html-slider-response,457,6807166,0.0-24.0-1.0-0.21,48533,List2A,white,man,,,,,,,,survey_gender,40,,,Being my gender gives me a good feeling.,feeling
1940,,,html-slider-response,458,6809108,0.0-24.0-1.0-0.22,48533,List2A,white,man,,,,,,,,survey_gender,36,,,I feel committed to my gender.,committed
2722,,,html-slider-response,459,6811831,0.0-24.0-1.0-0.23,48533,List2A,white,man,,,,,,,,survey_gender,35,,,I feel a bond with my gender.,bond
2262,,,html-slider-response,460,6814094,0.0-24.0-1.0-0.24,48533,List2A,white,man,,,,,,,,survey_gender,75,,,I think that my gender has a lot to be proud of.,proud
3555,,,html-slider-response,461,6817650,0.0-24.0-1.0-0.25,48533,List2A,white,man,,,,,,,,survey_gender,42,,,My friends understand me.,filler
2188,,,html-slider-response,462,6819840,0.0-24.0-1.0-0.26,48533,List2A,white,man,,,,,,,,survey_gender,39,,,I often think about the fact that I am my gender.,often
2599,,,html-slider-response,463,6822439,0.0-24.0-1.0-0.27,48533,List2A,white,man,,,,,,,,survey_gender,58,,,I feel solidarity with my friends.,filler
166063,,,survey-text,464,6988514,0.0-25.0,48533,List2A,white,man,,,,,"{""Q0"":""ccc""}",,,worker_id,,,,,
18851,,,external-html,465,7007595,0.0-26.0,48533,List2A,white,man,debrief.html,,,,,,,,,,,,
