rt,stimulus,button_pressed,trial_type,trial_index,time_elapsed,internal_node_id,subject,list,ppt_race,ppt_gender,url,first_guess,correct,key_press,responses,image_type,phrase_type,test_part,response,stimulus1,stimulus2,question_type,survey_item
3007.6,Welcome to the experiment. Press Continue to begin.,0,html-button-response,0,3018,0.0-0.0,49161,List2B,black,man,,,,,,,,,,,,,
60218,,,external-html,1,64893,0.0-1.0,49161,List2B,black,man,consent.html,,,,,,,,,,,,
15068.8,"<p>On the next page, you will see portraits of 8 people and their names.</p><p>Your first task is to take a few minutes to memorise the names of these people.</p><p>You will have to recall their names during the rest of the experiment, so it is</p><p>essential that you try to memorise these people and their names as best as you can.</p><br><p><strong>You will then be tested on your memory of these names and portraits.</strong></p><br><p>The experiment will start after you have completed this memory test.</p><br><p>Ready?</p>",0,html-button-response,2,79965,0.0-2.0,49161,List2B,black,man,,,,,,,,,,,,,
14082,"<img src='img/portrait_matrix_list2.jpg' style='width:900px;height:500px;''></img><p>If you have memorised all the portraits and names and are ready to start, press Continue.</p><p><strong>Please note: Your memory of these faces will be tested 4 times during this experiment.</strong></p>",0,html-button-response,3,95051,0.0-3.0-0.0,49161,List2B,black,man,,,,,,,,,,,,,
13984.5,"<img src=""portrait/WM2.jpg""style=""height:400px;""></img>",7,html-button-response,4,110042,0.0-3.0-1.0,49161,List2B,black,man,,TRUE,7,,,,,,,,,,
null,CORRECT,,html-keyboard-response,5,111549,0.0-3.0-2.0-0.0,49161,List2B,black,man,,,,null,,,,,,,,,
8328.7,"<img src=""portrait/BW2.jpg""style=""height:400px;""></img>",2,html-button-response,6,119881,0.0-3.0-4.0,49161,List2B,black,man,,TRUE,2,,,,,,,,,,
null,CORRECT,,html-keyboard-response,7,121386,0.0-3.0-5.0-0.0,49161,List2B,black,man,,,,null,,,,,,,,,
5252.2,"<img src=""portrait/BM1.jpg""style=""height:400px;""></img>",4,html-button-response,8,126641,0.0-3.0-7.0,49161,List2B,black,man,,TRUE,4,,,,,,,,,,
null,CORRECT,,html-keyboard-response,9,128144,0.0-3.0-8.0-0.0,49161,List2B,black,man,,,,null,,,,,,,,,
8132.1,"<img src=""portrait/BW1.jpg""style=""height:400px;""></img>",0,html-button-response,10,136278,0.0-3.0-10.0,49161,List2B,black,man,,TRUE,0,,,,,,,,,,
null,CORRECT,,html-keyboard-response,11,137780,0.0-3.0-11.0-0.0,49161,List2B,black,man,,,,null,,,,,,,,,
5207.8,"<img src=""portrait/WW2.jpg""style=""height:400px;""></img>",3,html-button-response,12,142990,0.0-3.0-13.0,49161,List2B,black,man,,TRUE,3,,,,,,,,,,
null,CORRECT,,html-keyboard-response,13,144492,0.0-3.0-14.0-0.0,49161,List2B,black,man,,,,null,,,,,,,,,
6832.5,"<img src=""portrait/WW1.jpg""style=""height:400px;""></img>",1,html-button-response,14,151327,0.0-3.0-16.0,49161,List2B,black,man,,TRUE,1,,,,,,,,,,
null,CORRECT,,html-keyboard-response,15,152829,0.0-3.0-17.0-0.0,49161,List2B,black,man,,,,null,,,,,,,,,
6471.3,"<img src=""portrait/WM1.jpg""style=""height:400px;""></img>",6,html-button-response,16,159303,0.0-3.0-19.0,49161,List2B,black,man,,TRUE,6,,,,,,,,,,
null,CORRECT,,html-keyboard-response,17,160805,0.0-3.0-20.0-0.0,49161,List2B,black,man,,,,null,,,,,,,,,
5279.4,"<img src=""portrait/BM2.jpg""style=""height:400px;""></img>",5,html-button-response,18,166088,0.0-3.0-22.0,49161,List2B,black,man,,TRUE,5,,,,,,,,,,
null,CORRECT,,html-keyboard-response,19,167590,0.0-3.0-23.0-0.0,49161,List2B,black,man,,,,null,,,,,,,,,
5819.9,<p>You got 8 out of 8 right first time. Press Continue.</p>,0,html-button-response,20,173414,0.0-3.0-25.0,49161,List2B,black,man,,,,,,,,,,,,,
18109.9,"<p>In this experiment, you will view photographs of the people from the memory game interacting.</p><p>By using the <strong>exact</strong> phrase given <i>after</i> the photograph appears and recalling the correct names of the people in the photographs, form a sentence describing the interaction. You do not need to capitalise names.</p><p>Type your answer in the space provided. Please complete every sentence before moving onto the next trial.</p><p>You will only have a few seconds to memorise each given photograph and phrase before you can respond, so try your best to focus.</p><p>An example is given below. Press 'Continue' when you are ready.</p><img src='img/speaking_example.jpg' style='width:800px;height:460px;''></img>",0,html-button-response,21,192530,0.0-4.0,49161,List2B,black,man,,,,,,,,,,,,,
3376.3,"<p>Before the experiment starts, you will watch two example trials. Press 'Continue'.</p>",0,html-button-response,22,196908,0.0-5.0,49161,List2B,black,man,,,,,,,,,,,,,
null,<img src='img/play_eg.gif' style='height:400px;''></img>,,html-keyboard-response,23,199912,0.0-6.0,49161,List2B,black,man,,,,null,,,,,,,,,
null,<p>is playing with</p>,,html-keyboard-response,24,201914,0.0-7.0,49161,List2B,black,man,,,,null,,,,,,,,,
38131.2,<p><b>Answer:</b> jane is playing with ruth</p>,0,html-button-response,25,240049,0.0-8.0,49161,List2B,black,man,,,,,,,,,,,,,
null,<img src='img/dance_eg.gif' style='height:400px;''></img>,,html-keyboard-response,26,243053,0.0-9.0,49161,List2B,black,man,,,,null,,,,,,,,,
null,<p>is being entertained by</p>,,html-keyboard-response,27,245055,0.0-10.0,49161,List2B,black,man,,,,null,,,,,,,,,
21053.1,<p><b>Answer:</b> fred is being entertained by mike</p>,0,html-button-response,28,266109,0.0-11.0,49161,List2B,black,man,,,,,,,,,,,,,
9728.2,"<p>Ready to start the experiment?</p><br><p><strong>Remember to describe the picture using a full sentence,</strong></p><p><strong>that combines the names of the people with the <i>exact</i> phrase given.</strong></p><p><strong>To receive full payment you must do this correctly.</strong></p><p><strong> You do not need to capitalise names or use punctuation.</strong></p><br><p>Press 'Continue' to begin.</p>",0,html-button-response,29,276840,0.0-12.0,49161,List2B,black,man,,,,,,,,,,,,,
null,"<div style=""font-size:60px;"">+</div>",,html-keyboard-response,30,278342,0.0-13.0-0.0,49161,List2B,black,man,,,,null,,,,,,,,,
null,"<img src=""stim_listB/kiss8.gif""style=""height:400px;""></stim_listB>",,html-keyboard-response,31,280347,0.0-13.0-1.0,49161,List2B,black,man,,,,null,,,,,,,,,
null,is being kissed by,,html-keyboard-response,32,282349,0.0-13.0-2.0,49161,List2B,black,man,,,,null,,,,,,,,,
60724.9,,,survey-text,33,343082,0.0-13.0-3.0,49161,List2B,black,man,,,,,"{""Q0"":""kate is being kissed by jane""}","<img src=""stim_listB/kiss8.gif""style=""height:400px;""></stim_listB>",is being kissed by,,,,,,
null,"<div style=""font-size:60px;"">+</div>",,html-keyboard-response,34,343590,0.0-13.0-0.1,49161,List2B,black,man,,,,null,,,,,,,,,
null,"<img src=""stim_listB/copy3.gif""style=""height:400px;""></stim_listB>",,html-keyboard-response,35,345592,0.0-13.0-1.1,49161,List2B,black,man,,,,null,,,,,,,,,
null,is copying,,html-keyboard-response,36,347594,0.0-13.0-2.1,49161,List2B,black,man,,,,null,,,,,,,,,
31822.9,,,survey-text,37,379423,0.0-13.0-3.1,49161,List2B,black,man,,,,,"{""Q0"":""mike is playing with beth""}","<img src=""stim_listB/copy3.gif""style=""height:400px;""></stim_listB>",is copying,,,,,,
null,"<div style=""font-size:60px;"">+</div>",,html-keyboard-response,38,379925,0.0-13.0-0.2,49161,List2B,black,man,,,,null,,,,,,,,,
null,"<img src=""stim_listB/greet1.gif""style=""height:400px;""></stim_listB>",,html-keyboard-response,39,381929,0.0-13.0-1.2,49161,List2B,black,man,,,,null,,,,,,,,,
null,is greeting,,html-keyboard-response,40,383931,0.0-13.0-2.2,49161,List2B,black,man,,,,null,,,,,,,,,
47965.5,,,survey-text,41,431902,0.0-13.0-3.2,49161,List2B,black,man,,,,,"{""Q0"":""dave is greeting ruth""}","<img src=""stim_listB/greet1.gif""style=""height:400px;""></stim_listB>",is greeting,,,,,,
null,"<div style=""font-size:60px;"">+</div>",,html-keyboard-response,42,432404,0.0-13.0-0.3,49161,List2B,black,man,,,,null,,,,,,,,,
null,"<img src=""stim_listB/greet5.gif""style=""height:400px;""></stim_listB>",,html-keyboard-response,43,434408,0.0-13.0-1.3,49161,List2B,black,man,,,,null,,,,,,,,,
null,is greeting,,html-keyboard-response,44,436410,0.0-13.0-2.3,49161,List2B,black,man,,,,null,,,,,,,,,
41465.5,,,survey-text,45,477880,0.0-13.0-3.3,49161,List2B,black,man,,,,,"{""Q0"":""fred is greeting dave ""}","<img src=""stim_listB/greet5.gif""style=""height:400px;""></stim_listB>",is greeting,,,,,,
null,"<div style=""font-size:60px;"">+</div>",,html-keyboard-response,46,478382,0.0-13.0-0.4,49161,List2B,black,man,,,,null,,,,,,,,,
null,"<img src=""stim_listB/oppose3.gif""style=""height:400px;""></stim_listB>",,html-keyboard-response,47,480388,0.0-13.0-1.4,49161,List2B,black,man,,,,null,,,,,,,,,
null,is opposing,,html-keyboard-response,48,482390,0.0-13.0-2.4,49161,List2B,black,man,,,,null,,,,,,,,,
55939.4,,,survey-text,49,538334,0.0-13.0-3.4,49161,List2B,black,man,,,,,"{""Q0"":"" kate is opposing  mike""}","<img src=""stim_listB/oppose3.gif""style=""height:400px;""></stim_listB>",is opposing,,,,,,
null,"<div style=""font-size:60px;"">+</div>",,html-keyboard-response,50,538837,0.0-13.0-0.5,49161,List2B,black,man,,,,null,,,,,,,,,
null,"<img src=""stim_listB/copy8.gif""style=""height:400px;""></stim_listB>",,html-keyboard-response,51,540842,0.0-13.0-1.5,49161,List2B,black,man,,,,null,,,,,,,,,
null,is being copied by,,html-keyboard-response,52,542844,0.0-13.0-2.5,49161,List2B,black,man,,,,null,,,,,,,,,
54616.5,,,survey-text,53,597466,0.0-13.0-3.5,49161,List2B,black,man,,,,,"{""Q0"":"" kate is being copied by ruth""}","<img src=""stim_listB/copy8.gif""style=""height:400px;""></stim_listB>",is being copied by,,,,,,
null,"<div style=""font-size:60px;"">+</div>",,html-keyboard-response,54,597969,0.0-13.0-0.6,49161,List2B,black,man,,,,null,,,,,,,,,
null,"<img src=""stim_listB/greet6.gif""style=""height:400px;""></stim_listB>",,html-keyboard-response,55,599973,0.0-13.0-1.6,49161,List2B,black,man,,,,null,,,,,,,,,
null,is being greeted by,,html-keyboard-response,56,601977,0.0-13.0-2.6,49161,List2B,black,man,,,,null,,,,,,,,,
46881.5,,,survey-text,57,648863,0.0-13.0-3.6,49161,List2B,black,man,,,,,"{""Q0"":"" mike is being greeted by luke""}","<img src=""stim_listB/greet6.gif""style=""height:400px;""></stim_listB>",is being greeted by,,,,,,
null,"<div style=""font-size:60px;"">+</div>",,html-keyboard-response,58,649365,0.0-13.0-0.7,49161,List2B,black,man,,,,null,,,,,,,,,
null,"<img src=""stim_listB/look8.gif""style=""height:400px;""></stim_listB>",,html-keyboard-response,59,651369,0.0-13.0-1.7,49161,List2B,black,man,,,,null,,,,,,,,,
null,is being looked at by,,html-keyboard-response,60,653371,0.0-13.0-2.7,49161,List2B,black,man,,,,null,,,,,,,,,
45800.1,,,survey-text,61,699178,0.0-13.0-3.7,49161,List2B,black,man,,,,,"{""Q0"":"" kate is being looked at by jane""}","<img src=""stim_listB/look8.gif""style=""height:400px;""></stim_listB>",is being looked at by,,,,,,
null,"<div style=""font-size:60px;"">+</div>",,html-keyboard-response,62,699680,0.0-13.0-0.8,49161,List2B,black,man,,,,null,,,,,,,,,
null,"<img src=""stim_listB/oppose4.gif""style=""height:400px;""></stim_listB>",,html-keyboard-response,63,701685,0.0-13.0-1.8,49161,List2B,black,man,,,,null,,,,,,,,,
null,is being opposed by,,html-keyboard-response,64,703686,0.0-13.0-2.8,49161,List2B,black,man,,,,null,,,,,,,,,
39953.7,,,survey-text,65,743646,0.0-13.0-3.8,49161,List2B,black,man,,,,,"{""Q0"":"" beth is being opposed by fred""}","<img src=""stim_listB/oppose4.gif""style=""height:400px;""></stim_listB>",is being opposed by,,,,,,
null,"<div style=""font-size:60px;"">+</div>",,html-keyboard-response,66,744149,0.0-13.0-0.9,49161,List2B,black,man,,,,null,,,,,,,,,
null,"<img src=""stim_listB/greet7.gif""style=""height:400px;""></stim_listB>",,html-keyboard-response,67,746153,0.0-13.0-1.9,49161,List2B,black,man,,,,null,,,,,,,,,
null,is greeting,,html-keyboard-response,68,748158,0.0-13.0-2.9,49161,List2B,black,man,,,,null,,,,,,,,,
74610.6,,,survey-text,69,822775,0.0-13.0-3.9,49161,List2B,black,man,,,,,"{""Q0"":"" jane is greeting beth""}","<img src=""stim_listB/greet7.gif""style=""height:400px;""></stim_listB>",is greeting,,,,,,
null,"<div style=""font-size:60px;"">+</div>",,html-keyboard-response,70,823277,0.0-13.0-0.10,49161,List2B,black,man,,,,null,,,,,,,,,
null,"<img src=""stim_listB/greet4.gif""style=""height:400px;""></stim_listB>",,html-keyboard-response,71,825281,0.0-13.0-1.10,49161,List2B,black,man,,,,null,,,,,,,,,
null,is being greeted by,,html-keyboard-response,72,827283,0.0-13.0-2.10,49161,List2B,black,man,,,,null,,,,,,,,,
8966,,,survey-text,73,836254,0.0-13.0-3.10,49161,List2B,black,man,,,,,"{""Q0"":""i being greeted by""}","<img src=""stim_listB/greet4.gif""style=""height:400px;""></stim_listB>",is being greeted by,,,,,,
null,"<div style=""font-size:60px;"">+</div>",,html-keyboard-response,74,836757,0.0-13.0-0.11,49161,List2B,black,man,,,,null,,,,,,,,,
null,"<img src=""stim_listB/oppose2.gif""style=""height:400px;""></stim_listB>",,html-keyboard-response,75,838761,0.0-13.0-1.11,49161,List2B,black,man,,,,null,,,,,,,,,
null,is being opposed by,,html-keyboard-response,76,840763,0.0-13.0-2.11,49161,List2B,black,man,,,,null,,,,,,,,,
54469.1,,,survey-text,77,895238,0.0-13.0-3.11,49161,List2B,black,man,,,,,"{""Q0"":""ruth is being opposed by luke""}","<img src=""stim_listB/oppose2.gif""style=""height:400px;""></stim_listB>",is being opposed by,,,,,,
null,"<div style=""font-size:60px;"">+</div>",,html-keyboard-response,78,895740,0.0-13.0-0.12,49161,List2B,black,man,,,,null,,,,,,,,,
null,"<img src=""stim_listB/copy5.gif""style=""height:400px;""></stim_listB>",,html-keyboard-response,79,897745,0.0-13.0-1.12,49161,List2B,black,man,,,,null,,,,,,,,,
null,is copying,,html-keyboard-response,80,899747,0.0-13.0-2.12,49161,List2B,black,man,,,,null,,,,,,,,,
46418.4,,,survey-text,81,946171,0.0-13.0-3.12,49161,List2B,black,man,,,,,"{""Q0"":"" dave is copying fred""}","<img src=""stim_listB/copy5.gif""style=""height:400px;""></stim_listB>",is copying,,,,,,
null,"<div style=""font-size:60px;"">+</div>",,html-keyboard-response,82,946674,0.0-13.0-0.13,49161,List2B,black,man,,,,null,,,,,,,,,
null,"<img src=""stim_listB/oppose6.gif""style=""height:400px;""></stim_listB>",,html-keyboard-response,83,948679,0.0-13.0-1.13,49161,List2B,black,man,,,,null,,,,,,,,,
null,is being opposed by,,html-keyboard-response,84,950681,0.0-13.0-2.13,49161,List2B,black,man,,,,null,,,,,,,,,
35080.3,,,survey-text,85,985769,0.0-13.0-3.13,49161,List2B,black,man,,,,,"{""Q0"":""fred is being opposed by luke""}","<img src=""stim_listB/oppose6.gif""style=""height:400px;""></stim_listB>",is being opposed by,,,,,,
null,"<div style=""font-size:60px;"">+</div>",,html-keyboard-response,86,986271,0.0-13.0-0.14,49161,List2B,black,man,,,,null,,,,,,,,,
null,"<img src=""stim_listB/challenge1.gif""style=""height:400px;""></stim_listB>",,html-keyboard-response,87,988274,0.0-13.0-1.14,49161,List2B,black,man,,,,null,,,,,,,,,
null,is challenging,,html-keyboard-response,88,990277,0.0-13.0-2.14,49161,List2B,black,man,,,,null,,,,,,,,,
91593.1,,,survey-text,89,1081875,0.0-13.0-3.14,49161,List2B,black,man,,,,,"{""Q0"":"" ruth is challenging dave""}","<img src=""stim_listB/challenge1.gif""style=""height:400px;""></stim_listB>",is challenging,,,,,,
null,"<div style=""font-size:60px;"">+</div>",,html-keyboard-response,90,1082378,0.0-13.0-0.15,49161,List2B,black,man,,,,null,,,,,,,,,
null,"<img src=""stim_listB/touch7.gif""style=""height:400px;""></stim_listB>",,html-keyboard-response,91,1084384,0.0-13.0-1.15,49161,List2B,black,man,,,,null,,,,,,,,,
null,is touching,,html-keyboard-response,92,1086386,0.0-13.0-2.15,49161,List2B,black,man,,,,null,,,,,,,,,
37283.6,,,survey-text,93,1123674,0.0-13.0-3.15,49161,List2B,black,man,,,,,"{""Q0"":""jane is touching kate""}","<img src=""stim_listB/touch7.gif""style=""height:400px;""></stim_listB>",is touching,,,,,,
null,"<div style=""font-size:60px;"">+</div>",,html-keyboard-response,94,1124177,0.0-13.0-0.16,49161,List2B,black,man,,,,null,,,,,,,,,
null,"<img src=""stim_listB/look1.gif""style=""height:400px;""></stim_listB>",,html-keyboard-response,95,1126181,0.0-13.0-1.16,49161,List2B,black,man,,,,null,,,,,,,,,
null,is looking at,,html-keyboard-response,96,1128183,0.0-13.0-2.16,49161,List2B,black,man,,,,null,,,,,,,,,
33876.4,,,survey-text,97,1162065,0.0-13.0-3.16,49161,List2B,black,man,,,,,"{""Q0"":""luke is looking at ruth""}","<img src=""stim_listB/look1.gif""style=""height:400px;""></stim_listB>",is looking at,,,,,,
null,"<div style=""font-size:60px;"">+</div>",,html-keyboard-response,98,1162568,0.0-13.0-0.17,49161,List2B,black,man,,,,null,,,,,,,,,
null,"<img src=""stim_listB/challenge7.gif""style=""height:400px;""></stim_listB>",,html-keyboard-response,99,1164572,0.0-13.0-1.17,49161,List2B,black,man,,,,null,,,,,,,,,
null,is challenging,,html-keyboard-response,100,1166574,0.0-13.0-2.17,49161,List2B,black,man,,,,null,,,,,,,,,
40043.6,,,survey-text,101,1206623,0.0-13.0-3.17,49161,List2B,black,man,,,,,"{""Q0"":""jane is challenging beth""}","<img src=""stim_listB/challenge7.gif""style=""height:400px;""></stim_listB>",is challenging,,,,,,
null,"<div style=""font-size:60px;"">+</div>",,html-keyboard-response,102,1207126,0.0-13.0-0.18,49161,List2B,black,man,,,,null,,,,,,,,,
null,"<img src=""stim_listB/kiss2.gif""style=""height:400px;""></stim_listB>",,html-keyboard-response,103,1209130,0.0-13.0-1.18,49161,List2B,black,man,,,,null,,,,,,,,,
null,is being kissed by,,html-keyboard-response,104,1211132,0.0-13.0-2.18,49161,List2B,black,man,,,,null,,,,,,,,,
57102.2,,,survey-text,105,1268240,0.0-13.0-3.18,49161,List2B,black,man,,,,,"{""Q0"":"" jane is being kissed by dave""}","<img src=""stim_listB/kiss2.gif""style=""height:400px;""></stim_listB>",is being kissed by,,,,,,
null,"<div style=""font-size:60px;"">+</div>",,html-keyboard-response,106,1268742,0.0-13.0-0.19,49161,List2B,black,man,,,,null,,,,,,,,,
null,"<img src=""stim_listB/greet2.gif""style=""height:400px;""></stim_listB>",,html-keyboard-response,107,1270746,0.0-13.0-1.19,49161,List2B,black,man,,,,null,,,,,,,,,
null,is being greeted by,,html-keyboard-response,108,1272749,0.0-13.0-2.19,49161,List2B,black,man,,,,null,,,,,,,,,
40983.9,,,survey-text,109,1313738,0.0-13.0-3.19,49161,List2B,black,man,,,,,"{""Q0"":"" jane is being greeted by luke""}","<img src=""stim_listB/greet2.gif""style=""height:400px;""></stim_listB>",is being greeted by,,,,,,
8746.3,"<img src='img/portrait_matrix_list2.jpg' style='width:900px;height:500px;''></img><p>If you have memorised all the portraits and names and are ready to start, press Continue.</p><p><strong>Please note: Your memory of these faces will be tested 4 times during this experiment.</strong></p>",0,html-button-response,110,1322488,0.0-14.0-0.0,49161,List2B,black,man,,,,,,,,,,,,,
8888.8,"<img src=""portrait/BW2.jpg""style=""height:400px;""></img>",2,html-button-response,111,1332384,0.0-14.0-1.0,49161,List2B,black,man,,TRUE,2,,,,,,,,,,
null,CORRECT,,html-keyboard-response,112,1333887,0.0-14.0-2.0-0.0,49161,List2B,black,man,,,,null,,,,,,,,,
4222.2,"<img src=""portrait/BW1.jpg""style=""height:400px;""></img>",0,html-button-response,113,1338112,0.0-14.0-4.0,49161,List2B,black,man,,TRUE,0,,,,,,,,,,
null,CORRECT,,html-keyboard-response,114,1339615,0.0-14.0-5.0-0.0,49161,List2B,black,man,,,,null,,,,,,,,,
4043.6,"<img src=""portrait/BM2.jpg""style=""height:400px;""></img>",5,html-button-response,115,1343662,0.0-14.0-7.0,49161,List2B,black,man,,TRUE,5,,,,,,,,,,
null,CORRECT,,html-keyboard-response,116,1345165,0.0-14.0-8.0-0.0,49161,List2B,black,man,,,,null,,,,,,,,,
3572.4,"<img src=""portrait/BM1.jpg""style=""height:400px;""></img>",4,html-button-response,117,1348740,0.0-14.0-10.0,49161,List2B,black,man,,TRUE,4,,,,,,,,,,
null,CORRECT,,html-keyboard-response,118,1350242,0.0-14.0-11.0-0.0,49161,List2B,black,man,,,,null,,,,,,,,,
4248.3,"<img src=""portrait/WW2.jpg""style=""height:400px;""></img>",3,html-button-response,119,1354493,0.0-14.0-13.0,49161,List2B,black,man,,TRUE,3,,,,,,,,,,
null,CORRECT,,html-keyboard-response,120,1355995,0.0-14.0-14.0-0.0,49161,List2B,black,man,,,,null,,,,,,,,,
3815.6,"<img src=""portrait/WM2.jpg""style=""height:400px;""></img>",7,html-button-response,121,1359813,0.0-14.0-16.0,49161,List2B,black,man,,TRUE,7,,,,,,,,,,
null,CORRECT,,html-keyboard-response,122,1361317,0.0-14.0-17.0-0.0,49161,List2B,black,man,,,,null,,,,,,,,,
3874.2,"<img src=""portrait/WW1.jpg""style=""height:400px;""></img>",1,html-button-response,123,1365193,0.0-14.0-19.0,49161,List2B,black,man,,TRUE,1,,,,,,,,,,
null,CORRECT,,html-keyboard-response,124,1366696,0.0-14.0-20.0-0.0,49161,List2B,black,man,,,,null,,,,,,,,,
3983.3,"<img src=""portrait/WM1.jpg""style=""height:400px;""></img>",6,html-button-response,125,1370682,0.0-14.0-22.0,49161,List2B,black,man,,TRUE,6,,,,,,,,,,
null,CORRECT,,html-keyboard-response,126,1372185,0.0-14.0-23.0-0.0,49161,List2B,black,man,,,,null,,,,,,,,,
13068.8,<p>You got 8 out of 8 right first time. Press Continue.</p>,0,html-button-response,127,1385256,0.0-14.0-25.0,49161,List2B,black,man,,,,,,,,,,,,,
null,"<div style=""font-size:60px;"">+</div>",,html-keyboard-response,128,1386761,0.0-15.0-0.0,49161,List2B,black,man,,,,null,,,,,,,,,
null,"<img src=""stim_listB/seduce6.gif""style=""height:400px;""></stim_listB>",,html-keyboard-response,129,1388764,0.0-15.0-1.0,49161,List2B,black,man,,,,null,,,,,,,,,
null,is being seduced by,,html-keyboard-response,130,1390765,0.0-15.0-2.0,49161,List2B,black,man,,,,null,,,,,,,,,
36022.4,,,survey-text,131,1426796,0.0-15.0-3.0,49161,List2B,black,man,,,,,"{""Q0"":"" fred is being seduced by dave""}","<img src=""stim_listB/seduce6.gif""style=""height:400px;""></stim_listB>",is being seduced by,,,,,,
null,"<div style=""font-size:60px;"">+</div>",,html-keyboard-response,132,1427299,0.0-15.0-0.1,49161,List2B,black,man,,,,null,,,,,,,,,
null,"<img src=""stim_listB/seduce7.gif""style=""height:400px;""></stim_listB>",,html-keyboard-response,133,1429303,0.0-15.0-1.1,49161,List2B,black,man,,,,null,,,,,,,,,
null,is seducing,,html-keyboard-response,134,1431305,0.0-15.0-2.1,49161,List2B,black,man,,,,null,,,,,,,,,
41765.8,,,survey-text,135,1473077,0.0-15.0-3.1,49161,List2B,black,man,,,,,"{""Q0"":"" ruth is seducing kate""}","<img src=""stim_listB/seduce7.gif""style=""height:400px;""></stim_listB>",is seducing,,,,,,
null,"<div style=""font-size:60px;"">+</div>",,html-keyboard-response,136,1473581,0.0-15.0-0.2,49161,List2B,black,man,,,,null,,,,,,,,,
null,"<img src=""stim_listB/shout3.gif""style=""height:400px;""></stim_listB>",,html-keyboard-response,137,1475585,0.0-15.0-1.2,49161,List2B,black,man,,,,null,,,,,,,,,
null,is shouting at,,html-keyboard-response,138,1477587,0.0-15.0-2.2,49161,List2B,black,man,,,,null,,,,,,,,,
53226.3,,,survey-text,139,1530819,0.0-15.0-3.2,49161,List2B,black,man,,,,,"{""Q0"":""fred is shouting at beth""}","<img src=""stim_listB/shout3.gif""style=""height:400px;""></stim_listB>",is shouting at,,,,,,
null,"<div style=""font-size:60px;"">+</div>",,html-keyboard-response,140,1531322,0.0-15.0-0.3,49161,List2B,black,man,,,,null,,,,,,,,,
null,"<img src=""stim_listB/hug7.gif""style=""height:400px;""></stim_listB>",,html-keyboard-response,141,1533326,0.0-15.0-1.3,49161,List2B,black,man,,,,null,,,,,,,,,
null,is hugging,,html-keyboard-response,142,1535328,0.0-15.0-2.3,49161,List2B,black,man,,,,null,,,,,,,,,
34591.3,,,survey-text,143,1569923,0.0-15.0-3.3,49161,List2B,black,man,,,,,"{""Q0"":""  ruth is hugging beth""}","<img src=""stim_listB/hug7.gif""style=""height:400px;""></stim_listB>",is hugging,,,,,,
null,"<div style=""font-size:60px;"">+</div>",,html-keyboard-response,144,1570426,0.0-15.0-0.4,49161,List2B,black,man,,,,null,,,,,,,,,
null,"<img src=""stim_listB/look5.gif""style=""height:400px;""></stim_listB>",,html-keyboard-response,145,1572431,0.0-15.0-1.4,49161,List2B,black,man,,,,null,,,,,,,,,
null,is looking at,,html-keyboard-response,146,1574433,0.0-15.0-2.4,49161,List2B,black,man,,,,null,,,,,,,,,
26132.8,,,survey-text,147,1600570,0.0-15.0-3.4,49161,List2B,black,man,,,,,"{""Q0"":"" luke is looking at fred""}","<img src=""stim_listB/look5.gif""style=""height:400px;""></stim_listB>",is looking at,,,,,,
null,"<div style=""font-size:60px;"">+</div>",,html-keyboard-response,148,1601073,0.0-15.0-0.5,49161,List2B,black,man,,,,null,,,,,,,,,
null,"<img src=""stim_listB/look2.gif""style=""height:400px;""></stim_listB>",,html-keyboard-response,149,1603077,0.0-15.0-1.5,49161,List2B,black,man,,,,null,,,,,,,,,
null,is being looked at by,,html-keyboard-response,150,1605079,0.0-15.0-2.5,49161,List2B,black,man,,,,null,,,,,,,,,
28239.7,,,survey-text,151,1633325,0.0-15.0-3.5,49161,List2B,black,man,,,,,"{""Q0"":""jane is being looked by dave""}","<img src=""stim_listB/look2.gif""style=""height:400px;""></stim_listB>",is being looked at by,,,,,,
null,"<div style=""font-size:60px;"">+</div>",,html-keyboard-response,152,1633827,0.0-15.0-0.6,49161,List2B,black,man,,,,null,,,,,,,,,
null,"<img src=""stim_listB/look3.gif""style=""height:400px;""></stim_listB>",,html-keyboard-response,153,1635831,0.0-15.0-1.6,49161,List2B,black,man,,,,null,,,,,,,,,
null,is looking at,,html-keyboard-response,154,1637833,0.0-15.0-2.6,49161,List2B,black,man,,,,null,,,,,,,,,
52251.2,,,survey-text,155,1690088,0.0-15.0-3.6,49161,List2B,black,man,,,,,"{""Q0"":"" fred is looking at beth""}","<img src=""stim_listB/look3.gif""style=""height:400px;""></stim_listB>",is looking at,,,,,,
null,"<div style=""font-size:60px;"">+</div>",,html-keyboard-response,156,1690591,0.0-15.0-0.7,49161,List2B,black,man,,,,null,,,,,,,,,
null,"<img src=""stim_listB/shout2.gif""style=""height:400px;""></stim_listB>",,html-keyboard-response,157,1692597,0.0-15.0-1.7,49161,List2B,black,man,,,,null,,,,,,,,,
null,is being shouted at by,,html-keyboard-response,158,1694599,0.0-15.0-2.7,49161,List2B,black,man,,,,null,,,,,,,,,
53592.5,,,survey-text,159,1748195,0.0-15.0-3.7,49161,List2B,black,man,,,,,"{""Q0"":"" jane is being shouted at by dave""}","<img src=""stim_listB/shout2.gif""style=""height:400px;""></stim_listB>",is being shouted at by,,,,,,
null,"<div style=""font-size:60px;"">+</div>",,html-keyboard-response,160,1748697,0.0-15.0-0.8,49161,List2B,black,man,,,,null,,,,,,,,,
null,"<img src=""stim_listB/copy1.gif""style=""height:400px;""></stim_listB>",,html-keyboard-response,161,1750701,0.0-15.0-1.8,49161,List2B,black,man,,,,null,,,,,,,,,
null,is copying,,html-keyboard-response,162,1752705,0.0-15.0-2.8,49161,List2B,black,man,,,,null,,,,,,,,,
57999,,,survey-text,163,1810708,0.0-15.0-3.8,49161,List2B,black,man,,,,,"{""Q0"":""dave is copying ruth""}","<img src=""stim_listB/copy1.gif""style=""height:400px;""></stim_listB>",is copying,,,,,,
null,"<div style=""font-size:60px;"">+</div>",,html-keyboard-response,164,1811210,0.0-15.0-0.9,49161,List2B,black,man,,,,null,,,,,,,,,
null,"<img src=""stim_listB/seduce2.gif""style=""height:400px;""></stim_listB>",,html-keyboard-response,165,1813217,0.0-15.0-1.9,49161,List2B,black,man,,,,null,,,,,,,,,
null,is being seduced by,,html-keyboard-response,166,1815219,0.0-15.0-2.9,49161,List2B,black,man,,,,null,,,,,,,,,
60424.2,,,survey-text,167,1875649,0.0-15.0-3.9,49161,List2B,black,man,,,,,"{""Q0"":""ruth is being seduced by dave""}","<img src=""stim_listB/seduce2.gif""style=""height:400px;""></stim_listB>",is being seduced by,,,,,,
null,"<div style=""font-size:60px;"">+</div>",,html-keyboard-response,168,1876152,0.0-15.0-0.10,49161,List2B,black,man,,,,null,,,,,,,,,
null,"<img src=""stim_listB/oppose8.gif""style=""height:400px;""></stim_listB>",,html-keyboard-response,169,1878156,0.0-15.0-1.10,49161,List2B,black,man,,,,null,,,,,,,,,
null,is being opposed by,,html-keyboard-response,170,1880158,0.0-15.0-2.10,49161,List2B,black,man,,,,null,,,,,,,,,
41488,,,survey-text,171,1921650,0.0-15.0-3.10,49161,List2B,black,man,,,,,"{""Q0"":""beth is being opposed by ruth""}","<img src=""stim_listB/oppose8.gif""style=""height:400px;""></stim_listB>",is being opposed by,,,,,,
null,"<div style=""font-size:60px;"">+</div>",,html-keyboard-response,172,1922153,0.0-15.0-0.11,49161,List2B,black,man,,,,null,,,,,,,,,
null,"<img src=""stim_listB/seduce4.gif""style=""height:400px;""></stim_listB>",,html-keyboard-response,173,1924157,0.0-15.0-1.11,49161,List2B,black,man,,,,null,,,,,,,,,
null,is being seduced by,,html-keyboard-response,174,1926159,0.0-15.0-2.11,49161,List2B,black,man,,,,null,,,,,,,,,
43197.6,,,survey-text,175,1969363,0.0-15.0-3.11,49161,List2B,black,man,,,,,"{""Q0"":""beth is being seduced by mike""}","<img src=""stim_listB/seduce4.gif""style=""height:400px;""></stim_listB>",is being seduced by,,,,,,
null,"<div style=""font-size:60px;"">+</div>",,html-keyboard-response,176,1969865,0.0-15.0-0.12,49161,List2B,black,man,,,,null,,,,,,,,,
null,"<img src=""stim_listB/touch8.gif""style=""height:400px;""></stim_listB>",,html-keyboard-response,177,1971869,0.0-15.0-1.12,49161,List2B,black,man,,,,null,,,,,,,,,
null,is being touched by,,html-keyboard-response,178,1973871,0.0-15.0-2.12,49161,List2B,black,man,,,,null,,,,,,,,,
50605,,,survey-text,179,2024482,0.0-15.0-3.12,49161,List2B,black,man,,,,,"{""Q0"":"" beth is being touched by ruth""}","<img src=""stim_listB/touch8.gif""style=""height:400px;""></stim_listB>",is being touched by,,,,,,
null,"<div style=""font-size:60px;"">+</div>",,html-keyboard-response,180,2024984,0.0-15.0-0.13,49161,List2B,black,man,,,,null,,,,,,,,,
null,"<img src=""stim_listB/hug3.gif""style=""height:400px;""></stim_listB>",,html-keyboard-response,181,2026989,0.0-15.0-1.13,49161,List2B,black,man,,,,null,,,,,,,,,
null,is hugging,,html-keyboard-response,182,2028991,0.0-15.0-2.13,49161,List2B,black,man,,,,null,,,,,,,,,
39809.6,,,survey-text,183,2068807,0.0-15.0-3.13,49161,List2B,black,man,,,,,"{""Q0"":"" fred his hugging beth""}","<img src=""stim_listB/hug3.gif""style=""height:400px;""></stim_listB>",is hugging,,,,,,
null,"<div style=""font-size:60px;"">+</div>",,html-keyboard-response,184,2069311,0.0-15.0-0.14,49161,List2B,black,man,,,,null,,,,,,,,,
null,"<img src=""stim_listB/hug1.gif""style=""height:400px;""></stim_listB>",,html-keyboard-response,185,2071315,0.0-15.0-1.14,49161,List2B,black,man,,,,null,,,,,,,,,
null,is hugging,,html-keyboard-response,186,2073317,0.0-15.0-2.14,49161,List2B,black,man,,,,null,,,,,,,,,
41226.8,,,survey-text,187,2114549,0.0-15.0-3.14,49161,List2B,black,man,,,,,"{""Q0"":"" luke is hugging ruth""}","<img src=""stim_listB/hug1.gif""style=""height:400px;""></stim_listB>",is hugging,,,,,,
null,"<div style=""font-size:60px;"">+</div>",,html-keyboard-response,188,2115051,0.0-15.0-0.15,49161,List2B,black,man,,,,null,,,,,,,,,
null,"<img src=""stim_listB/hug5.gif""style=""height:400px;""></stim_listB>",,html-keyboard-response,189,2117056,0.0-15.0-1.15,49161,List2B,black,man,,,,null,,,,,,,,,
null,is hugging,,html-keyboard-response,190,2119058,0.0-15.0-2.15,49161,List2B,black,man,,,,null,,,,,,,,,
31517.4,,,survey-text,191,2150579,0.0-15.0-3.15,49161,List2B,black,man,,,,,"{""Q0"":""luke is hugging fred""}","<img src=""stim_listB/hug5.gif""style=""height:400px;""></stim_listB>",is hugging,,,,,,
null,"<div style=""font-size:60px;"">+</div>",,html-keyboard-response,192,2151082,0.0-15.0-0.16,49161,List2B,black,man,,,,null,,,,,,,,,
null,"<img src=""stim_listB/hug4.gif""style=""height:400px;""></stim_listB>",,html-keyboard-response,193,2153086,0.0-15.0-1.16,49161,List2B,black,man,,,,null,,,,,,,,,
null,is being hugged by,,html-keyboard-response,194,2155088,0.0-15.0-2.16,49161,List2B,black,man,,,,null,,,,,,,,,
39010.8,,,survey-text,195,2194106,0.0-15.0-3.16,49161,List2B,black,man,,,,,"{""Q0"":""kate is being hugged by mike""}","<img src=""stim_listB/hug4.gif""style=""height:400px;""></stim_listB>",is being hugged by,,,,,,
null,"<div style=""font-size:60px;"">+</div>",,html-keyboard-response,196,2194608,0.0-15.0-0.17,49161,List2B,black,man,,,,null,,,,,,,,,
null,"<img src=""stim_listB/touch2.gif""style=""height:400px;""></stim_listB>",,html-keyboard-response,197,2196612,0.0-15.0-1.17,49161,List2B,black,man,,,,null,,,,,,,,,
null,is being touched by,,html-keyboard-response,198,2198614,0.0-15.0-2.17,49161,List2B,black,man,,,,null,,,,,,,,,
37917.6,,,survey-text,199,2236538,0.0-15.0-3.17,49161,List2B,black,man,,,,,"{""Q0"":""ruth is being touched by luke""}","<img src=""stim_listB/touch2.gif""style=""height:400px;""></stim_listB>",is being touched by,,,,,,
null,"<div style=""font-size:60px;"">+</div>",,html-keyboard-response,200,2237040,0.0-15.0-0.18,49161,List2B,black,man,,,,null,,,,,,,,,
null,"<img src=""stim_listB/look4.gif""style=""height:400px;""></stim_listB>",,html-keyboard-response,201,2239044,0.0-15.0-1.18,49161,List2B,black,man,,,,null,,,,,,,,,
null,is being looked at by,,html-keyboard-response,202,2241046,0.0-15.0-2.18,49161,List2B,black,man,,,,null,,,,,,,,,
51755.7,,,survey-text,203,2292807,0.0-15.0-3.18,49161,List2B,black,man,,,,,"{""Q0"":"" kate is being looked at by mike""}","<img src=""stim_listB/look4.gif""style=""height:400px;""></stim_listB>",is being looked at by,,,,,,
null,"<div style=""font-size:60px;"">+</div>",,html-keyboard-response,204,2293311,0.0-15.0-0.19,49161,List2B,black,man,,,,null,,,,,,,,,
null,"<img src=""stim_listB/hug8.gif""style=""height:400px;""></stim_listB>",,html-keyboard-response,205,2295317,0.0-15.0-1.19,49161,List2B,black,man,,,,null,,,,,,,,,
null,is being hugged by,,html-keyboard-response,206,2297320,0.0-15.0-2.19,49161,List2B,black,man,,,,null,,,,,,,,,
48105,,,survey-text,207,2345429,0.0-15.0-3.19,49161,List2B,black,man,,,,,"{""Q0"":""kate is being hugged by jane""}","<img src=""stim_listB/hug8.gif""style=""height:400px;""></stim_listB>",is being hugged by,,,,,,
51676.3,"<img src='img/portrait_matrix_list2.jpg' style='width:900px;height:500px;''></img><p>If you have memorised all the portraits and names and are ready to start, press Continue.</p><p><strong>Please note: Your memory of these faces will be tested 4 times during this experiment.</strong></p>",0,html-button-response,208,2397113,0.0-16.0-0.0,49161,List2B,black,man,,,,,,,,,,,,,
10463.3,"<img src=""portrait/BW2.jpg""style=""height:400px;""></img>",2,html-button-response,209,2408580,0.0-16.0-1.0,49161,List2B,black,man,,TRUE,2,,,,,,,,,,
null,CORRECT,,html-keyboard-response,210,2410083,0.0-16.0-2.0-0.0,49161,List2B,black,man,,,,null,,,,,,,,,
4174.4,"<img src=""portrait/BW1.jpg""style=""height:400px;""></img>",0,html-button-response,211,2414260,0.0-16.0-4.0,49161,List2B,black,man,,TRUE,0,,,,,,,,,,
null,CORRECT,,html-keyboard-response,212,2415763,0.0-16.0-5.0-0.0,49161,List2B,black,man,,,,null,,,,,,,,,
4126,"<img src=""portrait/BM2.jpg""style=""height:400px;""></img>",5,html-button-response,213,2419892,0.0-16.0-7.0,49161,List2B,black,man,,TRUE,5,,,,,,,,,,
null,CORRECT,,html-keyboard-response,214,2421395,0.0-16.0-8.0-0.0,49161,List2B,black,man,,,,null,,,,,,,,,
3137.1,"<img src=""portrait/WM1.jpg""style=""height:400px;""></img>",6,html-button-response,215,2424535,0.0-16.0-10.0,49161,List2B,black,man,,TRUE,6,,,,,,,,,,
null,CORRECT,,html-keyboard-response,216,2426038,0.0-16.0-11.0-0.0,49161,List2B,black,man,,,,null,,,,,,,,,
2729.8,"<img src=""portrait/BM1.jpg""style=""height:400px;""></img>",4,html-button-response,217,2428771,0.0-16.0-13.0,49161,List2B,black,man,,TRUE,4,,,,,,,,,,
null,CORRECT,,html-keyboard-response,218,2430274,0.0-16.0-14.0-0.0,49161,List2B,black,man,,,,null,,,,,,,,,
3955.6,"<img src=""portrait/WW1.jpg""style=""height:400px;""></img>",1,html-button-response,219,2434233,0.0-16.0-16.0,49161,List2B,black,man,,TRUE,1,,,,,,,,,,
null,CORRECT,,html-keyboard-response,220,2435736,0.0-16.0-17.0-0.0,49161,List2B,black,man,,,,null,,,,,,,,,
4137.8,"<img src=""portrait/WM2.jpg""style=""height:400px;""></img>",7,html-button-response,221,2439878,0.0-16.0-19.0,49161,List2B,black,man,,TRUE,7,,,,,,,,,,
null,CORRECT,,html-keyboard-response,222,2441381,0.0-16.0-20.0-0.0,49161,List2B,black,man,,,,null,,,,,,,,,
3499.9,"<img src=""portrait/WW2.jpg""style=""height:400px;""></img>",3,html-button-response,223,2444883,0.0-16.0-22.0,49161,List2B,black,man,,TRUE,3,,,,,,,,,,
null,CORRECT,,html-keyboard-response,224,2446387,0.0-16.0-23.0-0.0,49161,List2B,black,man,,,,null,,,,,,,,,
8165.8,<p>You got 8 out of 8 right first time. Press Continue.</p>,0,html-button-response,225,2454558,0.0-16.0-25.0,49161,List2B,black,man,,,,,,,,,,,,,
null,"<div style=""font-size:60px;"">+</div>",,html-keyboard-response,226,2456061,0.0-17.0-0.0,49161,List2B,black,man,,,,null,,,,,,,,,
null,"<img src=""stim_listB/kiss3.gif""style=""height:400px;""></stim_listB>",,html-keyboard-response,227,2458067,0.0-17.0-1.0,49161,List2B,black,man,,,,null,,,,,,,,,
null,is kissing,,html-keyboard-response,228,2460070,0.0-17.0-2.0,49161,List2B,black,man,,,,null,,,,,,,,,
47871.6,,,survey-text,229,2507945,0.0-17.0-3.0,49161,List2B,black,man,,,,,"{""Q0"":"" fred is kissing beth""}","<img src=""stim_listB/kiss3.gif""style=""height:400px;""></stim_listB>",is kissing,,,,,,
null,"<div style=""font-size:60px;"">+</div>",,html-keyboard-response,230,2508448,0.0-17.0-0.1,49161,List2B,black,man,,,,null,,,,,,,,,
null,"<img src=""stim_listB/seduce8.gif""style=""height:400px;""></stim_listB>",,html-keyboard-response,231,2510453,0.0-17.0-1.1,49161,List2B,black,man,,,,null,,,,,,,,,
null,is being seduced by,,html-keyboard-response,232,2512455,0.0-17.0-2.1,49161,List2B,black,man,,,,null,,,,,,,,,
71364.4,,,survey-text,233,2583827,0.0-17.0-3.1,49161,List2B,black,man,,,,,"{""Q0"":""  beth is being seduced by jane""}","<img src=""stim_listB/seduce8.gif""style=""height:400px;""></stim_listB>",is being seduced by,,,,,,
null,"<div style=""font-size:60px;"">+</div>",,html-keyboard-response,234,2584330,0.0-17.0-0.2,49161,List2B,black,man,,,,null,,,,,,,,,
null,"<img src=""stim_listB/copy2.gif""style=""height:400px;""></stim_listB>",,html-keyboard-response,235,2586334,0.0-17.0-1.2,49161,List2B,black,man,,,,null,,,,,,,,,
null,is being copied by,,html-keyboard-response,236,2588337,0.0-17.0-2.2,49161,List2B,black,man,,,,null,,,,,,,,,
45384.6,,,survey-text,237,2633726,0.0-17.0-3.2,49161,List2B,black,man,,,,,"{""Q0"":""luke is being copied by jane""}","<img src=""stim_listB/copy2.gif""style=""height:400px;""></stim_listB>",is being copied by,,,,,,
null,"<div style=""font-size:60px;"">+</div>",,html-keyboard-response,238,2634230,0.0-17.0-0.3,49161,List2B,black,man,,,,null,,,,,,,,,
null,"<img src=""stim_listB/oppose1.gif""style=""height:400px;""></stim_listB>",,html-keyboard-response,239,2636234,0.0-17.0-1.3,49161,List2B,black,man,,,,null,,,,,,,,,
null,is opposing,,html-keyboard-response,240,2638236,0.0-17.0-2.3,49161,List2B,black,man,,,,null,,,,,,,,,
30076.2,,,survey-text,241,2668317,0.0-17.0-3.3,49161,List2B,black,man,,,,,"{""Q0"":""dave is opposing Jane ""}","<img src=""stim_listB/oppose1.gif""style=""height:400px;""></stim_listB>",is opposing,,,,,,
null,"<div style=""font-size:60px;"">+</div>",,html-keyboard-response,242,2668819,0.0-17.0-0.4,49161,List2B,black,man,,,,null,,,,,,,,,
null,"<img src=""stim_listB/copy6.gif""style=""height:400px;""></stim_listB>",,html-keyboard-response,243,2670822,0.0-17.0-1.4,49161,List2B,black,man,,,,null,,,,,,,,,
null,is being copied by,,html-keyboard-response,244,2672824,0.0-17.0-2.4,49161,List2B,black,man,,,,null,,,,,,,,,
22167.6,,,survey-text,245,2694997,0.0-17.0-3.4,49161,List2B,black,man,,,,,"{""Q0"":""mike is being copied by luke ""}","<img src=""stim_listB/copy6.gif""style=""height:400px;""></stim_listB>",is being copied by,,,,,,
null,"<div style=""font-size:60px;"">+</div>",,html-keyboard-response,246,2695501,0.0-17.0-0.5,49161,List2B,black,man,,,,null,,,,,,,,,
null,"<img src=""stim_listB/oppose5.gif""style=""height:400px;""></stim_listB>",,html-keyboard-response,247,2697505,0.0-17.0-1.5,49161,List2B,black,man,,,,null,,,,,,,,,
null,is opposing,,html-keyboard-response,248,2699507,0.0-17.0-2.5,49161,List2B,black,man,,,,null,,,,,,,,,
36562.4,,,survey-text,249,2736073,0.0-17.0-3.5,49161,List2B,black,man,,,,,"{""Q0"":""Dave is opposing mike""}","<img src=""stim_listB/oppose5.gif""style=""height:400px;""></stim_listB>",is opposing,,,,,,
null,"<div style=""font-size:60px;"">+</div>",,html-keyboard-response,250,2736575,0.0-17.0-0.6,49161,List2B,black,man,,,,null,,,,,,,,,
null,"<img src=""stim_listB/challenge6.gif""style=""height:400px;""></stim_listB>",,html-keyboard-response,251,2738579,0.0-17.0-1.6,49161,List2B,black,man,,,,null,,,,,,,,,
null,is being challenged by,,html-keyboard-response,252,2740581,0.0-17.0-2.6,49161,List2B,black,man,,,,null,,,,,,,,,
26803.2,,,survey-text,253,2767390,0.0-17.0-3.6,49161,List2B,black,man,,,,,"{""Q0"":""mike is being challenged by  luke ""}","<img src=""stim_listB/challenge6.gif""style=""height:400px;""></stim_listB>",is being challenged by,,,,,,
null,"<div style=""font-size:60px;"">+</div>",,html-keyboard-response,254,2767894,0.0-17.0-0.7,49161,List2B,black,man,,,,null,,,,,,,,,
null,"<img src=""stim_listB/kiss5.gif""style=""height:400px;""></stim_listB>",,html-keyboard-response,255,2769899,0.0-17.0-1.7,49161,List2B,black,man,,,,null,,,,,,,,,
null,is kissing,,html-keyboard-response,256,2771901,0.0-17.0-2.7,49161,List2B,black,man,,,,null,,,,,,,,,
27256,,,survey-text,257,2799163,0.0-17.0-3.7,49161,List2B,black,man,,,,,"{""Q0"":""luke is kissing fred""}","<img src=""stim_listB/kiss5.gif""style=""height:400px;""></stim_listB>",is kissing,,,,,,
null,"<div style=""font-size:60px;"">+</div>",,html-keyboard-response,258,2799666,0.0-17.0-0.8,49161,List2B,black,man,,,,null,,,,,,,,,
null,"<img src=""stim_listB/hug6.gif""style=""height:400px;""></stim_listB>",,html-keyboard-response,259,2801670,0.0-17.0-1.8,49161,List2B,black,man,,,,null,,,,,,,,,
null,is being hugged by,,html-keyboard-response,260,2803672,0.0-17.0-2.8,49161,List2B,black,man,,,,null,,,,,,,,,
30565.5,,,survey-text,261,2834244,0.0-17.0-3.8,49161,List2B,black,man,,,,,"{""Q0"":""mike is being hugged by dave ""}","<img src=""stim_listB/hug6.gif""style=""height:400px;""></stim_listB>",is being hugged by,,,,,,
null,"<div style=""font-size:60px;"">+</div>",,html-keyboard-response,262,2834747,0.0-17.0-0.9,49161,List2B,black,man,,,,null,,,,,,,,,
null,"<img src=""stim_listB/challenge8.gif""style=""height:400px;""></stim_listB>",,html-keyboard-response,263,2836752,0.0-17.0-1.9,49161,List2B,black,man,,,,null,,,,,,,,,
null,is being challenged by,,html-keyboard-response,264,2838754,0.0-17.0-2.9,49161,List2B,black,man,,,,null,,,,,,,,,
39094.7,,,survey-text,265,2877854,0.0-17.0-3.9,49161,List2B,black,man,,,,,"{""Q0"":""kate is being challenged by ruth""}","<img src=""stim_listB/challenge8.gif""style=""height:400px;""></stim_listB>",is being challenged by,,,,,,
null,"<div style=""font-size:60px;"">+</div>",,html-keyboard-response,266,2878358,0.0-17.0-0.10,49161,List2B,black,man,,,,null,,,,,,,,,
null,"<img src=""stim_listB/shout4.gif""style=""height:400px;""></stim_listB>",,html-keyboard-response,267,2880362,0.0-17.0-1.10,49161,List2B,black,man,,,,null,,,,,,,,,
null,is being shouted at by,,html-keyboard-response,268,2882364,0.0-17.0-2.10,49161,List2B,black,man,,,,null,,,,,,,,,
43090.6,,,survey-text,269,2925458,0.0-17.0-3.10,49161,List2B,black,man,,,,,"{""Q0"":""Kate is being shouted at by mike  ""}","<img src=""stim_listB/shout4.gif""style=""height:400px;""></stim_listB>",is being shouted at by,,,,,,
null,"<div style=""font-size:60px;"">+</div>",,html-keyboard-response,270,2925960,0.0-17.0-0.11,49161,List2B,black,man,,,,null,,,,,,,,,
null,"<img src=""stim_listB/oppose7.gif""style=""height:400px;""></stim_listB>",,html-keyboard-response,271,2927964,0.0-17.0-1.11,49161,List2B,black,man,,,,null,,,,,,,,,
null,is opposing,,html-keyboard-response,272,2929966,0.0-17.0-2.11,49161,List2B,black,man,,,,null,,,,,,,,,
41577.2,,,survey-text,273,2971550,0.0-17.0-3.11,49161,List2B,black,man,,,,,"{""Q0"":""kate is opposing jane ""}","<img src=""stim_listB/oppose7.gif""style=""height:400px;""></stim_listB>",is opposing,,,,,,
null,"<div style=""font-size:60px;"">+</div>",,html-keyboard-response,274,2972052,0.0-17.0-0.12,49161,List2B,black,man,,,,null,,,,,,,,,
null,"<img src=""stim_listB/hug2.gif""style=""height:400px;""></stim_listB>",,html-keyboard-response,275,2974056,0.0-17.0-1.12,49161,List2B,black,man,,,,null,,,,,,,,,
null,is being hugged by,,html-keyboard-response,276,2976058,0.0-17.0-2.12,49161,List2B,black,man,,,,null,,,,,,,,,
28401.8,,,survey-text,277,3004465,0.0-17.0-3.12,49161,List2B,black,man,,,,,"{""Q0"":""jane is being hugged by dave ""}","<img src=""stim_listB/hug2.gif""style=""height:400px;""></stim_listB>",is being hugged by,,,,,,
null,"<div style=""font-size:60px;"">+</div>",,html-keyboard-response,278,3004967,0.0-17.0-0.13,49161,List2B,black,man,,,,null,,,,,,,,,
null,"<img src=""stim_listB/shout1.gif""style=""height:400px;""></stim_listB>",,html-keyboard-response,279,3006971,0.0-17.0-1.13,49161,List2B,black,man,,,,null,,,,,,,,,
null,is shouting at,,html-keyboard-response,280,3008973,0.0-17.0-2.13,49161,List2B,black,man,,,,null,,,,,,,,,
80388.1,,,survey-text,281,3089367,0.0-17.0-3.13,49161,List2B,black,man,,,,,"{""Q0"":""luke is shouting at ruth""}","<img src=""stim_listB/shout1.gif""style=""height:400px;""></stim_listB>",is shouting at,,,,,,
null,"<div style=""font-size:60px;"">+</div>",,html-keyboard-response,282,3089869,0.0-17.0-0.14,49161,List2B,black,man,,,,null,,,,,,,,,
null,"<img src=""stim_listB/greet8.gif""style=""height:400px;""></stim_listB>",,html-keyboard-response,283,3091871,0.0-17.0-1.14,49161,List2B,black,man,,,,null,,,,,,,,,
null,is being greeted by,,html-keyboard-response,284,3093874,0.0-17.0-2.14,49161,List2B,black,man,,,,null,,,,,,,,,
36910.5,,,survey-text,285,3130791,0.0-17.0-3.14,49161,List2B,black,man,,,,,"{""Q0"":""kate is being greeted by ruth ""}","<img src=""stim_listB/greet8.gif""style=""height:400px;""></stim_listB>",is being greeted by,,,,,,
null,"<div style=""font-size:60px;"">+</div>",,html-keyboard-response,286,3131294,0.0-17.0-0.15,49161,List2B,black,man,,,,null,,,,,,,,,
null,"<img src=""stim_listB/touch6.gif""style=""height:400px;""></stim_listB>",,html-keyboard-response,287,3133298,0.0-17.0-1.15,49161,List2B,black,man,,,,null,,,,,,,,,
null,is being touched by,,html-keyboard-response,288,3135300,0.0-17.0-2.15,49161,List2B,black,man,,,,null,,,,,,,,,
29422.7,,,survey-text,289,3164726,0.0-17.0-3.15,49161,List2B,black,man,,,,,"{""Q0"":""fred is being touched by luke ""}","<img src=""stim_listB/touch6.gif""style=""height:400px;""></stim_listB>",is being touched by,,,,,,
null,"<div style=""font-size:60px;"">+</div>",,html-keyboard-response,290,3165229,0.0-17.0-0.16,49161,List2B,black,man,,,,null,,,,,,,,,
null,"<img src=""stim_listB/copy7.gif""style=""height:400px;""></stim_listB>",,html-keyboard-response,291,3167234,0.0-17.0-1.16,49161,List2B,black,man,,,,null,,,,,,,,,
null,is copying,,html-keyboard-response,292,3169236,0.0-17.0-2.16,49161,List2B,black,man,,,,null,,,,,,,,,
64225.5,,,survey-text,293,3233468,0.0-17.0-3.16,49161,List2B,black,man,,,,,"{""Q0"":""kate is copying beth""}","<img src=""stim_listB/copy7.gif""style=""height:400px;""></stim_listB>",is copying,,,,,,
null,"<div style=""font-size:60px;"">+</div>",,html-keyboard-response,294,3233972,0.0-17.0-0.17,49161,List2B,black,man,,,,null,,,,,,,,,
null,"<img src=""stim_listB/shout5.gif""style=""height:400px;""></stim_listB>",,html-keyboard-response,295,3235977,0.0-17.0-1.17,49161,List2B,black,man,,,,null,,,,,,,,,
null,is shouting at,,html-keyboard-response,296,3237979,0.0-17.0-2.17,49161,List2B,black,man,,,,null,,,,,,,,,
21674.1,,,survey-text,297,3259658,0.0-17.0-3.17,49161,List2B,black,man,,,,,"{""Q0"":""luke is shouting at fred""}","<img src=""stim_listB/shout5.gif""style=""height:400px;""></stim_listB>",is shouting at,,,,,,
null,"<div style=""font-size:60px;"">+</div>",,html-keyboard-response,298,3260160,0.0-17.0-0.18,49161,List2B,black,man,,,,null,,,,,,,,,
null,"<img src=""stim_listB/look6.gif""style=""height:400px;""></stim_listB>",,html-keyboard-response,299,3262164,0.0-17.0-1.18,49161,List2B,black,man,,,,null,,,,,,,,,
null,is being looked at by,,html-keyboard-response,300,3264166,0.0-17.0-2.18,49161,List2B,black,man,,,,null,,,,,,,,,
42339.1,,,survey-text,301,3306513,0.0-17.0-3.18,49161,List2B,black,man,,,,,"{""Q0"":""mike is being looked at by  dave ""}","<img src=""stim_listB/look6.gif""style=""height:400px;""></stim_listB>",is being looked at by,,,,,,
null,"<div style=""font-size:60px;"">+</div>",,html-keyboard-response,302,3307015,0.0-17.0-0.19,49161,List2B,black,man,,,,null,,,,,,,,,
null,"<img src=""stim_listB/seduce1.gif""style=""height:400px;""></stim_listB>",,html-keyboard-response,303,3309020,0.0-17.0-1.19,49161,List2B,black,man,,,,null,,,,,,,,,
null,is seducing,,html-keyboard-response,304,3311022,0.0-17.0-2.19,49161,List2B,black,man,,,,null,,,,,,,,,
34885.4,,,survey-text,305,3345911,0.0-17.0-3.19,49161,List2B,black,man,,,,,"{""Q0"":""luke is seducing jane""}","<img src=""stim_listB/seduce1.gif""style=""height:400px;""></stim_listB>",is seducing,,,,,,
40048.8,"<img src='img/portrait_matrix_list2.jpg' style='width:900px;height:500px;''></img><p>If you have memorised all the portraits and names and are ready to start, press Continue.</p><p><strong>Please note: Your memory of these faces will be tested 4 times during this experiment.</strong></p>",0,html-button-response,306,3385965,0.0-18.0-0.0,49161,List2B,black,man,,,,,,,,,,,,,
23390,"<img src=""portrait/BW1.jpg""style=""height:400px;""></img>",0,html-button-response,307,3410359,0.0-18.0-1.0,49161,List2B,black,man,,TRUE,0,,,,,,,,,,
null,CORRECT,,html-keyboard-response,308,3411863,0.0-18.0-2.0-0.0,49161,List2B,black,man,,,,null,,,,,,,,,
5880.4,"<img src=""portrait/BM2.jpg""style=""height:400px;""></img>",5,html-button-response,309,3417746,0.0-18.0-4.0,49161,List2B,black,man,,TRUE,5,,,,,,,,,,
null,CORRECT,,html-keyboard-response,310,3419250,0.0-18.0-5.0-0.0,49161,List2B,black,man,,,,null,,,,,,,,,
6457.8,"<img src=""portrait/WM2.jpg""style=""height:400px;""></img>",7,html-button-response,311,3425711,0.0-18.0-7.0,49161,List2B,black,man,,TRUE,7,,,,,,,,,,
null,CORRECT,,html-keyboard-response,312,3427214,0.0-18.0-8.0-0.0,49161,List2B,black,man,,,,null,,,,,,,,,
4063.5,"<img src=""portrait/BW2.jpg""style=""height:400px;""></img>",2,html-button-response,313,3431280,0.0-18.0-10.0,49161,List2B,black,man,,TRUE,2,,,,,,,,,,
null,CORRECT,,html-keyboard-response,314,3432784,0.0-18.0-11.0-0.0,49161,List2B,black,man,,,,null,,,,,,,,,
6612.8,"<img src=""portrait/BM1.jpg""style=""height:400px;""></img>",4,html-button-response,315,3439400,0.0-18.0-13.0,49161,List2B,black,man,,TRUE,4,,,,,,,,,,
null,CORRECT,,html-keyboard-response,316,3440904,0.0-18.0-14.0-0.0,49161,List2B,black,man,,,,null,,,,,,,,,
8189.2,"<img src=""portrait/WW1.jpg""style=""height:400px;""></img>",1,html-button-response,317,3449099,0.0-18.0-16.0,49161,List2B,black,man,,TRUE,1,,,,,,,,,,
null,CORRECT,,html-keyboard-response,318,3450602,0.0-18.0-17.0-0.0,49161,List2B,black,man,,,,null,,,,,,,,,
6048.1,"<img src=""portrait/WW2.jpg""style=""height:400px;""></img>",3,html-button-response,319,3456654,0.0-18.0-19.0,49161,List2B,black,man,,TRUE,3,,,,,,,,,,
null,CORRECT,,html-keyboard-response,320,3458157,0.0-18.0-20.0-0.0,49161,List2B,black,man,,,,null,,,,,,,,,
5144.9,"<img src=""portrait/WM1.jpg""style=""height:400px;""></img>",6,html-button-response,321,3463306,0.0-18.0-22.0,49161,List2B,black,man,,TRUE,6,,,,,,,,,,
null,CORRECT,,html-keyboard-response,322,3464810,0.0-18.0-23.0-0.0,49161,List2B,black,man,,,,null,,,,,,,,,
9823.5,<p>You got 8 out of 8 right first time. Press Continue.</p>,0,html-button-response,323,3474636,0.0-18.0-25.0,49161,List2B,black,man,,,,,,,,,,,,,
null,"<div style=""font-size:60px;"">+</div>",,html-keyboard-response,324,3476140,0.0-19.0-0.0,49161,List2B,black,man,,,,null,,,,,,,,,
null,"<img src=""stim_listB/kiss7.gif""style=""height:400px;""></stim_listB>",,html-keyboard-response,325,3478144,0.0-19.0-1.0,49161,List2B,black,man,,,,null,,,,,,,,,
null,is kissing,,html-keyboard-response,326,3480146,0.0-19.0-2.0,49161,List2B,black,man,,,,null,,,,,,,,,
39481.8,,,survey-text,327,3519634,0.0-19.0-3.0,49161,List2B,black,man,,,,,"{""Q0"":""beth is kissing ruth""}","<img src=""stim_listB/kiss7.gif""style=""height:400px;""></stim_listB>",is kissing,,,,,,
null,"<div style=""font-size:60px;"">+</div>",,html-keyboard-response,328,3520137,0.0-19.0-0.1,49161,List2B,black,man,,,,null,,,,,,,,,
null,"<img src=""stim_listB/touch4.gif""style=""height:400px;""></stim_listB>",,html-keyboard-response,329,3522141,0.0-19.0-1.1,49161,List2B,black,man,,,,null,,,,,,,,,
null,is being touched by,,html-keyboard-response,330,3524143,0.0-19.0-2.1,49161,List2B,black,man,,,,null,,,,,,,,,
134989.7,,,survey-text,331,3659141,0.0-19.0-3.1,49161,List2B,black,man,,,,,"{""Q0"":""beth is being touched by fred""}","<img src=""stim_listB/touch4.gif""style=""height:400px;""></stim_listB>",is being touched by,,,,,,
null,"<div style=""font-size:60px;"">+</div>",,html-keyboard-response,332,3659643,0.0-19.0-0.2,49161,List2B,black,man,,,,null,,,,,,,,,
null,"<img src=""stim_listB/kiss1.gif""style=""height:400px;""></stim_listB>",,html-keyboard-response,333,3661647,0.0-19.0-1.2,49161,List2B,black,man,,,,null,,,,,,,,,
null,is kissing,,html-keyboard-response,334,3663649,0.0-19.0-2.2,49161,List2B,black,man,,,,null,,,,,,,,,
55277.8,,,survey-text,335,3718932,0.0-19.0-3.2,49161,List2B,black,man,,,,,"{""Q0"":""ruth is kissing luke ""}","<img src=""stim_listB/kiss1.gif""style=""height:400px;""></stim_listB>",is kissing,,,,,,
null,"<div style=""font-size:60px;"">+</div>",,html-keyboard-response,336,3719436,0.0-19.0-0.3,49161,List2B,black,man,,,,null,,,,,,,,,
null,"<img src=""stim_listB/touch3.gif""style=""height:400px;""></stim_listB>",,html-keyboard-response,337,3721440,0.0-19.0-1.3,49161,List2B,black,man,,,,null,,,,,,,,,
null,is touching,,html-keyboard-response,338,3723442,0.0-19.0-2.3,49161,List2B,black,man,,,,null,,,,,,,,,
40743.9,,,survey-text,339,3764192,0.0-19.0-3.3,49161,List2B,black,man,,,,,"{""Q0"":""kate is touching mike ""}","<img src=""stim_listB/touch3.gif""style=""height:400px;""></stim_listB>",is touching,,,,,,
null,"<div style=""font-size:60px;"">+</div>",,html-keyboard-response,340,3764696,0.0-19.0-0.4,49161,List2B,black,man,,,,null,,,,,,,,,
null,"<img src=""stim_listB/touch5.gif""style=""height:400px;""></stim_listB>",,html-keyboard-response,341,3766700,0.0-19.0-1.4,49161,List2B,black,man,,,,null,,,,,,,,,
null,is touching,,html-keyboard-response,342,3768702,0.0-19.0-2.4,49161,List2B,black,man,,,,null,,,,,,,,,
31516.2,,,survey-text,343,3800222,0.0-19.0-3.4,49161,List2B,black,man,,,,,"{""Q0"":""dave is touching mike""}","<img src=""stim_listB/touch5.gif""style=""height:400px;""></stim_listB>",is touching,,,,,,
null,"<div style=""font-size:60px;"">+</div>",,html-keyboard-response,344,3800724,0.0-19.0-0.5,49161,List2B,black,man,,,,null,,,,,,,,,
null,"<img src=""stim_listB/shout7.gif""style=""height:400px;""></stim_listB>",,html-keyboard-response,345,3802728,0.0-19.0-1.5,49161,List2B,black,man,,,,null,,,,,,,,,
null,is shouting at,,html-keyboard-response,346,3804730,0.0-19.0-2.5,49161,List2B,black,man,,,,null,,,,,,,,,
82724.1,,,survey-text,347,3887464,0.0-19.0-3.5,49161,List2B,black,man,,,,,"{""Q0"":""ruth is shouting at beth""}","<img src=""stim_listB/shout7.gif""style=""height:400px;""></stim_listB>",is shouting at,,,,,,
null,"<div style=""font-size:60px;"">+</div>",,html-keyboard-response,348,3887966,0.0-19.0-0.6,49161,List2B,black,man,,,,null,,,,,,,,,
null,"<img src=""stim_listB/touch1.gif""style=""height:400px;""></stim_listB>",,html-keyboard-response,349,3889970,0.0-19.0-1.6,49161,List2B,black,man,,,,null,,,,,,,,,
null,is touching,,html-keyboard-response,350,3891972,0.0-19.0-2.6,49161,List2B,black,man,,,,null,,,,,,,,,
37985.6,,,survey-text,351,3929963,0.0-19.0-3.6,49161,List2B,black,man,,,,,"{""Q0"":""jane is touching dave""}","<img src=""stim_listB/touch1.gif""style=""height:400px;""></stim_listB>",is touching,,,,,,
null,"<div style=""font-size:60px;"">+</div>",,html-keyboard-response,352,3930466,0.0-19.0-0.7,49161,List2B,black,man,,,,null,,,,,,,,,
null,"<img src=""stim_listB/challenge2.gif""style=""height:400px;""></stim_listB>",,html-keyboard-response,353,3932470,0.0-19.0-1.7,49161,List2B,black,man,,,,null,,,,,,,,,
null,is being challenged by,,html-keyboard-response,354,3934472,0.0-19.0-2.7,49161,List2B,black,man,,,,null,,,,,,,,,
38034.9,,,survey-text,355,3972512,0.0-19.0-3.7,49161,List2B,black,man,,,,,"{""Q0"":""luke is being challenged by jane ""}","<img src=""stim_listB/challenge2.gif""style=""height:400px;""></stim_listB>",is being challenged by,,,,,,
null,"<div style=""font-size:60px;"">+</div>",,html-keyboard-response,356,3973015,0.0-19.0-0.8,49161,List2B,black,man,,,,null,,,,,,,,,
null,"<img src=""stim_listB/seduce5.gif""style=""height:400px;""></stim_listB>",,html-keyboard-response,357,3975019,0.0-19.0-1.8,49161,List2B,black,man,,,,null,,,,,,,,,
null,is seducing,,html-keyboard-response,358,3977021,0.0-19.0-2.8,49161,List2B,black,man,,,,null,,,,,,,,,
32651.3,,,survey-text,359,4009680,0.0-19.0-3.8,49161,List2B,black,man,,,,,"{""Q0"":""luke is seducing mike""}","<img src=""stim_listB/seduce5.gif""style=""height:400px;""></stim_listB>",is seducing,,,,,,
null,"<div style=""font-size:60px;"">+</div>",,html-keyboard-response,360,4010184,0.0-19.0-0.9,49161,List2B,black,man,,,,null,,,,,,,,,
null,"<img src=""stim_listB/shout8.gif""style=""height:400px;""></stim_listB>",,html-keyboard-response,361,4012188,0.0-19.0-1.9,49161,List2B,black,man,,,,null,,,,,,,,,
null,is being shouted at by,,html-keyboard-response,362,4014189,0.0-19.0-2.9,49161,List2B,black,man,,,,null,,,,,,,,,
39750.8,,,survey-text,363,4053946,0.0-19.0-3.9,49161,List2B,black,man,,,,,"{""Q0"":""jane is being shouted at by kate""}","<img src=""stim_listB/shout8.gif""style=""height:400px;""></stim_listB>",is being shouted at by,,,,,,
null,"<div style=""font-size:60px;"">+</div>",,html-keyboard-response,364,4054448,0.0-19.0-0.10,49161,List2B,black,man,,,,null,,,,,,,,,
null,"<img src=""stim_listB/greet3.gif""style=""height:400px;""></stim_listB>",,html-keyboard-response,365,4056452,0.0-19.0-1.10,49161,List2B,black,man,,,,null,,,,,,,,,
null,is greeting,,html-keyboard-response,366,4058454,0.0-19.0-2.10,49161,List2B,black,man,,,,null,,,,,,,,,
30440.6,,,survey-text,367,4088899,0.0-19.0-3.10,49161,List2B,black,man,,,,,"{""Q0"":""beth is greeting mike ""}","<img src=""stim_listB/greet3.gif""style=""height:400px;""></stim_listB>",is greeting,,,,,,
null,"<div style=""font-size:60px;"">+</div>",,html-keyboard-response,368,4089402,0.0-19.0-0.11,49161,List2B,black,man,,,,null,,,,,,,,,
null,"<img src=""stim_listB/challenge5.gif""style=""height:400px;""></stim_listB>",,html-keyboard-response,369,4091406,0.0-19.0-1.11,49161,List2B,black,man,,,,null,,,,,,,,,
null,is challenging,,html-keyboard-response,370,4093408,0.0-19.0-2.11,49161,List2B,black,man,,,,null,,,,,,,,,
32535.5,,,survey-text,371,4125950,0.0-19.0-3.11,49161,List2B,black,man,,,,,"{""Q0"":""dave is challenging fred ""}","<img src=""stim_listB/challenge5.gif""style=""height:400px;""></stim_listB>",is challenging,,,,,,
null,"<div style=""font-size:60px;"">+</div>",,html-keyboard-response,372,4126453,0.0-19.0-0.12,49161,List2B,black,man,,,,null,,,,,,,,,
null,"<img src=""stim_listB/kiss6.gif""style=""height:400px;""></stim_listB>",,html-keyboard-response,373,4128457,0.0-19.0-1.12,49161,List2B,black,man,,,,null,,,,,,,,,
null,is being kissed by,,html-keyboard-response,374,4130459,0.0-19.0-2.12,49161,List2B,black,man,,,,null,,,,,,,,,
45776.3,,,survey-text,375,4176242,0.0-19.0-3.12,49161,List2B,black,man,,,,,"{""Q0"":""mike is being kissed by dave ""}","<img src=""stim_listB/kiss6.gif""style=""height:400px;""></stim_listB>",is being kissed by,,,,,,
null,"<div style=""font-size:60px;"">+</div>",,html-keyboard-response,376,4176744,0.0-19.0-0.13,49161,List2B,black,man,,,,null,,,,,,,,,
null,"<img src=""stim_listB/shout6.gif""style=""height:400px;""></stim_listB>",,html-keyboard-response,377,4178748,0.0-19.0-1.13,49161,List2B,black,man,,,,null,,,,,,,,,
null,is being shouted at by,,html-keyboard-response,378,4180750,0.0-19.0-2.13,49161,List2B,black,man,,,,null,,,,,,,,,
33965.3,,,survey-text,379,4214720,0.0-19.0-3.13,49161,List2B,black,man,,,,,"{""Q0"":""mike is being shouted at by dave ""}","<img src=""stim_listB/shout6.gif""style=""height:400px;""></stim_listB>",is being shouted at by,,,,,,
null,"<div style=""font-size:60px;"">+</div>",,html-keyboard-response,380,4215222,0.0-19.0-0.14,49161,List2B,black,man,,,,null,,,,,,,,,
null,"<img src=""stim_listB/copy4.gif""style=""height:400px;""></stim_listB>",,html-keyboard-response,381,4217226,0.0-19.0-1.14,49161,List2B,black,man,,,,null,,,,,,,,,
null,is being copied by,,html-keyboard-response,382,4219228,0.0-19.0-2.14,49161,List2B,black,man,,,,null,,,,,,,,,
36873.6,,,survey-text,383,4256108,0.0-19.0-3.14,49161,List2B,black,man,,,,,"{""Q0"":""kate is being copied by fred ""}","<img src=""stim_listB/copy4.gif""style=""height:400px;""></stim_listB>",is being copied by,,,,,,
null,"<div style=""font-size:60px;"">+</div>",,html-keyboard-response,384,4256611,0.0-19.0-0.15,49161,List2B,black,man,,,,null,,,,,,,,,
null,"<img src=""stim_listB/look7.gif""style=""height:400px;""></stim_listB>",,html-keyboard-response,385,4258615,0.0-19.0-1.15,49161,List2B,black,man,,,,null,,,,,,,,,
null,is looking at,,html-keyboard-response,386,4260617,0.0-19.0-2.15,49161,List2B,black,man,,,,null,,,,,,,,,
56945.8,,,survey-text,387,4317569,0.0-19.0-3.15,49161,List2B,black,man,,,,,"{""Q0"":""ruth is looking at beth""}","<img src=""stim_listB/look7.gif""style=""height:400px;""></stim_listB>",is looking at,,,,,,
null,"<div style=""font-size:60px;"">+</div>",,html-keyboard-response,388,4318072,0.0-19.0-0.16,49161,List2B,black,man,,,,null,,,,,,,,,
null,"<img src=""stim_listB/kiss4.gif""style=""height:400px;""></stim_listB>",,html-keyboard-response,389,4320077,0.0-19.0-1.16,49161,List2B,black,man,,,,null,,,,,,,,,
null,is being kissed by,,html-keyboard-response,390,4322079,0.0-19.0-2.16,49161,List2B,black,man,,,,null,,,,,,,,,
39765.7,,,survey-text,391,4361856,0.0-19.0-3.16,49161,List2B,black,man,,,,,"{""Q0"":""kate is being kissed by mike""}","<img src=""stim_listB/kiss4.gif""style=""height:400px;""></stim_listB>",is being kissed by,,,,,,
null,"<div style=""font-size:60px;"">+</div>",,html-keyboard-response,392,4362359,0.0-19.0-0.17,49161,List2B,black,man,,,,null,,,,,,,,,
null,"<img src=""stim_listB/challenge3.gif""style=""height:400px;""></stim_listB>",,html-keyboard-response,393,4364363,0.0-19.0-1.17,49161,List2B,black,man,,,,null,,,,,,,,,
null,is challenging,,html-keyboard-response,394,4366365,0.0-19.0-2.17,49161,List2B,black,man,,,,null,,,,,,,,,
47344.5,,,survey-text,395,4413716,0.0-19.0-3.17,49161,List2B,black,man,,,,,"{""Q0"":""beth is challenging mike""}","<img src=""stim_listB/challenge3.gif""style=""height:400px;""></stim_listB>",is challenging,,,,,,
null,"<div style=""font-size:60px;"">+</div>",,html-keyboard-response,396,4414218,0.0-19.0-0.18,49161,List2B,black,man,,,,null,,,,,,,,,
null,"<img src=""stim_listB/challenge4.gif""style=""height:400px;""></stim_listB>",,html-keyboard-response,397,4416222,0.0-19.0-1.18,49161,List2B,black,man,,,,null,,,,,,,,,
null,is being challenged by,,html-keyboard-response,398,4418224,0.0-19.0-2.18,49161,List2B,black,man,,,,null,,,,,,,,,
53731.7,,,survey-text,399,4471965,0.0-19.0-3.18,49161,List2B,black,man,,,,,"{""Q0"":""kate is being challenged by fred""}","<img src=""stim_listB/challenge4.gif""style=""height:400px;""></stim_listB>",is being challenged by,,,,,,
null,"<div style=""font-size:60px;"">+</div>",,html-keyboard-response,400,4472469,0.0-19.0-0.19,49161,List2B,black,man,,,,null,,,,,,,,,
null,"<img src=""stim_listB/seduce3.gif""style=""height:400px;""></stim_listB>",,html-keyboard-response,401,4474473,0.0-19.0-1.19,49161,List2B,black,man,,,,null,,,,,,,,,
null,is seducing,,html-keyboard-response,402,4476475,0.0-19.0-2.19,49161,List2B,black,man,,,,null,,,,,,,,,
52731,,,survey-text,403,4529210,0.0-19.0-3.19,49161,List2B,black,man,,,,,"{""Q0"":""kate is seducing fred""}","<img src=""stim_listB/seduce3.gif""style=""height:400px;""></stim_listB>",is seducing,,,,,,
18697.7,<p>Thank you for completing that task.</p><p>The final part of this session is a questionnaire that will take about 4 minutes.</p><p>Press Continue.</p>,0,html-button-response,404,4547913,0.0-20.0,49161,List2B,black,man,,,,,,,,,,,,,
86846.5,,,survey-text,405,4635781,0.0-21.0,49161,List2B,black,man,,,,,"{""Q0"":""30"",""Q1"":""english"",""Q2"":""english"",""Q3"":""united states of America "",""Q4"":""united states of America "",""Q5"":""black/African American "",""Q6"":""male""}",,,demographics,,,,,
8934,<p>Have you lived in the USA for the last 5 years or more?</p>,0,html-button-response,406,4644721,0.0-22.0,49161,List2B,black,man,,,,,,,,fiveyears,,,,,
13933.8,<p>Move the slider to show the extent to which you agree with the following statements.</p>,0,html-button-response,407,4659657,0.0-23.0,49161,List2B,black,man,,,,,,,,,,,,,
7340.1,,,html-slider-response,408,4668005,0.0-24.0-0.0-0.0,49161,List2B,black,man,,,,,,,,survey_gender,84,,,I feel a bond with my friends.,filler
14908.4,,,html-slider-response,409,4682919,0.0-24.0-0.0-0.1,49161,List2B,black,man,,,,,,,,survey_gender,79,,,The fact that I am my gender is an important part of my identity.,identity
6935,,,html-slider-response,410,4689859,0.0-24.0-0.0-0.2,49161,List2B,black,man,,,,,,,,survey_gender,85,,,Routine is not important to me.,filler
7163.8,,,html-slider-response,411,4697027,0.0-24.0-0.0-0.3,49161,List2B,black,man,,,,,,,,survey_gender,77,,,Being my gender is an important part of how I see myself.,important
6020.4,,,html-slider-response,412,4703053,0.0-24.0-0.0-0.4,49161,List2B,black,man,,,,,,,,survey_gender,88,,,I feel solidarity with my friends.,filler
5094.3,,,html-slider-response,413,4708152,0.0-24.0-0.0-0.5,49161,List2B,black,man,,,,,,,,survey_gender,88,,,My friends understand me.,filler
4602.2,,,html-slider-response,414,4712760,0.0-24.0-0.0-0.6,49161,List2B,black,man,,,,,,,,survey_gender,87,,,I think that my gender has a lot to be proud of.,proud
29968.1,,,html-slider-response,415,4742734,0.0-24.0-0.0-0.7,49161,List2B,black,man,,,,,,,,survey_gender,71,,,I consider myself a highly empathetic person.,filler
7150.7,,,html-slider-response,416,4749890,0.0-24.0-0.0-0.8,49161,List2B,black,man,,,,,,,,survey_gender,82,,,It is pleasant to be my gender.,pleasant
8749.7,,,html-slider-response,417,4758644,0.0-24.0-0.0-0.9,49161,List2B,black,man,,,,,,,,survey_gender,92,,,I often think about the fact that I am my gender.,often
5443.8,,,html-slider-response,418,4764093,0.0-24.0-0.0-0.10,49161,List2B,black,man,,,,,,,,survey_gender,75,,,People of my gender are very similar to each other.,verysimilar
6548.6,,,html-slider-response,419,4770646,0.0-24.0-0.0-0.11,49161,List2B,black,man,,,,,,,,survey_gender,87,,,Being around my friends gives me a good feeling.,filler
9772.1,,,html-slider-response,420,4780424,0.0-24.0-0.0-0.12,49161,List2B,black,man,,,,,,,,survey_gender,56,,,My friends have a lot in common with each other.,filler
5526.8,,,html-slider-response,421,4785955,0.0-24.0-0.0-0.13,49161,List2B,black,man,,,,,,,,survey_gender,72,,,Being my gender gives me a good feeling.,feeling
11083,,,html-slider-response,422,4797046,0.0-24.0-0.0-0.14,49161,List2B,black,man,,,,,,,,survey_gender,55,,,I am glad to have the friends that I have.,filler
26653,,,html-slider-response,423,4823704,0.0-24.0-0.0-0.15,49161,List2B,black,man,,,,,,,,survey_gender,38,,,I would say I am an animal person.,filler
4804.8,,,html-slider-response,424,4828513,0.0-24.0-0.0-0.16,49161,List2B,black,man,,,,,,,,survey_gender,59,,,People of my gender have a lot in common with each other.,common
3445.8,,,html-slider-response,425,4831964,0.0-24.0-0.0-0.17,49161,List2B,black,man,,,,,,,,survey_gender,61,,,I often think about my actions.,filler
20342.7,,,html-slider-response,426,4852311,0.0-24.0-0.0-0.18,49161,List2B,black,man,,,,,,,,survey_gender,62,,,I have a lot in common with the average person of my gender.,average
4059.5,,,html-slider-response,427,4856377,0.0-24.0-0.0-0.19,49161,List2B,black,man,,,,,,,,survey_gender,69,,,I have a lot in common with my friends.,filler
2857.5,,,html-slider-response,428,4859239,0.0-24.0-0.0-0.20,49161,List2B,black,man,,,,,,,,survey_gender,74,,,I feel a bond with my gender.,bond
2678.8,,,html-slider-response,429,4861920,0.0-24.0-0.0-0.21,49161,List2B,black,man,,,,,,,,survey_gender,79,,,I feel solidarity with my gender.,solidarity
2907.2,,,html-slider-response,430,4864830,0.0-24.0-0.0-0.22,49161,List2B,black,man,,,,,,,,survey_gender,77,,,Most of the friends in my life are very similar to me.,filler
3506.7,,,html-slider-response,431,4868342,0.0-24.0-0.0-0.23,49161,List2B,black,man,,,,,,,,survey_gender,73,,,Family is not more important to me than friendship.,filler
2689.7,,,html-slider-response,432,4871036,0.0-24.0-0.0-0.24,49161,List2B,black,man,,,,,,,,survey_gender,85,,,It is not always easy for people to know what I am thinking.,filler
3027.9,,,html-slider-response,433,4874067,0.0-24.0-0.0-0.25,49161,List2B,black,man,,,,,,,,survey_gender,83,,,I feel committed to my gender.,committed
2954.7,,,html-slider-response,434,4877024,0.0-24.0-0.0-0.26,49161,List2B,black,man,,,,,,,,survey_gender,82,,,I am similar to the average person of my gender.,similar
8100.1,,,html-slider-response,435,4885129,0.0-24.0-0.0-0.27,49161,List2B,black,man,,,,,,,,survey_gender,88,,,I am glad to be my gender.,glad
4502.9,,,html-slider-response,436,4889638,0.0-24.0-1.0-0.0,49161,List2B,black,man,,,,,,,,survey_race,29,,,People my age have a lot in common with each other.,filler
2918.6,,,html-slider-response,437,4892560,0.0-24.0-1.0-0.1,49161,List2B,black,man,,,,,,,,survey_race,59,,,I consider myself an extrovert.,filler
2675.9,,,html-slider-response,438,4895241,0.0-24.0-1.0-0.2,49161,List2B,black,man,,,,,,,,survey_race,60,,,People of my race have a lot in common with each other.,common
2572.1,,,html-slider-response,439,4897815,0.0-24.0-1.0-0.3,49161,List2B,black,man,,,,,,,,survey_race,66,,,I often think about the fact that I am my race.,often
2306.2,,,html-slider-response,440,4900123,0.0-24.0-1.0-0.4,49161,List2B,black,man,,,,,,,,survey_race,39,,,Being my race gives me a good feeling.,feeling
3677.4,,,html-slider-response,441,4903803,0.0-24.0-1.0-0.5,49161,List2B,black,man,,,,,,,,survey_race,46,,,I often think about the fact that I am my age.,filler
3362.6,,,html-slider-response,442,4907170,0.0-24.0-1.0-0.6,49161,List2B,black,man,,,,,,,,survey_race,57,,,I consider myself an introvert.,filler
2363.4,,,html-slider-response,443,4909538,0.0-24.0-1.0-0.7,49161,List2B,black,man,,,,,,,,survey_race,68,,,I feel a bond with people the same age as me.,filler
2607.7,,,html-slider-response,444,4912148,0.0-24.0-1.0-0.8,49161,List2B,black,man,,,,,,,,survey_race,71,,,I am glad to be my race.,glad
2702.6,,,html-slider-response,445,4914856,0.0-24.0-1.0-0.9,49161,List2B,black,man,,,,,,,,survey_race,24,,,I feel solidarity with people the same age as me.,filler
3782.7,,,html-slider-response,446,4918643,0.0-24.0-1.0-0.10,49161,List2B,black,man,,,,,,,,survey_race,42,,,I have a lot in common with the average person of my race.,average
3254,,,html-slider-response,447,4921902,0.0-24.0-1.0-0.11,49161,List2B,black,man,,,,,,,,survey_race,77,,,I feel a bond with my race.,bond
6178.6,,,html-slider-response,448,4928083,0.0-24.0-1.0-0.12,49161,List2B,black,man,,,,,,,,survey_race,79,,,It is pleasant to be my race.,pleasant
2808.5,,,html-slider-response,449,4930896,0.0-24.0-1.0-0.13,49161,List2B,black,man,,,,,,,,survey_race,65,,,Being my age gives me a good feeling.,filler
2473.2,,,html-slider-response,450,4933374,0.0-24.0-1.0-0.14,49161,List2B,black,man,,,,,,,,survey_race,71,,,The fact that I am my race is an important part of my identity.,identity
2041.7,,,html-slider-response,451,4935418,0.0-24.0-1.0-0.15,49161,List2B,black,man,,,,,,,,survey_race,78,,,I feel solidarity with my race.,solidarity
3387.8,,,html-slider-response,452,4938809,0.0-24.0-1.0-0.16,49161,List2B,black,man,,,,,,,,survey_race,77,,,I am similar to the average person of my race.,similar
3650.4,,,html-slider-response,453,4942465,0.0-24.0-1.0-0.17,49161,List2B,black,man,,,,,,,,survey_race,30,,,I think that my race has a lot to be proud of.,proud
2929.3,,,html-slider-response,454,4945399,0.0-24.0-1.0-0.18,49161,List2B,black,man,,,,,,,,survey_race,63,,,"The older I get, the wiser I feel.",filler
2413.1,,,html-slider-response,455,4947815,0.0-24.0-1.0-0.19,49161,List2B,black,man,,,,,,,,survey_race,56,,,I feel committed to my race.,committed
3714.1,,,html-slider-response,456,4951531,0.0-24.0-1.0-0.20,49161,List2B,black,man,,,,,,,,survey_race,31,,,I have a lot in common with people of a similar age to me.,filler
3230.3,,,html-slider-response,457,4954765,0.0-24.0-1.0-0.21,49161,List2B,black,man,,,,,,,,survey_race,79,,,I am glad to be my age.,filler
2724.8,,,html-slider-response,458,4957494,0.0-24.0-1.0-0.22,49161,List2B,black,man,,,,,,,,survey_race,80,,,I enjoy being in large groups.,filler
2259.2,,,html-slider-response,459,4959756,0.0-24.0-1.0-0.23,49161,List2B,black,man,,,,,,,,survey_race,84,,,I am glad to be the age I am.,filler
2498.6,,,html-slider-response,460,4962257,0.0-24.0-1.0-0.24,49161,List2B,black,man,,,,,,,,survey_race,72,,,Being my race is an important part of how I see myself.,important
2449.7,,,html-slider-response,461,4964709,0.0-24.0-1.0-0.25,49161,List2B,black,man,,,,,,,,survey_race,82,,,Getting older does not worry me.,filler
2460.9,,,html-slider-response,462,4967175,0.0-24.0-1.0-0.26,49161,List2B,black,man,,,,,,,,survey_race,60,,,People of my race are very similar to each other.,verysimilar
2306.3,,,html-slider-response,463,4969484,0.0-24.0-1.0-0.27,49161,List2B,black,man,,,,,,,,survey_race,76,,,My age is not an important part of who I am.,filler
13859.2,,,survey-text,464,4983350,0.0-25.0,49161,List2B,black,man,,,,,"{""Q0"":""ccc""}",,,worker_id,,,,,
9640.9,,,external-html,465,4994641,0.0-26.0,49161,List2B,black,man,debrief.html,,,,,,,,,,,,
