rt,stimulus,button_pressed,trial_type,trial_index,time_elapsed,internal_node_id,subject,list,ppt_race,ppt_gender,url,first_guess,correct,key_press,responses,image_type,phrase_type,test_part,response,stimulus1,stimulus2,question_type,survey_item
2508.6,Welcome to the experiment. Press Continue to begin.,0,html-button-response,0,2510,0.0-0.0,4970,List2A,white,man,,,,,,,,,,,,,
5400.4,,,external-html,1,9088,0.0-1.0,4970,List2A,white,man,consent.html,,,,,,,,,,,,
498462.4,"<p>On the next page, you will see portraits of 8 people and their names.</p><p>Your first task is to take a few minutes to memorise the names of these people.</p><p>You will have to recall their names during the rest of the experiment, so it is</p><p>essential that you try to memorise these people and their names as best as you can.</p><br><p><strong>You will then be tested on your memory of these names and portraits.</strong></p><br><p>The experiment will start after you have completed this memory test.</p><br><p>Ready?</p>",0,html-button-response,2,507551,0.0-2.0,4970,List2A,white,man,,,,,,,,,,,,,
140255.2,"<img src='img/portrait_matrix_list2.jpg' style='width:900px;height:500px;''></img><p>If you have memorised all the portraits and names and are ready to start, press Continue.</p><p><strong>Please note: Your memory of these faces will be tested 4 times during this experiment.</strong></p>",0,html-button-response,3,648812,0.0-3.0-0.0,4970,List2A,white,man,,,,,,,,,,,,,
5220.6,"<img src=""portrait/BW2.jpg""style=""height:400px;""></img>",2,html-button-response,4,655033,0.0-3.0-1.0,4970,List2A,white,man,,TRUE,2,,,,,,,,,,
null,CORRECT,,html-keyboard-response,5,656549,0.0-3.0-2.0-0.0,4970,List2A,white,man,,,,null,,,,,,,,,
2986.9,"<img src=""portrait/WW2.jpg""style=""height:400px;""></img>",3,html-button-response,6,659536,0.0-3.0-4.0,4970,List2A,white,man,,TRUE,3,,,,,,,,,,
null,CORRECT,,html-keyboard-response,7,661038,0.0-3.0-5.0-0.0,4970,List2A,white,man,,,,null,,,,,,,,,
3051.9,"<img src=""portrait/WM2.jpg""style=""height:400px;""></img>",7,html-button-response,8,664090,0.0-3.0-7.0,4970,List2A,white,man,,TRUE,7,,,,,,,,,,
null,CORRECT,,html-keyboard-response,9,665599,0.0-3.0-8.0-0.0,4970,List2A,white,man,,,,null,,,,,,,,,
7606.1,"<img src=""portrait/WW1.jpg""style=""height:400px;""></img>",1,html-button-response,10,673206,0.0-3.0-10.0,4970,List2A,white,man,,TRUE,1,,,,,,,,,,
null,CORRECT,,html-keyboard-response,11,674723,0.0-3.0-11.0-0.0,4970,List2A,white,man,,,,null,,,,,,,,,
6809.5,"<img src=""portrait/BM1.jpg""style=""height:400px;""></img>",4,html-button-response,12,681533,0.0-3.0-13.0,4970,List2A,white,man,,TRUE,4,,,,,,,,,,
null,CORRECT,,html-keyboard-response,13,683051,0.0-3.0-14.0-0.0,4970,List2A,white,man,,,,null,,,,,,,,,
3356,"<img src=""portrait/WM1.jpg""style=""height:400px;""></img>",6,html-button-response,14,686407,0.0-3.0-16.0,4970,List2A,white,man,,TRUE,6,,,,,,,,,,
null,CORRECT,,html-keyboard-response,15,687908,0.0-3.0-17.0-0.0,4970,List2A,white,man,,,,null,,,,,,,,,
2560.7,"<img src=""portrait/BM2.jpg""style=""height:400px;""></img>",5,html-button-response,16,690469,0.0-3.0-19.0,4970,List2A,white,man,,TRUE,5,,,,,,,,,,
null,CORRECT,,html-keyboard-response,17,691978,0.0-3.0-20.0-0.0,4970,List2A,white,man,,,,null,,,,,,,,,
11123.9,"<img src=""portrait/BW1.jpg""style=""height:400px;""></img>",0,html-button-response,18,703103,0.0-3.0-22.0,4970,List2A,white,man,,TRUE,0,,,,,,,,,,
null,CORRECT,,html-keyboard-response,19,704612,0.0-3.0-23.0-0.0,4970,List2A,white,man,,,,null,,,,,,,,,
1587.5,<p>You got 8 out of 8 right first time. Press Continue.</p>,0,html-button-response,20,706200,0.0-3.0-25.0,4970,List2A,white,man,,,,,,,,,,,,,
320227.2,"<p>In this experiment, you will view photographs of the people from the memory game interacting.</p><p>By using the <strong>exact</strong> phrase given <i>after</i> the photograph appears and recalling the correct names of the people in the photographs, form a sentence describing the interaction. You do not need to capitalise names.</p><p>Type your answer in the space provided. Please complete every sentence before moving onto the next trial.</p><p>You will only have a few seconds to memorise each given photograph and phrase before you can respond, so try your best to focus.</p><p>An example is given below. Press 'Continue' when you are ready.</p><img src='img/speaking_example.jpg' style='width:800px;height:460px;''></img>",0,html-button-response,21,1027433,0.0-4.0,4970,List2A,white,man,,,,,,,,,,,,,
48668.4,"<p>Before the experiment starts, you will watch two example trials. Press 'Continue'.</p>",0,html-button-response,22,1077103,0.0-5.0,4970,List2A,white,man,,,,,,,,,,,,,
null,<img src='img/play_eg.gif' style='height:400px;''></img>,,html-keyboard-response,23,1080121,0.0-6.0,4970,List2A,white,man,,,,null,,,,,,,,,
null,<p>is playing with</p>,,html-keyboard-response,24,1082126,0.0-7.0,4970,List2A,white,man,,,,null,,,,,,,,,
5307.4,<p><b>Answer:</b> jane is playing with ruth</p>,0,html-button-response,25,1087434,0.0-8.0,4970,List2A,white,man,,,,,,,,,,,,,
null,<img src='img/dance_eg.gif' style='height:400px;''></img>,,html-keyboard-response,26,1090445,0.0-9.0,4970,List2A,white,man,,,,null,,,,,,,,,
null,<p>is being entertained by</p>,,html-keyboard-response,27,1092456,0.0-10.0,4970,List2A,white,man,,,,null,,,,,,,,,
33011,<p><b>Answer:</b> fred is being entertained by mike</p>,0,html-button-response,28,1125468,0.0-11.0,4970,List2A,white,man,,,,,,,,,,,,,
16770.1,"<p>Ready to start the experiment?</p><br><p><strong>Remember to describe the picture using a full sentence,</strong></p><p><strong>that combines the names of the people with the <i>exact</i> phrase given.</strong></p><p><strong>To receive full payment you must do this correctly.</strong></p><p><strong> You do not need to capitalise names or use punctuation.</strong></p><br><p>Press 'Continue' to begin.</p>",0,html-button-response,29,1143249,0.0-12.0,4970,List2A,white,man,,,,,,,,,,,,,
null,"<div style=""font-size:60px;"">+</div>",,html-keyboard-response,30,1144767,0.0-13.0-0.0,4970,List2A,white,man,,,,null,,,,,,,,,
null,"<img src=""stim_listA/challenge5.gif""style=""height:400px;""></stim_listA>",,html-keyboard-response,31,1146780,0.0-13.0-1.0,4970,List2A,white,man,,,,null,,,,,,,,,
null,is challenging,,html-keyboard-response,32,1148794,0.0-13.0-2.0,4970,List2A,white,man,,,,null,,,,,,,,,
20179.8,,,survey-text,33,1168975,0.0-13.0-3.0,4970,List2A,white,man,,,,,"{""Q0"":""Fred is challenging Dave""}","<img src=""stim_listA/challenge5.gif""style=""height:400px;""></stim_listA>",is challenging,,,,,,
null,"<div style=""font-size:60px;"">+</div>",,html-keyboard-response,34,1169489,0.0-13.0-0.1,4970,List2A,white,man,,,,null,,,,,,,,,
null,"<img src=""stim_listA/touch5.gif""style=""height:400px;""></stim_listA>",,html-keyboard-response,35,1171489,0.0-13.0-1.1,4970,List2A,white,man,,,,null,,,,,,,,,
null,is touching,,html-keyboard-response,36,1173490,0.0-13.0-2.1,4970,List2A,white,man,,,,null,,,,,,,,,
8205.9,,,survey-text,37,1181697,0.0-13.0-3.1,4970,List2A,white,man,,,,,"{""Q0"":""Mike is touching Dave""}","<img src=""stim_listA/touch5.gif""style=""height:400px;""></stim_listA>",is touching,,,,,,
null,"<div style=""font-size:60px;"">+</div>",,html-keyboard-response,38,1182198,0.0-13.0-0.2,4970,List2A,white,man,,,,null,,,,,,,,,
null,"<img src=""stim_listA/kiss8.gif""style=""height:400px;""></stim_listA>",,html-keyboard-response,39,1184203,0.0-13.0-1.2,4970,List2A,white,man,,,,null,,,,,,,,,
null,is being kissed by,,html-keyboard-response,40,1186203,0.0-13.0-2.2,4970,List2A,white,man,,,,null,,,,,,,,,
13551,,,survey-text,41,1199755,0.0-13.0-3.2,4970,List2A,white,man,,,,,"{""Q0"":""Kate is kissing Beth""}","<img src=""stim_listA/kiss8.gif""style=""height:400px;""></stim_listA>",is being kissed by,,,,,,
null,"<div style=""font-size:60px;"">+</div>",,html-keyboard-response,42,1200258,0.0-13.0-0.3,4970,List2A,white,man,,,,null,,,,,,,,,
null,"<img src=""stim_listA/shout8.gif""style=""height:400px;""></stim_listA>",,html-keyboard-response,43,1202264,0.0-13.0-1.3,4970,List2A,white,man,,,,null,,,,,,,,,
null,is being shouted at by,,html-keyboard-response,44,1204266,0.0-13.0-2.3,4970,List2A,white,man,,,,null,,,,,,,,,
18656.2,,,survey-text,45,1222923,0.0-13.0-3.3,4970,List2A,white,man,,,,,"{""Q0"":""Jane is shouting at Beth""}","<img src=""stim_listA/shout8.gif""style=""height:400px;""></stim_listA>",is being shouted at by,,,,,,
null,"<div style=""font-size:60px;"">+</div>",,html-keyboard-response,46,1223439,0.0-13.0-0.4,4970,List2A,white,man,,,,null,,,,,,,,,
null,"<img src=""stim_listA/greet4.gif""style=""height:400px;""></stim_listA>",,html-keyboard-response,47,1225448,0.0-13.0-1.4,4970,List2A,white,man,,,,null,,,,,,,,,
null,is being greeted by,,html-keyboard-response,48,1227462,0.0-13.0-2.4,4970,List2A,white,man,,,,null,,,,,,,,,
21438.4,,,survey-text,49,1248901,0.0-13.0-3.4,4970,List2A,white,man,,,,,"{""Q0"":""Fred is greeting Beth""}","<img src=""stim_listA/greet4.gif""style=""height:400px;""></stim_listA>",is being greeted by,,,,,,
null,"<div style=""font-size:60px;"">+</div>",,html-keyboard-response,50,1249414,0.0-13.0-0.5,4970,List2A,white,man,,,,null,,,,,,,,,
null,"<img src=""stim_listA/hug8.gif""style=""height:400px;""></stim_listA>",,html-keyboard-response,51,1251414,0.0-13.0-1.5,4970,List2A,white,man,,,,null,,,,,,,,,
null,is being hugged by,,html-keyboard-response,52,1253428,0.0-13.0-2.5,4970,List2A,white,man,,,,null,,,,,,,,,
11238.6,,,survey-text,53,1264667,0.0-13.0-3.5,4970,List2A,white,man,,,,,"{""Q0"":""Jane is being hugged by Beth""}","<img src=""stim_listA/hug8.gif""style=""height:400px;""></stim_listA>",is being hugged by,,,,,,
null,"<div style=""font-size:60px;"">+</div>",,html-keyboard-response,54,1265170,0.0-13.0-0.6,4970,List2A,white,man,,,,null,,,,,,,,,
null,"<img src=""stim_listA/kiss2.gif""style=""height:400px;""></stim_listA>",,html-keyboard-response,55,1267174,0.0-13.0-1.6,4970,List2A,white,man,,,,null,,,,,,,,,
null,is being kissed by,,html-keyboard-response,56,1269180,0.0-13.0-2.6,4970,List2A,white,man,,,,null,,,,,,,,,
10149.4,,,survey-text,57,1279330,0.0-13.0-3.6,4970,List2A,white,man,,,,,"{""Q0"":""Dave is being kissed by Ruth""}","<img src=""stim_listA/kiss2.gif""style=""height:400px;""></stim_listA>",is being kissed by,,,,,,
null,"<div style=""font-size:60px;"">+</div>",,html-keyboard-response,58,1279846,0.0-13.0-0.7,4970,List2A,white,man,,,,null,,,,,,,,,
null,"<img src=""stim_listA/shout4.gif""style=""height:400px;""></stim_listA>",,html-keyboard-response,59,1281860,0.0-13.0-1.7,4970,List2A,white,man,,,,null,,,,,,,,,
null,is being shouted at by,,html-keyboard-response,60,1283876,0.0-13.0-2.7,4970,List2A,white,man,,,,null,,,,,,,,,
11894.6,,,survey-text,61,1295771,0.0-13.0-3.7,4970,List2A,white,man,,,,,"{""Q0"":""Mike is being shouted at by Ruth""}","<img src=""stim_listA/shout4.gif""style=""height:400px;""></stim_listA>",is being shouted at by,,,,,,
null,"<div style=""font-size:60px;"">+</div>",,html-keyboard-response,62,1296281,0.0-13.0-0.8,4970,List2A,white,man,,,,null,,,,,,,,,
null,"<img src=""stim_listA/seduce5.gif""style=""height:400px;""></stim_listA>",,html-keyboard-response,63,1298293,0.0-13.0-1.8,4970,List2A,white,man,,,,null,,,,,,,,,
null,is seducing,,html-keyboard-response,64,1300303,0.0-13.0-2.8,4970,List2A,white,man,,,,null,,,,,,,,,
4838.9,,,survey-text,65,1305143,0.0-13.0-3.8,4970,List2A,white,man,,,,,"{""Q0"":""Mike is seducing Luke""}","<img src=""stim_listA/seduce5.gif""style=""height:400px;""></stim_listA>",is seducing,,,,,,
null,"<div style=""font-size:60px;"">+</div>",,html-keyboard-response,66,1305656,0.0-13.0-0.9,4970,List2A,white,man,,,,null,,,,,,,,,
null,"<img src=""stim_listA/challenge8.gif""style=""height:400px;""></stim_listA>",,html-keyboard-response,67,1307659,0.0-13.0-1.9,4970,List2A,white,man,,,,null,,,,,,,,,
null,is being challenged by,,html-keyboard-response,68,1309660,0.0-13.0-2.9,4970,List2A,white,man,,,,null,,,,,,,,,
29642.2,,,survey-text,69,1339303,0.0-13.0-3.9,4970,List2A,white,man,,,,,"{""Q0"":""Ruth is being challenged by Kate""}","<img src=""stim_listA/challenge8.gif""style=""height:400px;""></stim_listA>",is being challenged by,,,,,,
null,"<div style=""font-size:60px;"">+</div>",,html-keyboard-response,70,1339804,0.0-13.0-0.10,4970,List2A,white,man,,,,null,,,,,,,,,
null,"<img src=""stim_listA/look2.gif""style=""height:400px;""></stim_listA>",,html-keyboard-response,71,1341804,0.0-13.0-1.10,4970,List2A,white,man,,,,null,,,,,,,,,
null,is being looked at by,,html-keyboard-response,72,1343805,0.0-13.0-2.10,4970,List2A,white,man,,,,null,,,,,,,,,
41714,,,survey-text,73,1385520,0.0-13.0-3.10,4970,List2A,white,man,,,,,"{""Q0"":""Dave is being looked at by Jane""}","<img src=""stim_listA/look2.gif""style=""height:400px;""></stim_listA>",is being looked at by,,,,,,
null,"<div style=""font-size:60px;"">+</div>",,html-keyboard-response,74,1386032,0.0-13.0-0.11,4970,List2A,white,man,,,,null,,,,,,,,,
null,"<img src=""stim_listA/hug6.gif""style=""height:400px;""></stim_listA>",,html-keyboard-response,75,1388033,0.0-13.0-1.11,4970,List2A,white,man,,,,null,,,,,,,,,
null,is being hugged by,,html-keyboard-response,76,1390036,0.0-13.0-2.11,4970,List2A,white,man,,,,null,,,,,,,,,
20359,,,survey-text,77,1410395,0.0-13.0-3.11,4970,List2A,white,man,,,,,"{""Q0"":""Dave is being hugged by Mike""}","<img src=""stim_listA/hug6.gif""style=""height:400px;""></stim_listA>",is being hugged by,,,,,,
null,"<div style=""font-size:60px;"">+</div>",,html-keyboard-response,78,1410897,0.0-13.0-0.12,4970,List2A,white,man,,,,null,,,,,,,,,
null,"<img src=""stim_listA/seduce2.gif""style=""height:400px;""></stim_listA>",,html-keyboard-response,79,1412898,0.0-13.0-1.12,4970,List2A,white,man,,,,null,,,,,,,,,
null,is being seduced by,,html-keyboard-response,80,1414900,0.0-13.0-2.12,4970,List2A,white,man,,,,null,,,,,,,,,
13440.3,,,survey-text,81,1428342,0.0-13.0-3.12,4970,List2A,white,man,,,,,"{""Q0"":""Jane is being seduced by Dave""}","<img src=""stim_listA/seduce2.gif""style=""height:400px;""></stim_listA>",is being seduced by,,,,,,
null,"<div style=""font-size:60px;"">+</div>",,html-keyboard-response,82,1428851,0.0-13.0-0.13,4970,List2A,white,man,,,,null,,,,,,,,,
null,"<img src=""stim_listA/hug2.gif""style=""height:400px;""></stim_listA>",,html-keyboard-response,83,1430853,0.0-13.0-1.13,4970,List2A,white,man,,,,null,,,,,,,,,
null,is being hugged by,,html-keyboard-response,84,1432867,0.0-13.0-2.13,4970,List2A,white,man,,,,null,,,,,,,,,
9485.9,,,survey-text,85,1442354,0.0-13.0-3.13,4970,List2A,white,man,,,,,"{""Q0"":""Dave is being hugged by Jane""}","<img src=""stim_listA/hug2.gif""style=""height:400px;""></stim_listA>",is being hugged by,,,,,,
null,"<div style=""font-size:60px;"">+</div>",,html-keyboard-response,86,1442856,0.0-13.0-0.14,4970,List2A,white,man,,,,null,,,,,,,,,
null,"<img src=""stim_listA/look5.gif""style=""height:400px;""></stim_listA>",,html-keyboard-response,87,1444871,0.0-13.0-1.14,4970,List2A,white,man,,,,null,,,,,,,,,
null,is looking at,,html-keyboard-response,88,1446886,0.0-13.0-2.14,4970,List2A,white,man,,,,null,,,,,,,,,
36875.4,,,survey-text,89,1483763,0.0-13.0-3.14,4970,List2A,white,man,,,,,"{""Q0"":""Fred is being looked at by Luke""}","<img src=""stim_listA/look5.gif""style=""height:400px;""></stim_listA>",is looking at,,,,,,
null,"<div style=""font-size:60px;"">+</div>",,html-keyboard-response,90,1484264,0.0-13.0-0.15,4970,List2A,white,man,,,,null,,,,,,,,,
null,"<img src=""stim_listA/touch2.gif""style=""height:400px;""></stim_listA>",,html-keyboard-response,91,1486265,0.0-13.0-1.15,4970,List2A,white,man,,,,null,,,,,,,,,
null,is being touched by,,html-keyboard-response,92,1488266,0.0-13.0-2.15,4970,List2A,white,man,,,,null,,,,,,,,,
11018.8,,,survey-text,93,1499286,0.0-13.0-3.15,4970,List2A,white,man,,,,,"{""Q0"":""Luke is being touched by Jane""}","<img src=""stim_listA/touch2.gif""style=""height:400px;""></stim_listA>",is being touched by,,,,,,
null,"<div style=""font-size:60px;"">+</div>",,html-keyboard-response,94,1499802,0.0-13.0-0.16,4970,List2A,white,man,,,,null,,,,,,,,,
null,"<img src=""stim_listA/look4.gif""style=""height:400px;""></stim_listA>",,html-keyboard-response,95,1501816,0.0-13.0-1.16,4970,List2A,white,man,,,,null,,,,,,,,,
null,is being looked at by,,html-keyboard-response,96,1503826,0.0-13.0-2.16,4970,List2A,white,man,,,,null,,,,,,,,,
18437.6,,,survey-text,97,1522265,0.0-13.0-3.16,4970,List2A,white,man,,,,,"{""Q0"":""Mike is being looked at by Beth""}","<img src=""stim_listA/look4.gif""style=""height:400px;""></stim_listA>",is being looked at by,,,,,,
null,"<div style=""font-size:60px;"">+</div>",,html-keyboard-response,98,1522774,0.0-13.0-0.17,4970,List2A,white,man,,,,null,,,,,,,,,
null,"<img src=""stim_listA/challenge2.gif""style=""height:400px;""></stim_listA>",,html-keyboard-response,99,1524775,0.0-13.0-1.17,4970,List2A,white,man,,,,null,,,,,,,,,
null,is being challenged by,,html-keyboard-response,100,1526776,0.0-13.0-2.17,4970,List2A,white,man,,,,null,,,,,,,,,
12712,,,survey-text,101,1539489,0.0-13.0-3.17,4970,List2A,white,man,,,,,"{""Q0"":""Luke is being challenged by Jane""}","<img src=""stim_listA/challenge2.gif""style=""height:400px;""></stim_listA>",is being challenged by,,,,,,
null,"<div style=""font-size:60px;"">+</div>",,html-keyboard-response,102,1540003,0.0-13.0-0.18,4970,List2A,white,man,,,,null,,,,,,,,,
null,"<img src=""stim_listA/copy7.gif""style=""height:400px;""></stim_listA>",,html-keyboard-response,103,1542014,0.0-13.0-1.18,4970,List2A,white,man,,,,null,,,,,,,,,
null,is copying,,html-keyboard-response,104,1544018,0.0-13.0-2.18,4970,List2A,white,man,,,,null,,,,,,,,,
15372,,,survey-text,105,1559391,0.0-13.0-3.18,4970,List2A,white,man,,,,,"{""Q0"":""Beth is copying Jane""}","<img src=""stim_listA/copy7.gif""style=""height:400px;""></stim_listA>",is copying,,,,,,
null,"<div style=""font-size:60px;"">+</div>",,html-keyboard-response,106,1559891,0.0-13.0-0.19,4970,List2A,white,man,,,,null,,,,,,,,,
null,"<img src=""stim_listA/hug1.gif""style=""height:400px;""></stim_listA>",,html-keyboard-response,107,1561892,0.0-13.0-1.19,4970,List2A,white,man,,,,null,,,,,,,,,
null,is hugging,,html-keyboard-response,108,1563893,0.0-13.0-2.19,4970,List2A,white,man,,,,null,,,,,,,,,
12374.2,,,survey-text,109,1576268,0.0-13.0-3.19,4970,List2A,white,man,,,,,"{""Q0"":""Luke is hugging Ruth""}","<img src=""stim_listA/hug1.gif""style=""height:400px;""></stim_listA>",is hugging,,,,,,
94687.3,"<img src='img/portrait_matrix_list2.jpg' style='width:900px;height:500px;''></img><p>If you have memorised all the portraits and names and are ready to start, press Continue.</p><p><strong>Please note: Your memory of these faces will be tested 4 times during this experiment.</strong></p>",0,html-button-response,110,1670956,0.0-14.0-0.0,4970,List2A,white,man,,,,,,,,,,,,,
4758.9,"<img src=""portrait/WM2.jpg""style=""height:400px;""></img>",7,html-button-response,111,1676716,0.0-14.0-1.0,4970,List2A,white,man,,TRUE,7,,,,,,,,,,
null,CORRECT,,html-keyboard-response,112,1678218,0.0-14.0-2.0-0.0,4970,List2A,white,man,,,,null,,,,,,,,,
2026.1,"<img src=""portrait/WW2.jpg""style=""height:400px;""></img>",3,html-button-response,113,1680245,0.0-14.0-4.0,4970,List2A,white,man,,TRUE,3,,,,,,,,,,
null,CORRECT,,html-keyboard-response,114,1681771,0.0-14.0-5.0-0.0,4970,List2A,white,man,,,,null,,,,,,,,,
6032,"<img src=""portrait/BW1.jpg""style=""height:400px;""></img>",0,html-button-response,115,1687804,0.0-14.0-7.0,4970,List2A,white,man,,TRUE,0,,,,,,,,,,
null,CORRECT,,html-keyboard-response,116,1689305,0.0-14.0-8.0-0.0,4970,List2A,white,man,,,,null,,,,,,,,,
2512.2,"<img src=""portrait/WM1.jpg""style=""height:400px;""></img>",6,html-button-response,117,1691818,0.0-14.0-10.0,4970,List2A,white,man,,TRUE,6,,,,,,,,,,
null,CORRECT,,html-keyboard-response,118,1693318,0.0-14.0-11.0-0.0,4970,List2A,white,man,,,,null,,,,,,,,,
1821.6,"<img src=""portrait/BM2.jpg""style=""height:400px;""></img>",5,html-button-response,119,1695141,0.0-14.0-13.0,4970,List2A,white,man,,TRUE,5,,,,,,,,,,
null,CORRECT,,html-keyboard-response,120,1696656,0.0-14.0-14.0-0.0,4970,List2A,white,man,,,,null,,,,,,,,,
4542.5,"<img src=""portrait/BM1.jpg""style=""height:400px;""></img>",4,html-button-response,121,1701199,0.0-14.0-16.0,4970,List2A,white,man,,TRUE,4,,,,,,,,,,
null,CORRECT,,html-keyboard-response,122,1702705,0.0-14.0-17.0-0.0,4970,List2A,white,man,,,,null,,,,,,,,,
5626,"<img src=""portrait/WW1.jpg""style=""height:400px;""></img>",1,html-button-response,123,1708332,0.0-14.0-19.0,4970,List2A,white,man,,TRUE,1,,,,,,,,,,
null,CORRECT,,html-keyboard-response,124,1709833,0.0-14.0-20.0-0.0,4970,List2A,white,man,,,,null,,,,,,,,,
4713.3,"<img src=""portrait/BW2.jpg""style=""height:400px;""></img>",2,html-button-response,125,1714547,0.0-14.0-22.0,4970,List2A,white,man,,TRUE,2,,,,,,,,,,
null,CORRECT,,html-keyboard-response,126,1716057,0.0-14.0-23.0-0.0,4970,List2A,white,man,,,,null,,,,,,,,,
8894.6,<p>You got 8 out of 8 right first time. Press Continue.</p>,0,html-button-response,127,1724953,0.0-14.0-25.0,4970,List2A,white,man,,,,,,,,,,,,,
null,"<div style=""font-size:60px;"">+</div>",,html-keyboard-response,128,1726458,0.0-15.0-0.0,4970,List2A,white,man,,,,null,,,,,,,,,
null,"<img src=""stim_listA/shout3.gif""style=""height:400px;""></stim_listA>",,html-keyboard-response,129,1728474,0.0-15.0-1.0,4970,List2A,white,man,,,,null,,,,,,,,,
null,is shouting at,,html-keyboard-response,130,1730484,0.0-15.0-2.0,4970,List2A,white,man,,,,null,,,,,,,,,
10319.7,,,survey-text,131,1740805,0.0-15.0-3.0,4970,List2A,white,man,,,,,"{""Q0"":""Beth is shouting at Fred""}","<img src=""stim_listA/shout3.gif""style=""height:400px;""></stim_listA>",is shouting at,,,,,,
null,"<div style=""font-size:60px;"">+</div>",,html-keyboard-response,132,1741308,0.0-15.0-0.1,4970,List2A,white,man,,,,null,,,,,,,,,
null,"<img src=""stim_listA/copy2.gif""style=""height:400px;""></stim_listA>",,html-keyboard-response,133,1743310,0.0-15.0-1.1,4970,List2A,white,man,,,,null,,,,,,,,,
null,is being copied by,,html-keyboard-response,134,1745319,0.0-15.0-2.1,4970,List2A,white,man,,,,null,,,,,,,,,
8423.8,,,survey-text,135,1753744,0.0-15.0-3.1,4970,List2A,white,man,,,,,"{""Q0"":""Luke is being copied by Jane""}","<img src=""stim_listA/copy2.gif""style=""height:400px;""></stim_listA>",is being copied by,,,,,,
null,"<div style=""font-size:60px;"">+</div>",,html-keyboard-response,136,1754255,0.0-15.0-0.2,4970,List2A,white,man,,,,null,,,,,,,,,
null,"<img src=""stim_listA/hug3.gif""style=""height:400px;""></stim_listA>",,html-keyboard-response,137,1756257,0.0-15.0-1.2,4970,List2A,white,man,,,,null,,,,,,,,,
null,is hugging,,html-keyboard-response,138,1758258,0.0-15.0-2.2,4970,List2A,white,man,,,,null,,,,,,,,,
19719.3,,,survey-text,139,1777978,0.0-15.0-3.2,4970,List2A,white,man,,,,,"{""Q0"":""Beth is hugging Fred""}","<img src=""stim_listA/hug3.gif""style=""height:400px;""></stim_listA>",is hugging,,,,,,
null,"<div style=""font-size:60px;"">+</div>",,html-keyboard-response,140,1778479,0.0-15.0-0.3,4970,List2A,white,man,,,,null,,,,,,,,,
null,"<img src=""stim_listA/seduce1.gif""style=""height:400px;""></stim_listA>",,html-keyboard-response,141,1780491,0.0-15.0-1.3,4970,List2A,white,man,,,,null,,,,,,,,,
null,is seducing,,html-keyboard-response,142,1782493,0.0-15.0-2.3,4970,List2A,white,man,,,,null,,,,,,,,,
10549.1,,,survey-text,143,1793043,0.0-15.0-3.3,4970,List2A,white,man,,,,,"{""Q0"":""Jane is seducing Luke""}","<img src=""stim_listA/seduce1.gif""style=""height:400px;""></stim_listA>",is seducing,,,,,,
null,"<div style=""font-size:60px;"">+</div>",,html-keyboard-response,144,1793554,0.0-15.0-0.4,4970,List2A,white,man,,,,null,,,,,,,,,
null,"<img src=""stim_listA/touch8.gif""style=""height:400px;""></stim_listA>",,html-keyboard-response,145,1795554,0.0-15.0-1.4,4970,List2A,white,man,,,,null,,,,,,,,,
null,is being touched by,,html-keyboard-response,146,1797559,0.0-15.0-2.4,4970,List2A,white,man,,,,null,,,,,,,,,
10903.5,,,survey-text,147,1808464,0.0-15.0-3.4,4970,List2A,white,man,,,,,"{""Q0"":""Ruth is being touched by Beth""}","<img src=""stim_listA/touch8.gif""style=""height:400px;""></stim_listA>",is being touched by,,,,,,
null,"<div style=""font-size:60px;"">+</div>",,html-keyboard-response,148,1808968,0.0-15.0-0.5,4970,List2A,white,man,,,,null,,,,,,,,,
null,"<img src=""stim_listA/touch7.gif""style=""height:400px;""></stim_listA>",,html-keyboard-response,149,1810979,0.0-15.0-1.5,4970,List2A,white,man,,,,null,,,,,,,,,
null,is touching,,html-keyboard-response,150,1812993,0.0-15.0-2.5,4970,List2A,white,man,,,,null,,,,,,,,,
6365.7,,,survey-text,151,1819360,0.0-15.0-3.5,4970,List2A,white,man,,,,,"{""Q0"":""Kate is touching Jane""}","<img src=""stim_listA/touch7.gif""style=""height:400px;""></stim_listA>",is touching,,,,,,
null,"<div style=""font-size:60px;"">+</div>",,html-keyboard-response,152,1819875,0.0-15.0-0.6,4970,List2A,white,man,,,,null,,,,,,,,,
null,"<img src=""stim_listA/kiss7.gif""style=""height:400px;""></stim_listA>",,html-keyboard-response,153,1821876,0.0-15.0-1.6,4970,List2A,white,man,,,,null,,,,,,,,,
null,is kissing,,html-keyboard-response,154,1823877,0.0-15.0-2.6,4970,List2A,white,man,,,,null,,,,,,,,,
6419.6,,,survey-text,155,1830297,0.0-15.0-3.6,4970,List2A,white,man,,,,,"{""Q0"":""Beth is kissing Ruth""}","<img src=""stim_listA/kiss7.gif""style=""height:400px;""></stim_listA>",is kissing,,,,,,
null,"<div style=""font-size:60px;"">+</div>",,html-keyboard-response,156,1830799,0.0-15.0-0.7,4970,List2A,white,man,,,,null,,,,,,,,,
null,"<img src=""stim_listA/seduce6.gif""style=""height:400px;""></stim_listA>",,html-keyboard-response,157,1832800,0.0-15.0-1.7,4970,List2A,white,man,,,,null,,,,,,,,,
null,is being seduced by,,html-keyboard-response,158,1834806,0.0-15.0-2.7,4970,List2A,white,man,,,,null,,,,,,,,,
22200.5,,,survey-text,159,1857007,0.0-15.0-3.7,4970,List2A,white,man,,,,,"{""Q0"":""Dave is being seduced by Dave""}","<img src=""stim_listA/seduce6.gif""style=""height:400px;""></stim_listA>",is being seduced by,,,,,,
null,"<div style=""font-size:60px;"">+</div>",,html-keyboard-response,160,1857508,0.0-15.0-0.8,4970,List2A,white,man,,,,null,,,,,,,,,
null,"<img src=""stim_listA/greet3.gif""style=""height:400px;""></stim_listA>",,html-keyboard-response,161,1859520,0.0-15.0-1.8,4970,List2A,white,man,,,,null,,,,,,,,,
null,is greeting,,html-keyboard-response,162,1861536,0.0-15.0-2.8,4970,List2A,white,man,,,,null,,,,,,,,,
7038.7,,,survey-text,163,1868575,0.0-15.0-3.8,4970,List2A,white,man,,,,,"{""Q0"":""Beth is greeting Mike""}","<img src=""stim_listA/greet3.gif""style=""height:400px;""></stim_listA>",is greeting,,,,,,
null,"<div style=""font-size:60px;"">+</div>",,html-keyboard-response,164,1869082,0.0-15.0-0.9,4970,List2A,white,man,,,,null,,,,,,,,,
null,"<img src=""stim_listA/seduce3.gif""style=""height:400px;""></stim_listA>",,html-keyboard-response,165,1871087,0.0-15.0-1.9,4970,List2A,white,man,,,,null,,,,,,,,,
null,is seducing,,html-keyboard-response,166,1873088,0.0-15.0-2.9,4970,List2A,white,man,,,,null,,,,,,,,,
10987.1,,,survey-text,167,1884076,0.0-15.0-3.9,4970,List2A,white,man,,,,,"{""Q0"":""Kate is seducing Fred""}","<img src=""stim_listA/seduce3.gif""style=""height:400px;""></stim_listA>",is seducing,,,,,,
null,"<div style=""font-size:60px;"">+</div>",,html-keyboard-response,168,1884591,0.0-15.0-0.10,4970,List2A,white,man,,,,null,,,,,,,,,
null,"<img src=""stim_listA/kiss1.gif""style=""height:400px;""></stim_listA>",,html-keyboard-response,169,1886597,0.0-15.0-1.10,4970,List2A,white,man,,,,null,,,,,,,,,
null,is kissing,,html-keyboard-response,170,1888607,0.0-15.0-2.10,4970,List2A,white,man,,,,null,,,,,,,,,
8415.2,,,survey-text,171,1897023,0.0-15.0-3.10,4970,List2A,white,man,,,,,"{""Q0"":""Ruth is kissing Luke""}","<img src=""stim_listA/kiss1.gif""style=""height:400px;""></stim_listA>",is kissing,,,,,,
null,"<div style=""font-size:60px;"">+</div>",,html-keyboard-response,172,1897534,0.0-15.0-0.11,4970,List2A,white,man,,,,null,,,,,,,,,
null,"<img src=""stim_listA/hug5.gif""style=""height:400px;""></stim_listA>",,html-keyboard-response,173,1899536,0.0-15.0-1.11,4970,List2A,white,man,,,,null,,,,,,,,,
null,is hugging,,html-keyboard-response,174,1901540,0.0-15.0-2.11,4970,List2A,white,man,,,,null,,,,,,,,,
7569.4,,,survey-text,175,1909110,0.0-15.0-3.11,4970,List2A,white,man,,,,,"{""Q0"":""Fred is hugging Luke""}","<img src=""stim_listA/hug5.gif""style=""height:400px;""></stim_listA>",is hugging,,,,,,
null,"<div style=""font-size:60px;"">+</div>",,html-keyboard-response,176,1909613,0.0-15.0-0.12,4970,List2A,white,man,,,,null,,,,,,,,,
null,"<img src=""stim_listA/oppose2.gif""style=""height:400px;""></stim_listA>",,html-keyboard-response,177,1911614,0.0-15.0-1.12,4970,List2A,white,man,,,,null,,,,,,,,,
null,is being opposed by,,html-keyboard-response,178,1913615,0.0-15.0-2.12,4970,List2A,white,man,,,,null,,,,,,,,,
11654.5,,,survey-text,179,1925270,0.0-15.0-3.12,4970,List2A,white,man,,,,,"{""Q0"":""Luke is being opposed by Ruth""}","<img src=""stim_listA/oppose2.gif""style=""height:400px;""></stim_listA>",is being opposed by,,,,,,
null,"<div style=""font-size:60px;"">+</div>",,html-keyboard-response,180,1925778,0.0-15.0-0.13,4970,List2A,white,man,,,,null,,,,,,,,,
null,"<img src=""stim_listA/hug7.gif""style=""height:400px;""></stim_listA>",,html-keyboard-response,181,1927790,0.0-15.0-1.13,4970,List2A,white,man,,,,null,,,,,,,,,
null,is hugging,,html-keyboard-response,182,1929806,0.0-15.0-2.13,4970,List2A,white,man,,,,null,,,,,,,,,
9042.1,,,survey-text,183,1938849,0.0-15.0-3.13,4970,List2A,white,man,,,,,"{""Q0"":""Beth is hugging Ruth""}","<img src=""stim_listA/hug7.gif""style=""height:400px;""></stim_listA>",is hugging,,,,,,
null,"<div style=""font-size:60px;"">+</div>",,html-keyboard-response,184,1939358,0.0-15.0-0.14,4970,List2A,white,man,,,,null,,,,,,,,,
null,"<img src=""stim_listA/oppose5.gif""style=""height:400px;""></stim_listA>",,html-keyboard-response,185,1941367,0.0-15.0-1.14,4970,List2A,white,man,,,,null,,,,,,,,,
null,is opposing,,html-keyboard-response,186,1943377,0.0-15.0-2.14,4970,List2A,white,man,,,,null,,,,,,,,,
6131.8,,,survey-text,187,1949510,0.0-15.0-3.14,4970,List2A,white,man,,,,,"{""Q0"":""Mike is opposing Dave""}","<img src=""stim_listA/oppose5.gif""style=""height:400px;""></stim_listA>",is opposing,,,,,,
null,"<div style=""font-size:60px;"">+</div>",,html-keyboard-response,188,1950012,0.0-15.0-0.15,4970,List2A,white,man,,,,null,,,,,,,,,
null,"<img src=""stim_listA/shout5.gif""style=""height:400px;""></stim_listA>",,html-keyboard-response,189,1952020,0.0-15.0-1.15,4970,List2A,white,man,,,,null,,,,,,,,,
null,is shouting at,,html-keyboard-response,190,1954021,0.0-15.0-2.15,4970,List2A,white,man,,,,null,,,,,,,,,
36284.2,,,survey-text,191,1990306,0.0-15.0-3.15,4970,List2A,white,man,,,,,"{""Q0"":""Fred is shouting at Luke""}","<img src=""stim_listA/shout5.gif""style=""height:400px;""></stim_listA>",is shouting at,,,,,,
null,"<div style=""font-size:60px;"">+</div>",,html-keyboard-response,192,1990814,0.0-15.0-0.16,4970,List2A,white,man,,,,null,,,,,,,,,
null,"<img src=""stim_listA/challenge7.gif""style=""height:400px;""></stim_listA>",,html-keyboard-response,193,1992818,0.0-15.0-1.16,4970,List2A,white,man,,,,null,,,,,,,,,
null,is challenging,,html-keyboard-response,194,1994820,0.0-15.0-2.16,4970,List2A,white,man,,,,null,,,,,,,,,
20295.9,,,survey-text,195,2015117,0.0-15.0-3.16,4970,List2A,white,man,,,,,"{""Q0"":""Beth is shouting at Kate""}","<img src=""stim_listA/challenge7.gif""style=""height:400px;""></stim_listA>",is challenging,,,,,,
null,"<div style=""font-size:60px;"">+</div>",,html-keyboard-response,196,2015626,0.0-15.0-0.17,4970,List2A,white,man,,,,null,,,,,,,,,
null,"<img src=""stim_listA/greet5.gif""style=""height:400px;""></stim_listA>",,html-keyboard-response,197,2017626,0.0-15.0-1.17,4970,List2A,white,man,,,,null,,,,,,,,,
null,is greeting,,html-keyboard-response,198,2019635,0.0-15.0-2.17,4970,List2A,white,man,,,,null,,,,,,,,,
10807.2,,,survey-text,199,2030444,0.0-15.0-3.17,4970,List2A,white,man,,,,,"{""Q0"":""Fred is greeting Dave""}","<img src=""stim_listA/greet5.gif""style=""height:400px;""></stim_listA>",is greeting,,,,,,
null,"<div style=""font-size:60px;"">+</div>",,html-keyboard-response,200,2030944,0.0-15.0-0.18,4970,List2A,white,man,,,,null,,,,,,,,,
null,"<img src=""stim_listA/greet1.gif""style=""height:400px;""></stim_listA>",,html-keyboard-response,201,2032945,0.0-15.0-1.18,4970,List2A,white,man,,,,null,,,,,,,,,
null,is greeting,,html-keyboard-response,202,2034949,0.0-15.0-2.18,4970,List2A,white,man,,,,null,,,,,,,,,
6109.6,,,survey-text,203,2041060,0.0-15.0-3.18,4970,List2A,white,man,,,,,"{""Q0"":""Beth is greeting Dave""}","<img src=""stim_listA/greet1.gif""style=""height:400px;""></stim_listA>",is greeting,,,,,,
null,"<div style=""font-size:60px;"">+</div>",,html-keyboard-response,204,2041568,0.0-15.0-0.19,4970,List2A,white,man,,,,null,,,,,,,,,
null,"<img src=""stim_listA/oppose6.gif""style=""height:400px;""></stim_listA>",,html-keyboard-response,205,2043570,0.0-15.0-1.19,4970,List2A,white,man,,,,null,,,,,,,,,
null,is being opposed by,,html-keyboard-response,206,2045571,0.0-15.0-2.19,4970,List2A,white,man,,,,null,,,,,,,,,
8446.1,,,survey-text,207,2054018,0.0-15.0-3.19,4970,List2A,white,man,,,,,"{""Q0"":""Luke is being opposed by Fred""}","<img src=""stim_listA/oppose6.gif""style=""height:400px;""></stim_listA>",is being opposed by,,,,,,
231677.4,"<img src='img/portrait_matrix_list2.jpg' style='width:900px;height:500px;''></img><p>If you have memorised all the portraits and names and are ready to start, press Continue.</p><p><strong>Please note: Your memory of these faces will be tested 4 times during this experiment.</strong></p>",0,html-button-response,208,2285696,0.0-16.0-0.0,4970,List2A,white,man,,,,,,,,,,,,,
4089.8,"<img src=""portrait/BM1.jpg""style=""height:400px;""></img>",4,html-button-response,209,2290787,0.0-16.0-1.0,4970,List2A,white,man,,TRUE,4,,,,,,,,,,
null,CORRECT,,html-keyboard-response,210,2292308,0.0-16.0-2.0-0.0,4970,List2A,white,man,,,,null,,,,,,,,,
3854.1,"<img src=""portrait/WM2.jpg""style=""height:400px;""></img>",7,html-button-response,211,2296163,0.0-16.0-4.0,4970,List2A,white,man,,TRUE,7,,,,,,,,,,
null,CORRECT,,html-keyboard-response,212,2297673,0.0-16.0-5.0-0.0,4970,List2A,white,man,,,,null,,,,,,,,,
2123.4,"<img src=""portrait/WW2.jpg""style=""height:400px;""></img>",3,html-button-response,213,2299797,0.0-16.0-7.0,4970,List2A,white,man,,TRUE,3,,,,,,,,,,
null,CORRECT,,html-keyboard-response,214,2301316,0.0-16.0-8.0-0.0,4970,List2A,white,man,,,,null,,,,,,,,,
3464.9,"<img src=""portrait/BM2.jpg""style=""height:400px;""></img>",5,html-button-response,215,2304782,0.0-16.0-10.0,4970,List2A,white,man,,TRUE,5,,,,,,,,,,
null,CORRECT,,html-keyboard-response,216,2306293,0.0-16.0-11.0-0.0,4970,List2A,white,man,,,,null,,,,,,,,,
3615.1,"<img src=""portrait/WW1.jpg""style=""height:400px;""></img>",1,html-button-response,217,2309909,0.0-16.0-13.0,4970,List2A,white,man,,TRUE,1,,,,,,,,,,
null,CORRECT,,html-keyboard-response,218,2311419,0.0-16.0-14.0-0.0,4970,List2A,white,man,,,,null,,,,,,,,,
9704.8,"<img src=""portrait/BW2.jpg""style=""height:400px;""></img>",2,html-button-response,219,2321125,0.0-16.0-16.0,4970,List2A,white,man,,TRUE,2,,,,,,,,,,
null,CORRECT,,html-keyboard-response,220,2322638,0.0-16.0-17.0-0.0,4970,List2A,white,man,,,,null,,,,,,,,,
4008.5,"<img src=""portrait/BW1.jpg""style=""height:400px;""></img>",0,html-button-response,221,2326647,0.0-16.0-19.0,4970,List2A,white,man,,TRUE,0,,,,,,,,,,
null,CORRECT,,html-keyboard-response,222,2328165,0.0-16.0-20.0-0.0,4970,List2A,white,man,,,,null,,,,,,,,,
3501.6,"<img src=""portrait/WM1.jpg""style=""height:400px;""></img>",6,html-button-response,223,2331667,0.0-16.0-22.0,4970,List2A,white,man,,TRUE,6,,,,,,,,,,
null,CORRECT,,html-keyboard-response,224,2333187,0.0-16.0-23.0-0.0,4970,List2A,white,man,,,,null,,,,,,,,,
121240.8,<p>You got 8 out of 8 right first time. Press Continue.</p>,0,html-button-response,225,2454429,0.0-16.0-25.0,4970,List2A,white,man,,,,,,,,,,,,,
null,"<div style=""font-size:60px;"">+</div>",,html-keyboard-response,226,2455941,0.0-17.0-0.0,4970,List2A,white,man,,,,null,,,,,,,,,
null,"<img src=""stim_listA/kiss3.gif""style=""height:400px;""></stim_listA>",,html-keyboard-response,227,2457942,0.0-17.0-1.0,4970,List2A,white,man,,,,null,,,,,,,,,
null,is kissing,,html-keyboard-response,228,2459946,0.0-17.0-2.0,4970,List2A,white,man,,,,null,,,,,,,,,
9403,,,survey-text,229,2469350,0.0-17.0-3.0,4970,List2A,white,man,,,,,"{""Q0"":""Beth is kissing Fred""}","<img src=""stim_listA/kiss3.gif""style=""height:400px;""></stim_listA>",is kissing,,,,,,
null,"<div style=""font-size:60px;"">+</div>",,html-keyboard-response,230,2469850,0.0-17.0-0.1,4970,List2A,white,man,,,,null,,,,,,,,,
null,"<img src=""stim_listA/oppose3.gif""style=""height:400px;""></stim_listA>",,html-keyboard-response,231,2471852,0.0-17.0-1.1,4970,List2A,white,man,,,,null,,,,,,,,,
null,is opposing,,html-keyboard-response,232,2473858,0.0-17.0-2.1,4970,List2A,white,man,,,,null,,,,,,,,,
6416.6,,,survey-text,233,2480276,0.0-17.0-3.1,4970,List2A,white,man,,,,,"{""Q0"":""Kate is opposing Mike""}","<img src=""stim_listA/oppose3.gif""style=""height:400px;""></stim_listA>",is opposing,,,,,,
null,"<div style=""font-size:60px;"">+</div>",,html-keyboard-response,234,2480782,0.0-17.0-0.2,4970,List2A,white,man,,,,null,,,,,,,,,
null,"<img src=""stim_listA/seduce8.gif""style=""height:400px;""></stim_listA>",,html-keyboard-response,235,2482795,0.0-17.0-1.2,4970,List2A,white,man,,,,null,,,,,,,,,
null,is being seduced by,,html-keyboard-response,236,2484802,0.0-17.0-2.2,4970,List2A,white,man,,,,null,,,,,,,,,
11113.8,,,survey-text,237,2495917,0.0-17.0-3.2,4970,List2A,white,man,,,,,"{""Q0"":""Jane is being seduced by Beth""}","<img src=""stim_listA/seduce8.gif""style=""height:400px;""></stim_listA>",is being seduced by,,,,,,
null,"<div style=""font-size:60px;"">+</div>",,html-keyboard-response,238,2496423,0.0-17.0-0.3,4970,List2A,white,man,,,,null,,,,,,,,,
null,"<img src=""stim_listA/oppose8.gif""style=""height:400px;""></stim_listA>",,html-keyboard-response,239,2498430,0.0-17.0-1.3,4970,List2A,white,man,,,,null,,,,,,,,,
null,is being opposed by,,html-keyboard-response,240,2500432,0.0-17.0-2.3,4970,List2A,white,man,,,,null,,,,,,,,,
15794.4,,,survey-text,241,2516227,0.0-17.0-3.3,4970,List2A,white,man,,,,,"{""Q0"":""Ruth is being opposed by Beth""}","<img src=""stim_listA/oppose8.gif""style=""height:400px;""></stim_listA>",is being opposed by,,,,,,
null,"<div style=""font-size:60px;"">+</div>",,html-keyboard-response,242,2516734,0.0-17.0-0.4,4970,List2A,white,man,,,,null,,,,,,,,,
null,"<img src=""stim_listA/oppose4.gif""style=""height:400px;""></stim_listA>",,html-keyboard-response,243,2518734,0.0-17.0-1.4,4970,List2A,white,man,,,,null,,,,,,,,,
null,is being opposed by,,html-keyboard-response,244,2520738,0.0-17.0-2.4,4970,List2A,white,man,,,,null,,,,,,,,,
9955.6,,,survey-text,245,2530695,0.0-17.0-3.4,4970,List2A,white,man,,,,,"{""Q0"":""Fred is being opposed by Beth""}","<img src=""stim_listA/oppose4.gif""style=""height:400px;""></stim_listA>",is being opposed by,,,,,,
null,"<div style=""font-size:60px;"">+</div>",,html-keyboard-response,246,2531201,0.0-17.0-0.5,4970,List2A,white,man,,,,null,,,,,,,,,
null,"<img src=""stim_listA/challenge4.gif""style=""height:400px;""></stim_listA>",,html-keyboard-response,247,2533217,0.0-17.0-1.5,4970,List2A,white,man,,,,null,,,,,,,,,
null,is being challenged by,,html-keyboard-response,248,2535217,0.0-17.0-2.5,4970,List2A,white,man,,,,null,,,,,,,,,
10295.6,,,survey-text,249,2545514,0.0-17.0-3.5,4970,List2A,white,man,,,,,"{""Q0"":""Fred is being challenged by Kate""}","<img src=""stim_listA/challenge4.gif""style=""height:400px;""></stim_listA>",is being challenged by,,,,,,
null,"<div style=""font-size:60px;"">+</div>",,html-keyboard-response,250,2546025,0.0-17.0-0.6,4970,List2A,white,man,,,,null,,,,,,,,,
null,"<img src=""stim_listA/seduce7.gif""style=""height:400px;""></stim_listA>",,html-keyboard-response,251,2548027,0.0-17.0-1.6,4970,List2A,white,man,,,,null,,,,,,,,,
null,is seducing,,html-keyboard-response,252,2550042,0.0-17.0-2.6,4970,List2A,white,man,,,,null,,,,,,,,,
8708,,,survey-text,253,2558751,0.0-17.0-3.6,4970,List2A,white,man,,,,,"{""Q0"":""Beth is seducing Ruth""}","<img src=""stim_listA/seduce7.gif""style=""height:400px;""></stim_listA>",is seducing,,,,,,
null,"<div style=""font-size:60px;"">+</div>",,html-keyboard-response,254,2559253,0.0-17.0-0.7,4970,List2A,white,man,,,,null,,,,,,,,,
null,"<img src=""stim_listA/touch3.gif""style=""height:400px;""></stim_listA>",,html-keyboard-response,255,2561268,0.0-17.0-1.7,4970,List2A,white,man,,,,null,,,,,,,,,
null,is touching,,html-keyboard-response,256,2563279,0.0-17.0-2.7,4970,List2A,white,man,,,,null,,,,,,,,,
11263.9,,,survey-text,257,2574543,0.0-17.0-3.7,4970,List2A,white,man,,,,,"{""Q0"":""Kate is touching Mike""}","<img src=""stim_listA/touch3.gif""style=""height:400px;""></stim_listA>",is touching,,,,,,
null,"<div style=""font-size:60px;"">+</div>",,html-keyboard-response,258,2575049,0.0-17.0-0.8,4970,List2A,white,man,,,,null,,,,,,,,,
null,"<img src=""stim_listA/greet8.gif""style=""height:400px;""></stim_listA>",,html-keyboard-response,259,2577057,0.0-17.0-1.8,4970,List2A,white,man,,,,null,,,,,,,,,
null,is being greeted by,,html-keyboard-response,260,2579059,0.0-17.0-2.8,4970,List2A,white,man,,,,null,,,,,,,,,
8104,,,survey-text,261,2587164,0.0-17.0-3.8,4970,List2A,white,man,,,,,"{""Q0"":""Ruth is being greeted by Kate""}","<img src=""stim_listA/greet8.gif""style=""height:400px;""></stim_listA>",is being greeted by,,,,,,
null,"<div style=""font-size:60px;"">+</div>",,html-keyboard-response,262,2587665,0.0-17.0-0.9,4970,List2A,white,man,,,,null,,,,,,,,,
null,"<img src=""stim_listA/copy3.gif""style=""height:400px;""></stim_listA>",,html-keyboard-response,263,2589670,0.0-17.0-1.9,4970,List2A,white,man,,,,null,,,,,,,,,
null,is copying,,html-keyboard-response,264,2591681,0.0-17.0-2.9,4970,List2A,white,man,,,,null,,,,,,,,,
5317.7,,,survey-text,265,2596999,0.0-17.0-3.9,4970,List2A,white,man,,,,,"{""Q0"":""Beth is copying Mike""}","<img src=""stim_listA/copy3.gif""style=""height:400px;""></stim_listA>",is copying,,,,,,
null,"<div style=""font-size:60px;"">+</div>",,html-keyboard-response,266,2597501,0.0-17.0-0.10,4970,List2A,white,man,,,,null,,,,,,,,,
null,"<img src=""stim_listA/challenge3.gif""style=""height:400px;""></stim_listA>",,html-keyboard-response,267,2599507,0.0-17.0-1.10,4970,List2A,white,man,,,,null,,,,,,,,,
null,is challenging,,html-keyboard-response,268,2601515,0.0-17.0-2.10,4970,List2A,white,man,,,,null,,,,,,,,,
6694.6,,,survey-text,269,2608210,0.0-17.0-3.10,4970,List2A,white,man,,,,,"{""Q0"":""Beth is copying Mike""}","<img src=""stim_listA/challenge3.gif""style=""height:400px;""></stim_listA>",is challenging,,,,,,
null,"<div style=""font-size:60px;"">+</div>",,html-keyboard-response,270,2608723,0.0-17.0-0.11,4970,List2A,white,man,,,,null,,,,,,,,,
null,"<img src=""stim_listA/oppose1.gif""style=""height:400px;""></stim_listA>",,html-keyboard-response,271,2610729,0.0-17.0-1.11,4970,List2A,white,man,,,,null,,,,,,,,,
null,is opposing,,html-keyboard-response,272,2612730,0.0-17.0-2.11,4970,List2A,white,man,,,,null,,,,,,,,,
6390.1,,,survey-text,273,2619121,0.0-17.0-3.11,4970,List2A,white,man,,,,,"{""Q0"":""Jane is opposing Dave""}","<img src=""stim_listA/oppose1.gif""style=""height:400px;""></stim_listA>",is opposing,,,,,,
null,"<div style=""font-size:60px;"">+</div>",,html-keyboard-response,274,2619623,0.0-17.0-0.12,4970,List2A,white,man,,,,null,,,,,,,,,
null,"<img src=""stim_listA/shout7.gif""style=""height:400px;""></stim_listA>",,html-keyboard-response,275,2621639,0.0-17.0-1.12,4970,List2A,white,man,,,,null,,,,,,,,,
null,is shouting at,,html-keyboard-response,276,2623652,0.0-17.0-2.12,4970,List2A,white,man,,,,null,,,,,,,,,
5569.6,,,survey-text,277,2629222,0.0-17.0-3.12,4970,List2A,white,man,,,,,"{""Q0"":""Beth is shouting at Ruth""}","<img src=""stim_listA/shout7.gif""style=""height:400px;""></stim_listA>",is shouting at,,,,,,
null,"<div style=""font-size:60px;"">+</div>",,html-keyboard-response,278,2629724,0.0-17.0-0.13,4970,List2A,white,man,,,,null,,,,,,,,,
null,"<img src=""stim_listA/touch1.gif""style=""height:400px;""></stim_listA>",,html-keyboard-response,279,2631734,0.0-17.0-1.13,4970,List2A,white,man,,,,null,,,,,,,,,
null,is touching,,html-keyboard-response,280,2633739,0.0-17.0-2.13,4970,List2A,white,man,,,,null,,,,,,,,,
7425.5,,,survey-text,281,2641165,0.0-17.0-3.13,4970,List2A,white,man,,,,,"{""Q0"":""Jane is touching Dave""}","<img src=""stim_listA/touch1.gif""style=""height:400px;""></stim_listA>",is touching,,,,,,
null,"<div style=""font-size:60px;"">+</div>",,html-keyboard-response,282,2641676,0.0-17.0-0.14,4970,List2A,white,man,,,,null,,,,,,,,,
null,"<img src=""stim_listA/shout2.gif""style=""height:400px;""></stim_listA>",,html-keyboard-response,283,2643692,0.0-17.0-1.14,4970,List2A,white,man,,,,null,,,,,,,,,
null,is being shouted at by,,html-keyboard-response,284,2645704,0.0-17.0-2.14,4970,List2A,white,man,,,,null,,,,,,,,,
11917.4,,,survey-text,285,2657622,0.0-17.0-3.14,4970,List2A,white,man,,,,,"{""Q0"":""Dave is being shouted at by Jane""}","<img src=""stim_listA/shout2.gif""style=""height:400px;""></stim_listA>",is being shouted at by,,,,,,
null,"<div style=""font-size:60px;"">+</div>",,html-keyboard-response,286,2658135,0.0-17.0-0.15,4970,List2A,white,man,,,,null,,,,,,,,,
null,"<img src=""stim_listA/look8.gif""style=""height:400px;""></stim_listA>",,html-keyboard-response,287,2660145,0.0-17.0-1.15,4970,List2A,white,man,,,,null,,,,,,,,,
null,is being looked at by,,html-keyboard-response,288,2662161,0.0-17.0-2.15,4970,List2A,white,man,,,,null,,,,,,,,,
6610.5,,,survey-text,289,2668772,0.0-17.0-3.15,4970,List2A,white,man,,,,,"{""Q0"":""Jane is being looked at by Kate""}","<img src=""stim_listA/look8.gif""style=""height:400px;""></stim_listA>",is being looked at by,,,,,,
null,"<div style=""font-size:60px;"">+</div>",,html-keyboard-response,290,2669276,0.0-17.0-0.16,4970,List2A,white,man,,,,null,,,,,,,,,
null,"<img src=""stim_listA/challenge1.gif""style=""height:400px;""></stim_listA>",,html-keyboard-response,291,2671282,0.0-17.0-1.16,4970,List2A,white,man,,,,null,,,,,,,,,
null,is challenging,,html-keyboard-response,292,2673292,0.0-17.0-2.16,4970,List2A,white,man,,,,null,,,,,,,,,
8856.5,,,survey-text,293,2682149,0.0-17.0-3.16,4970,List2A,white,man,,,,,"{""Q0"":""Ruth is challenging Dave""}","<img src=""stim_listA/challenge1.gif""style=""height:400px;""></stim_listA>",is challenging,,,,,,
null,"<div style=""font-size:60px;"">+</div>",,html-keyboard-response,294,2682662,0.0-17.0-0.17,4970,List2A,white,man,,,,null,,,,,,,,,
null,"<img src=""stim_listA/copy1.gif""style=""height:400px;""></stim_listA>",,html-keyboard-response,295,2684674,0.0-17.0-1.17,4970,List2A,white,man,,,,null,,,,,,,,,
null,is copying,,html-keyboard-response,296,2686676,0.0-17.0-2.17,4970,List2A,white,man,,,,null,,,,,,,,,
4863.1,,,survey-text,297,2691540,0.0-17.0-3.17,4970,List2A,white,man,,,,,"{""Q0"":""Ruth is copying Dave""}","<img src=""stim_listA/copy1.gif""style=""height:400px;""></stim_listA>",is copying,,,,,,
null,"<div style=""font-size:60px;"">+</div>",,html-keyboard-response,298,2692041,0.0-17.0-0.18,4970,List2A,white,man,,,,null,,,,,,,,,
null,"<img src=""stim_listA/kiss6.gif""style=""height:400px;""></stim_listA>",,html-keyboard-response,299,2694050,0.0-17.0-1.18,4970,List2A,white,man,,,,null,,,,,,,,,
null,is being kissed by,,html-keyboard-response,300,2696059,0.0-17.0-2.18,4970,List2A,white,man,,,,null,,,,,,,,,
6108.7,,,survey-text,301,2702169,0.0-17.0-3.18,4970,List2A,white,man,,,,,"{""Q0"":""Dave is being kissed by Mike""}","<img src=""stim_listA/kiss6.gif""style=""height:400px;""></stim_listA>",is being kissed by,,,,,,
null,"<div style=""font-size:60px;"">+</div>",,html-keyboard-response,302,2702682,0.0-17.0-0.19,4970,List2A,white,man,,,,null,,,,,,,,,
null,"<img src=""stim_listA/shout6.gif""style=""height:400px;""></stim_listA>",,html-keyboard-response,303,2704683,0.0-17.0-1.19,4970,List2A,white,man,,,,null,,,,,,,,,
null,is being shouted at by,,html-keyboard-response,304,2706692,0.0-17.0-2.19,4970,List2A,white,man,,,,null,,,,,,,,,
6979.1,,,survey-text,305,2713672,0.0-17.0-3.19,4970,List2A,white,man,,,,,"{""Q0"":""Dave is being shouted at by Mike""}","<img src=""stim_listA/shout6.gif""style=""height:400px;""></stim_listA>",is being shouted at by,,,,,,
213690.3,"<img src='img/portrait_matrix_list2.jpg' style='width:900px;height:500px;''></img><p>If you have memorised all the portraits and names and are ready to start, press Continue.</p><p><strong>Please note: Your memory of these faces will be tested 4 times during this experiment.</strong></p>",0,html-button-response,306,2927363,0.0-18.0-0.0,4970,List2A,white,man,,,,,,,,,,,,,
2962.9,"<img src=""portrait/WW1.jpg""style=""height:400px;""></img>",1,html-button-response,307,2931333,0.0-18.0-1.0,4970,List2A,white,man,,TRUE,1,,,,,,,,,,
null,CORRECT,,html-keyboard-response,308,2932843,0.0-18.0-2.0-0.0,4970,List2A,white,man,,,,null,,,,,,,,,
2076.5,"<img src=""portrait/WM2.jpg""style=""height:400px;""></img>",7,html-button-response,309,2934921,0.0-18.0-4.0,4970,List2A,white,man,,TRUE,7,,,,,,,,,,
null,CORRECT,,html-keyboard-response,310,2936434,0.0-18.0-5.0-0.0,4970,List2A,white,man,,,,null,,,,,,,,,
5695.4,"<img src=""portrait/WW2.jpg""style=""height:400px;""></img>",3,html-button-response,311,2942129,0.0-18.0-7.0,4970,List2A,white,man,,TRUE,3,,,,,,,,,,
null,CORRECT,,html-keyboard-response,312,2943655,0.0-18.0-8.0-0.0,4970,List2A,white,man,,,,null,,,,,,,,,
1575.8,"<img src=""portrait/WM1.jpg""style=""height:400px;""></img>",6,html-button-response,313,2945232,0.0-18.0-10.0,4970,List2A,white,man,,TRUE,6,,,,,,,,,,
null,CORRECT,,html-keyboard-response,314,2946748,0.0-18.0-11.0-0.0,4970,List2A,white,man,,,,null,,,,,,,,,
7095.1,"<img src=""portrait/BW2.jpg""style=""height:400px;""></img>",2,html-button-response,315,2953844,0.0-18.0-13.0,4970,List2A,white,man,,TRUE,2,,,,,,,,,,
null,CORRECT,,html-keyboard-response,316,2955358,0.0-18.0-14.0-0.0,4970,List2A,white,man,,,,null,,,,,,,,,
3578,"<img src=""portrait/BW1.jpg""style=""height:400px;""></img>",0,html-button-response,317,2958937,0.0-18.0-16.0,4970,List2A,white,man,,TRUE,0,,,,,,,,,,
null,CORRECT,,html-keyboard-response,318,2960458,0.0-18.0-17.0-0.0,4970,List2A,white,man,,,,null,,,,,,,,,
6986.6,"<img src=""portrait/BM1.jpg""style=""height:400px;""></img>",4,html-button-response,319,2967446,0.0-18.0-19.0,4970,List2A,white,man,,TRUE,4,,,,,,,,,,
null,CORRECT,,html-keyboard-response,320,2968958,0.0-18.0-20.0-0.0,4970,List2A,white,man,,,,null,,,,,,,,,
2073.5,"<img src=""portrait/BM2.jpg""style=""height:400px;""></img>",5,html-button-response,321,2971032,0.0-18.0-22.0,4970,List2A,white,man,,TRUE,5,,,,,,,,,,
null,CORRECT,,html-keyboard-response,322,2972552,0.0-18.0-23.0-0.0,4970,List2A,white,man,,,,null,,,,,,,,,
1498.9,<p>You got 8 out of 8 right first time. Press Continue.</p>,0,html-button-response,323,2974052,0.0-18.0-25.0,4970,List2A,white,man,,,,,,,,,,,,,
null,"<div style=""font-size:60px;"">+</div>",,html-keyboard-response,324,2975553,0.0-19.0-0.0,4970,List2A,white,man,,,,null,,,,,,,,,
null,"<img src=""stim_listA/copy6.gif""style=""height:400px;""></stim_listA>",,html-keyboard-response,325,2977562,0.0-19.0-1.0,4970,List2A,white,man,,,,null,,,,,,,,,
null,is being copied by,,html-keyboard-response,326,2979569,0.0-19.0-2.0,4970,List2A,white,man,,,,null,,,,,,,,,
5817.3,,,survey-text,327,2985388,0.0-19.0-3.0,4970,List2A,white,man,,,,,"{""Q0"":""Luke is being copied by Mike""}","<img src=""stim_listA/copy6.gif""style=""height:400px;""></stim_listA>",is being copied by,,,,,,
null,"<div style=""font-size:60px;"">+</div>",,html-keyboard-response,328,2985888,0.0-19.0-0.1,4970,List2A,white,man,,,,null,,,,,,,,,
null,"<img src=""stim_listA/copy5.gif""style=""height:400px;""></stim_listA>",,html-keyboard-response,329,2987901,0.0-19.0-1.1,4970,List2A,white,man,,,,null,,,,,,,,,
null,is copying,,html-keyboard-response,330,2989913,0.0-19.0-2.1,4970,List2A,white,man,,,,null,,,,,,,,,
7647.1,,,survey-text,331,2997561,0.0-19.0-3.1,4970,List2A,white,man,,,,,"{""Q0"":""Fred is copying Dave""}","<img src=""stim_listA/copy5.gif""style=""height:400px;""></stim_listA>",is copying,,,,,,
null,"<div style=""font-size:60px;"">+</div>",,html-keyboard-response,332,2998062,0.0-19.0-0.2,4970,List2A,white,man,,,,null,,,,,,,,,
null,"<img src=""stim_listA/greet7.gif""style=""height:400px;""></stim_listA>",,html-keyboard-response,333,3000064,0.0-19.0-1.2,4970,List2A,white,man,,,,null,,,,,,,,,
null,is greeting,,html-keyboard-response,334,3002072,0.0-19.0-2.2,4970,List2A,white,man,,,,null,,,,,,,,,
4710.2,,,survey-text,335,3006783,0.0-19.0-3.2,4970,List2A,white,man,,,,,"{""Q0"":""Beth is greeting Jane""}","<img src=""stim_listA/greet7.gif""style=""height:400px;""></stim_listA>",is greeting,,,,,,
null,"<div style=""font-size:60px;"">+</div>",,html-keyboard-response,336,3007285,0.0-19.0-0.3,4970,List2A,white,man,,,,null,,,,,,,,,
null,"<img src=""stim_listA/look7.gif""style=""height:400px;""></stim_listA>",,html-keyboard-response,337,3009294,0.0-19.0-1.3,4970,List2A,white,man,,,,null,,,,,,,,,
null,is looking at,,html-keyboard-response,338,3011302,0.0-19.0-2.3,4970,List2A,white,man,,,,null,,,,,,,,,
6052.6,,,survey-text,339,3017356,0.0-19.0-3.3,4970,List2A,white,man,,,,,"{""Q0"":""Beth is looking at Ruth""}","<img src=""stim_listA/look7.gif""style=""height:400px;""></stim_listA>",is looking at,,,,,,
null,"<div style=""font-size:60px;"">+</div>",,html-keyboard-response,340,3017858,0.0-19.0-0.4,4970,List2A,white,man,,,,null,,,,,,,,,
null,"<img src=""stim_listA/touch6.gif""style=""height:400px;""></stim_listA>",,html-keyboard-response,341,3019865,0.0-19.0-1.4,4970,List2A,white,man,,,,null,,,,,,,,,
null,is being touched by,,html-keyboard-response,342,3021875,0.0-19.0-2.4,4970,List2A,white,man,,,,null,,,,,,,,,
7566.8,,,survey-text,343,3029443,0.0-19.0-3.4,4970,List2A,white,man,,,,,"{""Q0"":""Luke is being touched by Fred""}","<img src=""stim_listA/touch6.gif""style=""height:400px;""></stim_listA>",is being touched by,,,,,,
null,"<div style=""font-size:60px;"">+</div>",,html-keyboard-response,344,3029945,0.0-19.0-0.5,4970,List2A,white,man,,,,null,,,,,,,,,
null,"<img src=""stim_listA/touch4.gif""style=""height:400px;""></stim_listA>",,html-keyboard-response,345,3031946,0.0-19.0-1.5,4970,List2A,white,man,,,,null,,,,,,,,,
null,is being touched by,,html-keyboard-response,346,3033948,0.0-19.0-2.5,4970,List2A,white,man,,,,null,,,,,,,,,
7349.8,,,survey-text,347,3041299,0.0-19.0-3.5,4970,List2A,white,man,,,,,"{""Q0"":""Fred is being touched by Beth""}","<img src=""stim_listA/touch4.gif""style=""height:400px;""></stim_listA>",is being touched by,,,,,,
null,"<div style=""font-size:60px;"">+</div>",,html-keyboard-response,348,3041815,0.0-19.0-0.6,4970,List2A,white,man,,,,null,,,,,,,,,
null,"<img src=""stim_listA/hug4.gif""style=""height:400px;""></stim_listA>",,html-keyboard-response,349,3043816,0.0-19.0-1.6,4970,List2A,white,man,,,,null,,,,,,,,,
null,is being hugged by,,html-keyboard-response,350,3045832,0.0-19.0-2.6,4970,List2A,white,man,,,,null,,,,,,,,,
9514.6,,,survey-text,351,3055348,0.0-19.0-3.6,4970,List2A,white,man,,,,,"{""Q0"":""Mike is being hugged by Kate""}","<img src=""stim_listA/hug4.gif""style=""height:400px;""></stim_listA>",is being hugged by,,,,,,
null,"<div style=""font-size:60px;"">+</div>",,html-keyboard-response,352,3055850,0.0-19.0-0.7,4970,List2A,white,man,,,,null,,,,,,,,,
null,"<img src=""stim_listA/kiss4.gif""style=""height:400px;""></stim_listA>",,html-keyboard-response,353,3057851,0.0-19.0-1.7,4970,List2A,white,man,,,,null,,,,,,,,,
null,is being kissed by,,html-keyboard-response,354,3059856,0.0-19.0-2.7,4970,List2A,white,man,,,,null,,,,,,,,,
6128,,,survey-text,355,3065985,0.0-19.0-3.7,4970,List2A,white,man,,,,,"{""Q0"":""Mike is being kissed by Kate""}","<img src=""stim_listA/kiss4.gif""style=""height:400px;""></stim_listA>",is being kissed by,,,,,,
null,"<div style=""font-size:60px;"">+</div>",,html-keyboard-response,356,3066494,0.0-19.0-0.8,4970,List2A,white,man,,,,null,,,,,,,,,
null,"<img src=""stim_listA/look6.gif""style=""height:400px;""></stim_listA>",,html-keyboard-response,357,3068506,0.0-19.0-1.8,4970,List2A,white,man,,,,null,,,,,,,,,
null,is being looked at by,,html-keyboard-response,358,3070518,0.0-19.0-2.8,4970,List2A,white,man,,,,null,,,,,,,,,
5843.5,,,survey-text,359,3076362,0.0-19.0-3.8,4970,List2A,white,man,,,,,"{""Q0"":""Dave is being looked at by Mike""}","<img src=""stim_listA/look6.gif""style=""height:400px;""></stim_listA>",is being looked at by,,,,,,
null,"<div style=""font-size:60px;"">+</div>",,html-keyboard-response,360,3076872,0.0-19.0-0.9,4970,List2A,white,man,,,,null,,,,,,,,,
null,"<img src=""stim_listA/kiss5.gif""style=""height:400px;""></stim_listA>",,html-keyboard-response,361,3078884,0.0-19.0-1.9,4970,List2A,white,man,,,,null,,,,,,,,,
null,is kissing,,html-keyboard-response,362,3080897,0.0-19.0-2.9,4970,List2A,white,man,,,,null,,,,,,,,,
12333.1,,,survey-text,363,3093231,0.0-19.0-3.9,4970,List2A,white,man,,,,,"{""Q0"":""Fred is kissing Luke""}","<img src=""stim_listA/kiss5.gif""style=""height:400px;""></stim_listA>",is kissing,,,,,,
null,"<div style=""font-size:60px;"">+</div>",,html-keyboard-response,364,3093735,0.0-19.0-0.10,4970,List2A,white,man,,,,null,,,,,,,,,
null,"<img src=""stim_listA/look3.gif""style=""height:400px;""></stim_listA>",,html-keyboard-response,365,3095748,0.0-19.0-1.10,4970,List2A,white,man,,,,null,,,,,,,,,
null,is looking at,,html-keyboard-response,366,3097760,0.0-19.0-2.10,4970,List2A,white,man,,,,null,,,,,,,,,
4495,,,survey-text,367,3102256,0.0-19.0-3.10,4970,List2A,white,man,,,,,"{""Q0"":""Beth is looking at Fred""}","<img src=""stim_listA/look3.gif""style=""height:400px;""></stim_listA>",is looking at,,,,,,
null,"<div style=""font-size:60px;"">+</div>",,html-keyboard-response,368,3102763,0.0-19.0-0.11,4970,List2A,white,man,,,,null,,,,,,,,,
null,"<img src=""stim_listA/look1.gif""style=""height:400px;""></stim_listA>",,html-keyboard-response,369,3104768,0.0-19.0-1.11,4970,List2A,white,man,,,,null,,,,,,,,,
null,is looking at,,html-keyboard-response,370,3106775,0.0-19.0-2.11,4970,List2A,white,man,,,,null,,,,,,,,,
6064.5,,,survey-text,371,3112840,0.0-19.0-3.11,4970,List2A,white,man,,,,,"{""Q0"":""Ruth is looking at Luke""}","<img src=""stim_listA/look1.gif""style=""height:400px;""></stim_listA>",is looking at,,,,,,
null,"<div style=""font-size:60px;"">+</div>",,html-keyboard-response,372,3113342,0.0-19.0-0.12,4970,List2A,white,man,,,,null,,,,,,,,,
null,"<img src=""stim_listA/copy4.gif""style=""height:400px;""></stim_listA>",,html-keyboard-response,373,3115357,0.0-19.0-1.12,4970,List2A,white,man,,,,null,,,,,,,,,
null,is being copied by,,html-keyboard-response,374,3117367,0.0-19.0-2.12,4970,List2A,white,man,,,,null,,,,,,,,,
13363.7,,,survey-text,375,3130731,0.0-19.0-3.12,4970,List2A,white,man,,,,,"{""Q0"":""Fred is being copied by Kate""}","<img src=""stim_listA/copy4.gif""style=""height:400px;""></stim_listA>",is being copied by,,,,,,
null,"<div style=""font-size:60px;"">+</div>",,html-keyboard-response,376,3131241,0.0-19.0-0.13,4970,List2A,white,man,,,,null,,,,,,,,,
null,"<img src=""stim_listA/seduce4.gif""style=""height:400px;""></stim_listA>",,html-keyboard-response,377,3133242,0.0-19.0-1.13,4970,List2A,white,man,,,,null,,,,,,,,,
null,is being seduced by,,html-keyboard-response,378,3135251,0.0-19.0-2.13,4970,List2A,white,man,,,,null,,,,,,,,,
5922.5,,,survey-text,379,3141174,0.0-19.0-3.13,4970,List2A,white,man,,,,,"{""Q0"":""Mike is being seduced by Beth""}","<img src=""stim_listA/seduce4.gif""style=""height:400px;""></stim_listA>",is being seduced by,,,,,,
null,"<div style=""font-size:60px;"">+</div>",,html-keyboard-response,380,3141685,0.0-19.0-0.14,4970,List2A,white,man,,,,null,,,,,,,,,
null,"<img src=""stim_listA/challenge6.gif""style=""height:400px;""></stim_listA>",,html-keyboard-response,381,3143698,0.0-19.0-1.14,4970,List2A,white,man,,,,null,,,,,,,,,
null,is being challenged by,,html-keyboard-response,382,3145708,0.0-19.0-2.14,4970,List2A,white,man,,,,null,,,,,,,,,
6703.7,,,survey-text,383,3152413,0.0-19.0-3.14,4970,List2A,white,man,,,,,"{""Q0"":""Luke is being challenged by Mike""}","<img src=""stim_listA/challenge6.gif""style=""height:400px;""></stim_listA>",is being challenged by,,,,,,
null,"<div style=""font-size:60px;"">+</div>",,html-keyboard-response,384,3152924,0.0-19.0-0.15,4970,List2A,white,man,,,,null,,,,,,,,,
null,"<img src=""stim_listA/shout1.gif""style=""height:400px;""></stim_listA>",,html-keyboard-response,385,3154935,0.0-19.0-1.15,4970,List2A,white,man,,,,null,,,,,,,,,
null,is shouting at,,html-keyboard-response,386,3156943,0.0-19.0-2.15,4970,List2A,white,man,,,,null,,,,,,,,,
5801,,,survey-text,387,3162745,0.0-19.0-3.15,4970,List2A,white,man,,,,,"{""Q0"":""Ruth is shouting at Luke""}","<img src=""stim_listA/shout1.gif""style=""height:400px;""></stim_listA>",is shouting at,,,,,,
null,"<div style=""font-size:60px;"">+</div>",,html-keyboard-response,388,3163248,0.0-19.0-0.16,4970,List2A,white,man,,,,null,,,,,,,,,
null,"<img src=""stim_listA/copy8.gif""style=""height:400px;""></stim_listA>",,html-keyboard-response,389,3165260,0.0-19.0-1.16,4970,List2A,white,man,,,,null,,,,,,,,,
null,is being copied by,,html-keyboard-response,390,3167274,0.0-19.0-2.16,4970,List2A,white,man,,,,null,,,,,,,,,
5961.3,,,survey-text,391,3173237,0.0-19.0-3.16,4970,List2A,white,man,,,,,"{""Q0"":""Ruth is being copied by Kate""}","<img src=""stim_listA/copy8.gif""style=""height:400px;""></stim_listA>",is being copied by,,,,,,
null,"<div style=""font-size:60px;"">+</div>",,html-keyboard-response,392,3173738,0.0-19.0-0.17,4970,List2A,white,man,,,,null,,,,,,,,,
null,"<img src=""stim_listA/greet2.gif""style=""height:400px;""></stim_listA>",,html-keyboard-response,393,3175752,0.0-19.0-1.17,4970,List2A,white,man,,,,null,,,,,,,,,
null,is being greeted by,,html-keyboard-response,394,3177758,0.0-19.0-2.17,4970,List2A,white,man,,,,null,,,,,,,,,
7777.5,,,survey-text,395,3185536,0.0-19.0-3.17,4970,List2A,white,man,,,,,"{""Q0"":""Luke is being greeted by Jane""}","<img src=""stim_listA/greet2.gif""style=""height:400px;""></stim_listA>",is being greeted by,,,,,,
null,"<div style=""font-size:60px;"">+</div>",,html-keyboard-response,396,3186045,0.0-19.0-0.18,4970,List2A,white,man,,,,null,,,,,,,,,
null,"<img src=""stim_listA/greet6.gif""style=""height:400px;""></stim_listA>",,html-keyboard-response,397,3188047,0.0-19.0-1.18,4970,List2A,white,man,,,,null,,,,,,,,,
null,is being greeted by,,html-keyboard-response,398,3190057,0.0-19.0-2.18,4970,List2A,white,man,,,,null,,,,,,,,,
6285.7,,,survey-text,399,3196343,0.0-19.0-3.18,4970,List2A,white,man,,,,,"{""Q0"":""Luke is being greeted by Mike""}","<img src=""stim_listA/greet6.gif""style=""height:400px;""></stim_listA>",is being greeted by,,,,,,
null,"<div style=""font-size:60px;"">+</div>",,html-keyboard-response,400,3196844,0.0-19.0-0.19,4970,List2A,white,man,,,,null,,,,,,,,,
null,"<img src=""stim_listA/oppose7.gif""style=""height:400px;""></stim_listA>",,html-keyboard-response,401,3198846,0.0-19.0-1.19,4970,List2A,white,man,,,,null,,,,,,,,,
null,is opposing,,html-keyboard-response,402,3200850,0.0-19.0-2.19,4970,List2A,white,man,,,,null,,,,,,,,,
4023.6,,,survey-text,403,3204874,0.0-19.0-3.19,4970,List2A,white,man,,,,,"{""Q0"":""Kate is opposing Jane""}","<img src=""stim_listA/oppose7.gif""style=""height:400px;""></stim_listA>",is opposing,,,,,,
2966.3,<p>Thank you for completing that task.</p><p>The final part of this session is a questionnaire that will take about 4 minutes.</p><p>Press Continue.</p>,0,html-button-response,404,3207841,0.0-20.0,4970,List2A,white,man,,,,,,,,,,,,,
30224,,,survey-text,405,3239078,0.0-21.0,4970,List2A,white,man,,,,,"{""Q0"":""39"",""Q1"":""English"",""Q2"":""English"",""Q3"":""United States"",""Q4"":""Caucasian"",""Q5"":""White"",""Q6"":""Male""}",,,demographics,,,,,
5045.8,<p>Have you lived in the USA for the last 5 years or more?</p>,0,html-button-response,406,3244125,0.0-22.0,4970,List2A,white,man,,,,,,,,fiveyears,,,,,
3320.8,<p>Move the slider to show the extent to which you agree with the following statements.</p>,0,html-button-response,407,3248453,0.0-23.0,4970,List2A,white,man,,,,,,,,,,,,,
5574.3,,,html-slider-response,408,3255035,0.0-24.0-0.0-0.0,4970,List2A,white,man,,,,,,,,survey_gender,80,,,I would say I am an animal person.,filler
8642.1,,,html-slider-response,409,3263678,0.0-24.0-0.0-0.1,4970,List2A,white,man,,,,,,,,survey_gender,9,,,I think that my gender has a lot to be proud of.,proud
5553.8,,,html-slider-response,410,3269233,0.0-24.0-0.0-0.2,4970,List2A,white,man,,,,,,,,survey_gender,10,,,Being my gender is an important part of how I see myself.,important
5935.1,,,html-slider-response,411,3275169,0.0-24.0-0.0-0.3,4970,List2A,white,man,,,,,,,,survey_gender,5,,,Most of the friends in my life are very similar to me.,filler
5965,,,html-slider-response,412,3281135,0.0-24.0-0.0-0.4,4970,List2A,white,man,,,,,,,,survey_gender,5,,,I often think about the fact that I am my gender.,often
5734,,,html-slider-response,413,3286870,0.0-24.0-0.0-0.5,4970,List2A,white,man,,,,,,,,survey_gender,66,,,My friends understand me.,filler
7304.2,,,html-slider-response,414,3294174,0.0-24.0-0.0-0.6,4970,List2A,white,man,,,,,,,,survey_gender,18,,,I am similar to the average person of my gender.,similar
6950.2,,,html-slider-response,415,3301126,0.0-24.0-0.0-0.7,4970,List2A,white,man,,,,,,,,survey_gender,9,,,People of my gender have a lot in common with each other.,common
5737.1,,,html-slider-response,416,3306863,0.0-24.0-0.0-0.8,4970,List2A,white,man,,,,,,,,survey_gender,8,,,Routine is not important to me.,filler
7380.9,,,html-slider-response,417,3314246,0.0-24.0-0.0-0.9,4970,List2A,white,man,,,,,,,,survey_gender,48,,,I am glad to be my gender.,glad
4082.2,,,html-slider-response,418,3318329,0.0-24.0-0.0-0.10,4970,List2A,white,man,,,,,,,,survey_gender,66,,,I consider myself a highly empathetic person.,filler
3391,,,html-slider-response,419,3321720,0.0-24.0-0.0-0.11,4970,List2A,white,man,,,,,,,,survey_gender,21,,,I feel a bond with my gender.,bond
6598.4,,,html-slider-response,420,3328320,0.0-24.0-0.0-0.12,4970,List2A,white,man,,,,,,,,survey_gender,51,,,I feel committed to my gender.,committed
5321.5,,,html-slider-response,421,3333642,0.0-24.0-0.0-0.13,4970,List2A,white,man,,,,,,,,survey_gender,31,,,Family is not more important to me than friendship.,filler
4200.8,,,html-slider-response,422,3337844,0.0-24.0-0.0-0.14,4970,List2A,white,man,,,,,,,,survey_gender,80,,,I am glad to have the friends that I have.,filler
3531.3,,,html-slider-response,423,3341376,0.0-24.0-0.0-0.15,4970,List2A,white,man,,,,,,,,survey_gender,73,,,Being around my friends gives me a good feeling.,filler
6004.9,,,html-slider-response,424,3347382,0.0-24.0-0.0-0.16,4970,List2A,white,man,,,,,,,,survey_gender,51,,,It is pleasant to be my gender.,pleasant
3507.9,,,html-slider-response,425,3350891,0.0-24.0-0.0-0.17,4970,List2A,white,man,,,,,,,,survey_gender,37,,,I have a lot in common with my friends.,filler
4907.3,,,html-slider-response,426,3355799,0.0-24.0-0.0-0.18,4970,List2A,white,man,,,,,,,,survey_gender,39,,,My friends have a lot in common with each other.,filler
3315.9,,,html-slider-response,427,3359116,0.0-24.0-0.0-0.19,4970,List2A,white,man,,,,,,,,survey_gender,81,,,I often think about my actions.,filler
3757.3,,,html-slider-response,428,3362874,0.0-24.0-0.0-0.20,4970,List2A,white,man,,,,,,,,survey_gender,32,,,The fact that I am my gender is an important part of my identity.,identity
2518.8,,,html-slider-response,429,3365394,0.0-24.0-0.0-0.21,4970,List2A,white,man,,,,,,,,survey_gender,54,,,I feel solidarity with my friends.,filler
2622.5,,,html-slider-response,430,3368017,0.0-24.0-0.0-0.22,4970,List2A,white,man,,,,,,,,survey_gender,15,,,I feel solidarity with my gender.,solidarity
5823.9,,,html-slider-response,431,3373842,0.0-24.0-0.0-0.23,4970,List2A,white,man,,,,,,,,survey_gender,71,,,It is not always easy for people to know what I am thinking.,filler
4101.3,,,html-slider-response,432,3377944,0.0-24.0-0.0-0.24,4970,List2A,white,man,,,,,,,,survey_gender,57,,,I feel a bond with my friends.,filler
3701.1,,,html-slider-response,433,3381646,0.0-24.0-0.0-0.25,4970,List2A,white,man,,,,,,,,survey_gender,41,,,Being my gender gives me a good feeling.,feeling
10397.2,,,html-slider-response,434,3392044,0.0-24.0-0.0-0.26,4970,List2A,white,man,,,,,,,,survey_gender,4,,,People of my gender are very similar to each other.,verysimilar
4247.3,,,html-slider-response,435,3396292,0.0-24.0-0.0-0.27,4970,List2A,white,man,,,,,,,,survey_gender,22,,,I have a lot in common with the average person of my gender.,average
5604.1,,,html-slider-response,436,3401897,0.0-24.0-1.0-0.0,4970,List2A,white,man,,,,,,,,survey_race,1,,,Being my race gives me a good feeling.,feeling
3063.2,,,html-slider-response,437,3404961,0.0-24.0-1.0-0.1,4970,List2A,white,man,,,,,,,,survey_race,0,,,I enjoy being in large groups.,filler
8325.1,,,html-slider-response,438,3413287,0.0-24.0-1.0-0.2,4970,List2A,white,man,,,,,,,,survey_race,19,,,I am glad to be my race.,glad
3348.9,,,html-slider-response,439,3416637,0.0-24.0-1.0-0.3,4970,List2A,white,man,,,,,,,,survey_race,8,,,People of my race are very similar to each other.,verysimilar
3474.1,,,html-slider-response,440,3420112,0.0-24.0-1.0-0.4,4970,List2A,white,man,,,,,,,,survey_race,51,,,I am glad to be my age.,filler
4757.4,,,html-slider-response,441,3424870,0.0-24.0-1.0-0.5,4970,List2A,white,man,,,,,,,,survey_race,93,,,My age is not an important part of who I am.,filler
6834,,,html-slider-response,442,3431704,0.0-24.0-1.0-0.6,4970,List2A,white,man,,,,,,,,survey_race,25,,,I have a lot in common with people of a similar age to me.,filler
4793.2,,,html-slider-response,443,3436498,0.0-24.0-1.0-0.7,4970,List2A,white,man,,,,,,,,survey_race,18,,,I have a lot in common with the average person of my race.,average
4072.3,,,html-slider-response,444,3440572,0.0-24.0-1.0-0.8,4970,List2A,white,man,,,,,,,,survey_race,93,,,I consider myself an introvert.,filler
8749,,,html-slider-response,445,3449322,0.0-24.0-1.0-0.9,4970,List2A,white,man,,,,,,,,survey_race,8,,,I am similar to the average person of my race.,similar
5162.1,,,html-slider-response,446,3454485,0.0-24.0-1.0-0.10,4970,List2A,white,man,,,,,,,,survey_race,4,,,I consider myself an extrovert.,filler
8517.5,,,html-slider-response,447,3463003,0.0-24.0-1.0-0.11,4970,List2A,white,man,,,,,,,,survey_race,8,,,People of my race have a lot in common with each other.,common
3801.7,,,html-slider-response,448,3466805,0.0-24.0-1.0-0.12,4970,List2A,white,man,,,,,,,,survey_race,30,,,Being my age gives me a good feeling.,filler
4447.4,,,html-slider-response,449,3471254,0.0-24.0-1.0-0.13,4970,List2A,white,man,,,,,,,,survey_race,0,,,I think that my race has a lot to be proud of.,proud
4753,,,html-slider-response,450,3476008,0.0-24.0-1.0-0.14,4970,List2A,white,man,,,,,,,,survey_race,60,,,I often think about the fact that I am my age.,filler
6682,,,html-slider-response,451,3482691,0.0-24.0-1.0-0.15,4970,List2A,white,man,,,,,,,,survey_race,32,,,I am glad to be the age I am.,filler
3094,,,html-slider-response,452,3485786,0.0-24.0-1.0-0.16,4970,List2A,white,man,,,,,,,,survey_race,6,,,I feel solidarity with my race.,solidarity
2823.4,,,html-slider-response,453,3488610,0.0-24.0-1.0-0.17,4970,List2A,white,man,,,,,,,,survey_race,51,,,Getting older does not worry me.,filler
9514.1,,,html-slider-response,454,3498125,0.0-24.0-1.0-0.18,4970,List2A,white,man,,,,,,,,survey_race,86,,,It is pleasant to be my race.,pleasant
3005.1,,,html-slider-response,455,3501131,0.0-24.0-1.0-0.19,4970,List2A,white,man,,,,,,,,survey_race,82,,,"The older I get, the wiser I feel.",filler
4276.2,,,html-slider-response,456,3505408,0.0-24.0-1.0-0.20,4970,List2A,white,man,,,,,,,,survey_race,14,,,People my age have a lot in common with each other.,filler
4068.8,,,html-slider-response,457,3509478,0.0-24.0-1.0-0.21,4970,List2A,white,man,,,,,,,,survey_race,7,,,Being my race is an important part of how I see myself.,important
7948.3,,,html-slider-response,458,3517427,0.0-24.0-1.0-0.22,4970,List2A,white,man,,,,,,,,survey_race,12,,,I feel committed to my race.,committed
3793.8,,,html-slider-response,459,3521222,0.0-24.0-1.0-0.23,4970,List2A,white,man,,,,,,,,survey_race,7,,,I often think about the fact that I am my race.,often
7349,,,html-slider-response,460,3528571,0.0-24.0-1.0-0.24,4970,List2A,white,man,,,,,,,,survey_race,45,,,I feel solidarity with people the same age as me.,filler
3580.1,,,html-slider-response,461,3532152,0.0-24.0-1.0-0.25,4970,List2A,white,man,,,,,,,,survey_race,3,,,The fact that I am my race is an important part of my identity.,identity
4365.4,,,html-slider-response,462,3536518,0.0-24.0-1.0-0.26,4970,List2A,white,man,,,,,,,,survey_race,1,,,I feel a bond with my race.,bond
6181.9,,,html-slider-response,463,3542701,0.0-24.0-1.0-0.27,4970,List2A,white,man,,,,,,,,survey_race,14,,,I feel a bond with people the same age as me.,filler
10574,,,survey-text,464,3553277,0.0-25.0,4970,List2A,white,man,,,,,"{""Q0"":""ccc""}",,,worker_id,,,,,
43308.9,,,external-html,465,3596957,0.0-26.0,4970,List2A,white,man,debrief.html,,,,,,,,,,,,
