"rt","stimulus","button_pressed","trial_type","trial_index","time_elapsed","internal_node_id","subject","list","ppt_race","ppt_gender","url","first_guess","correct","key_press","responses","image_type","phrase_type","test_part","response","stimulus1","stimulus2","question_type","survey_item"
"1835.4000000059605","Welcome to the experiment. Press Continue to begin.","0","html-button-response","0","1838","0.0-0.0","4976","List2A","white","woman","","","","","","","","","","","","",""
"6207.29999999702","","","external-html","1","9194","0.0-1.0","4976","List2A","white","woman","consent.html","","","","","","","","","","","",""
"12903.79999999702","<p>On the next page, you will see portraits of 8 people and their names.</p><p>Your first task is to take a few minutes to memorise the names of these people.</p><p>You will have to recall their names during the rest of the experiment, so it is</p><p>essential that you try to memorise these people and their names as best as you can.</p><br><p><strong>You will then be tested on your memory of these names and portraits.</strong></p><br><p>The experiment will start after you have completed this memory test.</p><br><p>Ready?</p>","0","html-button-response","2","22100","0.0-2.0","4976","List2A","white","woman","","","","","","","","","","","","",""
"29676.09999999404","<img src='img/portrait_matrix_list2.jpg' style='width:900px;height:500px;''></img><p>If you have memorised all the portraits and names and are ready to start, press Continue.</p><p><strong>Please note: Your memory of these faces will be tested 4 times during this experiment.</strong></p>","0","html-button-response","3","52783","0.0-3.0-0.0","4976","List2A","white","woman","","","","","","","","","","","","",""
"5204.70000000298","<img src=""portrait/BM1.jpg""style=""height:400px;""></img>","4","html-button-response","4","58994","0.0-3.0-1.0","4976","List2A","white","woman","","true","4","","","","","","","","","",""
"null","CORRECT","","html-keyboard-response","5","60504","0.0-3.0-2.0-0.0","4976","List2A","white","woman","","","","null","","","","","","","","",""
"3664.7000000029802","<img src=""portrait/WW1.jpg""style=""height:400px;""></img>","1","html-button-response","6","64172","0.0-3.0-4.0","4976","List2A","white","woman","","true","1","","","","","","","","","",""
"null","CORRECT","","html-keyboard-response","7","65679","0.0-3.0-5.0-0.0","4976","List2A","white","woman","","","","null","","","","","","","","",""
"2805.0999999940395","<img src=""portrait/BM2.jpg""style=""height:400px;""></img>","5","html-button-response","8","68486","0.0-3.0-7.0","4976","List2A","white","woman","","true","5","","","","","","","","","",""
"null","CORRECT","","html-keyboard-response","9","69992","0.0-3.0-8.0-0.0","4976","List2A","white","woman","","","","null","","","","","","","","",""
"2332.5999999940395","<img src=""portrait/WM1.jpg""style=""height:400px;""></img>","6","html-button-response","10","72327","0.0-3.0-10.0","4976","List2A","white","woman","","true","6","","","","","","","","","",""
"null","CORRECT","","html-keyboard-response","11","73835","0.0-3.0-11.0-0.0","4976","List2A","white","woman","","","","null","","","","","","","","",""
"1997.7999999970198","<img src=""portrait/WW2.jpg""style=""height:400px;""></img>","1","html-button-response","12","75835","0.0-3.0-13.0","4976","List2A","white","woman","","true","3","","","","","","","","","",""
"2486.300000011921","<img src=""portrait/WW2.jpg""style=""height:400px;""></img>","3","html-button-response","13","79325","0.0-3.0-15.0-0.0","4976","List2A","white","woman","","false","3","","","","","","","","","",""
"null","CORRECT","","html-keyboard-response","14","80837","0.0-3.0-15.0-1.0-0.0","4976","List2A","white","woman","","","","null","","","","","","","","",""
"2171.7999999970198","<img src=""portrait/BW1.jpg""style=""height:400px;""></img>","0","html-button-response","15","83011","0.0-3.0-16.0","4976","List2A","white","woman","","true","0","","","","","","","","","",""
"null","CORRECT","","html-keyboard-response","16","84517","0.0-3.0-17.0-0.0","4976","List2A","white","woman","","","","null","","","","","","","","",""
"2397.4000000059605","<img src=""portrait/BW2.jpg""style=""height:400px;""></img>","2","html-button-response","17","86916","0.0-3.0-19.0","4976","List2A","white","woman","","true","2","","","","","","","","","",""
"null","CORRECT","","html-keyboard-response","18","88424","0.0-3.0-20.0-0.0","4976","List2A","white","woman","","","","null","","","","","","","","",""
"4527.29999999702","<img src=""portrait/WM2.jpg""style=""height:400px;""></img>","7","html-button-response","19","92953","0.0-3.0-22.0","4976","List2A","white","woman","","true","7","","","","","","","","","",""
"null","CORRECT","","html-keyboard-response","20","94461","0.0-3.0-23.0-0.0","4976","List2A","white","woman","","","","null","","","","","","","","",""
"1646.7999999970198","<p>You got 7 out of 8 right first time. Press Continue.</p>","0","html-button-response","21","96111","0.0-3.0-25.0","4976","List2A","white","woman","","","","","","","","","","","","",""
"3458.7000000029802","As you did not score 100%, the memory game will repeat. Press Continue.","0","html-button-response","22","100575","0.0-3.0-26.0-0.0","4976","List2A","white","woman","","","","","","","","","","","","",""
"10934.70000000298","<img src='img/portrait_matrix_list2.jpg' style='width:900px;height:500px;''></img><p>If you have memorised all the portraits and names and are ready to start, press Continue.</p><p><strong>Please note: Your memory of these faces will be tested 4 times during this experiment.</strong></p>","0","html-button-response","23","112516","0.0-3.1-0.1","4976","List2A","white","woman","","","","","","","","","","","","",""
"2330.5999999940395","<img src=""portrait/BM1.jpg""style=""height:400px;""></img>","4","html-button-response","24","115854","0.0-3.1-1.1","4976","List2A","white","woman","","true","4","","","","","","","","","",""
"null","CORRECT","","html-keyboard-response","25","117363","0.0-3.1-2.1-0.1","4976","List2A","white","woman","","","","null","","","","","","","","",""
"2064.7000000029802","<img src=""portrait/WW1.jpg""style=""height:400px;""></img>","1","html-button-response","26","119431","0.0-3.1-4.1","4976","List2A","white","woman","","true","1","","","","","","","","","",""
"null","CORRECT","","html-keyboard-response","27","120939","0.0-3.1-5.1-0.1","4976","List2A","white","woman","","","","null","","","","","","","","",""
"1498","<img src=""portrait/BM2.jpg""style=""height:400px;""></img>","5","html-button-response","28","122440","0.0-3.1-7.1","4976","List2A","white","woman","","true","5","","","","","","","","","",""
"null","CORRECT","","html-keyboard-response","29","123946","0.0-3.1-8.1-0.1","4976","List2A","white","woman","","","","null","","","","","","","","",""
"2557.699999988079","<img src=""portrait/WM1.jpg""style=""height:400px;""></img>","6","html-button-response","30","126506","0.0-3.1-10.1","4976","List2A","white","woman","","true","6","","","","","","","","","",""
"null","CORRECT","","html-keyboard-response","31","128016","0.0-3.1-11.1-0.1","4976","List2A","white","woman","","","","null","","","","","","","","",""
"2578.1000000089407","<img src=""portrait/WW2.jpg""style=""height:400px;""></img>","3","html-button-response","32","130596","0.0-3.1-13.1","4976","List2A","white","woman","","true","3","","","","","","","","","",""
"null","CORRECT","","html-keyboard-response","33","132103","0.0-3.1-14.1-0.1","4976","List2A","white","woman","","","","null","","","","","","","","",""
"1720.6000000089407","<img src=""portrait/BW1.jpg""style=""height:400px;""></img>","0","html-button-response","34","133825","0.0-3.1-16.1","4976","List2A","white","woman","","true","0","","","","","","","","","",""
"null","CORRECT","","html-keyboard-response","35","135336","0.0-3.1-17.1-0.1","4976","List2A","white","woman","","","","null","","","","","","","","",""
"1925.9000000059605","<img src=""portrait/BW2.jpg""style=""height:400px;""></img>","2","html-button-response","36","137263","0.0-3.1-19.1","4976","List2A","white","woman","","true","2","","","","","","","","","",""
"null","CORRECT","","html-keyboard-response","37","138773","0.0-3.1-20.1-0.1","4976","List2A","white","woman","","","","null","","","","","","","","",""
"1568.1000000089407","<img src=""portrait/WM2.jpg""style=""height:400px;""></img>","7","html-button-response","38","140342","0.0-3.1-22.1","4976","List2A","white","woman","","true","7","","","","","","","","","",""
"null","CORRECT","","html-keyboard-response","39","141849","0.0-3.1-23.1-0.1","4976","List2A","white","woman","","","","null","","","","","","","","",""
"1088.1000000089407","<p>You got 8 out of 8 right first time. Press Continue.</p>","0","html-button-response","40","142939","0.0-3.1-25.1","4976","List2A","white","woman","","","","","","","","","","","","",""
"24511.70000000298","<p>In this experiment, you will view photographs of the people from the memory game interacting.</p><p>By using the <strong>exact</strong> phrase given <i>after</i> the photograph appears and recalling the correct names of the people in the photographs, form a sentence describing the interaction. You do not need to capitalise names.</p><p>Type your answer in the space provided. Please complete every sentence before moving onto the next trial.</p><p>You will only have a few seconds to memorise each given photograph and phrase before you can respond, so try your best to focus.</p><p>An example is given below. Press 'Continue' when you are ready.</p><img src='img/speaking_example.jpg' style='width:800px;height:460px;''></img>","0","html-button-response","41","168456","0.0-4.0","4976","List2A","white","woman","","","","","","","","","","","","",""
"1988.8999999910593","<p>Before the experiment starts, you will watch two example trials. Press 'Continue'.</p>","0","html-button-response","42","171449","0.0-5.0","4976","List2A","white","woman","","","","","","","","","","","","",""
"null","<img src='img/play_eg.gif' style='height:400px;''></img>","","html-keyboard-response","43","174455","0.0-6.0","4976","List2A","white","woman","","","","null","","","","","","","","",""
"null","<p>is playing with</p>","","html-keyboard-response","44","176459","0.0-7.0","4976","List2A","white","woman","","","","null","","","","","","","","",""
"2302.2999999970198","<p><b>Answer:</b> jane is playing with ruth</p>","0","html-button-response","45","178763","0.0-8.0","4976","List2A","white","woman","","","","","","","","","","","","",""
"null","<img src='img/dance_eg.gif' style='height:400px;''></img>","","html-keyboard-response","46","181766","0.0-9.0","4976","List2A","white","woman","","","","null","","","","","","","","",""
"null","<p>is being entertained by</p>","","html-keyboard-response","47","183769","0.0-10.0","4976","List2A","white","woman","","","","null","","","","","","","","",""
"1307.5","<p><b>Answer:</b> fred is being entertained by mike</p>","0","html-button-response","48","185078","0.0-11.0","4976","List2A","white","woman","","","","","","","","","","","","",""
"8571.5","<p>Ready to start the experiment?</p><br><p><strong>Remember to describe the picture using a full sentence,</strong></p><p><strong>that combines the names of the people with the <i>exact</i> phrase given.</strong></p><p><strong>To receive full payment you must do this correctly.</strong></p><p><strong> You do not need to capitalise names or use punctuation.</strong></p><br><p>Press 'Continue' to begin.</p>","0","html-button-response","49","194655","0.0-12.0","4976","List2A","white","woman","","","","","","","","","","","","",""
"null","<div style=""font-size:60px;"">+</div>","","html-keyboard-response","50","196158","0.0-13.0-0.0","4976","List2A","white","woman","","","","null","","","","","","","","",""
"null","<img src=""stim_listA/copy2.gif""style=""height:400px;""></stim_listA>","","html-keyboard-response","51","198160","0.0-13.0-1.0","4976","List2A","white","woman","","","","null","","","","","","","","",""
"null","is being copied by","","html-keyboard-response","52","200163","0.0-13.0-2.0","4976","List2A","white","woman","","","","null","","","","","","","","",""
"7141.9000000059605","","","survey-text","53","207311","0.0-13.0-3.0","4976","List2A","white","woman","","","","","{""Q0"":""luke is being copied by jane""}","<img src=""stim_listA/copy2.gif""style=""height:400px;""></stim_listA>","is being copied by","","","","","",""
"null","<div style=""font-size:60px;"">+</div>","","html-keyboard-response","54","207814","0.0-13.0-0.1","4976","List2A","white","woman","","","","null","","","","","","","","",""
"null","<img src=""stim_listA/touch3.gif""style=""height:400px;""></stim_listA>","","html-keyboard-response","55","209820","0.0-13.0-1.1","4976","List2A","white","woman","","","","null","","","","","","","","",""
"null","is touching","","html-keyboard-response","56","211823","0.0-13.0-2.1","4976","List2A","white","woman","","","","null","","","","","","","","",""
"6219.399999991059","","","survey-text","57","218046","0.0-13.0-3.1","4976","List2A","white","woman","","","","","{""Q0"":""kate is touching mike""}","<img src=""stim_listA/touch3.gif""style=""height:400px;""></stim_listA>","is touching","","","","","",""
"null","<div style=""font-size:60px;"">+</div>","","html-keyboard-response","58","218548","0.0-13.0-0.2","4976","List2A","white","woman","","","","null","","","","","","","","",""
"null","<img src=""stim_listA/shout8.gif""style=""height:400px;""></stim_listA>","","html-keyboard-response","59","220552","0.0-13.0-1.2","4976","List2A","white","woman","","","","null","","","","","","","","",""
"null","is being shouted at by","","html-keyboard-response","60","222553","0.0-13.0-2.2","4976","List2A","white","woman","","","","null","","","","","","","","",""
"8221.29999999702","","","survey-text","61","230780","0.0-13.0-3.2","4976","List2A","white","woman","","","","","{""Q0"":""kate is being shouted at by jane""}","<img src=""stim_listA/shout8.gif""style=""height:400px;""></stim_listA>","is being shouted at by","","","","","",""
"null","<div style=""font-size:60px;"">+</div>","","html-keyboard-response","62","231282","0.0-13.0-0.3","4976","List2A","white","woman","","","","null","","","","","","","","",""
"null","<img src=""stim_listA/kiss7.gif""style=""height:400px;""></stim_listA>","","html-keyboard-response","63","233288","0.0-13.0-1.3","4976","List2A","white","woman","","","","null","","","","","","","","",""
"null","is kissing","","html-keyboard-response","64","235291","0.0-13.0-2.3","4976","List2A","white","woman","","","","null","","","","","","","","",""
"19850.80000001192","","","survey-text","65","255147","0.0-13.0-3.3","4976","List2A","white","woman","","","","","{""Q0"":""beth is kissing jane""}","<img src=""stim_listA/kiss7.gif""style=""height:400px;""></stim_listA>","is kissing","","","","","",""
"null","<div style=""font-size:60px;"">+</div>","","html-keyboard-response","66","255648","0.0-13.0-0.4","4976","List2A","white","woman","","","","null","","","","","","","","",""
"null","<img src=""stim_listA/shout2.gif""style=""height:400px;""></stim_listA>","","html-keyboard-response","67","257652","0.0-13.0-1.4","4976","List2A","white","woman","","","","null","","","","","","","","",""
"null","is being shouted at by","","html-keyboard-response","68","259657","0.0-13.0-2.4","4976","List2A","white","woman","","","","null","","","","","","","","",""
"6575.5","","","survey-text","69","266238","0.0-13.0-3.4","4976","List2A","white","woman","","","","","{""Q0"":""jane is being shouted at by fred""}","<img src=""stim_listA/shout2.gif""style=""height:400px;""></stim_listA>","is being shouted at by","","","","","",""
"null","<div style=""font-size:60px;"">+</div>","","html-keyboard-response","70","266739","0.0-13.0-0.5","4976","List2A","white","woman","","","","null","","","","","","","","",""
"null","<img src=""stim_listA/copy8.gif""style=""height:400px;""></stim_listA>","","html-keyboard-response","71","268741","0.0-13.0-1.5","4976","List2A","white","woman","","","","null","","","","","","","","",""
"null","is being copied by","","html-keyboard-response","72","270745","0.0-13.0-2.5","4976","List2A","white","woman","","","","null","","","","","","","","",""
"9815.5","","","survey-text","73","280565","0.0-13.0-3.5","4976","List2A","white","woman","","","","","{""Q0"":""kate is being copied by ruth""}","<img src=""stim_listA/copy8.gif""style=""height:400px;""></stim_listA>","is being copied by","","","","","",""
"null","<div style=""font-size:60px;"">+</div>","","html-keyboard-response","74","281067","0.0-13.0-0.6","4976","List2A","white","woman","","","","null","","","","","","","","",""
"null","<img src=""stim_listA/greet2.gif""style=""height:400px;""></stim_listA>","","html-keyboard-response","75","283072","0.0-13.0-1.6","4976","List2A","white","woman","","","","null","","","","","","","","",""
"null","is being greeted by","","html-keyboard-response","76","285074","0.0-13.0-2.6","4976","List2A","white","woman","","","","null","","","","","","","","",""
"7342.300000011921","","","survey-text","77","292420","0.0-13.0-3.6","4976","List2A","white","woman","","","","","{""Q0"":""jane is being greeted by luke""}","<img src=""stim_listA/greet2.gif""style=""height:400px;""></stim_listA>","is being greeted by","","","","","",""
"null","<div style=""font-size:60px;"">+</div>","","html-keyboard-response","78","292923","0.0-13.0-0.7","4976","List2A","white","woman","","","","null","","","","","","","","",""
"null","<img src=""stim_listA/hug1.gif""style=""height:400px;""></stim_listA>","","html-keyboard-response","79","294930","0.0-13.0-1.7","4976","List2A","white","woman","","","","null","","","","","","","","",""
"null","is hugging","","html-keyboard-response","80","296933","0.0-13.0-2.7","4976","List2A","white","woman","","","","null","","","","","","","","",""
"6892.5999999940395","","","survey-text","81","303830","0.0-13.0-3.7","4976","List2A","white","woman","","","","","{""Q0"":""beth is hugging luke""}","<img src=""stim_listA/hug1.gif""style=""height:400px;""></stim_listA>","is hugging","","","","","",""
"null","<div style=""font-size:60px;"">+</div>","","html-keyboard-response","82","304332","0.0-13.0-0.8","4976","List2A","white","woman","","","","null","","","","","","","","",""
"null","<img src=""stim_listA/greet6.gif""style=""height:400px;""></stim_listA>","","html-keyboard-response","83","306335","0.0-13.0-1.8","4976","List2A","white","woman","","","","null","","","","","","","","",""
"null","is being greeted by","","html-keyboard-response","84","308340","0.0-13.0-2.8","4976","List2A","white","woman","","","","null","","","","","","","","",""
"5131","","","survey-text","85","313475","0.0-13.0-3.8","4976","List2A","white","woman","","","","","{""Q0"":""luke is being greeted by mike""}","<img src=""stim_listA/greet6.gif""style=""height:400px;""></stim_listA>","is being greeted by","","","","","",""
"null","<div style=""font-size:60px;"">+</div>","","html-keyboard-response","86","313976","0.0-13.0-0.9","4976","List2A","white","woman","","","","null","","","","","","","","",""
"null","<img src=""stim_listA/greet8.gif""style=""height:400px;""></stim_listA>","","html-keyboard-response","87","315979","0.0-13.0-1.9","4976","List2A","white","woman","","","","null","","","","","","","","",""
"null","is being greeted by","","html-keyboard-response","88","317980","0.0-13.0-2.9","4976","List2A","white","woman","","","","null","","","","","","","","",""
"5304.0999999940395","","","survey-text","89","323289","0.0-13.0-3.9","4976","List2A","white","woman","","","","","{""Q0"":""kate is being greeted by ruth""}","<img src=""stim_listA/greet8.gif""style=""height:400px;""></stim_listA>","is being greeted by","","","","","",""
"null","<div style=""font-size:60px;"">+</div>","","html-keyboard-response","90","323793","0.0-13.0-0.10","4976","List2A","white","woman","","","","null","","","","","","","","",""
"null","<img src=""stim_listA/kiss1.gif""style=""height:400px;""></stim_listA>","","html-keyboard-response","91","325799","0.0-13.0-1.10","4976","List2A","white","woman","","","","null","","","","","","","","",""
"null","is kissing","","html-keyboard-response","92","327803","0.0-13.0-2.10","4976","List2A","white","woman","","","","null","","","","","","","","",""
"4908.199999988079","","","survey-text","93","332716","0.0-13.0-3.10","4976","List2A","white","woman","","","","","{""Q0"":""mike is kissing ruth""}","<img src=""stim_listA/kiss1.gif""style=""height:400px;""></stim_listA>","is kissing","","","","","",""
"null","<div style=""font-size:60px;"">+</div>","","html-keyboard-response","94","333218","0.0-13.0-0.11","4976","List2A","white","woman","","","","null","","","","","","","","",""
"null","<img src=""stim_listA/copy4.gif""style=""height:400px;""></stim_listA>","","html-keyboard-response","95","335222","0.0-13.0-1.11","4976","List2A","white","woman","","","","null","","","","","","","","",""
"null","is being copied by","","html-keyboard-response","96","337225","0.0-13.0-2.11","4976","List2A","white","woman","","","","null","","","","","","","","",""
"4743.70000000298","","","survey-text","97","341972","0.0-13.0-3.11","4976","List2A","white","woman","","","","","{""Q0"":""kate is being copied by fred""}","<img src=""stim_listA/copy4.gif""style=""height:400px;""></stim_listA>","is being copied by","","","","","",""
"null","<div style=""font-size:60px;"">+</div>","","html-keyboard-response","98","342474","0.0-13.0-0.12","4976","List2A","white","woman","","","","null","","","","","","","","",""
"null","<img src=""stim_listA/oppose5.gif""style=""height:400px;""></stim_listA>","","html-keyboard-response","99","344477","0.0-13.0-1.12","4976","List2A","white","woman","","","","null","","","","","","","","",""
"null","is opposing","","html-keyboard-response","100","346484","0.0-13.0-2.12","4976","List2A","white","woman","","","","null","","","","","","","","",""
"5855","","","survey-text","101","352344","0.0-13.0-3.12","4976","List2A","white","woman","","","","","{""Q0"":""mike is opposing fred""}","<img src=""stim_listA/oppose5.gif""style=""height:400px;""></stim_listA>","is opposing","","","","","",""
"null","<div style=""font-size:60px;"">+</div>","","html-keyboard-response","102","352846","0.0-13.0-0.13","4976","List2A","white","woman","","","","null","","","","","","","","",""
"null","<img src=""stim_listA/hug4.gif""style=""height:400px;""></stim_listA>","","html-keyboard-response","103","354849","0.0-13.0-1.13","4976","List2A","white","woman","","","","null","","","","","","","","",""
"null","is being hugged by","","html-keyboard-response","104","356851","0.0-13.0-2.13","4976","List2A","white","woman","","","","null","","","","","","","","",""
"4807.5","","","survey-text","105","361662","0.0-13.0-3.13","4976","List2A","white","woman","","","","","{""Q0"":""kate is being hugged by mike""}","<img src=""stim_listA/hug4.gif""style=""height:400px;""></stim_listA>","is being hugged by","","","","","",""
"null","<div style=""font-size:60px;"">+</div>","","html-keyboard-response","106","362164","0.0-13.0-0.14","4976","List2A","white","woman","","","","null","","","","","","","","",""
"null","<img src=""stim_listA/hug5.gif""style=""height:400px;""></stim_listA>","","html-keyboard-response","107","364167","0.0-13.0-1.14","4976","List2A","white","woman","","","","null","","","","","","","","",""
"null","is hugging","","html-keyboard-response","108","366170","0.0-13.0-2.14","4976","List2A","white","woman","","","","null","","","","","","","","",""
"12776.800000011921","","","survey-text","109","378952","0.0-13.0-3.14","4976","List2A","white","woman","","","","","{""Q0"":""luke is hugging fred""}","<img src=""stim_listA/hug5.gif""style=""height:400px;""></stim_listA>","is hugging","","","","","",""
"null","<div style=""font-size:60px;"">+</div>","","html-keyboard-response","110","379454","0.0-13.0-0.15","4976","List2A","white","woman","","","","null","","","","","","","","",""
"null","<img src=""stim_listA/shout7.gif""style=""height:400px;""></stim_listA>","","html-keyboard-response","111","381457","0.0-13.0-1.15","4976","List2A","white","woman","","","","null","","","","","","","","",""
"null","is shouting at","","html-keyboard-response","112","383459","0.0-13.0-2.15","4976","List2A","white","woman","","","","null","","","","","","","","",""
"5060","","","survey-text","113","388523","0.0-13.0-3.15","4976","List2A","white","woman","","","","","{""Q0"":""ruth is shouting at beth""}","<img src=""stim_listA/shout7.gif""style=""height:400px;""></stim_listA>","is shouting at","","","","","",""
"null","<div style=""font-size:60px;"">+</div>","","html-keyboard-response","114","389027","0.0-13.0-0.16","4976","List2A","white","woman","","","","null","","","","","","","","",""
"null","<img src=""stim_listA/kiss2.gif""style=""height:400px;""></stim_listA>","","html-keyboard-response","115","391033","0.0-13.0-1.16","4976","List2A","white","woman","","","","null","","","","","","","","",""
"null","is being kissed by","","html-keyboard-response","116","393038","0.0-13.0-2.16","4976","List2A","white","woman","","","","null","","","","","","","","",""
"9142.29999999702","","","survey-text","117","402185","0.0-13.0-3.16","4976","List2A","white","woman","","","","","{""Q0"":""jane is being kissed by fred""}","<img src=""stim_listA/kiss2.gif""style=""height:400px;""></stim_listA>","is being kissed by","","","","","",""
"null","<div style=""font-size:60px;"">+</div>","","html-keyboard-response","118","402687","0.0-13.0-0.17","4976","List2A","white","woman","","","","null","","","","","","","","",""
"null","<img src=""stim_listA/greet4.gif""style=""height:400px;""></stim_listA>","","html-keyboard-response","119","404693","0.0-13.0-1.17","4976","List2A","white","woman","","","","null","","","","","","","","",""
"null","is being greeted by","","html-keyboard-response","120","406696","0.0-13.0-2.17","4976","List2A","white","woman","","","","null","","","","","","","","",""
"9751.59999999404","","","survey-text","121","416453","0.0-13.0-3.17","4976","List2A","white","woman","","","","","{""Q0"":""kate is being greeted by fred""}","<img src=""stim_listA/greet4.gif""style=""height:400px;""></stim_listA>","is being greeted by","","","","","",""
"null","<div style=""font-size:60px;"">+</div>","","html-keyboard-response","122","416954","0.0-13.0-0.18","4976","List2A","white","woman","","","","null","","","","","","","","",""
"null","<img src=""stim_listA/look7.gif""style=""height:400px;""></stim_listA>","","html-keyboard-response","123","418957","0.0-13.0-1.18","4976","List2A","white","woman","","","","null","","","","","","","","",""
"null","is looking at","","html-keyboard-response","124","420962","0.0-13.0-2.18","4976","List2A","white","woman","","","","null","","","","","","","","",""
"6809.9000000059605","","","survey-text","125","427776","0.0-13.0-3.18","4976","List2A","white","woman","","","","","{""Q0"":""ruth is looking at beth""}","<img src=""stim_listA/look7.gif""style=""height:400px;""></stim_listA>","is looking at","","","","","",""
"null","<div style=""font-size:60px;"">+</div>","","html-keyboard-response","126","428280","0.0-13.0-0.19","4976","List2A","white","woman","","","","null","","","","","","","","",""
"null","<img src=""stim_listA/challenge8.gif""style=""height:400px;""></stim_listA>","","html-keyboard-response","127","430282","0.0-13.0-1.19","4976","List2A","white","woman","","","","null","","","","","","","","",""
"null","is being challenged by","","html-keyboard-response","128","432286","0.0-13.0-2.19","4976","List2A","white","woman","","","","null","","","","","","","","",""
"7266.70000000298","","","survey-text","129","439558","0.0-13.0-3.19","4976","List2A","white","woman","","","","","{""Q0"":""ruth is being challenged by kate""}","<img src=""stim_listA/challenge8.gif""style=""height:400px;""></stim_listA>","is being challenged by","","","","","",""
"15804.59999999404","<img src='img/portrait_matrix_list2.jpg' style='width:900px;height:500px;''></img><p>If you have memorised all the portraits and names and are ready to start, press Continue.</p><p><strong>Please note: Your memory of these faces will be tested 4 times during this experiment.</strong></p>","0","html-button-response","130","455364","0.0-14.0-0.0","4976","List2A","white","woman","","","","","","","","","","","","",""
"5303.4000000059605","<img src=""portrait/WM1.jpg""style=""height:400px;""></img>","6","html-button-response","131","461671","0.0-14.0-1.0","4976","List2A","white","woman","","true","6","","","","","","","","","",""
"null","CORRECT","","html-keyboard-response","132","463180","0.0-14.0-2.0-0.0","4976","List2A","white","woman","","","","null","","","","","","","","",""
"1719.699999988079","<img src=""portrait/BW2.jpg""style=""height:400px;""></img>","2","html-button-response","133","464901","0.0-14.0-4.0","4976","List2A","white","woman","","true","2","","","","","","","","","",""
"null","CORRECT","","html-keyboard-response","134","466408","0.0-14.0-5.0-0.0","4976","List2A","white","woman","","","","null","","","","","","","","",""
"1702.5","<img src=""portrait/BW1.jpg""style=""height:400px;""></img>","0","html-button-response","135","468112","0.0-14.0-7.0","4976","List2A","white","woman","","true","0","","","","","","","","","",""
"null","CORRECT","","html-keyboard-response","136","469619","0.0-14.0-8.0-0.0","4976","List2A","white","woman","","","","null","","","","","","","","",""
"1851.8999999910593","<img src=""portrait/WW1.jpg""style=""height:400px;""></img>","1","html-button-response","137","471472","0.0-14.0-10.0","4976","List2A","white","woman","","true","1","","","","","","","","","",""
"null","CORRECT","","html-keyboard-response","138","472979","0.0-14.0-11.0-0.0","4976","List2A","white","woman","","","","null","","","","","","","","",""
"1513.2999999970198","<img src=""portrait/WW2.jpg""style=""height:400px;""></img>","3","html-button-response","139","474494","0.0-14.0-13.0","4976","List2A","white","woman","","true","3","","","","","","","","","",""
"null","CORRECT","","html-keyboard-response","140","475999","0.0-14.0-14.0-0.0","4976","List2A","white","woman","","","","null","","","","","","","","",""
"1733.7999999970198","<img src=""portrait/BM2.jpg""style=""height:400px;""></img>","5","html-button-response","141","477734","0.0-14.0-16.0","4976","List2A","white","woman","","true","5","","","","","","","","","",""
"null","CORRECT","","html-keyboard-response","142","479244","0.0-14.0-17.0-0.0","4976","List2A","white","woman","","","","null","","","","","","","","",""
"1764.800000011921","<img src=""portrait/BM1.jpg""style=""height:400px;""></img>","4","html-button-response","143","481010","0.0-14.0-19.0","4976","List2A","white","woman","","true","4","","","","","","","","","",""
"null","CORRECT","","html-keyboard-response","144","482518","0.0-14.0-20.0-0.0","4976","List2A","white","woman","","","","null","","","","","","","","",""
"2381.4000000059605","<img src=""portrait/WM2.jpg""style=""height:400px;""></img>","7","html-button-response","145","484901","0.0-14.0-22.0","4976","List2A","white","woman","","true","7","","","","","","","","","",""
"null","CORRECT","","html-keyboard-response","146","486407","0.0-14.0-23.0-0.0","4976","List2A","white","woman","","","","null","","","","","","","","",""
"1038.7000000029802","<p>You got 8 out of 8 right first time. Press Continue.</p>","0","html-button-response","147","487448","0.0-14.0-25.0","4976","List2A","white","woman","","","","","","","","","","","","",""
"null","<div style=""font-size:60px;"">+</div>","","html-keyboard-response","148","488956","0.0-15.0-0.0","4976","List2A","white","woman","","","","null","","","","","","","","",""
"null","<img src=""stim_listA/seduce3.gif""style=""height:400px;""></stim_listA>","","html-keyboard-response","149","490959","0.0-15.0-1.0","4976","List2A","white","woman","","","","null","","","","","","","","",""
"null","is seducing","","html-keyboard-response","150","492964","0.0-15.0-2.0","4976","List2A","white","woman","","","","null","","","","","","","","",""
"4971.5","","","survey-text","151","497940","0.0-15.0-3.0","4976","List2A","white","woman","","","","","{""Q0"":""kate is seducing fred""}","<img src=""stim_listA/seduce3.gif""style=""height:400px;""></stim_listA>","is seducing","","","","","",""
"null","<div style=""font-size:60px;"">+</div>","","html-keyboard-response","152","498442","0.0-15.0-0.1","4976","List2A","white","woman","","","","null","","","","","","","","",""
"null","<img src=""stim_listA/shout6.gif""style=""height:400px;""></stim_listA>","","html-keyboard-response","153","500445","0.0-15.0-1.1","4976","List2A","white","woman","","","","null","","","","","","","","",""
"null","is being shouted at by","","html-keyboard-response","154","502449","0.0-15.0-2.1","4976","List2A","white","woman","","","","null","","","","","","","","",""
"5975.899999991059","","","survey-text","155","508430","0.0-15.0-3.1","4976","List2A","white","woman","","","","","{""Q0"":""mike is being shouted at by dave""}","<img src=""stim_listA/shout6.gif""style=""height:400px;""></stim_listA>","is being shouted at by","","","","","",""
"null","<div style=""font-size:60px;"">+</div>","","html-keyboard-response","156","508932","0.0-15.0-0.2","4976","List2A","white","woman","","","","null","","","","","","","","",""
"null","<img src=""stim_listA/seduce8.gif""style=""height:400px;""></stim_listA>","","html-keyboard-response","157","510935","0.0-15.0-1.2","4976","List2A","white","woman","","","","null","","","","","","","","",""
"null","is being seduced by","","html-keyboard-response","158","512938","0.0-15.0-2.2","4976","List2A","white","woman","","","","null","","","","","","","","",""
"11483.09999999404","","","survey-text","159","524426","0.0-15.0-3.2","4976","List2A","white","woman","","","","","{""Q0"":""beth is being seduced by jane""}","<img src=""stim_listA/seduce8.gif""style=""height:400px;""></stim_listA>","is being seduced by","","","","","",""
"null","<div style=""font-size:60px;"">+</div>","","html-keyboard-response","160","524928","0.0-15.0-0.3","4976","List2A","white","woman","","","","null","","","","","","","","",""
"null","<img src=""stim_listA/seduce2.gif""style=""height:400px;""></stim_listA>","","html-keyboard-response","161","526931","0.0-15.0-1.3","4976","List2A","white","woman","","","","null","","","","","","","","",""
"null","is being seduced by","","html-keyboard-response","162","528936","0.0-15.0-2.3","4976","List2A","white","woman","","","","null","","","","","","","","",""
"5307.5","","","survey-text","163","534249","0.0-15.0-3.3","4976","List2A","white","woman","","","","","{""Q0"":""ruth is being seduced by dave""}","<img src=""stim_listA/seduce2.gif""style=""height:400px;""></stim_listA>","is being seduced by","","","","","",""
"null","<div style=""font-size:60px;"">+</div>","","html-keyboard-response","164","534751","0.0-15.0-0.4","4976","List2A","white","woman","","","","null","","","","","","","","",""
"null","<img src=""stim_listA/look2.gif""style=""height:400px;""></stim_listA>","","html-keyboard-response","165","536756","0.0-15.0-1.4","4976","List2A","white","woman","","","","null","","","","","","","","",""
"null","is being looked at by","","html-keyboard-response","166","538760","0.0-15.0-2.4","4976","List2A","white","woman","","","","null","","","","","","","","",""
"4834.9000000059605","","","survey-text","167","543600","0.0-15.0-3.4","4976","List2A","white","woman","","","","","{""Q0"":""jane is being looked at by dave""}","<img src=""stim_listA/look2.gif""style=""height:400px;""></stim_listA>","is being looked at by","","","","","",""
"null","<div style=""font-size:60px;"">+</div>","","html-keyboard-response","168","544102","0.0-15.0-0.5","4976","List2A","white","woman","","","","null","","","","","","","","",""
"null","<img src=""stim_listA/challenge5.gif""style=""height:400px;""></stim_listA>","","html-keyboard-response","169","546109","0.0-15.0-1.5","4976","List2A","white","woman","","","","null","","","","","","","","",""
"null","is challenging","","html-keyboard-response","170","548112","0.0-15.0-2.5","4976","List2A","white","woman","","","","null","","","","","","","","",""
"4214.29999999702","","","survey-text","171","552331","0.0-15.0-3.5","4976","List2A","white","woman","","","","","{""Q0"":""dave is challenging fred""}","<img src=""stim_listA/challenge5.gif""style=""height:400px;""></stim_listA>","is challenging","","","","","",""
"null","<div style=""font-size:60px;"">+</div>","","html-keyboard-response","172","552833","0.0-15.0-0.6","4976","List2A","white","woman","","","","null","","","","","","","","",""
"null","<img src=""stim_listA/touch5.gif""style=""height:400px;""></stim_listA>","","html-keyboard-response","173","554840","0.0-15.0-1.6","4976","List2A","white","woman","","","","null","","","","","","","","",""
"null","is touching","","html-keyboard-response","174","556842","0.0-15.0-2.6","4976","List2A","white","woman","","","","null","","","","","","","","",""
"5884.0999999940395","","","survey-text","175","562732","0.0-15.0-3.6","4976","List2A","white","woman","","","","","{""Q0"":""dave is touching mike""}","<img src=""stim_listA/touch5.gif""style=""height:400px;""></stim_listA>","is touching","","","","","",""
"null","<div style=""font-size:60px;"">+</div>","","html-keyboard-response","176","563234","0.0-15.0-0.7","4976","List2A","white","woman","","","","null","","","","","","","","",""
"null","<img src=""stim_listA/shout4.gif""style=""height:400px;""></stim_listA>","","html-keyboard-response","177","565240","0.0-15.0-1.7","4976","List2A","white","woman","","","","null","","","","","","","","",""
"null","is being shouted at by","","html-keyboard-response","178","567246","0.0-15.0-2.7","4976","List2A","white","woman","","","","null","","","","","","","","",""
"4279.79999999702","","","survey-text","179","571530","0.0-15.0-3.7","4976","List2A","white","woman","","","","","{""Q0"":""kate is being shouted at by mike""}","<img src=""stim_listA/shout4.gif""style=""height:400px;""></stim_listA>","is being shouted at by","","","","","",""
"null","<div style=""font-size:60px;"">+</div>","","html-keyboard-response","180","572032","0.0-15.0-0.8","4976","List2A","white","woman","","","","null","","","","","","","","",""
"null","<img src=""stim_listA/greet3.gif""style=""height:400px;""></stim_listA>","","html-keyboard-response","181","574039","0.0-15.0-1.8","4976","List2A","white","woman","","","","null","","","","","","","","",""
"null","is greeting","","html-keyboard-response","182","576040","0.0-15.0-2.8","4976","List2A","white","woman","","","","null","","","","","","","","",""
"5930","","","survey-text","183","581976","0.0-15.0-3.8","4976","List2A","white","woman","","","","","{""Q0"":""beth is greeting mike""}","<img src=""stim_listA/greet3.gif""style=""height:400px;""></stim_listA>","is greeting","","","","","",""
"null","<div style=""font-size:60px;"">+</div>","","html-keyboard-response","184","582478","0.0-15.0-0.9","4976","List2A","white","woman","","","","null","","","","","","","","",""
"null","<img src=""stim_listA/hug6.gif""style=""height:400px;""></stim_listA>","","html-keyboard-response","185","584482","0.0-15.0-1.9","4976","List2A","white","woman","","","","null","","","","","","","","",""
"null","is being hugged by","","html-keyboard-response","186","586484","0.0-15.0-2.9","4976","List2A","white","woman","","","","null","","","","","","","","",""
"3885.5","","","survey-text","187","590375","0.0-15.0-3.9","4976","List2A","white","woman","","","","","{""Q0"":""mike is being hugged by dave""}","<img src=""stim_listA/hug6.gif""style=""height:400px;""></stim_listA>","is being hugged by","","","","","",""
"null","<div style=""font-size:60px;"">+</div>","","html-keyboard-response","188","590877","0.0-15.0-0.10","4976","List2A","white","woman","","","","null","","","","","","","","",""
"null","<img src=""stim_listA/challenge1.gif""style=""height:400px;""></stim_listA>","","html-keyboard-response","189","592881","0.0-15.0-1.10","4976","List2A","white","woman","","","","null","","","","","","","","",""
"null","is challenging","","html-keyboard-response","190","594887","0.0-15.0-2.10","4976","List2A","white","woman","","","","null","","","","","","","","",""
"5226.79999999702","","","survey-text","191","600120","0.0-15.0-3.10","4976","List2A","white","woman","","","","","{""Q0"":""ruth is challenging dave""}","<img src=""stim_listA/challenge1.gif""style=""height:400px;""></stim_listA>","is challenging","","","","","",""
"null","<div style=""font-size:60px;"">+</div>","","html-keyboard-response","192","600622","0.0-15.0-0.11","4976","List2A","white","woman","","","","null","","","","","","","","",""
"null","<img src=""stim_listA/seduce4.gif""style=""height:400px;""></stim_listA>","","html-keyboard-response","193","602625","0.0-15.0-1.11","4976","List2A","white","woman","","","","null","","","","","","","","",""
"null","is being seduced by","","html-keyboard-response","194","604631","0.0-15.0-2.11","4976","List2A","white","woman","","","","null","","","","","","","","",""
"7925.899999991059","","","survey-text","195","612562","0.0-15.0-3.11","4976","List2A","white","woman","","","","","{""Q0"":""beth is being seduced by mike""}","<img src=""stim_listA/seduce4.gif""style=""height:400px;""></stim_listA>","is being seduced by","","","","","",""
"null","<div style=""font-size:60px;"">+</div>","","html-keyboard-response","196","613065","0.0-15.0-0.12","4976","List2A","white","woman","","","","null","","","","","","","","",""
"null","<img src=""stim_listA/oppose8.gif""style=""height:400px;""></stim_listA>","","html-keyboard-response","197","615069","0.0-15.0-1.12","4976","List2A","white","woman","","","","null","","","","","","","","",""
"null","is being opposed by","","html-keyboard-response","198","617072","0.0-15.0-2.12","4976","List2A","white","woman","","","","null","","","","","","","","",""
"5793.0999999940395","","","survey-text","199","622870","0.0-15.0-3.12","4976","List2A","white","woman","","","","","{""Q0"":""beth is being opposed by ruth""}","<img src=""stim_listA/oppose8.gif""style=""height:400px;""></stim_listA>","is being opposed by","","","","","",""
"null","<div style=""font-size:60px;"">+</div>","","html-keyboard-response","200","623371","0.0-15.0-0.13","4976","List2A","white","woman","","","","null","","","","","","","","",""
"null","<img src=""stim_listA/oppose4.gif""style=""height:400px;""></stim_listA>","","html-keyboard-response","201","625373","0.0-15.0-1.13","4976","List2A","white","woman","","","","null","","","","","","","","",""
"null","is being opposed by","","html-keyboard-response","202","627375","0.0-15.0-2.13","4976","List2A","white","woman","","","","null","","","","","","","","",""
"3820.8999999910593","","","survey-text","203","631201","0.0-15.0-3.13","4976","List2A","white","woman","","","","","{""Q0"":""fred is being opposed by beth""}","<img src=""stim_listA/oppose4.gif""style=""height:400px;""></stim_listA>","is being opposed by","","","","","",""
"null","<div style=""font-size:60px;"">+</div>","","html-keyboard-response","204","631702","0.0-15.0-0.14","4976","List2A","white","woman","","","","null","","","","","","","","",""
"null","<img src=""stim_listA/touch1.gif""style=""height:400px;""></stim_listA>","","html-keyboard-response","205","633705","0.0-15.0-1.14","4976","List2A","white","woman","","","","null","","","","","","","","",""
"null","is touching","","html-keyboard-response","206","635707","0.0-15.0-2.14","4976","List2A","white","woman","","","","null","","","","","","","","",""
"2714.2999999970198","","","survey-text","207","638425","0.0-15.0-3.14","4976","List2A","white","woman","","","","","{""Q0"":""jane is touching dave""}","<img src=""stim_listA/touch1.gif""style=""height:400px;""></stim_listA>","is touching","","","","","",""
"null","<div style=""font-size:60px;"">+</div>","","html-keyboard-response","208","638926","0.0-15.0-0.15","4976","List2A","white","woman","","","","null","","","","","","","","",""
"null","<img src=""stim_listA/kiss6.gif""style=""height:400px;""></stim_listA>","","html-keyboard-response","209","640931","0.0-15.0-1.15","4976","List2A","white","woman","","","","null","","","","","","","","",""
"null","is being kissed by","","html-keyboard-response","210","642934","0.0-15.0-2.15","4976","List2A","white","woman","","","","null","","","","","","","","",""
"4003.9000000059605","","","survey-text","211","646943","0.0-15.0-3.15","4976","List2A","white","woman","","","","","{""Q0"":""mike is being kissed by dave""}","<img src=""stim_listA/kiss6.gif""style=""height:400px;""></stim_listA>","is being kissed by","","","","","",""
"null","<div style=""font-size:60px;"">+</div>","","html-keyboard-response","212","647444","0.0-15.0-0.16","4976","List2A","white","woman","","","","null","","","","","","","","",""
"null","<img src=""stim_listA/challenge6.gif""style=""height:400px;""></stim_listA>","","html-keyboard-response","213","649447","0.0-15.0-1.16","4976","List2A","white","woman","","","","null","","","","","","","","",""
"null","is being challenged by","","html-keyboard-response","214","651450","0.0-15.0-2.16","4976","List2A","white","woman","","","","null","","","","","","","","",""
"5490.600000008941","","","survey-text","215","656946","0.0-15.0-3.16","4976","List2A","white","woman","","","","","{""Q0"":""luke is being challenged by mike""}","<img src=""stim_listA/challenge6.gif""style=""height:400px;""></stim_listA>","is being challenged by","","","","","",""
"null","<div style=""font-size:60px;"">+</div>","","html-keyboard-response","216","657447","0.0-15.0-0.17","4976","List2A","white","woman","","","","null","","","","","","","","",""
"null","<img src=""stim_listA/look4.gif""style=""height:400px;""></stim_listA>","","html-keyboard-response","217","659453","0.0-15.0-1.17","4976","List2A","white","woman","","","","null","","","","","","","","",""
"null","is being looked at by","","html-keyboard-response","218","661459","0.0-15.0-2.17","4976","List2A","white","woman","","","","null","","","","","","","","",""
"6245.5","","","survey-text","219","667709","0.0-15.0-3.17","4976","List2A","white","woman","","","","","{""Q0"":""kate is being looked at by mike""}","<img src=""stim_listA/look4.gif""style=""height:400px;""></stim_listA>","is being looked at by","","","","","",""
"null","<div style=""font-size:60px;"">+</div>","","html-keyboard-response","220","668210","0.0-15.0-0.18","4976","List2A","white","woman","","","","null","","","","","","","","",""
"null","<img src=""stim_listA/look5.gif""style=""height:400px;""></stim_listA>","","html-keyboard-response","221","670212","0.0-15.0-1.18","4976","List2A","white","woman","","","","null","","","","","","","","",""
"null","is looking at","","html-keyboard-response","222","672216","0.0-15.0-2.18","4976","List2A","white","woman","","","","null","","","","","","","","",""
"3840.5","","","survey-text","223","676061","0.0-15.0-3.18","4976","List2A","white","woman","","","","","{""Q0"":""luke is looking at fred""}","<img src=""stim_listA/look5.gif""style=""height:400px;""></stim_listA>","is looking at","","","","","",""
"null","<div style=""font-size:60px;"">+</div>","","html-keyboard-response","224","676564","0.0-15.0-0.19","4976","List2A","white","woman","","","","null","","","","","","","","",""
"null","<img src=""stim_listA/oppose1.gif""style=""height:400px;""></stim_listA>","","html-keyboard-response","225","678567","0.0-15.0-1.19","4976","List2A","white","woman","","","","null","","","","","","","","",""
"null","is opposing","","html-keyboard-response","226","680570","0.0-15.0-2.19","4976","List2A","white","woman","","","","null","","","","","","","","",""
"3526.7999999970198","","","survey-text","227","684102","0.0-15.0-3.19","4976","List2A","white","woman","","","","","{""Q0"":""jane is opposing dave""}","<img src=""stim_listA/oppose1.gif""style=""height:400px;""></stim_listA>","is opposing","","","","","",""
"2115.5","<img src='img/portrait_matrix_list2.jpg' style='width:900px;height:500px;''></img><p>If you have memorised all the portraits and names and are ready to start, press Continue.</p><p><strong>Please note: Your memory of these faces will be tested 4 times during this experiment.</strong></p>","0","html-button-response","228","686219","0.0-16.0-0.0","4976","List2A","white","woman","","","","","","","","","","","","",""
"1449.2000000029802","<img src=""portrait/BW2.jpg""style=""height:400px;""></img>","2","html-button-response","229","688672","0.0-16.0-1.0","4976","List2A","white","woman","","true","2","","","","","","","","","",""
"null","CORRECT","","html-keyboard-response","230","690182","0.0-16.0-2.0-0.0","4976","List2A","white","woman","","","","null","","","","","","","","",""
"2044","<img src=""portrait/BM2.jpg""style=""height:400px;""></img>","5","html-button-response","231","692228","0.0-16.0-4.0","4976","List2A","white","woman","","true","5","","","","","","","","","",""
"null","CORRECT","","html-keyboard-response","232","693737","0.0-16.0-5.0-0.0","4976","List2A","white","woman","","","","null","","","","","","","","",""
"1652.7999999970198","<img src=""portrait/WM1.jpg""style=""height:400px;""></img>","6","html-button-response","233","695392","0.0-16.0-7.0","4976","List2A","white","woman","","true","6","","","","","","","","","",""
"null","CORRECT","","html-keyboard-response","234","696900","0.0-16.0-8.0-0.0","4976","List2A","white","woman","","","","null","","","","","","","","",""
"1697.6000000089407","<img src=""portrait/WW1.jpg""style=""height:400px;""></img>","1","html-button-response","235","698599","0.0-16.0-10.0","4976","List2A","white","woman","","true","1","","","","","","","","","",""
"null","CORRECT","","html-keyboard-response","236","700104","0.0-16.0-11.0-0.0","4976","List2A","white","woman","","","","null","","","","","","","","",""
"1696.2000000029802","<img src=""portrait/WM2.jpg""style=""height:400px;""></img>","7","html-button-response","237","701803","0.0-16.0-13.0","4976","List2A","white","woman","","true","7","","","","","","","","","",""
"null","CORRECT","","html-keyboard-response","238","703309","0.0-16.0-14.0-0.0","4976","List2A","white","woman","","","","null","","","","","","","","",""
"2341.5999999940395","<img src=""portrait/BM1.jpg""style=""height:400px;""></img>","4","html-button-response","239","705652","0.0-16.0-16.0","4976","List2A","white","woman","","true","4","","","","","","","","","",""
"null","CORRECT","","html-keyboard-response","240","707157","0.0-16.0-17.0-0.0","4976","List2A","white","woman","","","","null","","","","","","","","",""
"1669.5","<img src=""portrait/WW2.jpg""style=""height:400px;""></img>","3","html-button-response","241","708829","0.0-16.0-19.0","4976","List2A","white","woman","","true","3","","","","","","","","","",""
"null","CORRECT","","html-keyboard-response","242","710338","0.0-16.0-20.0-0.0","4976","List2A","white","woman","","","","null","","","","","","","","",""
"1483","<img src=""portrait/BW1.jpg""style=""height:400px;""></img>","0","html-button-response","243","711823","0.0-16.0-22.0","4976","List2A","white","woman","","true","0","","","","","","","","","",""
"null","CORRECT","","html-keyboard-response","244","713331","0.0-16.0-23.0-0.0","4976","List2A","white","woman","","","","null","","","","","","","","",""
"1033.2000000029802","<p>You got 8 out of 8 right first time. Press Continue.</p>","0","html-button-response","245","714366","0.0-16.0-25.0","4976","List2A","white","woman","","","","","","","","","","","","",""
"null","<div style=""font-size:60px;"">+</div>","","html-keyboard-response","246","715877","0.0-17.0-0.0","4976","List2A","white","woman","","","","null","","","","","","","","",""
"null","<img src=""stim_listA/oppose2.gif""style=""height:400px;""></stim_listA>","","html-keyboard-response","247","717880","0.0-17.0-1.0","4976","List2A","white","woman","","","","null","","","","","","","","",""
"null","is being opposed by","","html-keyboard-response","248","719883","0.0-17.0-2.0","4976","List2A","white","woman","","","","null","","","","","","","","",""
"6459.899999991059","","","survey-text","249","726348","0.0-17.0-3.0","4976","List2A","white","woman","","","","","{""Q0"":""luke is being opposed by ruth""}","<img src=""stim_listA/oppose2.gif""style=""height:400px;""></stim_listA>","is being opposed by","","","","","",""
"null","<div style=""font-size:60px;"">+</div>","","html-keyboard-response","250","726849","0.0-17.0-0.1","4976","List2A","white","woman","","","","null","","","","","","","","",""
"null","<img src=""stim_listA/seduce7.gif""style=""height:400px;""></stim_listA>","","html-keyboard-response","251","728852","0.0-17.0-1.1","4976","List2A","white","woman","","","","null","","","","","","","","",""
"null","is seducing","","html-keyboard-response","252","730855","0.0-17.0-2.1","4976","List2A","white","woman","","","","null","","","","","","","","",""
"6167.9000000059605","","","survey-text","253","737027","0.0-17.0-3.1","4976","List2A","white","woman","","","","","{""Q0"":""ruth is seducing kate""}","<img src=""stim_listA/seduce7.gif""style=""height:400px;""></stim_listA>","is seducing","","","","","",""
"null","<div style=""font-size:60px;"">+</div>","","html-keyboard-response","254","737529","0.0-17.0-0.2","4976","List2A","white","woman","","","","null","","","","","","","","",""
"null","<img src=""stim_listA/seduce5.gif""style=""height:400px;""></stim_listA>","","html-keyboard-response","255","739535","0.0-17.0-1.2","4976","List2A","white","woman","","","","null","","","","","","","","",""
"null","is seducing","","html-keyboard-response","256","741537","0.0-17.0-2.2","4976","List2A","white","woman","","","","null","","","","","","","","",""
"4024.2000000029802","","","survey-text","257","745567","0.0-17.0-3.2","4976","List2A","white","woman","","","","","{""Q0"":""mike is seducing luke""}","<img src=""stim_listA/seduce5.gif""style=""height:400px;""></stim_listA>","is seducing","","","","","",""
"null","<div style=""font-size:60px;"">+</div>","","html-keyboard-response","258","746069","0.0-17.0-0.3","4976","List2A","white","woman","","","","null","","","","","","","","",""
"null","<img src=""stim_listA/touch2.gif""style=""height:400px;""></stim_listA>","","html-keyboard-response","259","748073","0.0-17.0-1.3","4976","List2A","white","woman","","","","null","","","","","","","","",""
"null","is being touched by","","html-keyboard-response","260","750079","0.0-17.0-2.3","4976","List2A","white","woman","","","","null","","","","","","","","",""
"6183.699999988079","","","survey-text","261","756267","0.0-17.0-3.3","4976","List2A","white","woman","","","","","{""Q0"":""luke is being touched by ruth""}","<img src=""stim_listA/touch2.gif""style=""height:400px;""></stim_listA>","is being touched by","","","","","",""
"null","<div style=""font-size:60px;"">+</div>","","html-keyboard-response","262","756769","0.0-17.0-0.4","4976","List2A","white","woman","","","","null","","","","","","","","",""
"null","<img src=""stim_listA/shout1.gif""style=""height:400px;""></stim_listA>","","html-keyboard-response","263","758772","0.0-17.0-1.4","4976","List2A","white","woman","","","","null","","","","","","","","",""
"null","is shouting at","","html-keyboard-response","264","760777","0.0-17.0-2.4","4976","List2A","white","woman","","","","null","","","","","","","","",""
"5069.4000000059605","","","survey-text","265","765851","0.0-17.0-3.4","4976","List2A","white","woman","","","","","{""Q0"":""ruth is shouting at luke""}","<img src=""stim_listA/shout1.gif""style=""height:400px;""></stim_listA>","is shouting at","","","","","",""
"null","<div style=""font-size:60px;"">+</div>","","html-keyboard-response","266","766353","0.0-17.0-0.5","4976","List2A","white","woman","","","","null","","","","","","","","",""
"null","<img src=""stim_listA/touch8.gif""style=""height:400px;""></stim_listA>","","html-keyboard-response","267","768359","0.0-17.0-1.5","4976","List2A","white","woman","","","","null","","","","","","","","",""
"null","is being touched by","","html-keyboard-response","268","770365","0.0-17.0-2.5","4976","List2A","white","woman","","","","null","","","","","","","","",""
"3993.2999999970198","","","survey-text","269","774363","0.0-17.0-3.5","4976","List2A","white","woman","","","","","{""Q0"":""beth is being touched by ruth""}","<img src=""stim_listA/touch8.gif""style=""height:400px;""></stim_listA>","is being touched by","","","","","",""
"null","<div style=""font-size:60px;"">+</div>","","html-keyboard-response","270","774865","0.0-17.0-0.6","4976","List2A","white","woman","","","","null","","","","","","","","",""
"null","<img src=""stim_listA/hug8.gif""style=""height:400px;""></stim_listA>","","html-keyboard-response","271","776870","0.0-17.0-1.6","4976","List2A","white","woman","","","","null","","","","","","","","",""
"null","is being hugged by","","html-keyboard-response","272","778876","0.0-17.0-2.6","4976","List2A","white","woman","","","","null","","","","","","","","",""
"5312.4000000059605","","","survey-text","273","784193","0.0-17.0-3.6","4976","List2A","white","woman","","","","","{""Q0"":""kate is being hugged by jane""}","<img src=""stim_listA/hug8.gif""style=""height:400px;""></stim_listA>","is being hugged by","","","","","",""
"null","<div style=""font-size:60px;"">+</div>","","html-keyboard-response","274","784694","0.0-17.0-0.7","4976","List2A","white","woman","","","","null","","","","","","","","",""
"null","<img src=""stim_listA/touch4.gif""style=""height:400px;""></stim_listA>","","html-keyboard-response","275","786701","0.0-17.0-1.7","4976","List2A","white","woman","","","","null","","","","","","","","",""
"null","is being touched by","","html-keyboard-response","276","788703","0.0-17.0-2.7","4976","List2A","white","woman","","","","null","","","","","","","","",""
"4229.5999999940395","","","survey-text","277","792938","0.0-17.0-3.7","4976","List2A","white","woman","","","","","{""Q0"":""fred is being touched by beth""}","<img src=""stim_listA/touch4.gif""style=""height:400px;""></stim_listA>","is being touched by","","","","","",""
"null","<div style=""font-size:60px;"">+</div>","","html-keyboard-response","278","793439","0.0-17.0-0.8","4976","List2A","white","woman","","","","null","","","","","","","","",""
"null","<img src=""stim_listA/shout3.gif""style=""height:400px;""></stim_listA>","","html-keyboard-response","279","795441","0.0-17.0-1.8","4976","List2A","white","woman","","","","null","","","","","","","","",""
"null","is shouting at","","html-keyboard-response","280","797442","0.0-17.0-2.8","4976","List2A","white","woman","","","","null","","","","","","","","",""
"6166.29999999702","","","survey-text","281","803614","0.0-17.0-3.8","4976","List2A","white","woman","","","","","{""Q0"":""beth is shouting at fred""}","<img src=""stim_listA/shout3.gif""style=""height:400px;""></stim_listA>","is shouting at","","","","","",""
"null","<div style=""font-size:60px;"">+</div>","","html-keyboard-response","282","804116","0.0-17.0-0.9","4976","List2A","white","woman","","","","null","","","","","","","","",""
"null","<img src=""stim_listA/touch6.gif""style=""height:400px;""></stim_listA>","","html-keyboard-response","283","806119","0.0-17.0-1.9","4976","List2A","white","woman","","","","null","","","","","","","","",""
"null","is being touched by","","html-keyboard-response","284","808122","0.0-17.0-2.9","4976","List2A","white","woman","","","","null","","","","","","","","",""
"3462.5999999940395","","","survey-text","285","811590","0.0-17.0-3.9","4976","List2A","white","woman","","","","","{""Q0"":""fred is being touched by luke""}","<img src=""stim_listA/touch6.gif""style=""height:400px;""></stim_listA>","is being touched by","","","","","",""
"null","<div style=""font-size:60px;"">+</div>","","html-keyboard-response","286","812092","0.0-17.0-0.10","4976","List2A","white","woman","","","","null","","","","","","","","",""
"null","<img src=""stim_listA/greet5.gif""style=""height:400px;""></stim_listA>","","html-keyboard-response","287","814096","0.0-17.0-1.10","4976","List2A","white","woman","","","","null","","","","","","","","",""
"null","is greeting","","html-keyboard-response","288","816098","0.0-17.0-2.10","4976","List2A","white","woman","","","","null","","","","","","","","",""
"3423.9000000059605","","","survey-text","289","819527","0.0-17.0-3.10","4976","List2A","white","woman","","","","","{""Q0"":""fred is greeting dave""}","<img src=""stim_listA/greet5.gif""style=""height:400px;""></stim_listA>","is greeting","","","","","",""
"null","<div style=""font-size:60px;"">+</div>","","html-keyboard-response","290","820028","0.0-17.0-0.11","4976","List2A","white","woman","","","","null","","","","","","","","",""
"null","<img src=""stim_listA/touch7.gif""style=""height:400px;""></stim_listA>","","html-keyboard-response","291","822031","0.0-17.0-1.11","4976","List2A","white","woman","","","","null","","","","","","","","",""
"null","is touching","","html-keyboard-response","292","824034","0.0-17.0-2.11","4976","List2A","white","woman","","","","null","","","","","","","","",""
"4195.5","","","survey-text","293","828235","0.0-17.0-3.11","4976","List2A","white","woman","","","","","{""Q0"":""jane is touching kate""}","<img src=""stim_listA/touch7.gif""style=""height:400px;""></stim_listA>","is touching","","","","","",""
"null","<div style=""font-size:60px;"">+</div>","","html-keyboard-response","294","828738","0.0-17.0-0.12","4976","List2A","white","woman","","","","null","","","","","","","","",""
"null","<img src=""stim_listA/oppose6.gif""style=""height:400px;""></stim_listA>","","html-keyboard-response","295","830745","0.0-17.0-1.12","4976","List2A","white","woman","","","","null","","","","","","","","",""
"null","is being opposed by","","html-keyboard-response","296","832748","0.0-17.0-2.12","4976","List2A","white","woman","","","","null","","","","","","","","",""
"10179.70000000298","","","survey-text","297","842933","0.0-17.0-3.12","4976","List2A","white","woman","","","","","{""Q0"":""luke is being opposed by fred""}","<img src=""stim_listA/oppose6.gif""style=""height:400px;""></stim_listA>","is being opposed by","","","","","",""
"null","<div style=""font-size:60px;"">+</div>","","html-keyboard-response","298","843434","0.0-17.0-0.13","4976","List2A","white","woman","","","","null","","","","","","","","",""
"null","<img src=""stim_listA/copy6.gif""style=""height:400px;""></stim_listA>","","html-keyboard-response","299","845437","0.0-17.0-1.13","4976","List2A","white","woman","","","","null","","","","","","","","",""
"null","is being copied by","","html-keyboard-response","300","847441","0.0-17.0-2.13","4976","List2A","white","woman","","","","null","","","","","","","","",""
"5503.600000008941","","","survey-text","301","852950","0.0-17.0-3.13","4976","List2A","white","woman","","","","","{""Q0"":""mike is being copied by luke""}","<img src=""stim_listA/copy6.gif""style=""height:400px;""></stim_listA>","is being copied by","","","","","",""
"null","<div style=""font-size:60px;"">+</div>","","html-keyboard-response","302","853451","0.0-17.0-0.14","4976","List2A","white","woman","","","","null","","","","","","","","",""
"null","<img src=""stim_listA/copy7.gif""style=""height:400px;""></stim_listA>","","html-keyboard-response","303","855454","0.0-17.0-1.14","4976","List2A","white","woman","","","","null","","","","","","","","",""
"null","is copying","","html-keyboard-response","304","857455","0.0-17.0-2.14","4976","List2A","white","woman","","","","null","","","","","","","","",""
"4729.4000000059605","","","survey-text","305","862189","0.0-17.0-3.14","4976","List2A","white","woman","","","","","{""Q0"":""jane is copying beth""}","<img src=""stim_listA/copy7.gif""style=""height:400px;""></stim_listA>","is copying","","","","","",""
"null","<div style=""font-size:60px;"">+</div>","","html-keyboard-response","306","862691","0.0-17.0-0.15","4976","List2A","white","woman","","","","null","","","","","","","","",""
"null","<img src=""stim_listA/look3.gif""style=""height:400px;""></stim_listA>","","html-keyboard-response","307","864694","0.0-17.0-1.15","4976","List2A","white","woman","","","","null","","","","","","","","",""
"null","is looking at","","html-keyboard-response","308","866697","0.0-17.0-2.15","4976","List2A","white","woman","","","","null","","","","","","","","",""
"4859.5","","","survey-text","309","871561","0.0-17.0-3.15","4976","List2A","white","woman","","","","","{""Q0"":""beth is looking at fred""}","<img src=""stim_listA/look3.gif""style=""height:400px;""></stim_listA>","is looking at","","","","","",""
"null","<div style=""font-size:60px;"">+</div>","","html-keyboard-response","310","872063","0.0-17.0-0.16","4976","List2A","white","woman","","","","null","","","","","","","","",""
"null","<img src=""stim_listA/copy5.gif""style=""height:400px;""></stim_listA>","","html-keyboard-response","311","874070","0.0-17.0-1.16","4976","List2A","white","woman","","","","null","","","","","","","","",""
"null","is copying","","html-keyboard-response","312","876075","0.0-17.0-2.16","4976","List2A","white","woman","","","","null","","","","","","","","",""
"4115.70000000298","","","survey-text","313","880196","0.0-17.0-3.16","4976","List2A","white","woman","","","","","{""Q0"":""dave is copying fred""}","<img src=""stim_listA/copy5.gif""style=""height:400px;""></stim_listA>","is copying","","","","","",""
"null","<div style=""font-size:60px;"">+</div>","","html-keyboard-response","314","880698","0.0-17.0-0.17","4976","List2A","white","woman","","","","null","","","","","","","","",""
"null","<img src=""stim_listA/look8.gif""style=""height:400px;""></stim_listA>","","html-keyboard-response","315","882702","0.0-17.0-1.17","4976","List2A","white","woman","","","","null","","","","","","","","",""
"null","is being looked at by","","html-keyboard-response","316","884705","0.0-17.0-2.17","4976","List2A","white","woman","","","","null","","","","","","","","",""
"4587.699999988079","","","survey-text","317","889297","0.0-17.0-3.17","4976","List2A","white","woman","","","","","{""Q0"":""jane is being looked at by kate""}","<img src=""stim_listA/look8.gif""style=""height:400px;""></stim_listA>","is being looked at by","","","","","",""
"null","<div style=""font-size:60px;"">+</div>","","html-keyboard-response","318","889799","0.0-17.0-0.18","4976","List2A","white","woman","","","","null","","","","","","","","",""
"null","<img src=""stim_listA/hug7.gif""style=""height:400px;""></stim_listA>","","html-keyboard-response","319","891805","0.0-17.0-1.18","4976","List2A","white","woman","","","","null","","","","","","","","",""
"null","is hugging","","html-keyboard-response","320","893811","0.0-17.0-2.18","4976","List2A","white","woman","","","","null","","","","","","","","",""
"2960.5999999940395","","","survey-text","321","896776","0.0-17.0-3.18","4976","List2A","white","woman","","","","","{""Q0"":""ruth is hugging beth""}","<img src=""stim_listA/hug7.gif""style=""height:400px;""></stim_listA>","is hugging","","","","","",""
"null","<div style=""font-size:60px;"">+</div>","","html-keyboard-response","322","897278","0.0-17.0-0.19","4976","List2A","white","woman","","","","null","","","","","","","","",""
"null","<img src=""stim_listA/kiss3.gif""style=""height:400px;""></stim_listA>","","html-keyboard-response","323","899282","0.0-17.0-1.19","4976","List2A","white","woman","","","","null","","","","","","","","",""
"null","is kissing","","html-keyboard-response","324","901285","0.0-17.0-2.19","4976","List2A","white","woman","","","","null","","","","","","","","",""
"4758.5","","","survey-text","325","906048","0.0-17.0-3.19","4976","List2A","white","woman","","","","","{""Q0"":""beth is kissing fred""}","<img src=""stim_listA/kiss3.gif""style=""height:400px;""></stim_listA>","is kissing","","","","","",""
"2087.2000000029802","<img src='img/portrait_matrix_list2.jpg' style='width:900px;height:500px;''></img><p>If you have memorised all the portraits and names and are ready to start, press Continue.</p><p><strong>Please note: Your memory of these faces will be tested 4 times during this experiment.</strong></p>","0","html-button-response","326","908137","0.0-18.0-0.0","4976","List2A","white","woman","","","","","","","","","","","","",""
"1694.7999999970198","<img src=""portrait/WM1.jpg""style=""height:400px;""></img>","6","html-button-response","327","910836","0.0-18.0-1.0","4976","List2A","white","woman","","true","6","","","","","","","","","",""
"null","CORRECT","","html-keyboard-response","328","912343","0.0-18.0-2.0-0.0","4976","List2A","white","woman","","","","null","","","","","","","","",""
"2015.9000000059605","<img src=""portrait/WM2.jpg""style=""height:400px;""></img>","7","html-button-response","329","914361","0.0-18.0-4.0","4976","List2A","white","woman","","true","7","","","","","","","","","",""
"null","CORRECT","","html-keyboard-response","330","915869","0.0-18.0-5.0-0.0","4976","List2A","white","woman","","","","null","","","","","","","","",""
"1518","<img src=""portrait/BW2.jpg""style=""height:400px;""></img>","2","html-button-response","331","917390","0.0-18.0-7.0","4976","List2A","white","woman","","true","2","","","","","","","","","",""
"null","CORRECT","","html-keyboard-response","332","918898","0.0-18.0-8.0-0.0","4976","List2A","white","woman","","","","null","","","","","","","","",""
"1411.7000000029802","<img src=""portrait/WW1.jpg""style=""height:400px;""></img>","1","html-button-response","333","920311","0.0-18.0-10.0","4976","List2A","white","woman","","true","1","","","","","","","","","",""
"null","CORRECT","","html-keyboard-response","334","921818","0.0-18.0-11.0-0.0","4976","List2A","white","woman","","","","null","","","","","","","","",""
"1738.8999999910593","<img src=""portrait/BM2.jpg""style=""height:400px;""></img>","5","html-button-response","335","923559","0.0-18.0-13.0","4976","List2A","white","woman","","true","5","","","","","","","","","",""
"null","CORRECT","","html-keyboard-response","336","925069","0.0-18.0-14.0-0.0","4976","List2A","white","woman","","","","null","","","","","","","","",""
"1916.2999999970198","<img src=""portrait/BM1.jpg""style=""height:400px;""></img>","4","html-button-response","337","926988","0.0-18.0-16.0","4976","List2A","white","woman","","true","4","","","","","","","","","",""
"null","CORRECT","","html-keyboard-response","338","928494","0.0-18.0-17.0-0.0","4976","List2A","white","woman","","","","null","","","","","","","","",""
"1981.2000000029802","<img src=""portrait/WW2.jpg""style=""height:400px;""></img>","3","html-button-response","339","930477","0.0-18.0-19.0","4976","List2A","white","woman","","true","3","","","","","","","","","",""
"null","CORRECT","","html-keyboard-response","340","931983","0.0-18.0-20.0-0.0","4976","List2A","white","woman","","","","null","","","","","","","","",""
"1349.300000011921","<img src=""portrait/BW1.jpg""style=""height:400px;""></img>","0","html-button-response","341","933334","0.0-18.0-22.0","4976","List2A","white","woman","","true","0","","","","","","","","","",""
"null","CORRECT","","html-keyboard-response","342","934845","0.0-18.0-23.0-0.0","4976","List2A","white","woman","","","","null","","","","","","","","",""
"1161.5","<p>You got 8 out of 8 right first time. Press Continue.</p>","0","html-button-response","343","936010","0.0-18.0-25.0","4976","List2A","white","woman","","","","","","","","","","","","",""
"null","<div style=""font-size:60px;"">+</div>","","html-keyboard-response","344","937519","0.0-19.0-0.0","4976","List2A","white","woman","","","","null","","","","","","","","",""
"null","<img src=""stim_listA/copy3.gif""style=""height:400px;""></stim_listA>","","html-keyboard-response","345","939524","0.0-19.0-1.0","4976","List2A","white","woman","","","","null","","","","","","","","",""
"null","is copying","","html-keyboard-response","346","941527","0.0-19.0-2.0","4976","List2A","white","woman","","","","null","","","","","","","","",""
"5911.29999999702","","","survey-text","347","947443","0.0-19.0-3.0","4976","List2A","white","woman","","","","","{""Q0"":""mike is copying beth""}","<img src=""stim_listA/copy3.gif""style=""height:400px;""></stim_listA>","is copying","","","","","",""
"null","<div style=""font-size:60px;"">+</div>","","html-keyboard-response","348","947944","0.0-19.0-0.1","4976","List2A","white","woman","","","","null","","","","","","","","",""
"null","<img src=""stim_listA/seduce6.gif""style=""height:400px;""></stim_listA>","","html-keyboard-response","349","949949","0.0-19.0-1.1","4976","List2A","white","woman","","","","null","","","","","","","","",""
"null","is being seduced by","","html-keyboard-response","350","951954","0.0-19.0-2.1","4976","List2A","white","woman","","","","null","","","","","","","","",""
"4336.699999988079","","","survey-text","351","956295","0.0-19.0-3.1","4976","List2A","white","woman","","","","","{""Q0"":""dave is being seduced by fred""}","<img src=""stim_listA/seduce6.gif""style=""height:400px;""></stim_listA>","is being seduced by","","","","","",""
"null","<div style=""font-size:60px;"">+</div>","","html-keyboard-response","352","956796","0.0-19.0-0.2","4976","List2A","white","woman","","","","null","","","","","","","","",""
"null","<img src=""stim_listA/look1.gif""style=""height:400px;""></stim_listA>","","html-keyboard-response","353","958803","0.0-19.0-1.2","4976","List2A","white","woman","","","","null","","","","","","","","",""
"null","is looking at","","html-keyboard-response","354","960806","0.0-19.0-2.2","4976","List2A","white","woman","","","","null","","","","","","","","",""
"6155.79999999702","","","survey-text","355","966966","0.0-19.0-3.2","4976","List2A","white","woman","","","","","{""Q0"":""luke is looking at ruth""}","<img src=""stim_listA/look1.gif""style=""height:400px;""></stim_listA>","is looking at","","","","","",""
"null","<div style=""font-size:60px;"">+</div>","","html-keyboard-response","356","967468","0.0-19.0-0.3","4976","List2A","white","woman","","","","null","","","","","","","","",""
"null","<img src=""stim_listA/kiss8.gif""style=""height:400px;""></stim_listA>","","html-keyboard-response","357","969473","0.0-19.0-1.3","4976","List2A","white","woman","","","","null","","","","","","","","",""
"null","is being kissed by","","html-keyboard-response","358","971475","0.0-19.0-2.3","4976","List2A","white","woman","","","","null","","","","","","","","",""
"3470.2999999970198","","","survey-text","359","974951","0.0-19.0-3.3","4976","List2A","white","woman","","","","","{""Q0"":""jane is being kissed by kate""}","<img src=""stim_listA/kiss8.gif""style=""height:400px;""></stim_listA>","is being kissed by","","","","","",""
"null","<div style=""font-size:60px;"">+</div>","","html-keyboard-response","360","975453","0.0-19.0-0.4","4976","List2A","white","woman","","","","null","","","","","","","","",""
"null","<img src=""stim_listA/copy1.gif""style=""height:400px;""></stim_listA>","","html-keyboard-response","361","977455","0.0-19.0-1.4","4976","List2A","white","woman","","","","null","","","","","","","","",""
"null","is copying","","html-keyboard-response","362","979458","0.0-19.0-2.4","4976","List2A","white","woman","","","","null","","","","","","","","",""
"2573","","","survey-text","363","982035","0.0-19.0-3.4","4976","List2A","white","woman","","","","","{""Q0"":""ruth is copying dave""}","<img src=""stim_listA/copy1.gif""style=""height:400px;""></stim_listA>","is copying","","","","","",""
"null","<div style=""font-size:60px;"">+</div>","","html-keyboard-response","364","982537","0.0-19.0-0.5","4976","List2A","white","woman","","","","null","","","","","","","","",""
"null","<img src=""stim_listA/challenge2.gif""style=""height:400px;""></stim_listA>","","html-keyboard-response","365","984542","0.0-19.0-1.5","4976","List2A","white","woman","","","","null","","","","","","","","",""
"null","is being challenged by","","html-keyboard-response","366","986546","0.0-19.0-2.5","4976","List2A","white","woman","","","","null","","","","","","","","",""
"6062.600000008941","","","survey-text","367","992613","0.0-19.0-3.5","4976","List2A","white","woman","","","","","{""Q0"":""jane is being challenged by luke""}","<img src=""stim_listA/challenge2.gif""style=""height:400px;""></stim_listA>","is being challenged by","","","","","",""
"null","<div style=""font-size:60px;"">+</div>","","html-keyboard-response","368","993114","0.0-19.0-0.6","4976","List2A","white","woman","","","","null","","","","","","","","",""
"null","<img src=""stim_listA/seduce1.gif""style=""height:400px;""></stim_listA>","","html-keyboard-response","369","995120","0.0-19.0-1.6","4976","List2A","white","woman","","","","null","","","","","","","","",""
"null","is seducing","","html-keyboard-response","370","997123","0.0-19.0-2.6","4976","List2A","white","woman","","","","null","","","","","","","","",""
"3554.5","","","survey-text","371","1000682","0.0-19.0-3.6","4976","List2A","white","woman","","","","","{""Q0"":""luke is seducing jane""}","<img src=""stim_listA/seduce1.gif""style=""height:400px;""></stim_listA>","is seducing","","","","","",""
"null","<div style=""font-size:60px;"">+</div>","","html-keyboard-response","372","1001184","0.0-19.0-0.7","4976","List2A","white","woman","","","","null","","","","","","","","",""
"null","<img src=""stim_listA/hug3.gif""style=""height:400px;""></stim_listA>","","html-keyboard-response","373","1003190","0.0-19.0-1.7","4976","List2A","white","woman","","","","null","","","","","","","","",""
"null","is hugging","","html-keyboard-response","374","1005192","0.0-19.0-2.7","4976","List2A","white","woman","","","","null","","","","","","","","",""
"3079.1000000089407","","","survey-text","375","1008276","0.0-19.0-3.7","4976","List2A","white","woman","","","","","{""Q0"":""fred is hugging beth""}","<img src=""stim_listA/hug3.gif""style=""height:400px;""></stim_listA>","is hugging","","","","","",""
"null","<div style=""font-size:60px;"">+</div>","","html-keyboard-response","376","1008778","0.0-19.0-0.8","4976","List2A","white","woman","","","","null","","","","","","","","",""
"null","<img src=""stim_listA/oppose7.gif""style=""height:400px;""></stim_listA>","","html-keyboard-response","377","1010783","0.0-19.0-1.8","4976","List2A","white","woman","","","","null","","","","","","","","",""
"null","is opposing","","html-keyboard-response","378","1012787","0.0-19.0-2.8","4976","List2A","white","woman","","","","null","","","","","","","","",""
"5974.20000000298","","","survey-text","379","1018766","0.0-19.0-3.8","4976","List2A","white","woman","","","","","{""Q0"":""kate is opposing jane""}","<img src=""stim_listA/oppose7.gif""style=""height:400px;""></stim_listA>","is opposing","","","","","",""
"null","<div style=""font-size:60px;"">+</div>","","html-keyboard-response","380","1019267","0.0-19.0-0.9","4976","List2A","white","woman","","","","null","","","","","","","","",""
"null","<img src=""stim_listA/challenge4.gif""style=""height:400px;""></stim_listA>","","html-keyboard-response","381","1021273","0.0-19.0-1.9","4976","List2A","white","woman","","","","null","","","","","","","","",""
"null","is being challenged by","","html-keyboard-response","382","1023275","0.0-19.0-2.9","4976","List2A","white","woman","","","","null","","","","","","","","",""
"6876.0999999940395","","","survey-text","383","1030156","0.0-19.0-3.9","4976","List2A","white","woman","","","","","{""Q0"":""fred is being challenged by kate""}","<img src=""stim_listA/challenge4.gif""style=""height:400px;""></stim_listA>","is being challenged by","","","","","",""
"null","<div style=""font-size:60px;"">+</div>","","html-keyboard-response","384","1030658","0.0-19.0-0.10","4976","List2A","white","woman","","","","null","","","","","","","","",""
"null","<img src=""stim_listA/hug2.gif""style=""height:400px;""></stim_listA>","","html-keyboard-response","385","1032663","0.0-19.0-1.10","4976","List2A","white","woman","","","","null","","","","","","","","",""
"null","is being hugged by","","html-keyboard-response","386","1034665","0.0-19.0-2.10","4976","List2A","white","woman","","","","null","","","","","","","","",""
"3827.7000000029802","","","survey-text","387","1038499","0.0-19.0-3.10","4976","List2A","white","woman","","","","","{""Q0"":""jane is being hugged by dave""}","<img src=""stim_listA/hug2.gif""style=""height:400px;""></stim_listA>","is being hugged by","","","","","",""
"null","<div style=""font-size:60px;"">+</div>","","html-keyboard-response","388","1039000","0.0-19.0-0.11","4976","List2A","white","woman","","","","null","","","","","","","","",""
"null","<img src=""stim_listA/oppose3.gif""style=""height:400px;""></stim_listA>","","html-keyboard-response","389","1041005","0.0-19.0-1.11","4976","List2A","white","woman","","","","null","","","","","","","","",""
"null","is opposing","","html-keyboard-response","390","1043008","0.0-19.0-2.11","4976","List2A","white","woman","","","","null","","","","","","","","",""
"5063.0999999940395","","","survey-text","391","1048075","0.0-19.0-3.11","4976","List2A","white","woman","","","","","{""Q0"":""kate is opposing mike""}","<img src=""stim_listA/oppose3.gif""style=""height:400px;""></stim_listA>","is opposing","","","","","",""
"null","<div style=""font-size:60px;"">+</div>","","html-keyboard-response","392","1048577","0.0-19.0-0.12","4976","List2A","white","woman","","","","null","","","","","","","","",""
"null","<img src=""stim_listA/kiss5.gif""style=""height:400px;""></stim_listA>","","html-keyboard-response","393","1050583","0.0-19.0-1.12","4976","List2A","white","woman","","","","null","","","","","","","","",""
"null","is kissing","","html-keyboard-response","394","1052586","0.0-19.0-2.12","4976","List2A","white","woman","","","","null","","","","","","","","",""
"6491","","","survey-text","395","1059082","0.0-19.0-3.12","4976","List2A","white","woman","","","","","{""Q0"":""luke is kissing fred""}","<img src=""stim_listA/kiss5.gif""style=""height:400px;""></stim_listA>","is kissing","","","","","",""
"null","<div style=""font-size:60px;"">+</div>","","html-keyboard-response","396","1059584","0.0-19.0-0.13","4976","List2A","white","woman","","","","null","","","","","","","","",""
"null","<img src=""stim_listA/greet1.gif""style=""height:400px;""></stim_listA>","","html-keyboard-response","397","1061590","0.0-19.0-1.13","4976","List2A","white","woman","","","","null","","","","","","","","",""
"null","is greeting","","html-keyboard-response","398","1063595","0.0-19.0-2.13","4976","List2A","white","woman","","","","null","","","","","","","","",""
"2724.5","","","survey-text","399","1066325","0.0-19.0-3.13","4976","List2A","white","woman","","","","","{""Q0"":""ruth is greeting dave""}","<img src=""stim_listA/greet1.gif""style=""height:400px;""></stim_listA>","is greeting","","","","","",""
"null","<div style=""font-size:60px;"">+</div>","","html-keyboard-response","400","1066826","0.0-19.0-0.14","4976","List2A","white","woman","","","","null","","","","","","","","",""
"null","<img src=""stim_listA/challenge3.gif""style=""height:400px;""></stim_listA>","","html-keyboard-response","401","1068829","0.0-19.0-1.14","4976","List2A","white","woman","","","","null","","","","","","","","",""
"null","is challenging","","html-keyboard-response","402","1070832","0.0-19.0-2.14","4976","List2A","white","woman","","","","null","","","","","","","","",""
"5732.5999999940395","","","survey-text","403","1076570","0.0-19.0-3.14","4976","List2A","white","woman","","","","","{""Q0"":""mike is challenging beth""}","<img src=""stim_listA/challenge3.gif""style=""height:400px;""></stim_listA>","is challenging","","","","","",""
"null","<div style=""font-size:60px;"">+</div>","","html-keyboard-response","404","1077072","0.0-19.0-0.15","4976","List2A","white","woman","","","","null","","","","","","","","",""
"null","<img src=""stim_listA/kiss4.gif""style=""height:400px;""></stim_listA>","","html-keyboard-response","405","1079078","0.0-19.0-1.15","4976","List2A","white","woman","","","","null","","","","","","","","",""
"null","is being kissed by","","html-keyboard-response","406","1081084","0.0-19.0-2.15","4976","List2A","white","woman","","","","null","","","","","","","","",""
"7404.5","","","survey-text","407","1088494","0.0-19.0-3.15","4976","List2A","white","woman","","","","","{""Q0"":""kate is being kissed by mike""}","<img src=""stim_listA/kiss4.gif""style=""height:400px;""></stim_listA>","is being kissed by","","","","","",""
"null","<div style=""font-size:60px;"">+</div>","","html-keyboard-response","408","1088997","0.0-19.0-0.16","4976","List2A","white","woman","","","","null","","","","","","","","",""
"null","<img src=""stim_listA/greet7.gif""style=""height:400px;""></stim_listA>","","html-keyboard-response","409","1091002","0.0-19.0-1.16","4976","List2A","white","woman","","","","null","","","","","","","","",""
"null","is greeting","","html-keyboard-response","410","1093008","0.0-19.0-2.16","4976","List2A","white","woman","","","","null","","","","","","","","",""
"7875.699999988079","","","survey-text","411","1100889","0.0-19.0-3.16","4976","List2A","white","woman","","","","","{""Q0"":""jane is greeting beth""}","<img src=""stim_listA/greet7.gif""style=""height:400px;""></stim_listA>","is greeting","","","","","",""
"null","<div style=""font-size:60px;"">+</div>","","html-keyboard-response","412","1101391","0.0-19.0-0.17","4976","List2A","white","woman","","","","null","","","","","","","","",""
"null","<img src=""stim_listA/shout5.gif""style=""height:400px;""></stim_listA>","","html-keyboard-response","413","1103394","0.0-19.0-1.17","4976","List2A","white","woman","","","","null","","","","","","","","",""
"null","is shouting at","","html-keyboard-response","414","1105397","0.0-19.0-2.17","4976","List2A","white","woman","","","","null","","","","","","","","",""
"7104.9000000059605","","","survey-text","415","1112507","0.0-19.0-3.17","4976","List2A","white","woman","","","","","{""Q0"":""fred is being shouted at by luke""}","<img src=""stim_listA/shout5.gif""style=""height:400px;""></stim_listA>","is shouting at","","","","","",""
"null","<div style=""font-size:60px;"">+</div>","","html-keyboard-response","416","1113010","0.0-19.0-0.18","4976","List2A","white","woman","","","","null","","","","","","","","",""
"null","<img src=""stim_listA/look6.gif""style=""height:400px;""></stim_listA>","","html-keyboard-response","417","1115016","0.0-19.0-1.18","4976","List2A","white","woman","","","","null","","","","","","","","",""
"null","is being looked at by","","html-keyboard-response","418","1117019","0.0-19.0-2.18","4976","List2A","white","woman","","","","null","","","","","","","","",""
"8091.29999999702","","","survey-text","419","1125116","0.0-19.0-3.18","4976","List2A","white","woman","","","","","{""Q0"":""dave is being looked at by mike""}","<img src=""stim_listA/look6.gif""style=""height:400px;""></stim_listA>","is being looked at by","","","","","",""
"null","<div style=""font-size:60px;"">+</div>","","html-keyboard-response","420","1125617","0.0-19.0-0.19","4976","List2A","white","woman","","","","null","","","","","","","","",""
"null","<img src=""stim_listA/challenge7.gif""style=""height:400px;""></stim_listA>","","html-keyboard-response","421","1127620","0.0-19.0-1.19","4976","List2A","white","woman","","","","null","","","","","","","","",""
"null","is challenging","","html-keyboard-response","422","1129622","0.0-19.0-2.19","4976","List2A","white","woman","","","","null","","","","","","","","",""
"3336.4000000059605","","","survey-text","423","1132963","0.0-19.0-3.19","4976","List2A","white","woman","","","","","{""Q0"":""jane is challenging beth""}","<img src=""stim_listA/challenge7.gif""style=""height:400px;""></stim_listA>","is challenging","","","","","",""
"2214.3999999910593","<p>Thank you for completing that task.</p><p>The final part of this session is a questionnaire that will take about 4 minutes.</p><p>Press Continue.</p>","0","html-button-response","424","1135180","0.0-20.0","4976","List2A","white","woman","","","","","","","","","","","","",""
"20720.29999999702","","","survey-text","425","1156916","0.0-21.0","4976","List2A","white","woman","","","","","{""Q0"":""24"",""Q1"":""English"",""Q2"":""English"",""Q3"":""USA"",""Q4"":""USA"",""Q5"":""White"",""Q6"":""Female""}","","","demographics","","","","",""
"1738.4000000059605","<p>Have you lived in the USA for the last 5 years or more?</p>","0","html-button-response","426","1158657","0.0-22.0","4976","List2A","white","woman","","","","","","","","fiveyears","","","","",""
"1680.6000000089407","<p>Move the slider to show the extent to which you agree with the following statements.</p>","0","html-button-response","427","1161345","0.0-23.0","4976","List2A","white","woman","","","","","","","","","","","","",""
"3113","","","html-slider-response","428","1165462","0.0-24.0-0.0-0.0","4976","List2A","white","woman","","","","","","","","survey_race","30","","","Getting older does not worry me.","filler"
"3188.300000011921","","","html-slider-response","429","1168652","0.0-24.0-0.0-0.1","4976","List2A","white","woman","","","","","","","","survey_race","21","","","The fact that I am my race is an important part of my identity.","identity"
"3733.5","","","html-slider-response","430","1172387","0.0-24.0-0.0-0.2","4976","List2A","white","woman","","","","","","","","survey_race","37","","","I am similar to the average person of my race.","similar"
"5186.199999988079","","","html-slider-response","431","1177575","0.0-24.0-0.0-0.3","4976","List2A","white","woman","","","","","","","","survey_race","63","","","I often think about the fact that I am my age.","filler"
"2469.2999999970198","","","html-slider-response","432","1180047","0.0-24.0-0.0-0.4","4976","List2A","white","woman","","","","","","","","survey_race","20","","","Being my race gives me a good feeling.","feeling"
"3649","","","html-slider-response","433","1183698","0.0-24.0-0.0-0.5","4976","List2A","white","woman","","","","","","","","survey_race","64","","","People my age have a lot in common with each other.","filler"
"3000.7999999970198","","","html-slider-response","434","1186700","0.0-24.0-0.0-0.6","4976","List2A","white","woman","","","","","","","","survey_race","60","","","Being my age gives me a good feeling.","filler"
"2288.6000000089407","","","html-slider-response","435","1188991","0.0-24.0-0.0-0.7","4976","List2A","white","woman","","","","","","","","survey_race","73","","","I consider myself an extrovert.","filler"
"4152.5","","","html-slider-response","436","1193145","0.0-24.0-0.0-0.8","4976","List2A","white","woman","","","","","","","","survey_race","77","","","It is pleasant to be my race.","pleasant"
"4832","","","html-slider-response","437","1197980","0.0-24.0-0.0-0.9","4976","List2A","white","woman","","","","","","","","survey_race","21","","","I feel a bond with my race.","bond"
"2810.9000000059605","","","html-slider-response","438","1200793","0.0-24.0-0.0-0.10","4976","List2A","white","woman","","","","","","","","survey_race","16","","","I feel solidarity with my race.","solidarity"
"2662.9000000059605","","","html-slider-response","439","1203457","0.0-24.0-0.0-0.11","4976","List2A","white","woman","","","","","","","","survey_race","91","","","I feel solidarity with people the same age as me.","filler"
"3712.8999999910593","","","html-slider-response","440","1207172","0.0-24.0-0.0-0.12","4976","List2A","white","woman","","","","","","","","survey_race","23","","","People of my race have a lot in common with each other.","common"
"2615","","","html-slider-response","441","1209789","0.0-24.0-0.0-0.13","4976","List2A","white","woman","","","","","","","","survey_race","22","","","I often think about the fact that I am my race.","often"
"3359.800000011921","","","html-slider-response","442","1213150","0.0-24.0-0.0-0.14","4976","List2A","white","woman","","","","","","","","survey_race","18","","","Being my race is an important part of how I see myself.","important"
"4575.20000000298","","","html-slider-response","443","1217727","0.0-24.0-0.0-0.15","4976","List2A","white","woman","","","","","","","","survey_race","22","","","My age is not an important part of who I am.","filler"
"4285.399999991059","","","html-slider-response","444","1222014","0.0-24.0-0.0-0.16","4976","List2A","white","woman","","","","","","","","survey_race","66","","","The older I get, the wiser I feel.","filler"
"2147.5999999940395","","","html-slider-response","445","1224164","0.0-24.0-0.0-0.17","4976","List2A","white","woman","","","","","","","","survey_race","30","","","I enjoy being in large groups.","filler"
"2884.9000000059605","","","html-slider-response","446","1227050","0.0-24.0-0.0-0.18","4976","List2A","white","woman","","","","","","","","survey_race","59","","","I have a lot in common with people of a similar age to me.","filler"
"2036.0999999940395","","","html-slider-response","447","1229087","0.0-24.0-0.0-0.19","4976","List2A","white","woman","","","","","","","","survey_race","62","","","I am glad to be the age I am.","filler"
"4406.29999999702","","","html-slider-response","448","1233495","0.0-24.0-0.0-0.20","4976","List2A","white","woman","","","","","","","","survey_race","5","","","I think that my race has a lot to be proud of.","proud"
"3536.300000011921","","","html-slider-response","449","1237033","0.0-24.0-0.0-0.21","4976","List2A","white","woman","","","","","","","","survey_race","70","","","I feel a bond with people the same age as me.","filler"
"4743.899999991059","","","html-slider-response","450","1241779","0.0-24.0-0.0-0.22","4976","List2A","white","woman","","","","","","","","survey_race","70","","","I am glad to be my race.","glad"
"2851.9000000059605","","","html-slider-response","451","1244633","0.0-24.0-0.0-0.23","4976","List2A","white","woman","","","","","","","","survey_race","38","","","People of my race are very similar to each other.","verysimilar"
"2815.5999999940395","","","html-slider-response","452","1247450","0.0-24.0-0.0-0.24","4976","List2A","white","woman","","","","","","","","survey_race","30","","","I feel committed to my race.","committed"
"2698.9000000059605","","","html-slider-response","453","1250152","0.0-24.0-0.0-0.25","4976","List2A","white","woman","","","","","","","","survey_race","70","","","I am glad to be my age.","filler"
"2180.3999999910593","","","html-slider-response","454","1252334","0.0-24.0-0.0-0.26","4976","List2A","white","woman","","","","","","","","survey_race","15","","","I consider myself an introvert.","filler"
"4566.9000000059605","","","html-slider-response","455","1256903","0.0-24.0-0.0-0.27","4976","List2A","white","woman","","","","","","","","survey_race","22","","","I have a lot in common with the average person of my race.","average"
"3061.4000000059605","","","html-slider-response","456","1259966","0.0-24.0-1.0-0.0","4976","List2A","white","woman","","","","","","","","survey_gender","79","","","I feel committed to my gender.","committed"
"2195.5999999940395","","","html-slider-response","457","1262164","0.0-24.0-1.0-0.1","4976","List2A","white","woman","","","","","","","","survey_gender","78","","","The fact that I am my gender is an important part of my identity.","identity"
"2088.5","","","html-slider-response","458","1264254","0.0-24.0-1.0-0.2","4976","List2A","white","woman","","","","","","","","survey_gender","83","","","I am glad to be my gender.","glad"
"1987.1000000089407","","","html-slider-response","459","1266242","0.0-24.0-1.0-0.3","4976","List2A","white","woman","","","","","","","","survey_gender","62","","","My friends understand me.","filler"
"5082.9000000059605","","","html-slider-response","460","1271326","0.0-24.0-1.0-0.4","4976","List2A","white","woman","","","","","","","","survey_gender","37","","","People of my gender are very similar to each other.","verysimilar"
"2039","","","html-slider-response","461","1273367","0.0-24.0-1.0-0.5","4976","List2A","white","woman","","","","","","","","survey_gender","68","","","Being my gender is an important part of how I see myself.","important"
"3436.1000000089407","","","html-slider-response","462","1276804","0.0-24.0-1.0-0.6","4976","List2A","white","woman","","","","","","","","survey_gender","67","","","I am similar to the average person of my gender.","similar"
"2095.2000000029802","","","html-slider-response","463","1278901","0.0-24.0-1.0-0.7","4976","List2A","white","woman","","","","","","","","survey_gender","63","","","I feel solidarity with my gender.","solidarity"
"2840","","","html-slider-response","464","1281743","0.0-24.0-1.0-0.8","4976","List2A","white","woman","","","","","","","","survey_gender","13","","","Routine is not important to me.","filler"
"2328.7999999970198","","","html-slider-response","465","1284075","0.0-24.0-1.0-0.9","4976","List2A","white","woman","","","","","","","","survey_gender","63","","","My friends have a lot in common with each other.","filler"
"1906","","","html-slider-response","466","1285982","0.0-24.0-1.0-0.10","4976","List2A","white","woman","","","","","","","","survey_gender","58","","","I feel a bond with my friends.","filler"
"3037","","","html-slider-response","467","1289021","0.0-24.0-1.0-0.11","4976","List2A","white","woman","","","","","","","","survey_gender","66","","","I often think about the fact that I am my gender.","often"
"2518.5999999940395","","","html-slider-response","468","1291542","0.0-24.0-1.0-0.12","4976","List2A","white","woman","","","","","","","","survey_gender","70","","","I have a lot in common with the average person of my gender.","average"
"2643.0999999940395","","","html-slider-response","469","1294187","0.0-24.0-1.0-0.13","4976","List2A","white","woman","","","","","","","","survey_gender","85","","","I think that my gender has a lot to be proud of.","proud"
"2776.2000000029802","","","html-slider-response","470","1296964","0.0-24.0-1.0-0.14","4976","List2A","white","woman","","","","","","","","survey_gender","82","","","People of my gender have a lot in common with each other.","common"
"2015.0999999940395","","","html-slider-response","471","1298981","0.0-24.0-1.0-0.15","4976","List2A","white","woman","","","","","","","","survey_gender","72","","","I feel solidarity with my friends.","filler"
"3234.4000000059605","","","html-slider-response","472","1302218","0.0-24.0-1.0-0.16","4976","List2A","white","woman","","","","","","","","survey_gender","33","","","Family is not more important to me than friendship.","filler"
"2441.7000000029802","","","html-slider-response","473","1304661","0.0-24.0-1.0-0.17","4976","List2A","white","woman","","","","","","","","survey_gender","61","","","It is not always easy for people to know what I am thinking.","filler"
"2542.7999999970198","","","html-slider-response","474","1307206","0.0-24.0-1.0-0.18","4976","List2A","white","woman","","","","","","","","survey_gender","63","","","Being around my friends gives me a good feeling.","filler"
"2884.7000000029802","","","html-slider-response","475","1310092","0.0-24.0-1.0-0.19","4976","List2A","white","woman","","","","","","","","survey_gender","62","","","I have a lot in common with my friends.","filler"
"1994.7999999970198","","","html-slider-response","476","1312088","0.0-24.0-1.0-0.20","4976","List2A","white","woman","","","","","","","","survey_gender","61","","","I am glad to have the friends that I have.","filler"
"2192.300000011921","","","html-slider-response","477","1314282","0.0-24.0-1.0-0.21","4976","List2A","white","woman","","","","","","","","survey_gender","69","","","Most of the friends in my life are very similar to me.","filler"
"3328","","","html-slider-response","478","1317612","0.0-24.0-1.0-0.22","4976","List2A","white","woman","","","","","","","","survey_gender","29","","","It is pleasant to be my gender.","pleasant"
