rt,stimulus,button_pressed,trial_type,trial_index,time_elapsed,internal_node_id,subject,list,ppt_race,ppt_gender,url,first_guess,correct,key_press,responses,image_type,phrase_type,test_part,response,stimulus1,stimulus2,question_type,survey_item
8771.5,Welcome to the experiment. Press Continue to begin.,0,html-button-response,0,8784,0.0-0.0,49833,List1A,black,woman,,,,,,,,,,,,,
19403.4,,,external-html,1,31678,0.0-1.0,49833,List1A,black,woman,consent.html,,,,,,,,,,,,
3320.2,"<p>On the next page, you will see portraits of 8 people and their names.</p><p>Your first task is to take a few minutes to memorise the names of these people.</p><p>You will have to recall their names during the rest of the experiment, so it is</p><p>essential that you try to memorise these people and their names as best as you can.</p><br><p><strong>You will then be tested on your memory of these names and portraits.</strong></p><br><p>The experiment will start after you have completed this memory test.</p><br><p>Ready?</p>",0,html-button-response,2,35004,0.0-2.0,49833,List1A,black,woman,,,,,,,,,,,,,
5852.1,"<img src='img/portrait_matrix_list1.jpg' style='width:900px;height:500px;''></img><p>If you have memorised all the portraits and names and are ready to start, press Continue.</p><p><strong>Please note: Your memory of these faces will be tested 4 times during this experiment.</strong></p>",0,html-button-response,3,41869,0.0-3.0-0.0,49833,List1A,black,woman,,,,,,,,,,,,,
9764.3,"<img src=""portrait/WW1.jpg""style=""height:400px;""></img>",1,html-button-response,4,52644,0.0-3.0-1.0,49833,List1A,black,woman,,TRUE,1,,,,,,,,,,
null,CORRECT,,html-keyboard-response,5,54195,0.0-3.0-2.0-0.0,49833,List1A,black,woman,,,,null,,,,,,,,,
3675.3,"<img src=""portrait/BW1.jpg""style=""height:400px;""></img>",0,html-button-response,6,57875,0.0-3.0-4.0,49833,List1A,black,woman,,TRUE,0,,,,,,,,,,
null,CORRECT,,html-keyboard-response,7,59398,0.0-3.0-5.0-0.0,49833,List1A,black,woman,,,,null,,,,,,,,,
7116.1,"<img src=""portrait/WM1.jpg""style=""height:400px;""></img>",6,html-button-response,8,66520,0.0-3.0-7.0,49833,List1A,black,woman,,TRUE,6,,,,,,,,,,
null,CORRECT,,html-keyboard-response,9,68037,0.0-3.0-8.0-0.0,49833,List1A,black,woman,,,,null,,,,,,,,,
5231.6,"<img src=""portrait/WM2.jpg""style=""height:400px;""></img>",7,html-button-response,10,73272,0.0-3.0-10.0,49833,List1A,black,woman,,TRUE,7,,,,,,,,,,
null,CORRECT,,html-keyboard-response,11,74795,0.0-3.0-11.0-0.0,49833,List1A,black,woman,,,,null,,,,,,,,,
8921.7,"<img src=""portrait/BW2.jpg""style=""height:400px;""></img>",2,html-button-response,12,83721,0.0-3.0-13.0,49833,List1A,black,woman,,TRUE,2,,,,,,,,,,
null,CORRECT,,html-keyboard-response,13,85246,0.0-3.0-14.0-0.0,49833,List1A,black,woman,,,,null,,,,,,,,,
5241.2,"<img src=""portrait/BM1.jpg""style=""height:400px;""></img>",4,html-button-response,14,90492,0.0-3.0-16.0,49833,List1A,black,woman,,TRUE,4,,,,,,,,,,
null,CORRECT,,html-keyboard-response,15,92024,0.0-3.0-17.0-0.0,49833,List1A,black,woman,,,,null,,,,,,,,,
11643.4,"<img src=""portrait/WW2.jpg""style=""height:400px;""></img>",3,html-button-response,16,103670,0.0-3.0-19.0,49833,List1A,black,woman,,TRUE,3,,,,,,,,,,
null,CORRECT,,html-keyboard-response,17,105197,0.0-3.0-20.0-0.0,49833,List1A,black,woman,,,,null,,,,,,,,,
5636.7,"<img src=""portrait/BM2.jpg""style=""height:400px;""></img>",5,html-button-response,18,110837,0.0-3.0-22.0,49833,List1A,black,woman,,TRUE,5,,,,,,,,,,
null,CORRECT,,html-keyboard-response,19,112350,0.0-3.0-23.0-0.0,49833,List1A,black,woman,,,,null,,,,,,,,,
1871.1,<p>You got 8 out of 8 right first time. Press Continue.</p>,0,html-button-response,20,114225,0.0-3.0-25.0,49833,List1A,black,woman,,,,,,,,,,,,,
9694.2,"<p>In this experiment, you will view photographs of the people from the memory game interacting.</p><p>By using the <strong>exact</strong> phrase given <i>after</i> the photograph appears and recalling the correct names of the people in the photographs, form a sentence describing the interaction. You do not need to capitalise names.</p><p>Type your answer in the space provided. Please complete every sentence before moving onto the next trial.</p><p>You will only have a few seconds to memorise each given photograph and phrase before you can respond, so try your best to focus.</p><p>An example is given below. Press 'Continue' when you are ready.</p><img src='img/speaking_example.jpg' style='width:800px;height:460px;''></img>",0,html-button-response,21,124936,0.0-4.0,49833,List1A,black,woman,,,,,,,,,,,,,
3479.1,"<p>Before the experiment starts, you will watch two example trials. Press 'Continue'.</p>",0,html-button-response,22,129425,0.0-5.0,49833,List1A,black,woman,,,,,,,,,,,,,
null,<img src='img/play_eg.gif' style='height:400px;''></img>,,html-keyboard-response,23,132465,0.0-6.0,49833,List1A,black,woman,,,,null,,,,,,,,,
null,<p>is playing with</p>,,html-keyboard-response,24,134486,0.0-7.0,49833,List1A,black,woman,,,,null,,,,,,,,,
5815.9,<p><b>Answer:</b> kate is playing with beth</p>,0,html-button-response,25,140305,0.0-8.0,49833,List1A,black,woman,,,,,,,,,,,,,
null,<img src='img/dance_eg.gif' style='height:400px;''></img>,,html-keyboard-response,26,143325,0.0-9.0,49833,List1A,black,woman,,,,null,,,,,,,,,
null,<p>is being entertained by</p>,,html-keyboard-response,27,145343,0.0-10.0,49833,List1A,black,woman,,,,null,,,,,,,,,
6538.8,<p><b>Answer:</b> luke is being entertained by dave</p>,0,html-button-response,28,151886,0.0-11.0,49833,List1A,black,woman,,,,,,,,,,,,,
93401.7,"<p>Ready to start the experiment?</p><br><p><strong>Remember to describe the picture using a full sentence,</strong></p><p><strong>that combines the names of the people with the <i>exact</i> phrase given.</strong></p><p><strong>To receive full payment you must do this correctly.</strong></p><p><strong> You do not need to capitalise names or use punctuation.</strong></p><br><p>Press 'Continue' to begin.</p>",0,html-button-response,29,246296,0.0-12.0,49833,List1A,black,woman,,,,,,,,,,,,,
null,"<div style=""font-size:60px;"">+</div>",,html-keyboard-response,30,247823,0.0-13.0-0.0,49833,List1A,black,woman,,,,null,,,,,,,,,
null,"<img src=""stim_listA/kiss8.gif""style=""height:400px;""></stim_listA>",,html-keyboard-response,31,249849,0.0-13.0-1.0,49833,List1A,black,woman,,,,null,,,,,,,,,
null,is being kissed by,,html-keyboard-response,32,251852,0.0-13.0-2.0,49833,List1A,black,woman,,,,null,,,,,,,,,
19443.1,,,survey-text,33,271322,0.0-13.0-3.0,49833,List1A,black,woman,,,,,"{""Q0"":""jane is being kissed by beth""}","<img src=""stim_listA/kiss8.gif""style=""height:400px;""></stim_listA>",is being kissed by,,,,,,
null,"<div style=""font-size:60px;"">+</div>",,html-keyboard-response,34,271833,0.0-13.0-0.1,49833,List1A,black,woman,,,,null,,,,,,,,,
null,"<img src=""stim_listA/touch2.gif""style=""height:400px;""></stim_listA>",,html-keyboard-response,35,273838,0.0-13.0-1.1,49833,List1A,black,woman,,,,null,,,,,,,,,
null,is being touched by,,html-keyboard-response,36,275852,0.0-13.0-2.1,49833,List1A,black,woman,,,,null,,,,,,,,,
15668.3,,,survey-text,37,291545,0.0-13.0-3.1,49833,List1A,black,woman,,,,,"{""Q0"":""beth is being touched by fred""}","<img src=""stim_listA/touch2.gif""style=""height:400px;""></stim_listA>",is being touched by,,,,,,
null,"<div style=""font-size:60px;"">+</div>",,html-keyboard-response,38,292057,0.0-13.0-0.2,49833,List1A,black,woman,,,,null,,,,,,,,,
null,"<img src=""stim_listA/oppose6.gif""style=""height:400px;""></stim_listA>",,html-keyboard-response,39,294067,0.0-13.0-1.2,49833,List1A,black,woman,,,,null,,,,,,,,,
null,is being opposed by,,html-keyboard-response,40,296076,0.0-13.0-2.2,49833,List1A,black,woman,,,,null,,,,,,,,,
12722.4,,,survey-text,41,308827,0.0-13.0-3.2,49833,List1A,black,woman,,,,,"{""Q0"":""luke is being opposed by fred""}","<img src=""stim_listA/oppose6.gif""style=""height:400px;""></stim_listA>",is being opposed by,,,,,,
null,"<div style=""font-size:60px;"">+</div>",,html-keyboard-response,42,309335,0.0-13.0-0.3,49833,List1A,black,woman,,,,null,,,,,,,,,
null,"<img src=""stim_listA/hug6.gif""style=""height:400px;""></stim_listA>",,html-keyboard-response,43,311353,0.0-13.0-1.3,49833,List1A,black,woman,,,,null,,,,,,,,,
null,is being hugged by,,html-keyboard-response,44,313357,0.0-13.0-2.3,49833,List1A,black,woman,,,,null,,,,,,,,,
13068.1,,,survey-text,45,326442,0.0-13.0-3.3,49833,List1A,black,woman,,,,,"{""Q0"":""dave is being hugged by mike""}","<img src=""stim_listA/hug6.gif""style=""height:400px;""></stim_listA>",is being hugged by,,,,,,
null,"<div style=""font-size:60px;"">+</div>",,html-keyboard-response,46,326954,0.0-13.0-0.4,49833,List1A,black,woman,,,,null,,,,,,,,,
null,"<img src=""stim_listA/touch8.gif""style=""height:400px;""></stim_listA>",,html-keyboard-response,47,328976,0.0-13.0-1.4,49833,List1A,black,woman,,,,null,,,,,,,,,
null,is being touched by,,html-keyboard-response,48,330978,0.0-13.0-2.4,49833,List1A,black,woman,,,,null,,,,,,,,,
12967.1,,,survey-text,49,343953,0.0-13.0-3.4,49833,List1A,black,woman,,,,,"{""Q0"":""ruth is being touched by beth""}","<img src=""stim_listA/touch8.gif""style=""height:400px;""></stim_listA>",is being touched by,,,,,,
null,"<div style=""font-size:60px;"">+</div>",,html-keyboard-response,50,344473,0.0-13.0-0.5,49833,List1A,black,woman,,,,null,,,,,,,,,
null,"<img src=""stim_listA/greet3.gif""style=""height:400px;""></stim_listA>",,html-keyboard-response,51,346486,0.0-13.0-1.5,49833,List1A,black,woman,,,,null,,,,,,,,,
null,is greeting,,html-keyboard-response,52,348498,0.0-13.0-2.5,49833,List1A,black,woman,,,,null,,,,,,,,,
14033.3,,,survey-text,53,362567,0.0-13.0-3.5,49833,List1A,black,woman,,,,,"{""Q0"":""ruth is greeting dave""}","<img src=""stim_listA/greet3.gif""style=""height:400px;""></stim_listA>",is greeting,,,,,,
null,"<div style=""font-size:60px;"">+</div>",,html-keyboard-response,54,363087,0.0-13.0-0.6,49833,List1A,black,woman,,,,null,,,,,,,,,
null,"<img src=""stim_listA/hug3.gif""style=""height:400px;""></stim_listA>",,html-keyboard-response,55,365099,0.0-13.0-1.6,49833,List1A,black,woman,,,,null,,,,,,,,,
null,is hugging,,html-keyboard-response,56,367110,0.0-13.0-2.6,49833,List1A,black,woman,,,,null,,,,,,,,,
12082.8,,,survey-text,57,379199,0.0-13.0-3.6,49833,List1A,black,woman,,,,,"{""Q0"":""ruth is hugging luke""}","<img src=""stim_listA/hug3.gif""style=""height:400px;""></stim_listA>",is hugging,,,,,,
null,"<div style=""font-size:60px;"">+</div>",,html-keyboard-response,58,379706,0.0-13.0-0.7,49833,List1A,black,woman,,,,null,,,,,,,,,
null,"<img src=""stim_listA/look4.gif""style=""height:400px;""></stim_listA>",,html-keyboard-response,59,381728,0.0-13.0-1.7,49833,List1A,black,woman,,,,null,,,,,,,,,
null,is being looked at by,,html-keyboard-response,60,383736,0.0-13.0-2.7,49833,List1A,black,woman,,,,null,,,,,,,,,
16846.2,,,survey-text,61,400594,0.0-13.0-3.7,49833,List1A,black,woman,,,,,"{""Q0"":""jane is been looked by dave""}","<img src=""stim_listA/look4.gif""style=""height:400px;""></stim_listA>",is being looked at by,,,,,,
null,"<div style=""font-size:60px;"">+</div>",,html-keyboard-response,62,401116,0.0-13.0-0.8,49833,List1A,black,woman,,,,null,,,,,,,,,
null,"<img src=""stim_listA/copy2.gif""style=""height:400px;""></stim_listA>",,html-keyboard-response,63,403129,0.0-13.0-1.8,49833,List1A,black,woman,,,,null,,,,,,,,,
null,is being copied by,,html-keyboard-response,64,405145,0.0-13.0-2.8,49833,List1A,black,woman,,,,null,,,,,,,,,
15979.5,,,survey-text,65,421135,0.0-13.0-3.8,49833,List1A,black,woman,,,,,"{""Q0"":""kate is being copied by fred""}","<img src=""stim_listA/copy2.gif""style=""height:400px;""></stim_listA>",is being copied by,,,,,,
null,"<div style=""font-size:60px;"">+</div>",,html-keyboard-response,66,421656,0.0-13.0-0.9,49833,List1A,black,woman,,,,null,,,,,,,,,
null,"<img src=""stim_listA/kiss7.gif""style=""height:400px;""></stim_listA>",,html-keyboard-response,67,423684,0.0-13.0-1.9,49833,List1A,black,woman,,,,null,,,,,,,,,
null,is kissing,,html-keyboard-response,68,425709,0.0-13.0-2.9,49833,List1A,black,woman,,,,null,,,,,,,,,
13125.3,,,survey-text,69,438852,0.0-13.0-3.9,49833,List1A,black,woman,,,,,"{""Q0"":""beth is kissing ruth""}","<img src=""stim_listA/kiss7.gif""style=""height:400px;""></stim_listA>",is kissing,,,,,,
null,"<div style=""font-size:60px;"">+</div>",,html-keyboard-response,70,439374,0.0-13.0-0.10,49833,List1A,black,woman,,,,null,,,,,,,,,
null,"<img src=""stim_listA/look3.gif""style=""height:400px;""></stim_listA>",,html-keyboard-response,71,441401,0.0-13.0-1.10,49833,List1A,black,woman,,,,null,,,,,,,,,
null,is looking at,,html-keyboard-response,72,443408,0.0-13.0-2.10,49833,List1A,black,woman,,,,null,,,,,,,,,
20168.4,,,survey-text,73,463589,0.0-13.0-3.10,49833,List1A,black,woman,,,,,"{""Q0"":""luke is looking at ruth""}","<img src=""stim_listA/look3.gif""style=""height:400px;""></stim_listA>",is looking at,,,,,,
null,"<div style=""font-size:60px;"">+</div>",,html-keyboard-response,74,464106,0.0-13.0-0.11,49833,List1A,black,woman,,,,null,,,,,,,,,
null,"<img src=""stim_listA/challenge8.gif""style=""height:400px;""></stim_listA>",,html-keyboard-response,75,466112,0.0-13.0-1.11,49833,List1A,black,woman,,,,null,,,,,,,,,
null,is being challenged by,,html-keyboard-response,76,468118,0.0-13.0-2.11,49833,List1A,black,woman,,,,null,,,,,,,,,
14371.3,,,survey-text,77,482497,0.0-13.0-3.11,49833,List1A,black,woman,,,,,"{""Q0"":""jane is being challenged by beth""}","<img src=""stim_listA/challenge8.gif""style=""height:400px;""></stim_listA>",is being challenged by,,,,,,
null,"<div style=""font-size:60px;"">+</div>",,html-keyboard-response,78,483011,0.0-13.0-0.12,49833,List1A,black,woman,,,,null,,,,,,,,,
null,"<img src=""stim_listA/greet2.gif""style=""height:400px;""></stim_listA>",,html-keyboard-response,79,485028,0.0-13.0-1.12,49833,List1A,black,woman,,,,null,,,,,,,,,
null,is being greeted by,,html-keyboard-response,80,487044,0.0-13.0-2.12,49833,List1A,black,woman,,,,null,,,,,,,,,
11611.2,,,survey-text,81,498668,0.0-13.0-3.12,49833,List1A,black,woman,,,,,"{""Q0"":""kate is greeting fred""}","<img src=""stim_listA/greet2.gif""style=""height:400px;""></stim_listA>",is being greeted by,,,,,,
null,"<div style=""font-size:60px;"">+</div>",,html-keyboard-response,82,499179,0.0-13.0-0.13,49833,List1A,black,woman,,,,null,,,,,,,,,
null,"<img src=""stim_listA/touch5.gif""style=""height:400px;""></stim_listA>",,html-keyboard-response,83,501192,0.0-13.0-1.13,49833,List1A,black,woman,,,,null,,,,,,,,,
null,is touching,,html-keyboard-response,84,503202,0.0-13.0-2.13,49833,List1A,black,woman,,,,null,,,,,,,,,
11084.8,,,survey-text,85,514299,0.0-13.0-3.13,49833,List1A,black,woman,,,,,"{""Q0"":""mike is touching dave""}","<img src=""stim_listA/touch5.gif""style=""height:400px;""></stim_listA>",is touching,,,,,,
null,"<div style=""font-size:60px;"">+</div>",,html-keyboard-response,86,514825,0.0-13.0-0.14,49833,List1A,black,woman,,,,null,,,,,,,,,
null,"<img src=""stim_listA/hug1.gif""style=""height:400px;""></stim_listA>",,html-keyboard-response,87,516840,0.0-13.0-1.14,49833,List1A,black,woman,,,,null,,,,,,,,,
null,is hugging,,html-keyboard-response,88,518846,0.0-13.0-2.14,49833,List1A,black,woman,,,,null,,,,,,,,,
9948,,,survey-text,89,528800,0.0-13.0-3.14,49833,List1A,black,woman,,,,,"{""Q0"":""fred is hugging beth""}","<img src=""stim_listA/hug1.gif""style=""height:400px;""></stim_listA>",is hugging,,,,,,
null,"<div style=""font-size:60px;"">+</div>",,html-keyboard-response,90,529306,0.0-13.0-0.15,49833,List1A,black,woman,,,,null,,,,,,,,,
null,"<img src=""stim_listA/copy7.gif""style=""height:400px;""></stim_listA>",,html-keyboard-response,91,531318,0.0-13.0-1.15,49833,List1A,black,woman,,,,null,,,,,,,,,
null,is copying,,html-keyboard-response,92,533322,0.0-13.0-2.15,49833,List1A,black,woman,,,,null,,,,,,,,,
12322.5,,,survey-text,93,545657,0.0-13.0-3.15,49833,List1A,black,woman,,,,,"{""Q0"":""kate is copying ruth""}","<img src=""stim_listA/copy7.gif""style=""height:400px;""></stim_listA>",is copying,,,,,,
null,"<div style=""font-size:60px;"">+</div>",,html-keyboard-response,94,546174,0.0-13.0-0.16,49833,List1A,black,woman,,,,null,,,,,,,,,
null,"<img src=""stim_listA/look2.gif""style=""height:400px;""></stim_listA>",,html-keyboard-response,95,548194,0.0-13.0-1.16,49833,List1A,black,woman,,,,null,,,,,,,,,
null,is being looked at by,,html-keyboard-response,96,550218,0.0-13.0-2.16,49833,List1A,black,woman,,,,null,,,,,,,,,
22536.1,,,survey-text,97,572771,0.0-13.0-3.16,49833,List1A,black,woman,,,,,"{""Q0"":""kate is being looked at by mike""}","<img src=""stim_listA/look2.gif""style=""height:400px;""></stim_listA>",is being looked at by,,,,,,
null,"<div style=""font-size:60px;"">+</div>",,html-keyboard-response,98,573292,0.0-13.0-0.17,49833,List1A,black,woman,,,,null,,,,,,,,,
null,"<img src=""stim_listA/copy8.gif""style=""height:400px;""></stim_listA>",,html-keyboard-response,99,575304,0.0-13.0-1.17,49833,List1A,black,woman,,,,null,,,,,,,,,
null,is being copied by,,html-keyboard-response,100,577306,0.0-13.0-2.17,49833,List1A,black,woman,,,,null,,,,,,,,,
17399.6,,,survey-text,101,594723,0.0-13.0-3.17,49833,List1A,black,woman,,,,,"{""Q0"":""jane is being copied by beth""}","<img src=""stim_listA/copy8.gif""style=""height:400px;""></stim_listA>",is being copied by,,,,,,
null,"<div style=""font-size:60px;"">+</div>",,html-keyboard-response,102,595246,0.0-13.0-0.18,49833,List1A,black,woman,,,,null,,,,,,,,,
null,"<img src=""stim_listA/kiss6.gif""style=""height:400px;""></stim_listA>",,html-keyboard-response,103,597270,0.0-13.0-1.18,49833,List1A,black,woman,,,,null,,,,,,,,,
null,is being kissed by,,html-keyboard-response,104,599285,0.0-13.0-2.18,49833,List1A,black,woman,,,,null,,,,,,,,,
12065.4,,,survey-text,105,611368,0.0-13.0-3.18,49833,List1A,black,woman,,,,,"{""Q0"":""mike is being kissed by dave""}","<img src=""stim_listA/kiss6.gif""style=""height:400px;""></stim_listA>",is being kissed by,,,,,,
null,"<div style=""font-size:60px;"">+</div>",,html-keyboard-response,106,611888,0.0-13.0-0.19,49833,List1A,black,woman,,,,null,,,,,,,,,
null,"<img src=""stim_listA/shout8.gif""style=""height:400px;""></stim_listA>",,html-keyboard-response,107,613908,0.0-13.0-1.19,49833,List1A,black,woman,,,,null,,,,,,,,,
null,is being shouted at by,,html-keyboard-response,108,615911,0.0-13.0-2.19,49833,List1A,black,woman,,,,null,,,,,,,,,
17414.9,,,survey-text,109,633333,0.0-13.0-3.19,49833,List1A,black,woman,,,,,"{""Q0"":""jane is being shouted at by kate""}","<img src=""stim_listA/shout8.gif""style=""height:400px;""></stim_listA>",is being shouted at by,,,,,,
17104.7,"<img src='img/portrait_matrix_list1.jpg' style='width:900px;height:500px;''></img><p>If you have memorised all the portraits and names and are ready to start, press Continue.</p><p><strong>Please note: Your memory of these faces will be tested 4 times during this experiment.</strong></p>",0,html-button-response,110,650443,0.0-14.0-0.0,49833,List1A,black,woman,,,,,,,,,,,,,
2619.4,"<img src=""portrait/WM2.jpg""style=""height:400px;""></img>",7,html-button-response,111,654072,0.0-14.0-1.0,49833,List1A,black,woman,,TRUE,7,,,,,,,,,,
null,CORRECT,,html-keyboard-response,112,655602,0.0-14.0-2.0-0.0,49833,List1A,black,woman,,,,null,,,,,,,,,
2296.1,"<img src=""portrait/WW1.jpg""style=""height:400px;""></img>",1,html-button-response,113,657901,0.0-14.0-4.0,49833,List1A,black,woman,,TRUE,1,,,,,,,,,,
null,CORRECT,,html-keyboard-response,114,659423,0.0-14.0-5.0-0.0,49833,List1A,black,woman,,,,null,,,,,,,,,
3087.3,"<img src=""portrait/WM1.jpg""style=""height:400px;""></img>",6,html-button-response,115,662514,0.0-14.0-7.0,49833,List1A,black,woman,,TRUE,6,,,,,,,,,,
null,CORRECT,,html-keyboard-response,116,664037,0.0-14.0-8.0-0.0,49833,List1A,black,woman,,,,null,,,,,,,,,
2449.1,"<img src=""portrait/BW1.jpg""style=""height:400px;""></img>",0,html-button-response,117,666493,0.0-14.0-10.0,49833,List1A,black,woman,,TRUE,0,,,,,,,,,,
null,CORRECT,,html-keyboard-response,118,668016,0.0-14.0-11.0-0.0,49833,List1A,black,woman,,,,null,,,,,,,,,
3707.9,"<img src=""portrait/BW2.jpg""style=""height:400px;""></img>",2,html-button-response,119,671735,0.0-14.0-13.0,49833,List1A,black,woman,,TRUE,2,,,,,,,,,,
null,CORRECT,,html-keyboard-response,120,673255,0.0-14.0-14.0-0.0,49833,List1A,black,woman,,,,null,,,,,,,,,
2202.8,"<img src=""portrait/BM2.jpg""style=""height:400px;""></img>",5,html-button-response,121,675466,0.0-14.0-16.0,49833,List1A,black,woman,,TRUE,5,,,,,,,,,,
null,CORRECT,,html-keyboard-response,122,676994,0.0-14.0-17.0-0.0,49833,List1A,black,woman,,,,null,,,,,,,,,
2685.2,"<img src=""portrait/WW2.jpg""style=""height:400px;""></img>",3,html-button-response,123,679684,0.0-14.0-19.0,49833,List1A,black,woman,,TRUE,3,,,,,,,,,,
null,CORRECT,,html-keyboard-response,124,681199,0.0-14.0-20.0-0.0,49833,List1A,black,woman,,,,null,,,,,,,,,
2214.6,"<img src=""portrait/BM1.jpg""style=""height:400px;""></img>",4,html-button-response,125,683420,0.0-14.0-22.0,49833,List1A,black,woman,,TRUE,4,,,,,,,,,,
null,CORRECT,,html-keyboard-response,126,684957,0.0-14.0-23.0-0.0,49833,List1A,black,woman,,,,null,,,,,,,,,
4657.9,<p>You got 8 out of 8 right first time. Press Continue.</p>,0,html-button-response,127,689618,0.0-14.0-25.0,49833,List1A,black,woman,,,,,,,,,,,,,
null,"<div style=""font-size:60px;"">+</div>",,html-keyboard-response,128,691137,0.0-15.0-0.0,49833,List1A,black,woman,,,,null,,,,,,,,,
null,"<img src=""stim_listA/greet4.gif""style=""height:400px;""></stim_listA>",,html-keyboard-response,129,693159,0.0-15.0-1.0,49833,List1A,black,woman,,,,null,,,,,,,,,
null,is being greeted by,,html-keyboard-response,130,695162,0.0-15.0-2.0,49833,List1A,black,woman,,,,null,,,,,,,,,
23256.5,,,survey-text,131,718427,0.0-15.0-3.0,49833,List1A,black,woman,,,,,"{""Q0"":""jane is being greeted by luke""}","<img src=""stim_listA/greet4.gif""style=""height:400px;""></stim_listA>",is being greeted by,,,,,,
null,"<div style=""font-size:60px;"">+</div>",,html-keyboard-response,132,718938,0.0-15.0-0.1,49833,List1A,black,woman,,,,null,,,,,,,,,
null,"<img src=""stim_listA/oppose3.gif""style=""height:400px;""></stim_listA>",,html-keyboard-response,133,720958,0.0-15.0-1.1,49833,List1A,black,woman,,,,null,,,,,,,,,
null,is opposing,,html-keyboard-response,134,722963,0.0-15.0-2.1,49833,List1A,black,woman,,,,null,,,,,,,,,
17660.5,,,survey-text,135,740630,0.0-15.0-3.1,49833,List1A,black,woman,,,,,"{""Q0"":""dave is opposing jane""}","<img src=""stim_listA/oppose3.gif""style=""height:400px;""></stim_listA>",is opposing,,,,,,
null,"<div style=""font-size:60px;"">+</div>",,html-keyboard-response,136,741140,0.0-15.0-0.2,49833,List1A,black,woman,,,,null,,,,,,,,,
null,"<img src=""stim_listA/look6.gif""style=""height:400px;""></stim_listA>",,html-keyboard-response,137,743151,0.0-15.0-1.2,49833,List1A,black,woman,,,,null,,,,,,,,,
null,is being looked at by,,html-keyboard-response,138,745168,0.0-15.0-2.2,49833,List1A,black,woman,,,,null,,,,,,,,,
13351.5,,,survey-text,139,758527,0.0-15.0-3.2,49833,List1A,black,woman,,,,,"{""Q0"":""dave is being looked at by mike""}","<img src=""stim_listA/look6.gif""style=""height:400px;""></stim_listA>",is being looked at by,,,,,,
null,"<div style=""font-size:60px;"">+</div>",,html-keyboard-response,140,759052,0.0-15.0-0.3,49833,List1A,black,woman,,,,null,,,,,,,,,
null,"<img src=""stim_listA/touch6.gif""style=""height:400px;""></stim_listA>",,html-keyboard-response,141,761064,0.0-15.0-1.3,49833,List1A,black,woman,,,,null,,,,,,,,,
null,is being touched by,,html-keyboard-response,142,763070,0.0-15.0-2.3,49833,List1A,black,woman,,,,null,,,,,,,,,
13838.2,,,survey-text,143,776914,0.0-15.0-3.3,49833,List1A,black,woman,,,,,"{""Q0"":""luke is being touched by fred""}","<img src=""stim_listA/touch6.gif""style=""height:400px;""></stim_listA>",is being touched by,,,,,,
null,"<div style=""font-size:60px;"">+</div>",,html-keyboard-response,144,777430,0.0-15.0-0.4,49833,List1A,black,woman,,,,null,,,,,,,,,
null,"<img src=""stim_listA/shout4.gif""style=""height:400px;""></stim_listA>",,html-keyboard-response,145,779446,0.0-15.0-1.4,49833,List1A,black,woman,,,,null,,,,,,,,,
null,is being shouted at by,,html-keyboard-response,146,781453,0.0-15.0-2.4,49833,List1A,black,woman,,,,null,,,,,,,,,
13126,,,survey-text,147,794629,0.0-15.0-3.4,49833,List1A,black,woman,,,,,"{""Q0"":""jane is being shouted at by dave""}","<img src=""stim_listA/shout4.gif""style=""height:400px;""></stim_listA>",is being shouted at by,,,,,,
null,"<div style=""font-size:60px;"">+</div>",,html-keyboard-response,148,795144,0.0-15.0-0.5,49833,List1A,black,woman,,,,null,,,,,,,,,
null,"<img src=""stim_listA/seduce5.gif""style=""height:400px;""></stim_listA>",,html-keyboard-response,149,797154,0.0-15.0-1.5,49833,List1A,black,woman,,,,null,,,,,,,,,
null,is seducing,,html-keyboard-response,150,799157,0.0-15.0-2.5,49833,List1A,black,woman,,,,null,,,,,,,,,
13973.2,,,survey-text,151,813147,0.0-15.0-3.5,49833,List1A,black,woman,,,,,"{""Q0"":""dave is seducing fred""}","<img src=""stim_listA/seduce5.gif""style=""height:400px;""></stim_listA>",is seducing,,,,,,
null,"<div style=""font-size:60px;"">+</div>",,html-keyboard-response,152,813664,0.0-15.0-0.6,49833,List1A,black,woman,,,,null,,,,,,,,,
null,"<img src=""stim_listA/greet8.gif""style=""height:400px;""></stim_listA>",,html-keyboard-response,153,815671,0.0-15.0-1.6,49833,List1A,black,woman,,,,null,,,,,,,,,
null,is being greeted by,,html-keyboard-response,154,817674,0.0-15.0-2.6,49833,List1A,black,woman,,,,null,,,,,,,,,
12440.9,,,survey-text,155,830124,0.0-15.0-3.6,49833,List1A,black,woman,,,,,"{""Q0"":""jane is being greeted by beth""}","<img src=""stim_listA/greet8.gif""style=""height:400px;""></stim_listA>",is being greeted by,,,,,,
null,"<div style=""font-size:60px;"">+</div>",,html-keyboard-response,156,830633,0.0-15.0-0.7,49833,List1A,black,woman,,,,null,,,,,,,,,
null,"<img src=""stim_listA/greet6.gif""style=""height:400px;""></stim_listA>",,html-keyboard-response,157,832639,0.0-15.0-1.7,49833,List1A,black,woman,,,,null,,,,,,,,,
null,is being greeted by,,html-keyboard-response,158,834643,0.0-15.0-2.7,49833,List1A,black,woman,,,,null,,,,,,,,,
14020,,,survey-text,159,848674,0.0-15.0-3.7,49833,List1A,black,woman,,,,,"{""Q0"":""dave is being greeted by fred""}","<img src=""stim_listA/greet6.gif""style=""height:400px;""></stim_listA>",is being greeted by,,,,,,
null,"<div style=""font-size:60px;"">+</div>",,html-keyboard-response,160,849190,0.0-15.0-0.8,49833,List1A,black,woman,,,,null,,,,,,,,,
null,"<img src=""stim_listA/shout2.gif""style=""height:400px;""></stim_listA>",,html-keyboard-response,161,851202,0.0-15.0-1.8,49833,List1A,black,woman,,,,null,,,,,,,,,
null,is being shouted at by,,html-keyboard-response,162,853223,0.0-15.0-2.8,49833,List1A,black,woman,,,,null,,,,,,,,,
16240.2,,,survey-text,163,869474,0.0-15.0-3.8,49833,List1A,black,woman,,,,,"{""Q0"":""kate is being shouted at by mike""}","<img src=""stim_listA/shout2.gif""style=""height:400px;""></stim_listA>",is being shouted at by,,,,,,
null,"<div style=""font-size:60px;"">+</div>",,html-keyboard-response,164,869985,0.0-15.0-0.9,49833,List1A,black,woman,,,,null,,,,,,,,,
null,"<img src=""stim_listA/shout1.gif""style=""height:400px;""></stim_listA>",,html-keyboard-response,165,872001,0.0-15.0-1.9,49833,List1A,black,woman,,,,null,,,,,,,,,
null,is shouting at,,html-keyboard-response,166,874006,0.0-15.0-2.9,49833,List1A,black,woman,,,,null,,,,,,,,,
11951.7,,,survey-text,167,885968,0.0-15.0-3.9,49833,List1A,black,woman,,,,,"{""Q0"":""beth is shouting at fred""}","<img src=""stim_listA/shout1.gif""style=""height:400px;""></stim_listA>",is shouting at,,,,,,
null,"<div style=""font-size:60px;"">+</div>",,html-keyboard-response,168,886478,0.0-15.0-0.10,49833,List1A,black,woman,,,,null,,,,,,,,,
null,"<img src=""stim_listA/look1.gif""style=""height:400px;""></stim_listA>",,html-keyboard-response,169,888487,0.0-15.0-1.10,49833,List1A,black,woman,,,,null,,,,,,,,,
null,is looking at,,html-keyboard-response,170,890504,0.0-15.0-2.10,49833,List1A,black,woman,,,,null,,,,,,,,,
10485.8,,,survey-text,171,901006,0.0-15.0-3.10,49833,List1A,black,woman,,,,,"{""Q0"":""fred is looking at beth""}","<img src=""stim_listA/look1.gif""style=""height:400px;""></stim_listA>",is looking at,,,,,,
null,"<div style=""font-size:60px;"">+</div>",,html-keyboard-response,172,901519,0.0-15.0-0.11,49833,List1A,black,woman,,,,null,,,,,,,,,
null,"<img src=""stim_listA/hug7.gif""style=""height:400px;""></stim_listA>",,html-keyboard-response,173,903540,0.0-15.0-1.11,49833,List1A,black,woman,,,,null,,,,,,,,,
null,is hugging,,html-keyboard-response,174,905546,0.0-15.0-2.11,49833,List1A,black,woman,,,,null,,,,,,,,,
11144.2,,,survey-text,175,916724,0.0-15.0-3.11,49833,List1A,black,woman,,,,,"{""Q0"":""ruth is hugging beth""}","<img src=""stim_listA/hug7.gif""style=""height:400px;""></stim_listA>",is hugging,,,,,,
null,"<div style=""font-size:60px;"">+</div>",,html-keyboard-response,176,917239,0.0-15.0-0.12,49833,List1A,black,woman,,,,null,,,,,,,,,
null,"<img src=""stim_listA/copy1.gif""style=""height:400px;""></stim_listA>",,html-keyboard-response,177,919247,0.0-15.0-1.12,49833,List1A,black,woman,,,,null,,,,,,,,,
null,is copying,,html-keyboard-response,178,921255,0.0-15.0-2.12,49833,List1A,black,woman,,,,null,,,,,,,,,
10440.5,,,survey-text,179,931721,0.0-15.0-3.12,49833,List1A,black,woman,,,,,"{""Q0"":""mike is copying beth""}","<img src=""stim_listA/copy1.gif""style=""height:400px;""></stim_listA>",is copying,,,,,,
null,"<div style=""font-size:60px;"">+</div>",,html-keyboard-response,180,932240,0.0-15.0-0.13,49833,List1A,black,woman,,,,null,,,,,,,,,
null,"<img src=""stim_listA/kiss4.gif""style=""height:400px;""></stim_listA>",,html-keyboard-response,181,934252,0.0-15.0-1.13,49833,List1A,black,woman,,,,null,,,,,,,,,
null,is being kissed by,,html-keyboard-response,182,936258,0.0-15.0-2.13,49833,List1A,black,woman,,,,null,,,,,,,,,
16486.9,,,survey-text,183,952754,0.0-15.0-3.13,49833,List1A,black,woman,,,,,"{""Q0"":""jane is being kissed by dave""}","<img src=""stim_listA/kiss4.gif""style=""height:400px;""></stim_listA>",is being kissed by,,,,,,
null,"<div style=""font-size:60px;"">+</div>",,html-keyboard-response,184,953264,0.0-15.0-0.14,49833,List1A,black,woman,,,,null,,,,,,,,,
null,"<img src=""stim_listA/look5.gif""style=""height:400px;""></stim_listA>",,html-keyboard-response,185,955277,0.0-15.0-1.14,49833,List1A,black,woman,,,,null,,,,,,,,,
null,is looking at,,html-keyboard-response,186,957280,0.0-15.0-2.14,49833,List1A,black,woman,,,,null,,,,,,,,,
10473.4,,,survey-text,187,967765,0.0-15.0-3.14,49833,List1A,black,woman,,,,,"{""Q0"":""luke is looking at fred""}","<img src=""stim_listA/look5.gif""style=""height:400px;""></stim_listA>",is looking at,,,,,,
null,"<div style=""font-size:60px;"">+</div>",,html-keyboard-response,188,968286,0.0-15.0-0.15,49833,List1A,black,woman,,,,null,,,,,,,,,
null,"<img src=""stim_listA/kiss2.gif""style=""height:400px;""></stim_listA>",,html-keyboard-response,189,970306,0.0-15.0-1.15,49833,List1A,black,woman,,,,null,,,,,,,,,
null,is being kissed by,,html-keyboard-response,190,972325,0.0-15.0-2.15,49833,List1A,black,woman,,,,null,,,,,,,,,
18333.2,,,survey-text,191,990677,0.0-15.0-3.15,49833,List1A,black,woman,,,,,"{""Q0"":""kate is being kissed by mike""}","<img src=""stim_listA/kiss2.gif""style=""height:400px;""></stim_listA>",is being kissed by,,,,,,
null,"<div style=""font-size:60px;"">+</div>",,html-keyboard-response,192,991201,0.0-15.0-0.16,49833,List1A,black,woman,,,,null,,,,,,,,,
null,"<img src=""stim_listA/touch3.gif""style=""height:400px;""></stim_listA>",,html-keyboard-response,193,993215,0.0-15.0-1.16,49833,List1A,black,woman,,,,null,,,,,,,,,
null,is touching,,html-keyboard-response,194,995227,0.0-15.0-2.16,49833,List1A,black,woman,,,,null,,,,,,,,,
9112.3,,,survey-text,195,1004355,0.0-15.0-3.16,49833,List1A,black,woman,,,,,"{""Q0"":""dave is touching jane""}","<img src=""stim_listA/touch3.gif""style=""height:400px;""></stim_listA>",is touching,,,,,,
null,"<div style=""font-size:60px;"">+</div>",,html-keyboard-response,196,1004863,0.0-15.0-0.17,49833,List1A,black,woman,,,,null,,,,,,,,,
null,"<img src=""stim_listA/hug8.gif""style=""height:400px;""></stim_listA>",,html-keyboard-response,197,1006872,0.0-15.0-1.17,49833,List1A,black,woman,,,,null,,,,,,,,,
null,is being hugged by,,html-keyboard-response,198,1008875,0.0-15.0-2.17,49833,List1A,black,woman,,,,null,,,,,,,,,
17075,,,survey-text,199,1025958,0.0-15.0-3.17,49833,List1A,black,woman,,,,,"{""Q0"":""jane is being hugged by kate""}","<img src=""stim_listA/hug8.gif""style=""height:400px;""></stim_listA>",is being hugged by,,,,,,
null,"<div style=""font-size:60px;"">+</div>",,html-keyboard-response,200,1026478,0.0-15.0-0.18,49833,List1A,black,woman,,,,null,,,,,,,,,
null,"<img src=""stim_listA/challenge2.gif""style=""height:400px;""></stim_listA>",,html-keyboard-response,201,1028499,0.0-15.0-1.18,49833,List1A,black,woman,,,,null,,,,,,,,,
null,is being challenged by,,html-keyboard-response,202,1030511,0.0-15.0-2.18,49833,List1A,black,woman,,,,null,,,,,,,,,
13388.9,,,survey-text,203,1043916,0.0-15.0-3.18,49833,List1A,black,woman,,,,,"{""Q0"":""kate is being challenged by fred""}","<img src=""stim_listA/challenge2.gif""style=""height:400px;""></stim_listA>",is being challenged by,,,,,,
null,"<div style=""font-size:60px;"">+</div>",,html-keyboard-response,204,1044434,0.0-15.0-0.19,49833,List1A,black,woman,,,,null,,,,,,,,,
null,"<img src=""stim_listA/seduce3.gif""style=""height:400px;""></stim_listA>",,html-keyboard-response,205,1046448,0.0-15.0-1.19,49833,List1A,black,woman,,,,null,,,,,,,,,
null,is seducing,,html-keyboard-response,206,1048455,0.0-15.0-2.19,49833,List1A,black,woman,,,,null,,,,,,,,,
10887,,,survey-text,207,1059364,0.0-15.0-3.19,49833,List1A,black,woman,,,,,"{""Q0"":""jane is seducing luke""}","<img src=""stim_listA/seduce3.gif""style=""height:400px;""></stim_listA>",is seducing,,,,,,
4926.2,"<img src='img/portrait_matrix_list1.jpg' style='width:900px;height:500px;''></img><p>If you have memorised all the portraits and names and are ready to start, press Continue.</p><p><strong>Please note: Your memory of these faces will be tested 4 times during this experiment.</strong></p>",0,html-button-response,208,1064297,0.0-16.0-0.0,49833,List1A,black,woman,,,,,,,,,,,,,
2734.4,"<img src=""portrait/WM2.jpg""style=""height:400px;""></img>",7,html-button-response,209,1068054,0.0-16.0-1.0,49833,List1A,black,woman,,TRUE,7,,,,,,,,,,
null,CORRECT,,html-keyboard-response,210,1069587,0.0-16.0-2.0-0.0,49833,List1A,black,woman,,,,null,,,,,,,,,
3761.1,"<img src=""portrait/WW2.jpg""style=""height:400px;""></img>",3,html-button-response,211,1073359,0.0-16.0-4.0,49833,List1A,black,woman,,TRUE,3,,,,,,,,,,
null,CORRECT,,html-keyboard-response,212,1074882,0.0-16.0-5.0-0.0,49833,List1A,black,woman,,,,null,,,,,,,,,
3036.4,"<img src=""portrait/WM1.jpg""style=""height:400px;""></img>",6,html-button-response,213,1077928,0.0-16.0-7.0,49833,List1A,black,woman,,TRUE,6,,,,,,,,,,
null,CORRECT,,html-keyboard-response,214,1079436,0.0-16.0-8.0-0.0,49833,List1A,black,woman,,,,null,,,,,,,,,
3461.9,"<img src=""portrait/BM1.jpg""style=""height:400px;""></img>",4,html-button-response,215,1082906,0.0-16.0-10.0,49833,List1A,black,woman,,TRUE,4,,,,,,,,,,
null,CORRECT,,html-keyboard-response,216,1084428,0.0-16.0-11.0-0.0,49833,List1A,black,woman,,,,null,,,,,,,,,
2562.1,"<img src=""portrait/BM2.jpg""style=""height:400px;""></img>",5,html-button-response,217,1086998,0.0-16.0-13.0,49833,List1A,black,woman,,TRUE,5,,,,,,,,,,
null,CORRECT,,html-keyboard-response,218,1088532,0.0-16.0-14.0-0.0,49833,List1A,black,woman,,,,null,,,,,,,,,
3398.7,"<img src=""portrait/BW2.jpg""style=""height:400px;""></img>",2,html-button-response,219,1091939,0.0-16.0-16.0,49833,List1A,black,woman,,TRUE,2,,,,,,,,,,
null,CORRECT,,html-keyboard-response,220,1093464,0.0-16.0-17.0-0.0,49833,List1A,black,woman,,,,null,,,,,,,,,
2392,"<img src=""portrait/WW1.jpg""style=""height:400px;""></img>",1,html-button-response,221,1095861,0.0-16.0-19.0,49833,List1A,black,woman,,TRUE,1,,,,,,,,,,
null,CORRECT,,html-keyboard-response,222,1097386,0.0-16.0-20.0-0.0,49833,List1A,black,woman,,,,null,,,,,,,,,
2825.2,"<img src=""portrait/BW1.jpg""style=""height:400px;""></img>",0,html-button-response,223,1100219,0.0-16.0-22.0,49833,List1A,black,woman,,TRUE,0,,,,,,,,,,
null,CORRECT,,html-keyboard-response,224,1101725,0.0-16.0-23.0-0.0,49833,List1A,black,woman,,,,null,,,,,,,,,
1514.1,<p>You got 8 out of 8 right first time. Press Continue.</p>,0,html-button-response,225,1103254,0.0-16.0-25.0,49833,List1A,black,woman,,,,,,,,,,,,,
null,"<div style=""font-size:60px;"">+</div>",,html-keyboard-response,226,1104770,0.0-17.0-0.0,49833,List1A,black,woman,,,,null,,,,,,,,,
null,"<img src=""stim_listA/challenge4.gif""style=""height:400px;""></stim_listA>",,html-keyboard-response,227,1106780,0.0-17.0-1.0,49833,List1A,black,woman,,,,null,,,,,,,,,
null,is being challenged by,,html-keyboard-response,228,1108791,0.0-17.0-2.0,49833,List1A,black,woman,,,,null,,,,,,,,,
12464.9,,,survey-text,229,1121271,0.0-17.0-3.0,49833,List1A,black,woman,,,,,"{""Q0"":""jane is being challenged by luke""}","<img src=""stim_listA/challenge4.gif""style=""height:400px;""></stim_listA>",is being challenged by,,,,,,
null,"<div style=""font-size:60px;"">+</div>",,html-keyboard-response,230,1121786,0.0-17.0-0.1,49833,List1A,black,woman,,,,null,,,,,,,,,
null,"<img src=""stim_listA/hug4.gif""style=""height:400px;""></stim_listA>",,html-keyboard-response,231,1123812,0.0-17.0-1.1,49833,List1A,black,woman,,,,null,,,,,,,,,
null,is being hugged by,,html-keyboard-response,232,1125831,0.0-17.0-2.1,49833,List1A,black,woman,,,,null,,,,,,,,,
9967.9,,,survey-text,233,1135814,0.0-17.0-3.1,49833,List1A,black,woman,,,,,"{""Q0"":""jane is being hugged by dave""}","<img src=""stim_listA/hug4.gif""style=""height:400px;""></stim_listA>",is being hugged by,,,,,,
null,"<div style=""font-size:60px;"">+</div>",,html-keyboard-response,234,1136336,0.0-17.0-0.2,49833,List1A,black,woman,,,,null,,,,,,,,,
null,"<img src=""stim_listA/hug2.gif""style=""height:400px;""></stim_listA>",,html-keyboard-response,235,1138350,0.0-17.0-1.2,49833,List1A,black,woman,,,,null,,,,,,,,,
null,is being hugged by,,html-keyboard-response,236,1140355,0.0-17.0-2.2,49833,List1A,black,woman,,,,null,,,,,,,,,
11880,,,survey-text,237,1152241,0.0-17.0-3.2,49833,List1A,black,woman,,,,,"{""Q0"":""kate is being hugged by mike""}","<img src=""stim_listA/hug2.gif""style=""height:400px;""></stim_listA>",is being hugged by,,,,,,
null,"<div style=""font-size:60px;"">+</div>",,html-keyboard-response,238,1152761,0.0-17.0-0.3,49833,List1A,black,woman,,,,null,,,,,,,,,
null,"<img src=""stim_listA/shout7.gif""style=""height:400px;""></stim_listA>",,html-keyboard-response,239,1154770,0.0-17.0-1.3,49833,List1A,black,woman,,,,null,,,,,,,,,
null,is shouting at,,html-keyboard-response,240,1156775,0.0-17.0-2.3,49833,List1A,black,woman,,,,null,,,,,,,,,
10854.9,,,survey-text,241,1167635,0.0-17.0-3.3,49833,List1A,black,woman,,,,,"{""Q0"":""beth is shouting at ruth""}","<img src=""stim_listA/shout7.gif""style=""height:400px;""></stim_listA>",is shouting at,,,,,,
null,"<div style=""font-size:60px;"">+</div>",,html-keyboard-response,242,1168148,0.0-17.0-0.4,49833,List1A,black,woman,,,,null,,,,,,,,,
null,"<img src=""stim_listA/greet7.gif""style=""height:400px;""></stim_listA>",,html-keyboard-response,243,1170170,0.0-17.0-1.4,49833,List1A,black,woman,,,,null,,,,,,,,,
null,is greeting,,html-keyboard-response,244,1172176,0.0-17.0-2.4,49833,List1A,black,woman,,,,null,,,,,,,,,
13490.9,,,survey-text,245,1185678,0.0-17.0-3.4,49833,List1A,black,woman,,,,,"{""Q0"":""kate is greeting ruth""}","<img src=""stim_listA/greet7.gif""style=""height:400px;""></stim_listA>",is greeting,,,,,,
null,"<div style=""font-size:60px;"">+</div>",,html-keyboard-response,246,1186192,0.0-17.0-0.5,49833,List1A,black,woman,,,,null,,,,,,,,,
null,"<img src=""stim_listA/oppose7.gif""style=""height:400px;""></stim_listA>",,html-keyboard-response,247,1188215,0.0-17.0-1.5,49833,List1A,black,woman,,,,null,,,,,,,,,
null,is opposing,,html-keyboard-response,248,1190219,0.0-17.0-2.5,49833,List1A,black,woman,,,,null,,,,,,,,,
10594,,,survey-text,249,1200821,0.0-17.0-3.5,49833,List1A,black,woman,,,,,"{""Q0"":""kate is opposing jane""}","<img src=""stim_listA/oppose7.gif""style=""height:400px;""></stim_listA>",is opposing,,,,,,
null,"<div style=""font-size:60px;"">+</div>",,html-keyboard-response,250,1201333,0.0-17.0-0.6,49833,List1A,black,woman,,,,null,,,,,,,,,
null,"<img src=""stim_listA/look7.gif""style=""height:400px;""></stim_listA>",,html-keyboard-response,251,1203349,0.0-17.0-1.6,49833,List1A,black,woman,,,,null,,,,,,,,,
null,is looking at,,html-keyboard-response,252,1205355,0.0-17.0-2.6,49833,List1A,black,woman,,,,null,,,,,,,,,
17405.7,,,survey-text,253,1222770,0.0-17.0-3.6,49833,List1A,black,woman,,,,,"{""Q0"":""beth is looking at ruth""}","<img src=""stim_listA/look7.gif""style=""height:400px;""></stim_listA>",is looking at,,,,,,
null,"<div style=""font-size:60px;"">+</div>",,html-keyboard-response,254,1223287,0.0-17.0-0.7,49833,List1A,black,woman,,,,null,,,,,,,,,
null,"<img src=""stim_listA/kiss3.gif""style=""height:400px;""></stim_listA>",,html-keyboard-response,255,1225302,0.0-17.0-1.7,49833,List1A,black,woman,,,,null,,,,,,,,,
null,is kissing,,html-keyboard-response,256,1227335,0.0-17.0-2.7,49833,List1A,black,woman,,,,null,,,,,,,,,
11674.9,,,survey-text,257,1239026,0.0-17.0-3.7,49833,List1A,black,woman,,,,,"{""Q0"":""luke is kissing ruth""}","<img src=""stim_listA/kiss3.gif""style=""height:400px;""></stim_listA>",is kissing,,,,,,
null,"<div style=""font-size:60px;"">+</div>",,html-keyboard-response,258,1239544,0.0-17.0-0.8,49833,List1A,black,woman,,,,null,,,,,,,,,
null,"<img src=""stim_listA/greet5.gif""style=""height:400px;""></stim_listA>",,html-keyboard-response,259,1241561,0.0-17.0-1.8,49833,List1A,black,woman,,,,null,,,,,,,,,
null,is greeting,,html-keyboard-response,260,1243568,0.0-17.0-2.8,49833,List1A,black,woman,,,,null,,,,,,,,,
11673.6,,,survey-text,261,1255257,0.0-17.0-3.8,49833,List1A,black,woman,,,,,"{""Q0"":""mike is greeting luke""}","<img src=""stim_listA/greet5.gif""style=""height:400px;""></stim_listA>",is greeting,,,,,,
null,"<div style=""font-size:60px;"">+</div>",,html-keyboard-response,262,1255774,0.0-17.0-0.9,49833,List1A,black,woman,,,,null,,,,,,,,,
null,"<img src=""stim_listA/greet1.gif""style=""height:400px;""></stim_listA>",,html-keyboard-response,263,1257788,0.0-17.0-1.9,49833,List1A,black,woman,,,,null,,,,,,,,,
null,is greeting,,html-keyboard-response,264,1259800,0.0-17.0-2.9,49833,List1A,black,woman,,,,null,,,,,,,,,
9333.1,,,survey-text,265,1269176,0.0-17.0-3.9,49833,List1A,black,woman,,,,,"{""Q0"":""mike is greeting beth""}","<img src=""stim_listA/greet1.gif""style=""height:400px;""></stim_listA>",is greeting,,,,,,
null,"<div style=""font-size:60px;"">+</div>",,html-keyboard-response,266,1269687,0.0-17.0-0.10,49833,List1A,black,woman,,,,null,,,,,,,,,
null,"<img src=""stim_listA/seduce1.gif""style=""height:400px;""></stim_listA>",,html-keyboard-response,267,1271703,0.0-17.0-1.10,49833,List1A,black,woman,,,,null,,,,,,,,,
null,is seducing,,html-keyboard-response,268,1273706,0.0-17.0-2.10,49833,List1A,black,woman,,,,null,,,,,,,,,
9830.1,,,survey-text,269,1283549,0.0-17.0-3.10,49833,List1A,black,woman,,,,,"{""Q0"":""kate is seducing fred""}","<img src=""stim_listA/seduce1.gif""style=""height:400px;""></stim_listA>",is seducing,,,,,,
null,"<div style=""font-size:60px;"">+</div>",,html-keyboard-response,270,1284064,0.0-17.0-0.11,49833,List1A,black,woman,,,,null,,,,,,,,,
null,"<img src=""stim_listA/touch4.gif""style=""height:400px;""></stim_listA>",,html-keyboard-response,271,1286078,0.0-17.0-1.11,49833,List1A,black,woman,,,,null,,,,,,,,,
null,is being touched by,,html-keyboard-response,272,1288084,0.0-17.0-2.11,49833,List1A,black,woman,,,,null,,,,,,,,,
14927.3,,,survey-text,273,1303023,0.0-17.0-3.11,49833,List1A,black,woman,,,,,"{""Q0"":""ruth is being touched by luke""}","<img src=""stim_listA/touch4.gif""style=""height:400px;""></stim_listA>",is being touched by,,,,,,
null,"<div style=""font-size:60px;"">+</div>",,html-keyboard-response,274,1303530,0.0-17.0-0.12,49833,List1A,black,woman,,,,null,,,,,,,,,
null,"<img src=""stim_listA/oppose8.gif""style=""height:400px;""></stim_listA>",,html-keyboard-response,275,1305548,0.0-17.0-1.12,49833,List1A,black,woman,,,,null,,,,,,,,,
null,is being opposed by,,html-keyboard-response,276,1307551,0.0-17.0-2.12,49833,List1A,black,woman,,,,null,,,,,,,,,
12951.8,,,survey-text,277,1320519,0.0-17.0-3.12,49833,List1A,black,woman,,,,,"{""Q0"":""ruth is being opposed by beth""}","<img src=""stim_listA/oppose8.gif""style=""height:400px;""></stim_listA>",is being opposed by,,,,,,
null,"<div style=""font-size:60px;"">+</div>",,html-keyboard-response,278,1321030,0.0-17.0-0.13,49833,List1A,black,woman,,,,null,,,,,,,,,
null,"<img src=""stim_listA/challenge5.gif""style=""height:400px;""></stim_listA>",,html-keyboard-response,279,1323053,0.0-17.0-1.13,49833,List1A,black,woman,,,,null,,,,,,,,,
null,is challenging,,html-keyboard-response,280,1325057,0.0-17.0-2.13,49833,List1A,black,woman,,,,null,,,,,,,,,
11410.6,,,survey-text,281,1336479,0.0-17.0-3.13,49833,List1A,black,woman,,,,,"{""Q0"":""mike is challenging luke""}","<img src=""stim_listA/challenge5.gif""style=""height:400px;""></stim_listA>",is challenging,,,,,,
null,"<div style=""font-size:60px;"">+</div>",,html-keyboard-response,282,1336984,0.0-17.0-0.14,49833,List1A,black,woman,,,,null,,,,,,,,,
null,"<img src=""stim_listA/kiss1.gif""style=""height:400px;""></stim_listA>",,html-keyboard-response,283,1339003,0.0-17.0-1.14,49833,List1A,black,woman,,,,null,,,,,,,,,
null,is kissing,,html-keyboard-response,284,1341018,0.0-17.0-2.14,49833,List1A,black,woman,,,,null,,,,,,,,,
11646.4,,,survey-text,285,1352677,0.0-17.0-3.14,49833,List1A,black,woman,,,,,"{""Q0"":""beth is kissing fred""}","<img src=""stim_listA/kiss1.gif""style=""height:400px;""></stim_listA>",is kissing,,,,,,
null,"<div style=""font-size:60px;"">+</div>",,html-keyboard-response,286,1353193,0.0-17.0-0.15,49833,List1A,black,woman,,,,null,,,,,,,,,
null,"<img src=""stim_listA/seduce4.gif""style=""height:400px;""></stim_listA>",,html-keyboard-response,287,1355206,0.0-17.0-1.15,49833,List1A,black,woman,,,,null,,,,,,,,,
null,is being seduced by,,html-keyboard-response,288,1357224,0.0-17.0-2.15,49833,List1A,black,woman,,,,null,,,,,,,,,
12004.4,,,survey-text,289,1369242,0.0-17.0-3.15,49833,List1A,black,woman,,,,,"{""Q0"":""ruth is being seduced by dave""}","<img src=""stim_listA/seduce4.gif""style=""height:400px;""></stim_listA>",is being seduced by,,,,,,
null,"<div style=""font-size:60px;"">+</div>",,html-keyboard-response,290,1369771,0.0-17.0-0.16,49833,List1A,black,woman,,,,null,,,,,,,,,
null,"<img src=""stim_listA/challenge7.gif""style=""height:400px;""></stim_listA>",,html-keyboard-response,291,1371779,0.0-17.0-1.16,49833,List1A,black,woman,,,,null,,,,,,,,,
null,is challenging,,html-keyboard-response,292,1373795,0.0-17.0-2.16,49833,List1A,black,woman,,,,null,,,,,,,,,
9467.1,,,survey-text,293,1383281,0.0-17.0-3.16,49833,List1A,black,woman,,,,,"{""Q0"":""kate is challenging ruth""}","<img src=""stim_listA/challenge7.gif""style=""height:400px;""></stim_listA>",is challenging,,,,,,
null,"<div style=""font-size:60px;"">+</div>",,html-keyboard-response,294,1383804,0.0-17.0-0.17,49833,List1A,black,woman,,,,null,,,,,,,,,
null,"<img src=""stim_listA/touch1.gif""style=""height:400px;""></stim_listA>",,html-keyboard-response,295,1385815,0.0-17.0-1.17,49833,List1A,black,woman,,,,null,,,,,,,,,
null,is touching,,html-keyboard-response,296,1387818,0.0-17.0-2.17,49833,List1A,black,woman,,,,null,,,,,,,,,
17076,,,survey-text,297,1404919,0.0-17.0-3.17,49833,List1A,black,woman,,,,,"{""Q0"":""mike is touching kate""}","<img src=""stim_listA/touch1.gif""style=""height:400px;""></stim_listA>",is touching,,,,,,
null,"<div style=""font-size:60px;"">+</div>",,html-keyboard-response,298,1405432,0.0-17.0-0.18,49833,List1A,black,woman,,,,null,,,,,,,,,
null,"<img src=""stim_listA/seduce6.gif""style=""height:400px;""></stim_listA>",,html-keyboard-response,299,1407453,0.0-17.0-1.18,49833,List1A,black,woman,,,,null,,,,,,,,,
null,is being seduced by,,html-keyboard-response,300,1409514,0.0-17.0-2.18,49833,List1A,black,woman,,,,null,,,,,,,,,
12454.5,,,survey-text,301,1422013,0.0-17.0-3.18,49833,List1A,black,woman,,,,,"{""Q0"":""luke is being seduced by mike""}","<img src=""stim_listA/seduce6.gif""style=""height:400px;""></stim_listA>",is being seduced by,,,,,,
null,"<div style=""font-size:60px;"">+</div>",,html-keyboard-response,302,1422525,0.0-17.0-0.19,49833,List1A,black,woman,,,,null,,,,,,,,,
null,"<img src=""stim_listA/oppose1.gif""style=""height:400px;""></stim_listA>",,html-keyboard-response,303,1424546,0.0-17.0-1.19,49833,List1A,black,woman,,,,null,,,,,,,,,
null,is opposing,,html-keyboard-response,304,1426557,0.0-17.0-2.19,49833,List1A,black,woman,,,,null,,,,,,,,,
8499.8,,,survey-text,305,1435063,0.0-17.0-3.19,49833,List1A,black,woman,,,,,"{""Q0"":""mike is opposing kate""}","<img src=""stim_listA/oppose1.gif""style=""height:400px;""></stim_listA>",is opposing,,,,,,
2751.4,"<img src='img/portrait_matrix_list1.jpg' style='width:900px;height:500px;''></img><p>If you have memorised all the portraits and names and are ready to start, press Continue.</p><p><strong>Please note: Your memory of these faces will be tested 4 times during this experiment.</strong></p>",0,html-button-response,306,1437820,0.0-18.0-0.0,49833,List1A,black,woman,,,,,,,,,,,,,
2065.2,"<img src=""portrait/WM1.jpg""style=""height:400px;""></img>",6,html-button-response,307,1440895,0.0-18.0-1.0,49833,List1A,black,woman,,TRUE,6,,,,,,,,,,
null,CORRECT,,html-keyboard-response,308,1442431,0.0-18.0-2.0-0.0,49833,List1A,black,woman,,,,null,,,,,,,,,
2170.9,"<img src=""portrait/WM2.jpg""style=""height:400px;""></img>",7,html-button-response,309,1444606,0.0-18.0-4.0,49833,List1A,black,woman,,TRUE,7,,,,,,,,,,
null,CORRECT,,html-keyboard-response,310,1446119,0.0-18.0-5.0-0.0,49833,List1A,black,woman,,,,null,,,,,,,,,
2117.5,"<img src=""portrait/WW2.jpg""style=""height:400px;""></img>",3,html-button-response,311,1448240,0.0-18.0-7.0,49833,List1A,black,woman,,TRUE,3,,,,,,,,,,
null,CORRECT,,html-keyboard-response,312,1449766,0.0-18.0-8.0-0.0,49833,List1A,black,woman,,,,null,,,,,,,,,
2065.9,"<img src=""portrait/BM1.jpg""style=""height:400px;""></img>",4,html-button-response,313,1451836,0.0-18.0-10.0,49833,List1A,black,woman,,TRUE,4,,,,,,,,,,
null,CORRECT,,html-keyboard-response,314,1453361,0.0-18.0-11.0-0.0,49833,List1A,black,woman,,,,null,,,,,,,,,
1972.7,"<img src=""portrait/WW1.jpg""style=""height:400px;""></img>",1,html-button-response,315,1455337,0.0-18.0-13.0,49833,List1A,black,woman,,TRUE,1,,,,,,,,,,
null,CORRECT,,html-keyboard-response,316,1456854,0.0-18.0-14.0-0.0,49833,List1A,black,woman,,,,null,,,,,,,,,
1655.1,"<img src=""portrait/BW1.jpg""style=""height:400px;""></img>",0,html-button-response,317,1458514,0.0-18.0-16.0,49833,List1A,black,woman,,TRUE,0,,,,,,,,,,
null,CORRECT,,html-keyboard-response,318,1460021,0.0-18.0-17.0-0.0,49833,List1A,black,woman,,,,null,,,,,,,,,
1648.6,"<img src=""portrait/BW2.jpg""style=""height:400px;""></img>",2,html-button-response,319,1461674,0.0-18.0-19.0,49833,List1A,black,woman,,TRUE,2,,,,,,,,,,
null,CORRECT,,html-keyboard-response,320,1463201,0.0-18.0-20.0-0.0,49833,List1A,black,woman,,,,null,,,,,,,,,
1901.2,"<img src=""portrait/BM2.jpg""style=""height:400px;""></img>",5,html-button-response,321,1465106,0.0-18.0-22.0,49833,List1A,black,woman,,TRUE,5,,,,,,,,,,
null,CORRECT,,html-keyboard-response,322,1466638,0.0-18.0-23.0-0.0,49833,List1A,black,woman,,,,null,,,,,,,,,
2346.3,<p>You got 8 out of 8 right first time. Press Continue.</p>,0,html-button-response,323,1468987,0.0-18.0-25.0,49833,List1A,black,woman,,,,,,,,,,,,,
null,"<div style=""font-size:60px;"">+</div>",,html-keyboard-response,324,1470511,0.0-19.0-0.0,49833,List1A,black,woman,,,,null,,,,,,,,,
null,"<img src=""stim_listA/shout3.gif""style=""height:400px;""></stim_listA>",,html-keyboard-response,325,1472514,0.0-19.0-1.0,49833,List1A,black,woman,,,,null,,,,,,,,,
null,is shouting at,,html-keyboard-response,326,1474533,0.0-19.0-2.0,49833,List1A,black,woman,,,,null,,,,,,,,,
11399.5,,,survey-text,327,1485947,0.0-19.0-3.0,49833,List1A,black,woman,,,,,"{""Q0"":""luke is shouting at ruth""}","<img src=""stim_listA/shout3.gif""style=""height:400px;""></stim_listA>",is shouting at,,,,,,
null,"<div style=""font-size:60px;"">+</div>",,html-keyboard-response,328,1486465,0.0-19.0-0.1,49833,List1A,black,woman,,,,null,,,,,,,,,
null,"<img src=""stim_listA/kiss5.gif""style=""height:400px;""></stim_listA>",,html-keyboard-response,329,1488476,0.0-19.0-1.1,49833,List1A,black,woman,,,,null,,,,,,,,,
null,is kissing,,html-keyboard-response,330,1490490,0.0-19.0-2.1,49833,List1A,black,woman,,,,null,,,,,,,,,
7496.8,,,survey-text,331,1498030,0.0-19.0-3.1,49833,List1A,black,woman,,,,,"{""Q0"":""fred is kissing luke""}","<img src=""stim_listA/kiss5.gif""style=""height:400px;""></stim_listA>",is kissing,,,,,,
null,"<div style=""font-size:60px;"">+</div>",,html-keyboard-response,332,1498540,0.0-19.0-0.2,49833,List1A,black,woman,,,,null,,,,,,,,,
null,"<img src=""stim_listA/seduce2.gif""style=""height:400px;""></stim_listA>",,html-keyboard-response,333,1500554,0.0-19.0-1.2,49833,List1A,black,woman,,,,null,,,,,,,,,
null,is being seduced by,,html-keyboard-response,334,1502560,0.0-19.0-2.2,49833,List1A,black,woman,,,,null,,,,,,,,,
11035.4,,,survey-text,335,1513604,0.0-19.0-3.2,49833,List1A,black,woman,,,,,"{""Q0"":""beth is being seduced by mike""}","<img src=""stim_listA/seduce2.gif""style=""height:400px;""></stim_listA>",is being seduced by,,,,,,
null,"<div style=""font-size:60px;"">+</div>",,html-keyboard-response,336,1514119,0.0-19.0-0.3,49833,List1A,black,woman,,,,null,,,,,,,,,
null,"<img src=""stim_listA/challenge1.gif""style=""height:400px;""></stim_listA>",,html-keyboard-response,337,1516133,0.0-19.0-1.3,49833,List1A,black,woman,,,,null,,,,,,,,,
null,is challenging,,html-keyboard-response,338,1518144,0.0-19.0-2.3,49833,List1A,black,woman,,,,null,,,,,,,,,
9065.1,,,survey-text,339,1527222,0.0-19.0-3.3,49833,List1A,black,woman,,,,,"{""Q0"":""mike is challenging beth""}","<img src=""stim_listA/challenge1.gif""style=""height:400px;""></stim_listA>",is challenging,,,,,,
null,"<div style=""font-size:60px;"">+</div>",,html-keyboard-response,340,1527740,0.0-19.0-0.4,49833,List1A,black,woman,,,,null,,,,,,,,,
null,"<img src=""stim_listA/look8.gif""style=""height:400px;""></stim_listA>",,html-keyboard-response,341,1529756,0.0-19.0-1.4,49833,List1A,black,woman,,,,null,,,,,,,,,
null,is being looked at by,,html-keyboard-response,342,1531765,0.0-19.0-2.4,49833,List1A,black,woman,,,,null,,,,,,,,,
17928.1,,,survey-text,343,1549701,0.0-19.0-3.4,49833,List1A,black,woman,,,,,"{""Q0"":""jane is being looked at by kate""}","<img src=""stim_listA/look8.gif""style=""height:400px;""></stim_listA>",is being looked at by,,,,,,
null,"<div style=""font-size:60px;"">+</div>",,html-keyboard-response,344,1550214,0.0-19.0-0.5,49833,List1A,black,woman,,,,null,,,,,,,,,
null,"<img src=""stim_listA/shout5.gif""style=""height:400px;""></stim_listA>",,html-keyboard-response,345,1552227,0.0-19.0-1.5,49833,List1A,black,woman,,,,null,,,,,,,,,
null,is shouting at,,html-keyboard-response,346,1554243,0.0-19.0-2.5,49833,List1A,black,woman,,,,null,,,,,,,,,
9805,,,survey-text,347,1564089,0.0-19.0-3.5,49833,List1A,black,woman,,,,,"{""Q0"":""fred is shouting at luke""}","<img src=""stim_listA/shout5.gif""style=""height:400px;""></stim_listA>",is shouting at,,,,,,
null,"<div style=""font-size:60px;"">+</div>",,html-keyboard-response,348,1564599,0.0-19.0-0.6,49833,List1A,black,woman,,,,null,,,,,,,,,
null,"<img src=""stim_listA/hug5.gif""style=""height:400px;""></stim_listA>",,html-keyboard-response,349,1566614,0.0-19.0-1.6,49833,List1A,black,woman,,,,null,,,,,,,,,
null,is hugging,,html-keyboard-response,350,1568626,0.0-19.0-2.6,49833,List1A,black,woman,,,,null,,,,,,,,,
8352.9,,,survey-text,351,1577000,0.0-19.0-3.6,49833,List1A,black,woman,,,,,"{""Q0"":""fred is hugging luke""}","<img src=""stim_listA/hug5.gif""style=""height:400px;""></stim_listA>",is hugging,,,,,,
null,"<div style=""font-size:60px;"">+</div>",,html-keyboard-response,352,1577509,0.0-19.0-0.7,49833,List1A,black,woman,,,,null,,,,,,,,,
null,"<img src=""stim_listA/seduce7.gif""style=""height:400px;""></stim_listA>",,html-keyboard-response,353,1579526,0.0-19.0-1.7,49833,List1A,black,woman,,,,null,,,,,,,,,
null,is seducing,,html-keyboard-response,354,1581532,0.0-19.0-2.7,49833,List1A,black,woman,,,,null,,,,,,,,,
11839.8,,,survey-text,355,1593378,0.0-19.0-3.7,49833,List1A,black,woman,,,,,"{""Q0"":""beth is seducing jane""}","<img src=""stim_listA/seduce7.gif""style=""height:400px;""></stim_listA>",is seducing,,,,,,
null,"<div style=""font-size:60px;"">+</div>",,html-keyboard-response,356,1593897,0.0-19.0-0.8,49833,List1A,black,woman,,,,null,,,,,,,,,
null,"<img src=""stim_listA/seduce8.gif""style=""height:400px;""></stim_listA>",,html-keyboard-response,357,1595910,0.0-19.0-1.8,49833,List1A,black,woman,,,,null,,,,,,,,,
null,is being seduced by,,html-keyboard-response,358,1597928,0.0-19.0-2.8,49833,List1A,black,woman,,,,null,,,,,,,,,
12240.8,,,survey-text,359,1610184,0.0-19.0-3.8,49833,List1A,black,woman,,,,,"{""Q0"":""ruth is being seduced by kate""}","<img src=""stim_listA/seduce8.gif""style=""height:400px;""></stim_listA>",is being seduced by,,,,,,
null,"<div style=""font-size:60px;"">+</div>",,html-keyboard-response,360,1610704,0.0-19.0-0.9,49833,List1A,black,woman,,,,null,,,,,,,,,
null,"<img src=""stim_listA/challenge6.gif""style=""height:400px;""></stim_listA>",,html-keyboard-response,361,1612722,0.0-19.0-1.9,49833,List1A,black,woman,,,,null,,,,,,,,,
null,is being challenged by,,html-keyboard-response,362,1614727,0.0-19.0-2.9,49833,List1A,black,woman,,,,null,,,,,,,,,
23005.4,,,survey-text,363,1637758,0.0-19.0-3.9,49833,List1A,black,woman,,,,,"{""Q0"":""dave is being challenged by fred""}","<img src=""stim_listA/challenge6.gif""style=""height:400px;""></stim_listA>",is being challenged by,,,,,,
null,"<div style=""font-size:60px;"">+</div>",,html-keyboard-response,364,1638275,0.0-19.0-0.10,49833,List1A,black,woman,,,,null,,,,,,,,,
null,"<img src=""stim_listA/copy6.gif""style=""height:400px;""></stim_listA>",,html-keyboard-response,365,1640294,0.0-19.0-1.10,49833,List1A,black,woman,,,,null,,,,,,,,,
null,is being copied by,,html-keyboard-response,366,1642298,0.0-19.0-2.10,49833,List1A,black,woman,,,,null,,,,,,,,,
12768.8,,,survey-text,367,1655074,0.0-19.0-3.10,49833,List1A,black,woman,,,,,"{""Q0"":""dave is being copied by fred""}","<img src=""stim_listA/copy6.gif""style=""height:400px;""></stim_listA>",is being copied by,,,,,,
null,"<div style=""font-size:60px;"">+</div>",,html-keyboard-response,368,1655590,0.0-19.0-0.11,49833,List1A,black,woman,,,,null,,,,,,,,,
null,"<img src=""stim_listA/oppose2.gif""style=""height:400px;""></stim_listA>",,html-keyboard-response,369,1657603,0.0-19.0-1.11,49833,List1A,black,woman,,,,null,,,,,,,,,
null,is being opposed by,,html-keyboard-response,370,1659618,0.0-19.0-2.11,49833,List1A,black,woman,,,,null,,,,,,,,,
12860.1,,,survey-text,371,1672487,0.0-19.0-3.11,49833,List1A,black,woman,,,,,"{""Q0"":""beth is being opposed by fred""}","<img src=""stim_listA/oppose2.gif""style=""height:400px;""></stim_listA>",is being opposed by,,,,,,
null,"<div style=""font-size:60px;"">+</div>",,html-keyboard-response,372,1673006,0.0-19.0-0.12,49833,List1A,black,woman,,,,null,,,,,,,,,
null,"<img src=""stim_listA/oppose4.gif""style=""height:400px;""></stim_listA>",,html-keyboard-response,373,1675023,0.0-19.0-1.12,49833,List1A,black,woman,,,,null,,,,,,,,,
null,is being opposed by,,html-keyboard-response,374,1677042,0.0-19.0-2.12,49833,List1A,black,woman,,,,null,,,,,,,,,
15915.3,,,survey-text,375,1692983,0.0-19.0-3.12,49833,List1A,black,woman,,,,,"{""Q0"":""ruth is being opposed by luke""}","<img src=""stim_listA/oppose4.gif""style=""height:400px;""></stim_listA>",is being opposed by,,,,,,
null,"<div style=""font-size:60px;"">+</div>",,html-keyboard-response,376,1693499,0.0-19.0-0.13,49833,List1A,black,woman,,,,null,,,,,,,,,
null,"<img src=""stim_listA/shout6.gif""style=""height:400px;""></stim_listA>",,html-keyboard-response,377,1695504,0.0-19.0-1.13,49833,List1A,black,woman,,,,null,,,,,,,,,
null,is being shouted at by,,html-keyboard-response,378,1697518,0.0-19.0-2.13,49833,List1A,black,woman,,,,null,,,,,,,,,
15733.5,,,survey-text,379,1713261,0.0-19.0-3.13,49833,List1A,black,woman,,,,,"{""Q0"":""dave is being shouted at by mike""}","<img src=""stim_listA/shout6.gif""style=""height:400px;""></stim_listA>",is being shouted at by,,,,,,
null,"<div style=""font-size:60px;"">+</div>",,html-keyboard-response,380,1713781,0.0-19.0-0.14,49833,List1A,black,woman,,,,null,,,,,,,,,
null,"<img src=""stim_listA/copy3.gif""style=""height:400px;""></stim_listA>",,html-keyboard-response,381,1715791,0.0-19.0-1.14,49833,List1A,black,woman,,,,null,,,,,,,,,
null,is copying,,html-keyboard-response,382,1717810,0.0-19.0-2.14,49833,List1A,black,woman,,,,null,,,,,,,,,
17484.7,,,survey-text,383,1735336,0.0-19.0-3.14,49833,List1A,black,woman,,,,,"{""Q0"":""ruth is copying dave""}","<img src=""stim_listA/copy3.gif""style=""height:400px;""></stim_listA>",is copying,,,,,,
null,"<div style=""font-size:60px;"">+</div>",,html-keyboard-response,384,1735845,0.0-19.0-0.15,49833,List1A,black,woman,,,,null,,,,,,,,,
null,"<img src=""stim_listA/oppose5.gif""style=""height:400px;""></stim_listA>",,html-keyboard-response,385,1737854,0.0-19.0-1.15,49833,List1A,black,woman,,,,null,,,,,,,,,
null,is opposing,,html-keyboard-response,386,1739858,0.0-19.0-2.15,49833,List1A,black,woman,,,,null,,,,,,,,,
8924.8,,,survey-text,387,1748818,0.0-19.0-3.15,49833,List1A,black,woman,,,,,"{""Q0"":""dave is opposing mike""}","<img src=""stim_listA/oppose5.gif""style=""height:400px;""></stim_listA>",is opposing,,,,,,
null,"<div style=""font-size:60px;"">+</div>",,html-keyboard-response,388,1749344,0.0-19.0-0.16,49833,List1A,black,woman,,,,null,,,,,,,,,
null,"<img src=""stim_listA/touch7.gif""style=""height:400px;""></stim_listA>",,html-keyboard-response,389,1751360,0.0-19.0-1.16,49833,List1A,black,woman,,,,null,,,,,,,,,
null,is touching,,html-keyboard-response,390,1753366,0.0-19.0-2.16,49833,List1A,black,woman,,,,null,,,,,,,,,
9963.2,,,survey-text,391,1763360,0.0-19.0-3.16,49833,List1A,black,woman,,,,,"{""Q0"":""kate is touching jane""}","<img src=""stim_listA/touch7.gif""style=""height:400px;""></stim_listA>",is touching,,,,,,
null,"<div style=""font-size:60px;"">+</div>",,html-keyboard-response,392,1763884,0.0-19.0-0.17,49833,List1A,black,woman,,,,null,,,,,,,,,
null,"<img src=""stim_listA/copy4.gif""style=""height:400px;""></stim_listA>",,html-keyboard-response,393,1765902,0.0-19.0-1.17,49833,List1A,black,woman,,,,null,,,,,,,,,
null,is being copied by,,html-keyboard-response,394,1767923,0.0-19.0-2.17,49833,List1A,black,woman,,,,null,,,,,,,,,
11700.2,,,survey-text,395,1779645,0.0-19.0-3.17,49833,List1A,black,woman,,,,,"{""Q0"":""jane is being copied by luke""}","<img src=""stim_listA/copy4.gif""style=""height:400px;""></stim_listA>",is being copied by,,,,,,
null,"<div style=""font-size:60px;"">+</div>",,html-keyboard-response,396,1780161,0.0-19.0-0.18,49833,List1A,black,woman,,,,null,,,,,,,,,
null,"<img src=""stim_listA/copy5.gif""style=""height:400px;""></stim_listA>",,html-keyboard-response,397,1782178,0.0-19.0-1.18,49833,List1A,black,woman,,,,null,,,,,,,,,
null,is copying,,html-keyboard-response,398,1784189,0.0-19.0-2.18,49833,List1A,black,woman,,,,null,,,,,,,,,
9304.6,,,survey-text,399,1793500,0.0-19.0-3.18,49833,List1A,black,woman,,,,,"{""Q0"":""mike is copying luke""}","<img src=""stim_listA/copy5.gif""style=""height:400px;""></stim_listA>",is copying,,,,,,
null,"<div style=""font-size:60px;"">+</div>",,html-keyboard-response,400,1794014,0.0-19.0-0.19,49833,List1A,black,woman,,,,null,,,,,,,,,
null,"<img src=""stim_listA/challenge3.gif""style=""height:400px;""></stim_listA>",,html-keyboard-response,401,1796045,0.0-19.0-1.19,49833,List1A,black,woman,,,,null,,,,,,,,,
null,is challenging,,html-keyboard-response,402,1798061,0.0-19.0-2.19,49833,List1A,black,woman,,,,null,,,,,,,,,
13943,,,survey-text,403,1812023,0.0-19.0-3.19,49833,List1A,black,woman,,,,,"{""Q0"":""dave is challenging ruth""}","<img src=""stim_listA/challenge3.gif""style=""height:400px;""></stim_listA>",is challenging,,,,,,
5199.7,<p>Thank you for completing that task.</p><p>The final part of this session is a questionnaire that will take about 4 minutes.</p><p>Press Continue.</p>,0,html-button-response,404,1817227,0.0-20.0,49833,List1A,black,woman,,,,,,,,,,,,,
62803.9,,,survey-text,405,1881068,0.0-21.0,49833,List1A,black,woman,,,,,"{""Q0"":""26"",""Q1"":""english"",""Q2"":""english"",""Q3"":""united states"",""Q4"":""united states"",""Q5"":""black/african -american"",""Q6"":""female""}",,,demographics,,,,,
4325.1,<p>Have you lived in the USA for the last 5 years or more?</p>,0,html-button-response,406,1885407,0.0-22.0,49833,List1A,black,woman,,,,,,,,fiveyears,,,,,
3510.4,<p>Move the slider to show the extent to which you agree with the following statements.</p>,0,html-button-response,407,1889938,0.0-23.0,49833,List1A,black,woman,,,,,,,,,,,,,
8588,,,html-slider-response,408,1899541,0.0-24.0-0.0-0.0,49833,List1A,black,woman,,,,,,,,survey_gender,90,,,Most of the friends in my life are very similar to me.,filler
8490.7,,,html-slider-response,409,1908039,0.0-24.0-0.0-0.1,49833,List1A,black,woman,,,,,,,,survey_gender,38,,,People of my gender are very similar to each other.,verysimilar
8735.9,,,html-slider-response,410,1916782,0.0-24.0-0.0-0.2,49833,List1A,black,woman,,,,,,,,survey_gender,38,,,I often think about the fact that I am my gender.,often
8442.9,,,html-slider-response,411,1925233,0.0-24.0-0.0-0.3,49833,List1A,black,woman,,,,,,,,survey_gender,63,,,People of my gender have a lot in common with each other.,common
6599.6,,,html-slider-response,412,1931840,0.0-24.0-0.0-0.4,49833,List1A,black,woman,,,,,,,,survey_gender,73,,,I often think about my actions.,filler
6870.6,,,html-slider-response,413,1938719,0.0-24.0-0.0-0.5,49833,List1A,black,woman,,,,,,,,survey_gender,90,,,Being my gender gives me a good feeling.,feeling
9556.9,,,html-slider-response,414,1948281,0.0-24.0-0.0-0.6,49833,List1A,black,woman,,,,,,,,survey_gender,56,,,It is not always easy for people to know what I am thinking.,filler
6617.5,,,html-slider-response,415,1954910,0.0-24.0-0.0-0.7,49833,List1A,black,woman,,,,,,,,survey_gender,47,,,I have a lot in common with the average person of my gender.,average
7213.3,,,html-slider-response,416,1962130,0.0-24.0-0.0-0.8,49833,List1A,black,woman,,,,,,,,survey_gender,78,,,I feel a bond with my friends.,filler
6495.1,,,html-slider-response,417,1968636,0.0-24.0-0.0-0.9,49833,List1A,black,woman,,,,,,,,survey_gender,100,,,Being around my friends gives me a good feeling.,filler
5534.7,,,html-slider-response,418,1974178,0.0-24.0-0.0-0.10,49833,List1A,black,woman,,,,,,,,survey_gender,100,,,I think that my gender has a lot to be proud of.,proud
4729.4,,,html-slider-response,419,1978921,0.0-24.0-0.0-0.11,49833,List1A,black,woman,,,,,,,,survey_gender,100,,,I feel a bond with my gender.,bond
5324,,,html-slider-response,420,1984252,0.0-24.0-0.0-0.12,49833,List1A,black,woman,,,,,,,,survey_gender,97,,,It is pleasant to be my gender.,pleasant
4729.9,,,html-slider-response,421,1988987,0.0-24.0-0.0-0.13,49833,List1A,black,woman,,,,,,,,survey_gender,56,,,I feel committed to my gender.,committed
4910.3,,,html-slider-response,422,1993902,0.0-24.0-0.0-0.14,49833,List1A,black,woman,,,,,,,,survey_gender,100,,,I am glad to have the friends that I have.,filler
13639.6,,,html-slider-response,423,2007547,0.0-24.0-0.0-0.15,49833,List1A,black,woman,,,,,,,,survey_gender,50,,,The fact that I am my gender is an important part of my identity.,identity
8077.1,,,html-slider-response,424,2015635,0.0-24.0-0.0-0.16,49833,List1A,black,woman,,,,,,,,survey_gender,37,,,Routine is not important to me.,filler
4845.9,,,html-slider-response,425,2020488,0.0-24.0-0.0-0.17,49833,List1A,black,woman,,,,,,,,survey_gender,83,,,I feel solidarity with my gender.,solidarity
5449.8,,,html-slider-response,426,2025944,0.0-24.0-0.0-0.18,49833,List1A,black,woman,,,,,,,,survey_gender,76,,,My friends have a lot in common with each other.,filler
6083.8,,,html-slider-response,427,2032037,0.0-24.0-0.0-0.19,49833,List1A,black,woman,,,,,,,,survey_gender,51,,,I consider myself a highly empathetic person.,filler
6476.2,,,html-slider-response,428,2038518,0.0-24.0-0.0-0.20,49833,List1A,black,woman,,,,,,,,survey_gender,12,,,I would say I am an animal person.,filler
6148.6,,,html-slider-response,429,2044674,0.0-24.0-0.0-0.21,49833,List1A,black,woman,,,,,,,,survey_gender,14,,,Family is not more important to me than friendship.,filler
4635.3,,,html-slider-response,430,2049319,0.0-24.0-0.0-0.22,49833,List1A,black,woman,,,,,,,,survey_gender,53,,,I am similar to the average person of my gender.,similar
8755.3,,,html-slider-response,431,2058081,0.0-24.0-0.0-0.23,49833,List1A,black,woman,,,,,,,,survey_gender,52,,,Being my gender is an important part of how I see myself.,important
5828.9,,,html-slider-response,432,2063921,0.0-24.0-0.0-0.24,49833,List1A,black,woman,,,,,,,,survey_gender,60,,,I am glad to be my gender.,glad
5627.8,,,html-slider-response,433,2069553,0.0-24.0-0.0-0.25,49833,List1A,black,woman,,,,,,,,survey_gender,75,,,I have a lot in common with my friends.,filler
6116,,,html-slider-response,434,2075676,0.0-24.0-0.0-0.26,49833,List1A,black,woman,,,,,,,,survey_gender,71,,,I feel solidarity with my friends.,filler
8493.7,,,html-slider-response,435,2084178,0.0-24.0-0.0-0.27,49833,List1A,black,woman,,,,,,,,survey_gender,85,,,My friends understand me.,filler
10351.9,,,html-slider-response,436,2094540,0.0-24.0-1.0-0.0,49833,List1A,black,woman,,,,,,,,survey_race,79,,,It is pleasant to be my race.,pleasant
5246.3,,,html-slider-response,437,2099793,0.0-24.0-1.0-0.1,49833,List1A,black,woman,,,,,,,,survey_race,79,,,I am glad to be my age.,filler
6299.8,,,html-slider-response,438,2106100,0.0-24.0-1.0-0.2,49833,List1A,black,woman,,,,,,,,survey_race,30,,,People of my race are very similar to each other.,verysimilar
5767.7,,,html-slider-response,439,2111873,0.0-24.0-1.0-0.3,49833,List1A,black,woman,,,,,,,,survey_race,18,,,I often think about the fact that I am my age.,filler
4765.6,,,html-slider-response,440,2116646,0.0-24.0-1.0-0.4,49833,List1A,black,woman,,,,,,,,survey_race,69,,,I feel solidarity with people the same age as me.,filler
10066.5,,,html-slider-response,441,2126721,0.0-24.0-1.0-0.5,49833,List1A,black,woman,,,,,,,,survey_race,99,,,I consider myself an introvert.,filler
5076.2,,,html-slider-response,442,2131805,0.0-24.0-1.0-0.6,49833,List1A,black,woman,,,,,,,,survey_race,70,,,Being my race gives me a good feeling.,feeling
7724.1,,,html-slider-response,443,2139536,0.0-24.0-1.0-0.7,49833,List1A,black,woman,,,,,,,,survey_race,7,,,I consider myself an extrovert.,filler
11107.8,,,html-slider-response,444,2150651,0.0-24.0-1.0-0.8,49833,List1A,black,woman,,,,,,,,survey_race,53,,,I am similar to the average person of my race.,similar
7141.7,,,html-slider-response,445,2157800,0.0-24.0-1.0-0.9,49833,List1A,black,woman,,,,,,,,survey_race,26,,,People my age have a lot in common with each other.,filler
8111.2,,,html-slider-response,446,2165918,0.0-24.0-1.0-0.10,49833,List1A,black,woman,,,,,,,,survey_race,53,,,The fact that I am my race is an important part of my identity.,identity
9379.2,,,html-slider-response,447,2175303,0.0-24.0-1.0-0.11,49833,List1A,black,woman,,,,,,,,survey_race,78,,,My age is not an important part of who I am.,filler
6117.8,,,html-slider-response,448,2181428,0.0-24.0-1.0-0.12,49833,List1A,black,woman,,,,,,,,survey_race,29,,,I often think about the fact that I am my race.,often
5864.9,,,html-slider-response,449,2187301,0.0-24.0-1.0-0.13,49833,List1A,black,woman,,,,,,,,survey_race,97,,,"The older I get, the wiser I feel.",filler
6957.1,,,html-slider-response,450,2194266,0.0-24.0-1.0-0.14,49833,List1A,black,woman,,,,,,,,survey_race,70,,,I feel a bond with people the same age as me.,filler
5337.7,,,html-slider-response,451,2199610,0.0-24.0-1.0-0.15,49833,List1A,black,woman,,,,,,,,survey_race,23,,,I have a lot in common with the average person of my race.,average
6155.5,,,html-slider-response,452,2205774,0.0-24.0-1.0-0.16,49833,List1A,black,woman,,,,,,,,survey_race,42,,,I have a lot in common with people of a similar age to me.,filler
7219.8,,,html-slider-response,453,2212999,0.0-24.0-1.0-0.17,49833,List1A,black,woman,,,,,,,,survey_race,31,,,Being my race is an important part of how I see myself.,important
4854.6,,,html-slider-response,454,2217860,0.0-24.0-1.0-0.18,49833,List1A,black,woman,,,,,,,,survey_race,80,,,I am glad to be my race.,glad
9688.9,,,html-slider-response,455,2227558,0.0-24.0-1.0-0.19,49833,List1A,black,woman,,,,,,,,survey_race,49,,,Being my age gives me a good feeling.,filler
7389,,,html-slider-response,456,2234956,0.0-24.0-1.0-0.20,49833,List1A,black,woman,,,,,,,,survey_race,68,,,I think that my race has a lot to be proud of.,proud
4535.7,,,html-slider-response,457,2239497,0.0-24.0-1.0-0.21,49833,List1A,black,woman,,,,,,,,survey_race,63,,,I feel committed to my race.,committed
4564.1,,,html-slider-response,458,2244068,0.0-24.0-1.0-0.22,49833,List1A,black,woman,,,,,,,,survey_race,72,,,I feel solidarity with my race.,solidarity
6736.8,,,html-slider-response,459,2250814,0.0-24.0-1.0-0.23,49833,List1A,black,woman,,,,,,,,survey_race,80,,,I am glad to be the age I am.,filler
7085.8,,,html-slider-response,460,2257905,0.0-24.0-1.0-0.24,49833,List1A,black,woman,,,,,,,,survey_race,71,,,I enjoy being in large groups.,filler
7811.9,,,html-slider-response,461,2265722,0.0-24.0-1.0-0.25,49833,List1A,black,woman,,,,,,,,survey_race,85,,,Getting older does not worry me.,filler
4560.4,,,html-slider-response,462,2270293,0.0-24.0-1.0-0.26,49833,List1A,black,woman,,,,,,,,survey_race,27,,,People of my race have a lot in common with each other.,common
4451.9,,,html-slider-response,463,2274755,0.0-24.0-1.0-0.27,49833,List1A,black,woman,,,,,,,,survey_race,72,,,I feel a bond with my race.,bond
7268.9,,,survey-text,464,2282050,0.0-25.0,49833,List1A,black,woman,,,,,"{""Q0"":""ccc""}",,,worker_id,,,,,
4793.3,,,external-html,465,2288685,0.0-26.0,49833,List1A,black,woman,debrief.html,,,,,,,,,,,,
