"rt","stimulus","button_pressed","trial_type","trial_index","time_elapsed","internal_node_id","subject","list","ppt_race","ppt_gender","url","first_guess","correct","key_press","responses","image_type","phrase_type","test_part","response","stimulus1","stimulus2","question_type","survey_item"
"2369.4000000953674","Welcome to the experiment. Press Continue to begin.","0","html-button-response","0","2374","0.0-0.0","49899","List2A","white","woman","","","","","","","","","","","","",""
"26425.299999713898","","","external-html","1","29984","0.0-1.0","49899","List2A","white","woman","consent.html","","","","","","","","","","","",""
"1584.6999998092651","<p>On the next page, you will see portraits of 8 people and their names.</p><p>Your first task is to take a few minutes to memorise the names of these people.</p><p>You will have to recall their names during the rest of the experiment, so it is</p><p>essential that you try to memorise these people and their names as best as you can.</p><br><p><strong>You will then be tested on your memory of these names and portraits.</strong></p><br><p>The experiment will start after you have completed this memory test.</p><br><p>Ready?</p>","0","html-button-response","2","31570","0.0-2.0","49899","List2A","white","woman","","","","","","","","","","","","",""
"103486","<img src='img/portrait_matrix_list2.jpg' style='width:900px;height:500px;''></img><p>If you have memorised all the portraits and names and are ready to start, press Continue.</p><p><strong>Please note: Your memory of these faces will be tested 4 times during this experiment.</strong></p>","0","html-button-response","3","136065","0.0-3.0-0.0","49899","List2A","white","woman","","","","","","","","","","","","",""
"2480.4000000953674","<img src=""portrait/BW1.jpg""style=""height:400px;""></img>","0","html-button-response","4","139552","0.0-3.0-1.0","49899","List2A","white","woman","","true","0","","","","","","","","","",""
"null","CORRECT","","html-keyboard-response","5","141060","0.0-3.0-2.0-0.0","49899","List2A","white","woman","","","","null","","","","","","","","",""
"3507.5999999046326","<img src=""portrait/WW2.jpg""style=""height:400px;""></img>","3","html-button-response","6","144569","0.0-3.0-4.0","49899","List2A","white","woman","","true","3","","","","","","","","","",""
"null","CORRECT","","html-keyboard-response","7","146075","0.0-3.0-5.0-0.0","49899","List2A","white","woman","","","","null","","","","","","","","",""
"2799.5","<img src=""portrait/BM1.jpg""style=""height:400px;""></img>","4","html-button-response","8","148877","0.0-3.0-7.0","49899","List2A","white","woman","","true","4","","","","","","","","","",""
"null","CORRECT","","html-keyboard-response","9","150381","0.0-3.0-8.0-0.0","49899","List2A","white","woman","","","","null","","","","","","","","",""
"2581.5999999046326","<img src=""portrait/WW1.jpg""style=""height:400px;""></img>","1","html-button-response","10","152965","0.0-3.0-10.0","49899","List2A","white","woman","","true","1","","","","","","","","","",""
"null","CORRECT","","html-keyboard-response","11","154468","0.0-3.0-11.0-0.0","49899","List2A","white","woman","","","","null","","","","","","","","",""
"2418.7999997138977","<img src=""portrait/BM2.jpg""style=""height:400px;""></img>","5","html-button-response","12","156888","0.0-3.0-13.0","49899","List2A","white","woman","","true","5","","","","","","","","","",""
"null","CORRECT","","html-keyboard-response","13","158392","0.0-3.0-14.0-0.0","49899","List2A","white","woman","","","","null","","","","","","","","",""
"2262.3999996185303","<img src=""portrait/WM1.jpg""style=""height:400px;""></img>","6","html-button-response","14","160656","0.0-3.0-16.0","49899","List2A","white","woman","","true","6","","","","","","","","","",""
"null","CORRECT","","html-keyboard-response","15","162162","0.0-3.0-17.0-0.0","49899","List2A","white","woman","","","","null","","","","","","","","",""
"1991.5999999046326","<img src=""portrait/BW2.jpg""style=""height:400px;""></img>","2","html-button-response","16","164155","0.0-3.0-19.0","49899","List2A","white","woman","","true","2","","","","","","","","","",""
"null","CORRECT","","html-keyboard-response","17","165666","0.0-3.0-20.0-0.0","49899","List2A","white","woman","","","","null","","","","","","","","",""
"2547.5","<img src=""portrait/WM2.jpg""style=""height:400px;""></img>","7","html-button-response","18","168215","0.0-3.0-22.0","49899","List2A","white","woman","","true","7","","","","","","","","","",""
"null","CORRECT","","html-keyboard-response","19","169722","0.0-3.0-23.0-0.0","49899","List2A","white","woman","","","","null","","","","","","","","",""
"1223.4000000953674","<p>You got 8 out of 8 right first time. Press Continue.</p>","0","html-button-response","20","170947","0.0-3.0-25.0","49899","List2A","white","woman","","","","","","","","","","","","",""
"26422.099999904633","<p>In this experiment, you will view photographs of the people from the memory game interacting.</p><p>By using the <strong>exact</strong> phrase given <i>after</i> the photograph appears and recalling the correct names of the people in the photographs, form a sentence describing the interaction. You do not need to capitalise names.</p><p>Type your answer in the space provided. Please complete every sentence before moving onto the next trial.</p><p>You will only have a few seconds to memorise each given photograph and phrase before you can respond, so try your best to focus.</p><p>An example is given below. Press 'Continue' when you are ready.</p><img src='img/speaking_example.jpg' style='width:800px;height:460px;''></img>","0","html-button-response","21","198375","0.0-4.0","49899","List2A","white","woman","","","","","","","","","","","","",""
"2183.199999809265","<p>Before the experiment starts, you will watch two example trials. Press 'Continue'.</p>","0","html-button-response","22","201561","0.0-5.0","49899","List2A","white","woman","","","","","","","","","","","","",""
"null","<img src='img/play_eg.gif' style='height:400px;''></img>","","html-keyboard-response","23","204569","0.0-6.0","49899","List2A","white","woman","","","","null","","","","","","","","",""
"null","<p>is playing with</p>","","html-keyboard-response","24","206570","0.0-7.0","49899","List2A","white","woman","","","","null","","","","","","","","",""
"3325.199999809265","<p><b>Answer:</b> jane is playing with ruth</p>","0","html-button-response","25","209896","0.0-8.0","49899","List2A","white","woman","","","","","","","","","","","","",""
"null","<img src='img/dance_eg.gif' style='height:400px;''></img>","","html-keyboard-response","26","212904","0.0-9.0","49899","List2A","white","woman","","","","null","","","","","","","","",""
"null","<p>is being entertained by</p>","","html-keyboard-response","27","214910","0.0-10.0","49899","List2A","white","woman","","","","null","","","","","","","","",""
"3444.300000190735","<p><b>Answer:</b> fred is being entertained by mike</p>","0","html-button-response","28","218356","0.0-11.0","49899","List2A","white","woman","","","","","","","","","","","","",""
"17365.800000190735","<p>Ready to start the experiment?</p><br><p><strong>Remember to describe the picture using a full sentence,</strong></p><p><strong>that combines the names of the people with the <i>exact</i> phrase given.</strong></p><p><strong>To receive full payment you must do this correctly.</strong></p><p><strong> You do not need to capitalise names or use punctuation.</strong></p><br><p>Press 'Continue' to begin.</p>","0","html-button-response","29","236727","0.0-12.0","49899","List2A","white","woman","","","","","","","","","","","","",""
"null","<div style=""font-size:60px;"">+</div>","","html-keyboard-response","30","238231","0.0-13.0-0.0","49899","List2A","white","woman","","","","null","","","","","","","","",""
"null","<img src=""stim_listA/copy3.gif""style=""height:400px;""></stim_listA>","","html-keyboard-response","31","240235","0.0-13.0-1.0","49899","List2A","white","woman","","","","null","","","","","","","","",""
"null","is copying","","html-keyboard-response","32","242238","0.0-13.0-2.0","49899","List2A","white","woman","","","","null","","","","","","","","",""
"11214.700000286102","","","survey-text","33","253458","0.0-13.0-3.0","49899","List2A","white","woman","","","","","{""Q0"":""beth is copying mike""}","<img src=""stim_listA/copy3.gif""style=""height:400px;""></stim_listA>","is copying","","","","","",""
"null","<div style=""font-size:60px;"">+</div>","","html-keyboard-response","34","253961","0.0-13.0-0.1","49899","List2A","white","woman","","","","null","","","","","","","","",""
"null","<img src=""stim_listA/look1.gif""style=""height:400px;""></stim_listA>","","html-keyboard-response","35","255967","0.0-13.0-1.1","49899","List2A","white","woman","","","","null","","","","","","","","",""
"null","is looking at","","html-keyboard-response","36","257968","0.0-13.0-2.1","49899","List2A","white","woman","","","","null","","","","","","","","",""
"11262.099999904633","","","survey-text","37","269233","0.0-13.0-3.1","49899","List2A","white","woman","","","","","{""Q0"":""ruth is looking at luke""}","<img src=""stim_listA/look1.gif""style=""height:400px;""></stim_listA>","is looking at","","","","","",""
"null","<div style=""font-size:60px;"">+</div>","","html-keyboard-response","38","269737","0.0-13.0-0.2","49899","List2A","white","woman","","","","null","","","","","","","","",""
"null","<img src=""stim_listA/seduce3.gif""style=""height:400px;""></stim_listA>","","html-keyboard-response","39","271739","0.0-13.0-1.2","49899","List2A","white","woman","","","","null","","","","","","","","",""
"null","is seducing","","html-keyboard-response","40","273743","0.0-13.0-2.2","49899","List2A","white","woman","","","","null","","","","","","","","",""
"4750.400000095367","","","survey-text","41","278497","0.0-13.0-3.2","49899","List2A","white","woman","","","","","{""Q0"":""fred is seducing jane""}","<img src=""stim_listA/seduce3.gif""style=""height:400px;""></stim_listA>","is seducing","","","","","",""
"null","<div style=""font-size:60px;"">+</div>","","html-keyboard-response","42","278998","0.0-13.0-0.3","49899","List2A","white","woman","","","","null","","","","","","","","",""
"null","<img src=""stim_listA/shout4.gif""style=""height:400px;""></stim_listA>","","html-keyboard-response","43","281000","0.0-13.0-1.3","49899","List2A","white","woman","","","","null","","","","","","","","",""
"null","is being shouted at by","","html-keyboard-response","44","283004","0.0-13.0-2.3","49899","List2A","white","woman","","","","null","","","","","","","","",""
"10485.300000190735","","","survey-text","45","293492","0.0-13.0-3.3","49899","List2A","white","woman","","","","","{""Q0"":""mike is being shouted at by kate""}","<img src=""stim_listA/shout4.gif""style=""height:400px;""></stim_listA>","is being shouted at by","","","","","",""
"null","<div style=""font-size:60px;"">+</div>","","html-keyboard-response","46","293997","0.0-13.0-0.4","49899","List2A","white","woman","","","","null","","","","","","","","",""
"null","<img src=""stim_listA/touch2.gif""style=""height:400px;""></stim_listA>","","html-keyboard-response","47","296001","0.0-13.0-1.4","49899","List2A","white","woman","","","","null","","","","","","","","",""
"null","is being touched by","","html-keyboard-response","48","298005","0.0-13.0-2.4","49899","List2A","white","woman","","","","null","","","","","","","","",""
"10940.60000038147","","","survey-text","49","308948","0.0-13.0-3.4","49899","List2A","white","woman","","","","","{""Q0"":""luke is being touched by ruth""}","<img src=""stim_listA/touch2.gif""style=""height:400px;""></stim_listA>","is being touched by","","","","","",""
"null","<div style=""font-size:60px;"">+</div>","","html-keyboard-response","50","309453","0.0-13.0-0.5","49899","List2A","white","woman","","","","null","","","","","","","","",""
"null","<img src=""stim_listA/hug4.gif""style=""height:400px;""></stim_listA>","","html-keyboard-response","51","311458","0.0-13.0-1.5","49899","List2A","white","woman","","","","null","","","","","","","","",""
"null","is being hugged by","","html-keyboard-response","52","313460","0.0-13.0-2.5","49899","List2A","white","woman","","","","null","","","","","","","","",""
"9163.900000095367","","","survey-text","53","322627","0.0-13.0-3.5","49899","List2A","white","woman","","","","","{""Q0"":""kate is being hugged by mike""}","<img src=""stim_listA/hug4.gif""style=""height:400px;""></stim_listA>","is being hugged by","","","","","",""
"null","<div style=""font-size:60px;"">+</div>","","html-keyboard-response","54","323129","0.0-13.0-0.6","49899","List2A","white","woman","","","","null","","","","","","","","",""
"null","<img src=""stim_listA/hug1.gif""style=""height:400px;""></stim_listA>","","html-keyboard-response","55","325131","0.0-13.0-1.6","49899","List2A","white","woman","","","","null","","","","","","","","",""
"null","is hugging","","html-keyboard-response","56","327133","0.0-13.0-2.6","49899","List2A","white","woman","","","","null","","","","","","","","",""
"12926.299999713898","","","survey-text","57","340062","0.0-13.0-3.6","49899","List2A","white","woman","","","","","{""Q0"":""ruth is hugging luke""}","<img src=""stim_listA/hug1.gif""style=""height:400px;""></stim_listA>","is hugging","","","","","",""
"null","<div style=""font-size:60px;"">+</div>","","html-keyboard-response","58","340566","0.0-13.0-0.7","49899","List2A","white","woman","","","","null","","","","","","","","",""
"null","<img src=""stim_listA/kiss5.gif""style=""height:400px;""></stim_listA>","","html-keyboard-response","59","342570","0.0-13.0-1.7","49899","List2A","white","woman","","","","null","","","","","","","","",""
"null","is kissing","","html-keyboard-response","60","344571","0.0-13.0-2.7","49899","List2A","white","woman","","","","null","","","","","","","","",""
"6607.900000095367","","","survey-text","61","351182","0.0-13.0-3.7","49899","List2A","white","woman","","","","","{""Q0"":""fred is kissing luke""}","<img src=""stim_listA/kiss5.gif""style=""height:400px;""></stim_listA>","is kissing","","","","","",""
"null","<div style=""font-size:60px;"">+</div>","","html-keyboard-response","62","351686","0.0-13.0-0.8","49899","List2A","white","woman","","","","null","","","","","","","","",""
"null","<img src=""stim_listA/copy1.gif""style=""height:400px;""></stim_listA>","","html-keyboard-response","63","353689","0.0-13.0-1.8","49899","List2A","white","woman","","","","null","","","","","","","","",""
"null","is copying","","html-keyboard-response","64","355691","0.0-13.0-2.8","49899","List2A","white","woman","","","","null","","","","","","","","",""
"3940.300000190735","","","survey-text","65","359635","0.0-13.0-3.8","49899","List2A","white","woman","","","","","{""Q0"":""dave is copying ruth""}","<img src=""stim_listA/copy1.gif""style=""height:400px;""></stim_listA>","is copying","","","","","",""
"null","<div style=""font-size:60px;"">+</div>","","html-keyboard-response","66","360138","0.0-13.0-0.9","49899","List2A","white","woman","","","","null","","","","","","","","",""
"null","<img src=""stim_listA/look7.gif""style=""height:400px;""></stim_listA>","","html-keyboard-response","67","362144","0.0-13.0-1.9","49899","List2A","white","woman","","","","null","","","","","","","","",""
"null","is looking at","","html-keyboard-response","68","364153","0.0-13.0-2.9","49899","List2A","white","woman","","","","null","","","","","","","","",""
"7570.300000190735","","","survey-text","69","371726","0.0-13.0-3.9","49899","List2A","white","woman","","","","","{""Q0"":""beth is looking at ruth""}","<img src=""stim_listA/look7.gif""style=""height:400px;""></stim_listA>","is looking at","","","","","",""
"null","<div style=""font-size:60px;"">+</div>","","html-keyboard-response","70","372228","0.0-13.0-0.10","49899","List2A","white","woman","","","","null","","","","","","","","",""
"null","<img src=""stim_listA/touch1.gif""style=""height:400px;""></stim_listA>","","html-keyboard-response","71","374235","0.0-13.0-1.10","49899","List2A","white","woman","","","","null","","","","","","","","",""
"null","is touching","","html-keyboard-response","72","376240","0.0-13.0-2.10","49899","List2A","white","woman","","","","null","","","","","","","","",""
"6081.599999904633","","","survey-text","73","382325","0.0-13.0-3.10","49899","List2A","white","woman","","","","","{""Q0"":""dave is touching jane""}","<img src=""stim_listA/touch1.gif""style=""height:400px;""></stim_listA>","is touching","","","","","",""
"null","<div style=""font-size:60px;"">+</div>","","html-keyboard-response","74","382826","0.0-13.0-0.11","49899","List2A","white","woman","","","","null","","","","","","","","",""
"null","<img src=""stim_listA/challenge5.gif""style=""height:400px;""></stim_listA>","","html-keyboard-response","75","384833","0.0-13.0-1.11","49899","List2A","white","woman","","","","null","","","","","","","","",""
"null","is challenging","","html-keyboard-response","76","386838","0.0-13.0-2.11","49899","List2A","white","woman","","","","null","","","","","","","","",""
"8812.5","","","survey-text","77","395653","0.0-13.0-3.11","49899","List2A","white","woman","","","","","{""Q0"":""fred is challenging dave""}","<img src=""stim_listA/challenge5.gif""style=""height:400px;""></stim_listA>","is challenging","","","","","",""
"null","<div style=""font-size:60px;"">+</div>","","html-keyboard-response","78","396155","0.0-13.0-0.12","49899","List2A","white","woman","","","","null","","","","","","","","",""
"null","<img src=""stim_listA/greet7.gif""style=""height:400px;""></stim_listA>","","html-keyboard-response","79","398158","0.0-13.0-1.12","49899","List2A","white","woman","","","","null","","","","","","","","",""
"null","is greeting","","html-keyboard-response","80","400161","0.0-13.0-2.12","49899","List2A","white","woman","","","","null","","","","","","","","",""
"3673.4000000953674","","","survey-text","81","403837","0.0-13.0-3.12","49899","List2A","white","woman","","","","","{""Q0"":""jane is greeting beth""}","<img src=""stim_listA/greet7.gif""style=""height:400px;""></stim_listA>","is greeting","","","","","",""
"null","<div style=""font-size:60px;"">+</div>","","html-keyboard-response","82","404339","0.0-13.0-0.13","49899","List2A","white","woman","","","","null","","","","","","","","",""
"null","<img src=""stim_listA/look4.gif""style=""height:400px;""></stim_listA>","","html-keyboard-response","83","406342","0.0-13.0-1.13","49899","List2A","white","woman","","","","null","","","","","","","","",""
"null","is being looked at by","","html-keyboard-response","84","408348","0.0-13.0-2.13","49899","List2A","white","woman","","","","null","","","","","","","","",""
"4711.099999904633","","","survey-text","85","413062","0.0-13.0-3.13","49899","List2A","white","woman","","","","","{""Q0"":""kate is being looked at by mike""}","<img src=""stim_listA/look4.gif""style=""height:400px;""></stim_listA>","is being looked at by","","","","","",""
"null","<div style=""font-size:60px;"">+</div>","","html-keyboard-response","86","413564","0.0-13.0-0.14","49899","List2A","white","woman","","","","null","","","","","","","","",""
"null","<img src=""stim_listA/hug2.gif""style=""height:400px;""></stim_listA>","","html-keyboard-response","87","415571","0.0-13.0-1.14","49899","List2A","white","woman","","","","null","","","","","","","","",""
"null","is being hugged by","","html-keyboard-response","88","417576","0.0-13.0-2.14","49899","List2A","white","woman","","","","null","","","","","","","","",""
"4512.299999713898","","","survey-text","89","422092","0.0-13.0-3.14","49899","List2A","white","woman","","","","","{""Q0"":""dave is being hugged by jane""}","<img src=""stim_listA/hug2.gif""style=""height:400px;""></stim_listA>","is being hugged by","","","","","",""
"null","<div style=""font-size:60px;"">+</div>","","html-keyboard-response","90","422594","0.0-13.0-0.15","49899","List2A","white","woman","","","","null","","","","","","","","",""
"null","<img src=""stim_listA/kiss1.gif""style=""height:400px;""></stim_listA>","","html-keyboard-response","91","424597","0.0-13.0-1.15","49899","List2A","white","woman","","","","null","","","","","","","","",""
"null","is kissing","","html-keyboard-response","92","426604","0.0-13.0-2.15","49899","List2A","white","woman","","","","null","","","","","","","","",""
"4042.4000000953674","","","survey-text","93","430650","0.0-13.0-3.15","49899","List2A","white","woman","","","","","{""Q0"":""luke is kissing ruth""}","<img src=""stim_listA/kiss1.gif""style=""height:400px;""></stim_listA>","is kissing","","","","","",""
"null","<div style=""font-size:60px;"">+</div>","","html-keyboard-response","94","431152","0.0-13.0-0.16","49899","List2A","white","woman","","","","null","","","","","","","","",""
"null","<img src=""stim_listA/greet1.gif""style=""height:400px;""></stim_listA>","","html-keyboard-response","95","433156","0.0-13.0-1.16","49899","List2A","white","woman","","","","null","","","","","","","","",""
"null","is greeting","","html-keyboard-response","96","435162","0.0-13.0-2.16","49899","List2A","white","woman","","","","null","","","","","","","","",""
"4038.5","","","survey-text","97","439203","0.0-13.0-3.16","49899","List2A","white","woman","","","","","{""Q0"":""dave is greeting ruth""}","<img src=""stim_listA/greet1.gif""style=""height:400px;""></stim_listA>","is greeting","","","","","",""
"null","<div style=""font-size:60px;"">+</div>","","html-keyboard-response","98","439706","0.0-13.0-0.17","49899","List2A","white","woman","","","","null","","","","","","","","",""
"null","<img src=""stim_listA/kiss2.gif""style=""height:400px;""></stim_listA>","","html-keyboard-response","99","441708","0.0-13.0-1.17","49899","List2A","white","woman","","","","null","","","","","","","","",""
"null","is being kissed by","","html-keyboard-response","100","443714","0.0-13.0-2.17","49899","List2A","white","woman","","","","null","","","","","","","","",""
"4097.699999809265","","","survey-text","101","447815","0.0-13.0-3.17","49899","List2A","white","woman","","","","","{""Q0"":""dave is being kissed by jane""}","<img src=""stim_listA/kiss2.gif""style=""height:400px;""></stim_listA>","is being kissed by","","","","","",""
"null","<div style=""font-size:60px;"">+</div>","","html-keyboard-response","102","448317","0.0-13.0-0.18","49899","List2A","white","woman","","","","null","","","","","","","","",""
"null","<img src=""stim_listA/seduce7.gif""style=""height:400px;""></stim_listA>","","html-keyboard-response","103","450323","0.0-13.0-1.18","49899","List2A","white","woman","","","","null","","","","","","","","",""
"null","is seducing","","html-keyboard-response","104","452324","0.0-13.0-2.18","49899","List2A","white","woman","","","","null","","","","","","","","",""
"18846.5","","","survey-text","105","471173","0.0-13.0-3.18","49899","List2A","white","woman","","","","","{""Q0"":""kate is seducing ruth""}","<img src=""stim_listA/seduce7.gif""style=""height:400px;""></stim_listA>","is seducing","","","","","",""
"null","<div style=""font-size:60px;"">+</div>","","html-keyboard-response","106","471676","0.0-13.0-0.19","49899","List2A","white","woman","","","","null","","","","","","","","",""
"null","<img src=""stim_listA/shout2.gif""style=""height:400px;""></stim_listA>","","html-keyboard-response","107","473680","0.0-13.0-1.19","49899","List2A","white","woman","","","","null","","","","","","","","",""
"null","is being shouted at by","","html-keyboard-response","108","475684","0.0-13.0-2.19","49899","List2A","white","woman","","","","null","","","","","","","","",""
"6735.199999809265","","","survey-text","109","482422","0.0-13.0-3.19","49899","List2A","white","woman","","","","","{""Q0"":""dave is being shouted at by jane""}","<img src=""stim_listA/shout2.gif""style=""height:400px;""></stim_listA>","is being shouted at by","","","","","",""
"5866.699999809265","<img src='img/portrait_matrix_list2.jpg' style='width:900px;height:500px;''></img><p>If you have memorised all the portraits and names and are ready to start, press Continue.</p><p><strong>Please note: Your memory of these faces will be tested 4 times during this experiment.</strong></p>","0","html-button-response","110","488291","0.0-14.0-0.0","49899","List2A","white","woman","","","","","","","","","","","","",""
"3581.800000190735","<img src=""portrait/BW1.jpg""style=""height:400px;""></img>","0","html-button-response","111","492878","0.0-14.0-1.0","49899","List2A","white","woman","","true","0","","","","","","","","","",""
"null","CORRECT","","html-keyboard-response","112","494381","0.0-14.0-2.0-0.0","49899","List2A","white","woman","","","","null","","","","","","","","",""
"2103.300000190735","<img src=""portrait/BM1.jpg""style=""height:400px;""></img>","4","html-button-response","113","496486","0.0-14.0-4.0","49899","List2A","white","woman","","true","4","","","","","","","","","",""
"null","CORRECT","","html-keyboard-response","114","497997","0.0-14.0-5.0-0.0","49899","List2A","white","woman","","","","null","","","","","","","","",""
"1895.0999999046326","<img src=""portrait/BW2.jpg""style=""height:400px;""></img>","2","html-button-response","115","499894","0.0-14.0-7.0","49899","List2A","white","woman","","true","2","","","","","","","","","",""
"null","CORRECT","","html-keyboard-response","116","501399","0.0-14.0-8.0-0.0","49899","List2A","white","woman","","","","null","","","","","","","","",""
"1386.9000000953674","<img src=""portrait/WW2.jpg""style=""height:400px;""></img>","3","html-button-response","117","502788","0.0-14.0-10.0","49899","List2A","white","woman","","true","3","","","","","","","","","",""
"null","CORRECT","","html-keyboard-response","118","504295","0.0-14.0-11.0-0.0","49899","List2A","white","woman","","","","null","","","","","","","","",""
"2279.7999997138977","<img src=""portrait/WM2.jpg""style=""height:400px;""></img>","7","html-button-response","119","506577","0.0-14.0-13.0","49899","List2A","white","woman","","true","7","","","","","","","","","",""
"null","CORRECT","","html-keyboard-response","120","508084","0.0-14.0-14.0-0.0","49899","List2A","white","woman","","","","null","","","","","","","","",""
"1987.7999997138977","<img src=""portrait/WW1.jpg""style=""height:400px;""></img>","1","html-button-response","121","510073","0.0-14.0-16.0","49899","List2A","white","woman","","true","1","","","","","","","","","",""
"null","CORRECT","","html-keyboard-response","122","511582","0.0-14.0-17.0-0.0","49899","List2A","white","woman","","","","null","","","","","","","","",""
"1588","<img src=""portrait/BM2.jpg""style=""height:400px;""></img>","5","html-button-response","123","513173","0.0-14.0-19.0","49899","List2A","white","woman","","true","5","","","","","","","","","",""
"null","CORRECT","","html-keyboard-response","124","514679","0.0-14.0-20.0-0.0","49899","List2A","white","woman","","","","null","","","","","","","","",""
"1585.7999997138977","<img src=""portrait/WM1.jpg""style=""height:400px;""></img>","6","html-button-response","125","516267","0.0-14.0-22.0","49899","List2A","white","woman","","true","6","","","","","","","","","",""
"null","CORRECT","","html-keyboard-response","126","517775","0.0-14.0-23.0-0.0","49899","List2A","white","woman","","","","null","","","","","","","","",""
"1958.2000002861023","<p>You got 8 out of 8 right first time. Press Continue.</p>","0","html-button-response","127","519735","0.0-14.0-25.0","49899","List2A","white","woman","","","","","","","","","","","","",""
"null","<div style=""font-size:60px;"">+</div>","","html-keyboard-response","128","521246","0.0-15.0-0.0","49899","List2A","white","woman","","","","null","","","","","","","","",""
"null","<img src=""stim_listA/hug7.gif""style=""height:400px;""></stim_listA>","","html-keyboard-response","129","523250","0.0-15.0-1.0","49899","List2A","white","woman","","","","null","","","","","","","","",""
"null","is hugging","","html-keyboard-response","130","525252","0.0-15.0-2.0","49899","List2A","white","woman","","","","null","","","","","","","","",""
"8798.300000190735","","","survey-text","131","534054","0.0-15.0-3.0","49899","List2A","white","woman","","","","","{""Q0"":""beth is hugging ruth""}","<img src=""stim_listA/hug7.gif""style=""height:400px;""></stim_listA>","is hugging","","","","","",""
"null","<div style=""font-size:60px;"">+</div>","","html-keyboard-response","132","534555","0.0-15.0-0.1","49899","List2A","white","woman","","","","null","","","","","","","","",""
"null","<img src=""stim_listA/oppose2.gif""style=""height:400px;""></stim_listA>","","html-keyboard-response","133","536562","0.0-15.0-1.1","49899","List2A","white","woman","","","","null","","","","","","","","",""
"null","is being opposed by","","html-keyboard-response","134","538563","0.0-15.0-2.1","49899","List2A","white","woman","","","","null","","","","","","","","",""
"11001.800000190735","","","survey-text","135","549568","0.0-15.0-3.1","49899","List2A","white","woman","","","","","{""Q0"":""luke is being opposed by ruth""}","<img src=""stim_listA/oppose2.gif""style=""height:400px;""></stim_listA>","is being opposed by","","","","","",""
"null","<div style=""font-size:60px;"">+</div>","","html-keyboard-response","136","550071","0.0-15.0-0.2","49899","List2A","white","woman","","","","null","","","","","","","","",""
"null","<img src=""stim_listA/oppose8.gif""style=""height:400px;""></stim_listA>","","html-keyboard-response","137","552078","0.0-15.0-1.2","49899","List2A","white","woman","","","","null","","","","","","","","",""
"null","is being opposed by","","html-keyboard-response","138","554082","0.0-15.0-2.2","49899","List2A","white","woman","","","","null","","","","","","","","",""
"11771.5","","","survey-text","139","565857","0.0-15.0-3.2","49899","List2A","white","woman","","","","","{""Q0"":""beth is being opposed by ruth""}","<img src=""stim_listA/oppose8.gif""style=""height:400px;""></stim_listA>","is being opposed by","","","","","",""
"null","<div style=""font-size:60px;"">+</div>","","html-keyboard-response","140","566359","0.0-15.0-0.3","49899","List2A","white","woman","","","","null","","","","","","","","",""
"null","<img src=""stim_listA/shout7.gif""style=""height:400px;""></stim_listA>","","html-keyboard-response","141","568365","0.0-15.0-1.3","49899","List2A","white","woman","","","","null","","","","","","","","",""
"null","is shouting at","","html-keyboard-response","142","570370","0.0-15.0-2.3","49899","List2A","white","woman","","","","null","","","","","","","","",""
"4216.400000095367","","","survey-text","143","574591","0.0-15.0-3.3","49899","List2A","white","woman","","","","","{""Q0"":""ruth is shouting at beth""}","<img src=""stim_listA/shout7.gif""style=""height:400px;""></stim_listA>","is shouting at","","","","","",""
"null","<div style=""font-size:60px;"">+</div>","","html-keyboard-response","144","575093","0.0-15.0-0.4","49899","List2A","white","woman","","","","null","","","","","","","","",""
"null","<img src=""stim_listA/touch5.gif""style=""height:400px;""></stim_listA>","","html-keyboard-response","145","577095","0.0-15.0-1.4","49899","List2A","white","woman","","","","null","","","","","","","","",""
"null","is touching","","html-keyboard-response","146","579097","0.0-15.0-2.4","49899","List2A","white","woman","","","","null","","","","","","","","",""
"3637","","","survey-text","147","582737","0.0-15.0-3.4","49899","List2A","white","woman","","","","","{""Q0"":""dave is touching mike""}","<img src=""stim_listA/touch5.gif""style=""height:400px;""></stim_listA>","is touching","","","","","",""
"null","<div style=""font-size:60px;"">+</div>","","html-keyboard-response","148","583239","0.0-15.0-0.5","49899","List2A","white","woman","","","","null","","","","","","","","",""
"null","<img src=""stim_listA/challenge2.gif""style=""height:400px;""></stim_listA>","","html-keyboard-response","149","585245","0.0-15.0-1.5","49899","List2A","white","woman","","","","null","","","","","","","","",""
"null","is being challenged by","","html-keyboard-response","150","587247","0.0-15.0-2.5","49899","List2A","white","woman","","","","null","","","","","","","","",""
"5423.39999961853","","","survey-text","151","592676","0.0-15.0-3.5","49899","List2A","white","woman","","","","","{""Q0"":""jane is being challenged by luke""}","<img src=""stim_listA/challenge2.gif""style=""height:400px;""></stim_listA>","is being challenged by","","","","","",""
"null","<div style=""font-size:60px;"">+</div>","","html-keyboard-response","152","593179","0.0-15.0-0.6","49899","List2A","white","woman","","","","null","","","","","","","","",""
"null","<img src=""stim_listA/look2.gif""style=""height:400px;""></stim_listA>","","html-keyboard-response","153","595182","0.0-15.0-1.6","49899","List2A","white","woman","","","","null","","","","","","","","",""
"null","is being looked at by","","html-keyboard-response","154","597186","0.0-15.0-2.6","49899","List2A","white","woman","","","","null","","","","","","","","",""
"3841.199999809265","","","survey-text","155","601030","0.0-15.0-3.6","49899","List2A","white","woman","","","","","{""Q0"":""jane is being looked at by jane""}","<img src=""stim_listA/look2.gif""style=""height:400px;""></stim_listA>","is being looked at by","","","","","",""
"null","<div style=""font-size:60px;"">+</div>","","html-keyboard-response","156","601532","0.0-15.0-0.7","49899","List2A","white","woman","","","","null","","","","","","","","",""
"null","<img src=""stim_listA/greet2.gif""style=""height:400px;""></stim_listA>","","html-keyboard-response","157","603538","0.0-15.0-1.7","49899","List2A","white","woman","","","","null","","","","","","","","",""
"null","is being greeted by","","html-keyboard-response","158","605544","0.0-15.0-2.7","49899","List2A","white","woman","","","","null","","","","","","","","",""
"7756.5","","","survey-text","159","613304","0.0-15.0-3.7","49899","List2A","white","woman","","","","","{""Q0"":""luke is being greeted by jane""}","<img src=""stim_listA/greet2.gif""style=""height:400px;""></stim_listA>","is being greeted by","","","","","",""
"null","<div style=""font-size:60px;"">+</div>","","html-keyboard-response","160","613807","0.0-15.0-0.8","49899","List2A","white","woman","","","","null","","","","","","","","",""
"null","<img src=""stim_listA/seduce6.gif""style=""height:400px;""></stim_listA>","","html-keyboard-response","161","615811","0.0-15.0-1.8","49899","List2A","white","woman","","","","null","","","","","","","","",""
"null","is being seduced by","","html-keyboard-response","162","617813","0.0-15.0-2.8","49899","List2A","white","woman","","","","null","","","","","","","","",""
"10331.900000095367","","","survey-text","163","628148","0.0-15.0-3.8","49899","List2A","white","woman","","","","","{""Q0"":""fred is being seduced by dave""}","<img src=""stim_listA/seduce6.gif""style=""height:400px;""></stim_listA>","is being seduced by","","","","","",""
"null","<div style=""font-size:60px;"">+</div>","","html-keyboard-response","164","628652","0.0-15.0-0.9","49899","List2A","white","woman","","","","null","","","","","","","","",""
"null","<img src=""stim_listA/kiss8.gif""style=""height:400px;""></stim_listA>","","html-keyboard-response","165","630656","0.0-15.0-1.9","49899","List2A","white","woman","","","","null","","","","","","","","",""
"null","is being kissed by","","html-keyboard-response","166","632658","0.0-15.0-2.9","49899","List2A","white","woman","","","","null","","","","","","","","",""
"5417.900000095367","","","survey-text","167","638081","0.0-15.0-3.9","49899","List2A","white","woman","","","","","{""Q0"":""kate is being kissed by jane""}","<img src=""stim_listA/kiss8.gif""style=""height:400px;""></stim_listA>","is being kissed by","","","","","",""
"null","<div style=""font-size:60px;"">+</div>","","html-keyboard-response","168","638586","0.0-15.0-0.10","49899","List2A","white","woman","","","","null","","","","","","","","",""
"null","<img src=""stim_listA/seduce2.gif""style=""height:400px;""></stim_listA>","","html-keyboard-response","169","640592","0.0-15.0-1.10","49899","List2A","white","woman","","","","null","","","","","","","","",""
"null","is being seduced by","","html-keyboard-response","170","642594","0.0-15.0-2.10","49899","List2A","white","woman","","","","null","","","","","","","","",""
"4123.900000095367","","","survey-text","171","646721","0.0-15.0-3.10","49899","List2A","white","woman","","","","","{""Q0"":""dave is being seduced by ruth""}","<img src=""stim_listA/seduce2.gif""style=""height:400px;""></stim_listA>","is being seduced by","","","","","",""
"null","<div style=""font-size:60px;"">+</div>","","html-keyboard-response","172","647224","0.0-15.0-0.11","49899","List2A","white","woman","","","","null","","","","","","","","",""
"null","<img src=""stim_listA/look3.gif""style=""height:400px;""></stim_listA>","","html-keyboard-response","173","649231","0.0-15.0-1.11","49899","List2A","white","woman","","","","null","","","","","","","","",""
"null","is looking at","","html-keyboard-response","174","651232","0.0-15.0-2.11","49899","List2A","white","woman","","","","null","","","","","","","","",""
"3295.800000190735","","","survey-text","175","654532","0.0-15.0-3.11","49899","List2A","white","woman","","","","","{""Q0"":""beth is looking at fred""}","<img src=""stim_listA/look3.gif""style=""height:400px;""></stim_listA>","is looking at","","","","","",""
"null","<div style=""font-size:60px;"">+</div>","","html-keyboard-response","176","655036","0.0-15.0-0.12","49899","List2A","white","woman","","","","null","","","","","","","","",""
"null","<img src=""stim_listA/seduce1.gif""style=""height:400px;""></stim_listA>","","html-keyboard-response","177","657039","0.0-15.0-1.12","49899","List2A","white","woman","","","","null","","","","","","","","",""
"null","is seducing","","html-keyboard-response","178","659043","0.0-15.0-2.12","49899","List2A","white","woman","","","","null","","","","","","","","",""
"26616.900000095367","","","survey-text","179","685663","0.0-15.0-3.12","49899","List2A","white","woman","","","","","{""Q0"":""jane is seducing luke""}","<img src=""stim_listA/seduce1.gif""style=""height:400px;""></stim_listA>","is seducing","","","","","",""
"null","<div style=""font-size:60px;"">+</div>","","html-keyboard-response","180","686167","0.0-15.0-0.13","49899","List2A","white","woman","","","","null","","","","","","","","",""
"null","<img src=""stim_listA/shout5.gif""style=""height:400px;""></stim_listA>","","html-keyboard-response","181","688170","0.0-15.0-1.13","49899","List2A","white","woman","","","","null","","","","","","","","",""
"null","is shouting at","","html-keyboard-response","182","690174","0.0-15.0-2.13","49899","List2A","white","woman","","","","null","","","","","","","","",""
"8032.299999713898","","","survey-text","183","698210","0.0-15.0-3.13","49899","List2A","white","woman","","","","","{""Q0"":""fred is shouting at luke""}","<img src=""stim_listA/shout5.gif""style=""height:400px;""></stim_listA>","is shouting at","","","","","",""
"null","<div style=""font-size:60px;"">+</div>","","html-keyboard-response","184","698712","0.0-15.0-0.14","49899","List2A","white","woman","","","","null","","","","","","","","",""
"null","<img src=""stim_listA/seduce8.gif""style=""height:400px;""></stim_listA>","","html-keyboard-response","185","700717","0.0-15.0-1.14","49899","List2A","white","woman","","","","null","","","","","","","","",""
"null","is being seduced by","","html-keyboard-response","186","702722","0.0-15.0-2.14","49899","List2A","white","woman","","","","null","","","","","","","","",""
"4535.60000038147","","","survey-text","187","707261","0.0-15.0-3.14","49899","List2A","white","woman","","","","","{""Q0"":""beth is being seduced by jane""}","<img src=""stim_listA/seduce8.gif""style=""height:400px;""></stim_listA>","is being seduced by","","","","","",""
"null","<div style=""font-size:60px;"">+</div>","","html-keyboard-response","188","707763","0.0-15.0-0.15","49899","List2A","white","woman","","","","null","","","","","","","","",""
"null","<img src=""stim_listA/copy6.gif""style=""height:400px;""></stim_listA>","","html-keyboard-response","189","709767","0.0-15.0-1.15","49899","List2A","white","woman","","","","null","","","","","","","","",""
"null","is being copied by","","html-keyboard-response","190","711770","0.0-15.0-2.15","49899","List2A","white","woman","","","","null","","","","","","","","",""
"4751.800000190735","","","survey-text","191","716525","0.0-15.0-3.15","49899","List2A","white","woman","","","","","{""Q0"":""luke is being copied by mike""}","<img src=""stim_listA/copy6.gif""style=""height:400px;""></stim_listA>","is being copied by","","","","","",""
"null","<div style=""font-size:60px;"">+</div>","","html-keyboard-response","192","717029","0.0-15.0-0.16","49899","List2A","white","woman","","","","null","","","","","","","","",""
"null","<img src=""stim_listA/look8.gif""style=""height:400px;""></stim_listA>","","html-keyboard-response","193","719036","0.0-15.0-1.16","49899","List2A","white","woman","","","","null","","","","","","","","",""
"null","is being looked at by","","html-keyboard-response","194","721039","0.0-15.0-2.16","49899","List2A","white","woman","","","","null","","","","","","","","",""
"6025","","","survey-text","195","727069","0.0-15.0-3.16","49899","List2A","white","woman","","","","","{""Q0"":""kate is being looked at by jane""}","<img src=""stim_listA/look8.gif""style=""height:400px;""></stim_listA>","is being looked at by","","","","","",""
"null","<div style=""font-size:60px;"">+</div>","","html-keyboard-response","196","727574","0.0-15.0-0.17","49899","List2A","white","woman","","","","null","","","","","","","","",""
"null","<img src=""stim_listA/challenge6.gif""style=""height:400px;""></stim_listA>","","html-keyboard-response","197","729577","0.0-15.0-1.17","49899","List2A","white","woman","","","","null","","","","","","","","",""
"null","is being challenged by","","html-keyboard-response","198","731580","0.0-15.0-2.17","49899","List2A","white","woman","","","","null","","","","","","","","",""
"5142","","","survey-text","199","736726","0.0-15.0-3.17","49899","List2A","white","woman","","","","","{""Q0"":""mike is being challenged by luke""}","<img src=""stim_listA/challenge6.gif""style=""height:400px;""></stim_listA>","is being challenged by","","","","","",""
"null","<div style=""font-size:60px;"">+</div>","","html-keyboard-response","200","737228","0.0-15.0-0.18","49899","List2A","white","woman","","","","null","","","","","","","","",""
"null","<img src=""stim_listA/hug8.gif""style=""height:400px;""></stim_listA>","","html-keyboard-response","201","739232","0.0-15.0-1.18","49899","List2A","white","woman","","","","null","","","","","","","","",""
"null","is being hugged by","","html-keyboard-response","202","741236","0.0-15.0-2.18","49899","List2A","white","woman","","","","null","","","","","","","","",""
"7689.89999961853","","","survey-text","203","748930","0.0-15.0-3.18","49899","List2A","white","woman","","","","","{""Q0"":""jane is being hugged by kate""}","<img src=""stim_listA/hug8.gif""style=""height:400px;""></stim_listA>","is being hugged by","","","","","",""
"null","<div style=""font-size:60px;"">+</div>","","html-keyboard-response","204","749432","0.0-15.0-0.19","49899","List2A","white","woman","","","","null","","","","","","","","",""
"null","<img src=""stim_listA/shout6.gif""style=""height:400px;""></stim_listA>","","html-keyboard-response","205","751435","0.0-15.0-1.19","49899","List2A","white","woman","","","","null","","","","","","","","",""
"null","is being shouted at by","","html-keyboard-response","206","753437","0.0-15.0-2.19","49899","List2A","white","woman","","","","null","","","","","","","","",""
"6820.199999809265","","","survey-text","207","760261","0.0-15.0-3.19","49899","List2A","white","woman","","","","","{""Q0"":""mike is being shouted at by dave""}","<img src=""stim_listA/shout6.gif""style=""height:400px;""></stim_listA>","is being shouted at by","","","","","",""
"5198.900000095367","<img src='img/portrait_matrix_list2.jpg' style='width:900px;height:500px;''></img><p>If you have memorised all the portraits and names and are ready to start, press Continue.</p><p><strong>Please note: Your memory of these faces will be tested 4 times during this experiment.</strong></p>","0","html-button-response","208","765463","0.0-16.0-0.0","49899","List2A","white","woman","","","","","","","","","","","","",""
"2050.800000190735","<img src=""portrait/WM1.jpg""style=""height:400px;""></img>","6","html-button-response","209","768518","0.0-16.0-1.0","49899","List2A","white","woman","","true","6","","","","","","","","","",""
"null","CORRECT","","html-keyboard-response","210","770031","0.0-16.0-2.0-0.0","49899","List2A","white","woman","","","","null","","","","","","","","",""
"1625.2000002861023","<img src=""portrait/WM2.jpg""style=""height:400px;""></img>","7","html-button-response","211","771659","0.0-16.0-4.0","49899","List2A","white","woman","","true","7","","","","","","","","","",""
"null","CORRECT","","html-keyboard-response","212","773165","0.0-16.0-5.0-0.0","49899","List2A","white","woman","","","","null","","","","","","","","",""
"1906.7999997138977","<img src=""portrait/BW1.jpg""style=""height:400px;""></img>","0","html-button-response","213","775075","0.0-16.0-7.0","49899","List2A","white","woman","","true","0","","","","","","","","","",""
"null","CORRECT","","html-keyboard-response","214","776584","0.0-16.0-8.0-0.0","49899","List2A","white","woman","","","","null","","","","","","","","",""
"1585.6999998092651","<img src=""portrait/WW2.jpg""style=""height:400px;""></img>","3","html-button-response","215","778174","0.0-16.0-10.0","49899","List2A","white","woman","","true","3","","","","","","","","","",""
"null","CORRECT","","html-keyboard-response","216","779679","0.0-16.0-11.0-0.0","49899","List2A","white","woman","","","","null","","","","","","","","",""
"1461.5999999046326","<img src=""portrait/BW2.jpg""style=""height:400px;""></img>","2","html-button-response","217","781143","0.0-16.0-13.0","49899","List2A","white","woman","","true","2","","","","","","","","","",""
"null","CORRECT","","html-keyboard-response","218","782650","0.0-16.0-14.0-0.0","49899","List2A","white","woman","","","","null","","","","","","","","",""
"1435.0999999046326","<img src=""portrait/BM1.jpg""style=""height:400px;""></img>","4","html-button-response","219","784087","0.0-16.0-16.0","49899","List2A","white","woman","","true","4","","","","","","","","","",""
"null","CORRECT","","html-keyboard-response","220","785595","0.0-16.0-17.0-0.0","49899","List2A","white","woman","","","","null","","","","","","","","",""
"1670.5999999046326","<img src=""portrait/WW1.jpg""style=""height:400px;""></img>","1","html-button-response","221","787268","0.0-16.0-19.0","49899","List2A","white","woman","","true","1","","","","","","","","","",""
"null","CORRECT","","html-keyboard-response","222","788777","0.0-16.0-20.0-0.0","49899","List2A","white","woman","","","","null","","","","","","","","",""
"1571.5","<img src=""portrait/BM2.jpg""style=""height:400px;""></img>","5","html-button-response","223","790350","0.0-16.0-22.0","49899","List2A","white","woman","","true","5","","","","","","","","","",""
"null","CORRECT","","html-keyboard-response","224","791859","0.0-16.0-23.0-0.0","49899","List2A","white","woman","","","","null","","","","","","","","",""
"3344","<p>You got 8 out of 8 right first time. Press Continue.</p>","0","html-button-response","225","795204","0.0-16.0-25.0","49899","List2A","white","woman","","","","","","","","","","","","",""
"null","<div style=""font-size:60px;"">+</div>","","html-keyboard-response","226","796715","0.0-17.0-0.0","49899","List2A","white","woman","","","","null","","","","","","","","",""
"null","<img src=""stim_listA/greet5.gif""style=""height:400px;""></stim_listA>","","html-keyboard-response","227","798720","0.0-17.0-1.0","49899","List2A","white","woman","","","","null","","","","","","","","",""
"null","is greeting","","html-keyboard-response","228","800725","0.0-17.0-2.0","49899","List2A","white","woman","","","","null","","","","","","","","",""
"13415.699999809265","","","survey-text","229","814144","0.0-17.0-3.0","49899","List2A","white","woman","","","","","{""Q0"":""dave is greeting luke""}","<img src=""stim_listA/greet5.gif""style=""height:400px;""></stim_listA>","is greeting","","","","","",""
"null","<div style=""font-size:60px;"">+</div>","","html-keyboard-response","230","814646","0.0-17.0-0.1","49899","List2A","white","woman","","","","null","","","","","","","","",""
"null","<img src=""stim_listA/greet6.gif""style=""height:400px;""></stim_listA>","","html-keyboard-response","231","816649","0.0-17.0-1.1","49899","List2A","white","woman","","","","null","","","","","","","","",""
"null","is being greeted by","","html-keyboard-response","232","818650","0.0-17.0-2.1","49899","List2A","white","woman","","","","null","","","","","","","","",""
"7344.299999713898","","","survey-text","233","825998","0.0-17.0-3.1","49899","List2A","white","woman","","","","","{""Q0"":""mike is being greeted by luke""}","<img src=""stim_listA/greet6.gif""style=""height:400px;""></stim_listA>","is being greeted by","","","","","",""
"null","<div style=""font-size:60px;"">+</div>","","html-keyboard-response","234","826501","0.0-17.0-0.2","49899","List2A","white","woman","","","","null","","","","","","","","",""
"null","<img src=""stim_listA/shout3.gif""style=""height:400px;""></stim_listA>","","html-keyboard-response","235","828507","0.0-17.0-1.2","49899","List2A","white","woman","","","","null","","","","","","","","",""
"null","is shouting at","","html-keyboard-response","236","830513","0.0-17.0-2.2","49899","List2A","white","woman","","","","null","","","","","","","","",""
"6123.900000095367","","","survey-text","237","836640","0.0-17.0-3.2","49899","List2A","white","woman","","","","","{""Q0"":""beth is shouting at fred""}","<img src=""stim_listA/shout3.gif""style=""height:400px;""></stim_listA>","is shouting at","","","","","",""
"null","<div style=""font-size:60px;"">+</div>","","html-keyboard-response","238","837142","0.0-17.0-0.3","49899","List2A","white","woman","","","","null","","","","","","","","",""
"null","<img src=""stim_listA/look6.gif""style=""height:400px;""></stim_listA>","","html-keyboard-response","239","839144","0.0-17.0-1.3","49899","List2A","white","woman","","","","null","","","","","","","","",""
"null","is being looked at by","","html-keyboard-response","240","841145","0.0-17.0-2.3","49899","List2A","white","woman","","","","null","","","","","","","","",""
"7866.799999713898","","","survey-text","241","849015","0.0-17.0-3.3","49899","List2A","white","woman","","","","","{""Q0"":""dave is being looked at by mike""}","<img src=""stim_listA/look6.gif""style=""height:400px;""></stim_listA>","is being looked at by","","","","","",""
"null","<div style=""font-size:60px;"">+</div>","","html-keyboard-response","242","849516","0.0-17.0-0.4","49899","List2A","white","woman","","","","null","","","","","","","","",""
"null","<img src=""stim_listA/challenge1.gif""style=""height:400px;""></stim_listA>","","html-keyboard-response","243","851522","0.0-17.0-1.4","49899","List2A","white","woman","","","","null","","","","","","","","",""
"null","is challenging","","html-keyboard-response","244","853526","0.0-17.0-2.4","49899","List2A","white","woman","","","","null","","","","","","","","",""
"4632.400000095367","","","survey-text","245","858162","0.0-17.0-3.4","49899","List2A","white","woman","","","","","{""Q0"":""dave is challenging ruth""}","<img src=""stim_listA/challenge1.gif""style=""height:400px;""></stim_listA>","is challenging","","","","","",""
"null","<div style=""font-size:60px;"">+</div>","","html-keyboard-response","246","858663","0.0-17.0-0.5","49899","List2A","white","woman","","","","null","","","","","","","","",""
"null","<img src=""stim_listA/greet8.gif""style=""height:400px;""></stim_listA>","","html-keyboard-response","247","860669","0.0-17.0-1.5","49899","List2A","white","woman","","","","null","","","","","","","","",""
"null","is being greeted by","","html-keyboard-response","248","862675","0.0-17.0-2.5","49899","List2A","white","woman","","","","null","","","","","","","","",""
"4036.699999809265","","","survey-text","249","866715","0.0-17.0-3.5","49899","List2A","white","woman","","","","","{""Q0"":""ruth is being greeted by kate""}","<img src=""stim_listA/greet8.gif""style=""height:400px;""></stim_listA>","is being greeted by","","","","","",""
"null","<div style=""font-size:60px;"">+</div>","","html-keyboard-response","250","867217","0.0-17.0-0.6","49899","List2A","white","woman","","","","null","","","","","","","","",""
"null","<img src=""stim_listA/hug5.gif""style=""height:400px;""></stim_listA>","","html-keyboard-response","251","869220","0.0-17.0-1.6","49899","List2A","white","woman","","","","null","","","","","","","","",""
"null","is hugging","","html-keyboard-response","252","871221","0.0-17.0-2.6","49899","List2A","white","woman","","","","null","","","","","","","","",""
"4206.800000190735","","","survey-text","253","875432","0.0-17.0-3.6","49899","List2A","white","woman","","","","","{""Q0"":""fred is hugging luke""}","<img src=""stim_listA/hug5.gif""style=""height:400px;""></stim_listA>","is hugging","","","","","",""
"null","<div style=""font-size:60px;"">+</div>","","html-keyboard-response","254","875934","0.0-17.0-0.7","49899","List2A","white","woman","","","","null","","","","","","","","",""
"null","<img src=""stim_listA/oppose6.gif""style=""height:400px;""></stim_listA>","","html-keyboard-response","255","877936","0.0-17.0-1.7","49899","List2A","white","woman","","","","null","","","","","","","","",""
"null","is being opposed by","","html-keyboard-response","256","879937","0.0-17.0-2.7","49899","List2A","white","woman","","","","null","","","","","","","","",""
"5488.199999809265","","","survey-text","257","885428","0.0-17.0-3.7","49899","List2A","white","woman","","","","","{""Q0"":""fred is being opposed by luke""}","<img src=""stim_listA/oppose6.gif""style=""height:400px;""></stim_listA>","is being opposed by","","","","","",""
"null","<div style=""font-size:60px;"">+</div>","","html-keyboard-response","258","885930","0.0-17.0-0.8","49899","List2A","white","woman","","","","null","","","","","","","","",""
"null","<img src=""stim_listA/greet3.gif""style=""height:400px;""></stim_listA>","","html-keyboard-response","259","887934","0.0-17.0-1.8","49899","List2A","white","woman","","","","null","","","","","","","","",""
"null","is greeting","","html-keyboard-response","260","889938","0.0-17.0-2.8","49899","List2A","white","woman","","","","null","","","","","","","","",""
"3328.7999997138977","","","survey-text","261","893269","0.0-17.0-3.8","49899","List2A","white","woman","","","","","{""Q0"":""mike is greeting beth""}","<img src=""stim_listA/greet3.gif""style=""height:400px;""></stim_listA>","is greeting","","","","","",""
"null","<div style=""font-size:60px;"">+</div>","","html-keyboard-response","262","893772","0.0-17.0-0.9","49899","List2A","white","woman","","","","null","","","","","","","","",""
"null","<img src=""stim_listA/shout1.gif""style=""height:400px;""></stim_listA>","","html-keyboard-response","263","895778","0.0-17.0-1.9","49899","List2A","white","woman","","","","null","","","","","","","","",""
"null","is shouting at","","html-keyboard-response","264","897780","0.0-17.0-2.9","49899","List2A","white","woman","","","","null","","","","","","","","",""
"8636.800000190735","","","survey-text","265","906420","0.0-17.0-3.9","49899","List2A","white","woman","","","","","{""Q0"":""ruth is shouting at luke""}","<img src=""stim_listA/shout1.gif""style=""height:400px;""></stim_listA>","is shouting at","","","","","",""
"null","<div style=""font-size:60px;"">+</div>","","html-keyboard-response","266","906922","0.0-17.0-0.10","49899","List2A","white","woman","","","","null","","","","","","","","",""
"null","<img src=""stim_listA/copy2.gif""style=""height:400px;""></stim_listA>","","html-keyboard-response","267","908929","0.0-17.0-1.10","49899","List2A","white","woman","","","","null","","","","","","","","",""
"null","is being copied by","","html-keyboard-response","268","910931","0.0-17.0-2.10","49899","List2A","white","woman","","","","null","","","","","","","","",""
"7977.299999713898","","","survey-text","269","918911","0.0-17.0-3.10","49899","List2A","white","woman","","","","","{""Q0"":""jane is being copied by luke""}","<img src=""stim_listA/copy2.gif""style=""height:400px;""></stim_listA>","is being copied by","","","","","",""
"null","<div style=""font-size:60px;"">+</div>","","html-keyboard-response","270","919414","0.0-17.0-0.11","49899","List2A","white","woman","","","","null","","","","","","","","",""
"null","<img src=""stim_listA/copy8.gif""style=""height:400px;""></stim_listA>","","html-keyboard-response","271","921416","0.0-17.0-1.11","49899","List2A","white","woman","","","","null","","","","","","","","",""
"null","is being copied by","","html-keyboard-response","272","923418","0.0-17.0-2.11","49899","List2A","white","woman","","","","null","","","","","","","","",""
"4573.5","","","survey-text","273","927995","0.0-17.0-3.11","49899","List2A","white","woman","","","","","{""Q0"":""kate is being copied by ruth""}","<img src=""stim_listA/copy8.gif""style=""height:400px;""></stim_listA>","is being copied by","","","","","",""
"null","<div style=""font-size:60px;"">+</div>","","html-keyboard-response","274","928498","0.0-17.0-0.12","49899","List2A","white","woman","","","","null","","","","","","","","",""
"null","<img src=""stim_listA/copy4.gif""style=""height:400px;""></stim_listA>","","html-keyboard-response","275","930500","0.0-17.0-1.12","49899","List2A","white","woman","","","","null","","","","","","","","",""
"null","is being copied by","","html-keyboard-response","276","932505","0.0-17.0-2.12","49899","List2A","white","woman","","","","null","","","","","","","","",""
"4107","","","survey-text","277","936615","0.0-17.0-3.12","49899","List2A","white","woman","","","","","{""Q0"":""fred is being copied by kate""}","<img src=""stim_listA/copy4.gif""style=""height:400px;""></stim_listA>","is being copied by","","","","","",""
"null","<div style=""font-size:60px;"">+</div>","","html-keyboard-response","278","937119","0.0-17.0-0.13","49899","List2A","white","woman","","","","null","","","","","","","","",""
"null","<img src=""stim_listA/seduce4.gif""style=""height:400px;""></stim_listA>","","html-keyboard-response","279","939124","0.0-17.0-1.13","49899","List2A","white","woman","","","","null","","","","","","","","",""
"null","is being seduced by","","html-keyboard-response","280","941125","0.0-17.0-2.13","49899","List2A","white","woman","","","","null","","","","","","","","",""
"6962.099999904633","","","survey-text","281","948091","0.0-17.0-3.13","49899","List2A","white","woman","","","","","{""Q0"":""beth is being seduced by mike""}","<img src=""stim_listA/seduce4.gif""style=""height:400px;""></stim_listA>","is being seduced by","","","","","",""
"null","<div style=""font-size:60px;"">+</div>","","html-keyboard-response","282","948595","0.0-17.0-0.14","49899","List2A","white","woman","","","","null","","","","","","","","",""
"null","<img src=""stim_listA/seduce5.gif""style=""height:400px;""></stim_listA>","","html-keyboard-response","283","950601","0.0-17.0-1.14","49899","List2A","white","woman","","","","null","","","","","","","","",""
"null","is seducing","","html-keyboard-response","284","952602","0.0-17.0-2.14","49899","List2A","white","woman","","","","null","","","","","","","","",""
"4489.800000190735","","","survey-text","285","957096","0.0-17.0-3.14","49899","List2A","white","woman","","","","","{""Q0"":""luke is seducing mike""}","<img src=""stim_listA/seduce5.gif""style=""height:400px;""></stim_listA>","is seducing","","","","","",""
"null","<div style=""font-size:60px;"">+</div>","","html-keyboard-response","286","957600","0.0-17.0-0.15","49899","List2A","white","woman","","","","null","","","","","","","","",""
"null","<img src=""stim_listA/copy5.gif""style=""height:400px;""></stim_listA>","","html-keyboard-response","287","959603","0.0-17.0-1.15","49899","List2A","white","woman","","","","null","","","","","","","","",""
"null","is copying","","html-keyboard-response","288","961607","0.0-17.0-2.15","49899","List2A","white","woman","","","","null","","","","","","","","",""
"3563.5","","","survey-text","289","965174","0.0-17.0-3.15","49899","List2A","white","woman","","","","","{""Q0"":""dave is copying fred""}","<img src=""stim_listA/copy5.gif""style=""height:400px;""></stim_listA>","is copying","","","","","",""
"null","<div style=""font-size:60px;"">+</div>","","html-keyboard-response","290","965676","0.0-17.0-0.16","49899","List2A","white","woman","","","","null","","","","","","","","",""
"null","<img src=""stim_listA/oppose3.gif""style=""height:400px;""></stim_listA>","","html-keyboard-response","291","967680","0.0-17.0-1.16","49899","List2A","white","woman","","","","null","","","","","","","","",""
"null","is opposing","","html-keyboard-response","292","969685","0.0-17.0-2.16","49899","List2A","white","woman","","","","null","","","","","","","","",""
"5433.300000190735","","","survey-text","293","975121","0.0-17.0-3.16","49899","List2A","white","woman","","","","","{""Q0"":""kate is opposing mike""}","<img src=""stim_listA/oppose3.gif""style=""height:400px;""></stim_listA>","is opposing","","","","","",""
"null","<div style=""font-size:60px;"">+</div>","","html-keyboard-response","294","975624","0.0-17.0-0.17","49899","List2A","white","woman","","","","null","","","","","","","","",""
"null","<img src=""stim_listA/greet4.gif""style=""height:400px;""></stim_listA>","","html-keyboard-response","295","977631","0.0-17.0-1.17","49899","List2A","white","woman","","","","null","","","","","","","","",""
"null","is being greeted by","","html-keyboard-response","296","979632","0.0-17.0-2.17","49899","List2A","white","woman","","","","null","","","","","","","","",""
"5277.599999904633","","","survey-text","297","984913","0.0-17.0-3.17","49899","List2A","white","woman","","","","","{""Q0"":""kate is being greeted by fred""}","<img src=""stim_listA/greet4.gif""style=""height:400px;""></stim_listA>","is being greeted by","","","","","",""
"null","<div style=""font-size:60px;"">+</div>","","html-keyboard-response","298","985415","0.0-17.0-0.18","49899","List2A","white","woman","","","","null","","","","","","","","",""
"null","<img src=""stim_listA/kiss4.gif""style=""height:400px;""></stim_listA>","","html-keyboard-response","299","987419","0.0-17.0-1.18","49899","List2A","white","woman","","","","null","","","","","","","","",""
"null","is being kissed by","","html-keyboard-response","300","989421","0.0-17.0-2.18","49899","List2A","white","woman","","","","null","","","","","","","","",""
"4198","","","survey-text","301","993622","0.0-17.0-3.18","49899","List2A","white","woman","","","","","{""Q0"":""kate is being kissed by mike""}","<img src=""stim_listA/kiss4.gif""style=""height:400px;""></stim_listA>","is being kissed by","","","","","",""
"null","<div style=""font-size:60px;"">+</div>","","html-keyboard-response","302","994125","0.0-17.0-0.19","49899","List2A","white","woman","","","","null","","","","","","","","",""
"null","<img src=""stim_listA/touch7.gif""style=""height:400px;""></stim_listA>","","html-keyboard-response","303","996134","0.0-17.0-1.19","49899","List2A","white","woman","","","","null","","","","","","","","",""
"null","is touching","","html-keyboard-response","304","998139","0.0-17.0-2.19","49899","List2A","white","woman","","","","null","","","","","","","","",""
"3661.699999809265","","","survey-text","305","1001804","0.0-17.0-3.19","49899","List2A","white","woman","","","","","{""Q0"":""kate is touching jane""}","<img src=""stim_listA/touch7.gif""style=""height:400px;""></stim_listA>","is touching","","","","","",""
"1752.5","<img src='img/portrait_matrix_list2.jpg' style='width:900px;height:500px;''></img><p>If you have memorised all the portraits and names and are ready to start, press Continue.</p><p><strong>Please note: Your memory of these faces will be tested 4 times during this experiment.</strong></p>","0","html-button-response","306","1003559","0.0-18.0-0.0","49899","List2A","white","woman","","","","","","","","","","","","",""
"1891.5999999046326","<img src=""portrait/BW1.jpg""style=""height:400px;""></img>","0","html-button-response","307","1006456","0.0-18.0-1.0","49899","List2A","white","woman","","true","0","","","","","","","","","",""
"null","CORRECT","","html-keyboard-response","308","1007960","0.0-18.0-2.0-0.0","49899","List2A","white","woman","","","","null","","","","","","","","",""
"1624","<img src=""portrait/WW1.jpg""style=""height:400px;""></img>","1","html-button-response","309","1009587","0.0-18.0-4.0","49899","List2A","white","woman","","true","1","","","","","","","","","",""
"null","CORRECT","","html-keyboard-response","310","1011092","0.0-18.0-5.0-0.0","49899","List2A","white","woman","","","","null","","","","","","","","",""
"2077.5","<img src=""portrait/WM2.jpg""style=""height:400px;""></img>","7","html-button-response","311","1013172","0.0-18.0-7.0","49899","List2A","white","woman","","true","7","","","","","","","","","",""
"null","CORRECT","","html-keyboard-response","312","1014677","0.0-18.0-8.0-0.0","49899","List2A","white","woman","","","","null","","","","","","","","",""
"1249.4000000953674","<img src=""portrait/WW2.jpg""style=""height:400px;""></img>","3","html-button-response","313","1015929","0.0-18.0-10.0","49899","List2A","white","woman","","true","3","","","","","","","","","",""
"null","CORRECT","","html-keyboard-response","314","1017436","0.0-18.0-11.0-0.0","49899","List2A","white","woman","","","","null","","","","","","","","",""
"1729.5999999046326","<img src=""portrait/BW2.jpg""style=""height:400px;""></img>","2","html-button-response","315","1019168","0.0-18.0-13.0","49899","List2A","white","woman","","true","2","","","","","","","","","",""
"null","CORRECT","","html-keyboard-response","316","1020678","0.0-18.0-14.0-0.0","49899","List2A","white","woman","","","","null","","","","","","","","",""
"1441.8000001907349","<img src=""portrait/BM1.jpg""style=""height:400px;""></img>","4","html-button-response","317","1022122","0.0-18.0-16.0","49899","List2A","white","woman","","true","4","","","","","","","","","",""
"null","CORRECT","","html-keyboard-response","318","1023628","0.0-18.0-17.0-0.0","49899","List2A","white","woman","","","","null","","","","","","","","",""
"1337","<img src=""portrait/BM2.jpg""style=""height:400px;""></img>","5","html-button-response","319","1024968","0.0-18.0-19.0","49899","List2A","white","woman","","true","5","","","","","","","","","",""
"null","CORRECT","","html-keyboard-response","320","1026476","0.0-18.0-20.0-0.0","49899","List2A","white","woman","","","","null","","","","","","","","",""
"918","<img src=""portrait/WM1.jpg""style=""height:400px;""></img>","6","html-button-response","321","1027396","0.0-18.0-22.0","49899","List2A","white","woman","","true","6","","","","","","","","","",""
"null","CORRECT","","html-keyboard-response","322","1028900","0.0-18.0-23.0-0.0","49899","List2A","white","woman","","","","null","","","","","","","","",""
"861.5999999046326","<p>You got 8 out of 8 right first time. Press Continue.</p>","0","html-button-response","323","1029764","0.0-18.0-25.0","49899","List2A","white","woman","","","","","","","","","","","","",""
"null","<div style=""font-size:60px;"">+</div>","","html-keyboard-response","324","1031276","0.0-19.0-0.0","49899","List2A","white","woman","","","","null","","","","","","","","",""
"null","<img src=""stim_listA/oppose4.gif""style=""height:400px;""></stim_listA>","","html-keyboard-response","325","1033282","0.0-19.0-1.0","49899","List2A","white","woman","","","","null","","","","","","","","",""
"null","is being opposed by","","html-keyboard-response","326","1035287","0.0-19.0-2.0","49899","List2A","white","woman","","","","null","","","","","","","","",""
"5072.400000095367","","","survey-text","327","1040363","0.0-19.0-3.0","49899","List2A","white","woman","","","","","{""Q0"":""beth is being opposed by fred""}","<img src=""stim_listA/oppose4.gif""style=""height:400px;""></stim_listA>","is being opposed by","","","","","",""
"null","<div style=""font-size:60px;"">+</div>","","html-keyboard-response","328","1040867","0.0-19.0-0.1","49899","List2A","white","woman","","","","null","","","","","","","","",""
"null","<img src=""stim_listA/touch4.gif""style=""height:400px;""></stim_listA>","","html-keyboard-response","329","1042872","0.0-19.0-1.1","49899","List2A","white","woman","","","","null","","","","","","","","",""
"null","is being touched by","","html-keyboard-response","330","1044878","0.0-19.0-2.1","49899","List2A","white","woman","","","","null","","","","","","","","",""
"6556.5","","","survey-text","331","1051439","0.0-19.0-3.1","49899","List2A","white","woman","","","","","{""Q0"":""beth is being touched by fred""}","<img src=""stim_listA/touch4.gif""style=""height:400px;""></stim_listA>","is being touched by","","","","","",""
"null","<div style=""font-size:60px;"">+</div>","","html-keyboard-response","332","1051941","0.0-19.0-0.2","49899","List2A","white","woman","","","","null","","","","","","","","",""
"null","<img src=""stim_listA/challenge3.gif""style=""height:400px;""></stim_listA>","","html-keyboard-response","333","1053944","0.0-19.0-1.2","49899","List2A","white","woman","","","","null","","","","","","","","",""
"null","is challenging","","html-keyboard-response","334","1055946","0.0-19.0-2.2","49899","List2A","white","woman","","","","null","","","","","","","","",""
"5995.099999904633","","","survey-text","335","1061945","0.0-19.0-3.2","49899","List2A","white","woman","","","","","{""Q0"":""mike is challenging beth""}","<img src=""stim_listA/challenge3.gif""style=""height:400px;""></stim_listA>","is challenging","","","","","",""
"null","<div style=""font-size:60px;"">+</div>","","html-keyboard-response","336","1062447","0.0-19.0-0.3","49899","List2A","white","woman","","","","null","","","","","","","","",""
"null","<img src=""stim_listA/oppose1.gif""style=""height:400px;""></stim_listA>","","html-keyboard-response","337","1064455","0.0-19.0-1.3","49899","List2A","white","woman","","","","null","","","","","","","","",""
"null","is opposing","","html-keyboard-response","338","1066458","0.0-19.0-2.3","49899","List2A","white","woman","","","","null","","","","","","","","",""
"4244.400000095367","","","survey-text","339","1070706","0.0-19.0-3.3","49899","List2A","white","woman","","","","","{""Q0"":""dave is opposing jane""}","<img src=""stim_listA/oppose1.gif""style=""height:400px;""></stim_listA>","is opposing","","","","","",""
"null","<div style=""font-size:60px;"">+</div>","","html-keyboard-response","340","1071208","0.0-19.0-0.4","49899","List2A","white","woman","","","","null","","","","","","","","",""
"null","<img src=""stim_listA/touch3.gif""style=""height:400px;""></stim_listA>","","html-keyboard-response","341","1073214","0.0-19.0-1.4","49899","List2A","white","woman","","","","null","","","","","","","","",""
"null","is touching","","html-keyboard-response","342","1075216","0.0-19.0-2.4","49899","List2A","white","woman","","","","null","","","","","","","","",""
"4115","","","survey-text","343","1079335","0.0-19.0-3.4","49899","List2A","white","woman","","","","","{""Q0"":""kate is touching mike""}","<img src=""stim_listA/touch3.gif""style=""height:400px;""></stim_listA>","is touching","","","","","",""
"null","<div style=""font-size:60px;"">+</div>","","html-keyboard-response","344","1079837","0.0-19.0-0.5","49899","List2A","white","woman","","","","null","","","","","","","","",""
"null","<img src=""stim_listA/shout8.gif""style=""height:400px;""></stim_listA>","","html-keyboard-response","345","1081842","0.0-19.0-1.5","49899","List2A","white","woman","","","","null","","","","","","","","",""
"null","is being shouted at by","","html-keyboard-response","346","1083844","0.0-19.0-2.5","49899","List2A","white","woman","","","","null","","","","","","","","",""
"4918.800000190735","","","survey-text","347","1088766","0.0-19.0-3.5","49899","List2A","white","woman","","","","","{""Q0"":""kate is being shouted at by jane""}","<img src=""stim_listA/shout8.gif""style=""height:400px;""></stim_listA>","is being shouted at by","","","","","",""
"null","<div style=""font-size:60px;"">+</div>","","html-keyboard-response","348","1089267","0.0-19.0-0.6","49899","List2A","white","woman","","","","null","","","","","","","","",""
"null","<img src=""stim_listA/oppose5.gif""style=""height:400px;""></stim_listA>","","html-keyboard-response","349","1091274","0.0-19.0-1.6","49899","List2A","white","woman","","","","null","","","","","","","","",""
"null","is opposing","","html-keyboard-response","350","1093279","0.0-19.0-2.6","49899","List2A","white","woman","","","","null","","","","","","","","",""
"3454.4000000953674","","","survey-text","351","1096737","0.0-19.0-3.6","49899","List2A","white","woman","","","","","{""Q0"":""mike is opposing dave""}","<img src=""stim_listA/oppose5.gif""style=""height:400px;""></stim_listA>","is opposing","","","","","",""
"null","<div style=""font-size:60px;"">+</div>","","html-keyboard-response","352","1097238","0.0-19.0-0.7","49899","List2A","white","woman","","","","null","","","","","","","","",""
"null","<img src=""stim_listA/challenge4.gif""style=""height:400px;""></stim_listA>","","html-keyboard-response","353","1099245","0.0-19.0-1.7","49899","List2A","white","woman","","","","null","","","","","","","","",""
"null","is being challenged by","","html-keyboard-response","354","1101249","0.0-19.0-2.7","49899","List2A","white","woman","","","","null","","","","","","","","",""
"4926.800000190735","","","survey-text","355","1106178","0.0-19.0-3.7","49899","List2A","white","woman","","","","","{""Q0"":""kate is being challenged by fred""}","<img src=""stim_listA/challenge4.gif""style=""height:400px;""></stim_listA>","is being challenged by","","","","","",""
"null","<div style=""font-size:60px;"">+</div>","","html-keyboard-response","356","1106681","0.0-19.0-0.8","49899","List2A","white","woman","","","","null","","","","","","","","",""
"null","<img src=""stim_listA/touch6.gif""style=""height:400px;""></stim_listA>","","html-keyboard-response","357","1108685","0.0-19.0-1.8","49899","List2A","white","woman","","","","null","","","","","","","","",""
"null","is being touched by","","html-keyboard-response","358","1110689","0.0-19.0-2.8","49899","List2A","white","woman","","","","null","","","","","","","","",""
"4288.200000286102","","","survey-text","359","1114980","0.0-19.0-3.8","49899","List2A","white","woman","","","","","{""Q0"":""luke is being touched by fred""}","<img src=""stim_listA/touch6.gif""style=""height:400px;""></stim_listA>","is being touched by","","","","","",""
"null","<div style=""font-size:60px;"">+</div>","","html-keyboard-response","360","1115483","0.0-19.0-0.9","49899","List2A","white","woman","","","","null","","","","","","","","",""
"null","<img src=""stim_listA/challenge8.gif""style=""height:400px;""></stim_listA>","","html-keyboard-response","361","1117486","0.0-19.0-1.9","49899","List2A","white","woman","","","","null","","","","","","","","",""
"null","is being challenged by","","html-keyboard-response","362","1119492","0.0-19.0-2.9","49899","List2A","white","woman","","","","null","","","","","","","","",""
"4590.199999809265","","","survey-text","363","1124085","0.0-19.0-3.9","49899","List2A","white","woman","","","","","{""Q0"":""kate is being challenged by ruth""}","<img src=""stim_listA/challenge8.gif""style=""height:400px;""></stim_listA>","is being challenged by","","","","","",""
"null","<div style=""font-size:60px;"">+</div>","","html-keyboard-response","364","1124587","0.0-19.0-0.10","49899","List2A","white","woman","","","","null","","","","","","","","",""
"null","<img src=""stim_listA/touch8.gif""style=""height:400px;""></stim_listA>","","html-keyboard-response","365","1126594","0.0-19.0-1.10","49899","List2A","white","woman","","","","null","","","","","","","","",""
"null","is being touched by","","html-keyboard-response","366","1128599","0.0-19.0-2.10","49899","List2A","white","woman","","","","null","","","","","","","","",""
"3995.2000002861023","","","survey-text","367","1132597","0.0-19.0-3.10","49899","List2A","white","woman","","","","","{""Q0"":""ruth is being touched by beth""}","<img src=""stim_listA/touch8.gif""style=""height:400px;""></stim_listA>","is being touched by","","","","","",""
"null","<div style=""font-size:60px;"">+</div>","","html-keyboard-response","368","1133101","0.0-19.0-0.11","49899","List2A","white","woman","","","","null","","","","","","","","",""
"null","<img src=""stim_listA/challenge7.gif""style=""height:400px;""></stim_listA>","","html-keyboard-response","369","1135106","0.0-19.0-1.11","49899","List2A","white","woman","","","","null","","","","","","","","",""
"null","is challenging","","html-keyboard-response","370","1137109","0.0-19.0-2.11","49899","List2A","white","woman","","","","null","","","","","","","","",""
"3697","","","survey-text","371","1140809","0.0-19.0-3.11","49899","List2A","white","woman","","","","","{""Q0"":""jane is challenging beth""}","<img src=""stim_listA/challenge7.gif""style=""height:400px;""></stim_listA>","is challenging","","","","","",""
"null","<div style=""font-size:60px;"">+</div>","","html-keyboard-response","372","1141313","0.0-19.0-0.12","49899","List2A","white","woman","","","","null","","","","","","","","",""
"null","<img src=""stim_listA/kiss6.gif""style=""height:400px;""></stim_listA>","","html-keyboard-response","373","1143316","0.0-19.0-1.12","49899","List2A","white","woman","","","","null","","","","","","","","",""
"null","is being kissed by","","html-keyboard-response","374","1145322","0.0-19.0-2.12","49899","List2A","white","woman","","","","null","","","","","","","","",""
"4655.200000286102","","","survey-text","375","1149983","0.0-19.0-3.12","49899","List2A","white","woman","","","","","{""Q0"":""mike is being kissed by dave""}","<img src=""stim_listA/kiss6.gif""style=""height:400px;""></stim_listA>","is being kissed by","","","","","",""
"null","<div style=""font-size:60px;"">+</div>","","html-keyboard-response","376","1150486","0.0-19.0-0.13","49899","List2A","white","woman","","","","null","","","","","","","","",""
"null","<img src=""stim_listA/oppose7.gif""style=""height:400px;""></stim_listA>","","html-keyboard-response","377","1152494","0.0-19.0-1.13","49899","List2A","white","woman","","","","null","","","","","","","","",""
"null","is opposing","","html-keyboard-response","378","1154498","0.0-19.0-2.13","49899","List2A","white","woman","","","","null","","","","","","","","",""
"4281.699999809265","","","survey-text","379","1158784","0.0-19.0-3.13","49899","List2A","white","woman","","","","","{""Q0"":""jane is opposing kate""}","<img src=""stim_listA/oppose7.gif""style=""height:400px;""></stim_listA>","is opposing","","","","","",""
"null","<div style=""font-size:60px;"">+</div>","","html-keyboard-response","380","1159288","0.0-19.0-0.14","49899","List2A","white","woman","","","","null","","","","","","","","",""
"null","<img src=""stim_listA/kiss3.gif""style=""height:400px;""></stim_listA>","","html-keyboard-response","381","1161294","0.0-19.0-1.14","49899","List2A","white","woman","","","","null","","","","","","","","",""
"null","is kissing","","html-keyboard-response","382","1163295","0.0-19.0-2.14","49899","List2A","white","woman","","","","null","","","","","","","","",""
"3048","","","survey-text","383","1166347","0.0-19.0-3.14","49899","List2A","white","woman","","","","","{""Q0"":""beth is kissing fred""}","<img src=""stim_listA/kiss3.gif""style=""height:400px;""></stim_listA>","is kissing","","","","","",""
"null","<div style=""font-size:60px;"">+</div>","","html-keyboard-response","384","1166848","0.0-19.0-0.15","49899","List2A","white","woman","","","","null","","","","","","","","",""
"null","<img src=""stim_listA/copy7.gif""style=""height:400px;""></stim_listA>","","html-keyboard-response","385","1168853","0.0-19.0-1.15","49899","List2A","white","woman","","","","null","","","","","","","","",""
"null","is copying","","html-keyboard-response","386","1170855","0.0-19.0-2.15","49899","List2A","white","woman","","","","null","","","","","","","","",""
"4494.699999809265","","","survey-text","387","1175353","0.0-19.0-3.15","49899","List2A","white","woman","","","","","{""Q0"":""jane is copying beth""}","<img src=""stim_listA/copy7.gif""style=""height:400px;""></stim_listA>","is copying","","","","","",""
"null","<div style=""font-size:60px;"">+</div>","","html-keyboard-response","388","1175855","0.0-19.0-0.16","49899","List2A","white","woman","","","","null","","","","","","","","",""
"null","<img src=""stim_listA/kiss7.gif""style=""height:400px;""></stim_listA>","","html-keyboard-response","389","1177859","0.0-19.0-1.16","49899","List2A","white","woman","","","","null","","","","","","","","",""
"null","is kissing","","html-keyboard-response","390","1179868","0.0-19.0-2.16","49899","List2A","white","woman","","","","null","","","","","","","","",""
"3626.199999809265","","","survey-text","391","1183497","0.0-19.0-3.16","49899","List2A","white","woman","","","","","{""Q0"":""ruth is kissing beth""}","<img src=""stim_listA/kiss7.gif""style=""height:400px;""></stim_listA>","is kissing","","","","","",""
"null","<div style=""font-size:60px;"">+</div>","","html-keyboard-response","392","1184001","0.0-19.0-0.17","49899","List2A","white","woman","","","","null","","","","","","","","",""
"null","<img src=""stim_listA/look5.gif""style=""height:400px;""></stim_listA>","","html-keyboard-response","393","1186005","0.0-19.0-1.17","49899","List2A","white","woman","","","","null","","","","","","","","",""
"null","is looking at","","html-keyboard-response","394","1188007","0.0-19.0-2.17","49899","List2A","white","woman","","","","null","","","","","","","","",""
"4754.5","","","survey-text","395","1192766","0.0-19.0-3.17","49899","List2A","white","woman","","","","","{""Q0"":""luke is looking at fred""}","<img src=""stim_listA/look5.gif""style=""height:400px;""></stim_listA>","is looking at","","","","","",""
"null","<div style=""font-size:60px;"">+</div>","","html-keyboard-response","396","1193268","0.0-19.0-0.18","49899","List2A","white","woman","","","","null","","","","","","","","",""
"null","<img src=""stim_listA/hug3.gif""style=""height:400px;""></stim_listA>","","html-keyboard-response","397","1195274","0.0-19.0-1.18","49899","List2A","white","woman","","","","null","","","","","","","","",""
"null","is hugging","","html-keyboard-response","398","1197279","0.0-19.0-2.18","49899","List2A","white","woman","","","","null","","","","","","","","",""
"3964.7000002861023","","","survey-text","399","1201247","0.0-19.0-3.18","49899","List2A","white","woman","","","","","{""Q0"":""beth is hugging fred""}","<img src=""stim_listA/hug3.gif""style=""height:400px;""></stim_listA>","is hugging","","","","","",""
"null","<div style=""font-size:60px;"">+</div>","","html-keyboard-response","400","1201748","0.0-19.0-0.19","49899","List2A","white","woman","","","","null","","","","","","","","",""
"null","<img src=""stim_listA/hug6.gif""style=""height:400px;""></stim_listA>","","html-keyboard-response","401","1203755","0.0-19.0-1.19","49899","List2A","white","woman","","","","null","","","","","","","","",""
"null","is being hugged by","","html-keyboard-response","402","1205762","0.0-19.0-2.19","49899","List2A","white","woman","","","","null","","","","","","","","",""
"5860.300000190735","","","survey-text","403","1211625","0.0-19.0-3.19","49899","List2A","white","woman","","","","","{""Q0"":""mike is being hugged by dave""}","<img src=""stim_listA/hug6.gif""style=""height:400px;""></stim_listA>","is being hugged by","","","","","",""
"2217.2000002861023","<p>Thank you for completing that task.</p><p>The final part of this session is a questionnaire that will take about 4 minutes.</p><p>Press Continue.</p>","0","html-button-response","404","1213845","0.0-20.0","49899","List2A","white","woman","","","","","","","","","","","","",""
"55037.5","","","survey-text","405","1269895","0.0-21.0","49899","List2A","white","woman","","","","","{""Q0"":""22"",""Q1"":""English"",""Q2"":""English"",""Q3"":""United States"",""Q4"":""Irish/Italian American"",""Q5"":""White"",""Q6"":""Female""}","","","demographics","","","","",""
"3061.800000190735","<p>Have you lived in the USA for the last 5 years or more?</p>","0","html-button-response","406","1272961","0.0-22.0","49899","List2A","white","woman","","","","","","","","fiveyears","","","","",""
"3677.2999997138977","<p>Move the slider to show the extent to which you agree with the following statements.</p>","0","html-button-response","407","1277645","0.0-23.0","49899","List2A","white","woman","","","","","","","","","","","","",""
"14154.099999904633","","","html-slider-response","408","1292804","0.0-24.0-0.0-0.0","49899","List2A","white","woman","","","","","","","","survey_gender","42","","","I am similar to the average person of my gender.","similar"
"6038.699999809265","","","html-slider-response","409","1298845","0.0-24.0-0.0-0.1","49899","List2A","white","woman","","","","","","","","survey_gender","89","","","I think that my gender has a lot to be proud of.","proud"
"3781.2999997138977","","","html-slider-response","410","1302630","0.0-24.0-0.0-0.2","49899","List2A","white","woman","","","","","","","","survey_gender","96","","","I feel a bond with my friends.","filler"
"4024.0999999046326","","","html-slider-response","411","1306657","0.0-24.0-0.0-0.3","49899","List2A","white","woman","","","","","","","","survey_gender","99","","","I have a lot in common with my friends.","filler"
"3639.4000000953674","","","html-slider-response","412","1310299","0.0-24.0-0.0-0.4","49899","List2A","white","woman","","","","","","","","survey_gender","63","","","Routine is not important to me.","filler"
"2778.2999997138977","","","html-slider-response","413","1313080","0.0-24.0-0.0-0.5","49899","List2A","white","woman","","","","","","","","survey_gender","97","","","I feel solidarity with my gender.","solidarity"
"2715","","","html-slider-response","414","1315797","0.0-24.0-0.0-0.6","49899","List2A","white","woman","","","","","","","","survey_gender","95","","","I feel a bond with my gender.","bond"
"2888.4000000953674","","","html-slider-response","415","1318688","0.0-24.0-0.0-0.7","49899","List2A","white","woman","","","","","","","","survey_gender","80","","","Most of the friends in my life are very similar to me.","filler"
"2538.9000000953674","","","html-slider-response","416","1321228","0.0-24.0-0.0-0.8","49899","List2A","white","woman","","","","","","","","survey_gender","100","","","Being around my friends gives me a good feeling.","filler"
"2165.3999996185303","","","html-slider-response","417","1323396","0.0-24.0-0.0-0.9","49899","List2A","white","woman","","","","","","","","survey_gender","95","","","I am glad to be my gender.","glad"
"2257.0999999046326","","","html-slider-response","418","1325655","0.0-24.0-0.0-0.10","49899","List2A","white","woman","","","","","","","","survey_gender","89","","","My friends have a lot in common with each other.","filler"
"5516.699999809265","","","html-slider-response","419","1331174","0.0-24.0-0.0-0.11","49899","List2A","white","woman","","","","","","","","survey_gender","24","","","People of my gender have a lot in common with each other.","common"
"2405.300000190735","","","html-slider-response","420","1333582","0.0-24.0-0.0-0.12","49899","List2A","white","woman","","","","","","","","survey_gender","72","","","I would say I am an animal person.","filler"
"2105.300000190735","","","html-slider-response","421","1335689","0.0-24.0-0.0-0.13","49899","List2A","white","woman","","","","","","","","survey_gender","93","","","I am glad to have the friends that I have.","filler"
"3289.699999809265","","","html-slider-response","422","1338981","0.0-24.0-0.0-0.14","49899","List2A","white","woman","","","","","","","","survey_gender","83","","","Being my gender is an important part of how I see myself.","important"
"4102","","","html-slider-response","423","1343086","0.0-24.0-0.0-0.15","49899","List2A","white","woman","","","","","","","","survey_gender","33","","","I often think about the fact that I am my gender.","often"
"4564.5","","","html-slider-response","424","1347653","0.0-24.0-0.0-0.16","49899","List2A","white","woman","","","","","","","","survey_gender","93","","","Family is not more important to me than friendship.","filler"
"4520.099999904633","","","html-slider-response","425","1352176","0.0-24.0-0.0-0.17","49899","List2A","white","woman","","","","","","","","survey_gender","36","","","I have a lot in common with the average person of my gender.","average"
"3641.7000002861023","","","html-slider-response","426","1355821","0.0-24.0-0.0-0.18","49899","List2A","white","woman","","","","","","","","survey_gender","69","","","It is not always easy for people to know what I am thinking.","filler"
"3091.5999999046326","","","html-slider-response","427","1358915","0.0-24.0-0.0-0.19","49899","List2A","white","woman","","","","","","","","survey_gender","94","","","Being my gender gives me a good feeling.","feeling"
"2689.5999999046326","","","html-slider-response","428","1361608","0.0-24.0-0.0-0.20","49899","List2A","white","woman","","","","","","","","survey_gender","97","","","I consider myself a highly empathetic person.","filler"
"2349.6000003814697","","","html-slider-response","429","1363960","0.0-24.0-0.0-0.21","49899","List2A","white","woman","","","","","","","","survey_gender","28","","","People of my gender are very similar to each other.","verysimilar"
"2072.699999809265","","","html-slider-response","430","1366035","0.0-24.0-0.0-0.22","49899","List2A","white","woman","","","","","","","","survey_gender","84","","","I often think about my actions.","filler"
"3959.199999809265","","","html-slider-response","431","1369996","0.0-24.0-0.0-0.23","49899","List2A","white","woman","","","","","","","","survey_gender","56","","","It is pleasant to be my gender.","pleasant"
"2893.3999996185303","","","html-slider-response","432","1372893","0.0-24.0-0.0-0.24","49899","List2A","white","woman","","","","","","","","survey_gender","88","","","The fact that I am my gender is an important part of my identity.","identity"
"2032.0999999046326","","","html-slider-response","433","1374928","0.0-24.0-0.0-0.25","49899","List2A","white","woman","","","","","","","","survey_gender","83","","","I feel committed to my gender.","committed"
"2710.699999809265","","","html-slider-response","434","1377641","0.0-24.0-0.0-0.26","49899","List2A","white","woman","","","","","","","","survey_gender","96","","","I feel solidarity with my friends.","filler"
"3140.7000002861023","","","html-slider-response","435","1380783","0.0-24.0-0.0-0.27","49899","List2A","white","woman","","","","","","","","survey_gender","95","","","My friends understand me.","filler"
"2518.2000002861023","","","html-slider-response","436","1383303","0.0-24.0-1.0-0.0","49899","List2A","white","woman","","","","","","","","survey_race","100","","","I am glad to be my age.","filler"
"7851.599999904633","","","html-slider-response","437","1391158","0.0-24.0-1.0-0.1","49899","List2A","white","woman","","","","","","","","survey_race","12","","","I feel solidarity with my race.","solidarity"
"2626.5999999046326","","","html-slider-response","438","1393787","0.0-24.0-1.0-0.2","49899","List2A","white","woman","","","","","","","","survey_race","80","","","I feel a bond with people the same age as me.","filler"
"2899.800000190735","","","html-slider-response","439","1396688","0.0-24.0-1.0-0.3","49899","List2A","white","woman","","","","","","","","survey_race","11","","","The fact that I am my race is an important part of my identity.","identity"
"6190.700000286102","","","html-slider-response","440","1402881","0.0-24.0-1.0-0.4","49899","List2A","white","woman","","","","","","","","survey_race","32","","","It is pleasant to be my race.","pleasant"
"2401.5","","","html-slider-response","441","1405285","0.0-24.0-1.0-0.5","49899","List2A","white","woman","","","","","","","","survey_race","0","","","I think that my race has a lot to be proud of.","proud"
"2285.5","","","html-slider-response","442","1407573","0.0-24.0-1.0-0.6","49899","List2A","white","woman","","","","","","","","survey_race","77","","","I am glad to be the age I am.","filler"
"2795.199999809265","","","html-slider-response","443","1410371","0.0-24.0-1.0-0.7","49899","List2A","white","woman","","","","","","","","survey_race","8","","","I feel committed to my race.","committed"
"5674.699999809265","","","html-slider-response","444","1416048","0.0-24.0-1.0-0.8","49899","List2A","white","woman","","","","","","","","survey_race","27","","","I have a lot in common with the average person of my race.","average"
"4119","","","html-slider-response","445","1420170","0.0-24.0-1.0-0.9","49899","List2A","white","woman","","","","","","","","survey_race","59","","","People my age have a lot in common with each other.","filler"
"5001.5","","","html-slider-response","446","1425174","0.0-24.0-1.0-0.10","49899","List2A","white","woman","","","","","","","","survey_race","25","","","People of my race are very similar to each other.","verysimilar"
"2284.699999809265","","","html-slider-response","447","1427462","0.0-24.0-1.0-0.11","49899","List2A","white","woman","","","","","","","","survey_race","79","","","I feel solidarity with people the same age as me.","filler"
"2080","","","html-slider-response","448","1429545","0.0-24.0-1.0-0.12","49899","List2A","white","woman","","","","","","","","survey_race","0","","","I feel a bond with my race.","bond"
"2220.9000000953674","","","html-slider-response","449","1431768","0.0-24.0-1.0-0.13","49899","List2A","white","woman","","","","","","","","survey_race","0","","","Being my race gives me a good feeling.","feeling"
"2170.0999999046326","","","html-slider-response","450","1433940","0.0-24.0-1.0-0.14","49899","List2A","white","woman","","","","","","","","survey_race","31","","","People of my race have a lot in common with each other.","common"
"2381.199999809265","","","html-slider-response","451","1436324","0.0-24.0-1.0-0.15","49899","List2A","white","woman","","","","","","","","survey_race","28","","","My age is not an important part of who I am.","filler"
"2722.699999809265","","","html-slider-response","452","1439049","0.0-24.0-1.0-0.16","49899","List2A","white","woman","","","","","","","","survey_race","26","","","Getting older does not worry me.","filler"
"2313.699999809265","","","html-slider-response","453","1441365","0.0-24.0-1.0-0.17","49899","List2A","white","woman","","","","","","","","survey_race","90","","","Being my age gives me a good feeling.","filler"
"3095.699999809265","","","html-slider-response","454","1444463","0.0-24.0-1.0-0.18","49899","List2A","white","woman","","","","","","","","survey_race","65","","","I have a lot in common with people of a similar age to me.","filler"
"3141.699999809265","","","html-slider-response","455","1447607","0.0-24.0-1.0-0.19","49899","List2A","white","woman","","","","","","","","survey_race","64","","","I often think about the fact that I am my race.","often"
"2200.5999999046326","","","html-slider-response","456","1449810","0.0-24.0-1.0-0.20","49899","List2A","white","woman","","","","","","","","survey_race","29","","","I consider myself an introvert.","filler"
"3065.5999999046326","","","html-slider-response","457","1452877","0.0-24.0-1.0-0.21","49899","List2A","white","woman","","","","","","","","survey_race","3","","","I am glad to be my race.","glad"
"3509.9000000953674","","","html-slider-response","458","1456389","0.0-24.0-1.0-0.22","49899","List2A","white","woman","","","","","","","","survey_race","5","","","Being my race is an important part of how I see myself.","important"
"3758.2999997138977","","","html-slider-response","459","1460150","0.0-24.0-1.0-0.23","49899","List2A","white","woman","","","","","","","","survey_race","37","","","I enjoy being in large groups.","filler"
"2369.1000003814697","","","html-slider-response","460","1462521","0.0-24.0-1.0-0.24","49899","List2A","white","woman","","","","","","","","survey_race","15","","","I am similar to the average person of my race.","similar"
"2671.0999999046326","","","html-slider-response","461","1465195","0.0-24.0-1.0-0.25","49899","List2A","white","woman","","","","","","","","survey_race","80","","","The older I get, the wiser I feel.","filler"
"2522.199999809265","","","html-slider-response","462","1467719","0.0-24.0-1.0-0.26","49899","List2A","white","woman","","","","","","","","survey_race","68","","","I consider myself an extrovert.","filler"
"2228.7999997138977","","","html-slider-response","463","1469950","0.0-24.0-1.0-0.27","49899","List2A","white","woman","","","","","","","","survey_race","78","","","I often think about the fact that I am my age.","filler"
"3492.4000000953674","","","survey-text","464","1473447","0.0-25.0","49899","List2A","white","woman","","","","","{""Q0"":""616202f3ca5b3ab47923ee80""}","","","worker_id","","","","",""
"38692.59999990463","","","external-html","465","1512486","0.0-26.0","49899","List2A","white","woman","debrief.html","","","","","","","","","","","",""
