"rt","stimulus","button_pressed","trial_type","trial_index","time_elapsed","internal_node_id","subject","list","ppt_race","ppt_gender","url","first_guess","correct","key_press","responses","image_type","phrase_type","test_part","response","stimulus1","stimulus2","question_type","survey_item"
"1671.5","Welcome to the experiment. Press Continue to begin.","0","html-button-response","0","1675","0.0-0.0","49945","List1A","white","woman","","","","","","","","","","","","",""
"6473.800000011921","","","external-html","1","9350","0.0-1.0","49945","List1A","white","woman","consent.html","","","","","","","","","","","",""
"8733","<p>On the next page, you will see portraits of 8 people and their names.</p><p>Your first task is to take a few minutes to memorise the names of these people.</p><p>You will have to recall their names during the rest of the experiment, so it is</p><p>essential that you try to memorise these people and their names as best as you can.</p><br><p><strong>You will then be tested on your memory of these names and portraits.</strong></p><br><p>The experiment will start after you have completed this memory test.</p><br><p>Ready?</p>","0","html-button-response","2","18085","0.0-2.0","49945","List1A","white","woman","","","","","","","","","","","","",""
"73735.90000003576","<img src='img/portrait_matrix_list1.jpg' style='width:900px;height:500px;''></img><p>If you have memorised all the portraits and names and are ready to start, press Continue.</p><p><strong>Please note: Your memory of these faces will be tested 4 times during this experiment.</strong></p>","0","html-button-response","3","92824","0.0-3.0-0.0","49945","List1A","white","woman","","","","","","","","","","","","",""
"6378.199999988079","<img src=""portrait/BW2.jpg""style=""height:400px;""></img>","2","html-button-response","4","100207","0.0-3.0-1.0","49945","List1A","white","woman","","true","2","","","","","","","","","",""
"null","CORRECT","","html-keyboard-response","5","101718","0.0-3.0-2.0-0.0","49945","List1A","white","woman","","","","null","","","","","","","","",""
"6222.100000023842","<img src=""portrait/BW1.jpg""style=""height:400px;""></img>","0","html-button-response","6","107942","0.0-3.0-4.0","49945","List1A","white","woman","","true","0","","","","","","","","","",""
"null","CORRECT","","html-keyboard-response","7","109456","0.0-3.0-5.0-0.0","49945","List1A","white","woman","","","","null","","","","","","","","",""
"3106.800000011921","<img src=""portrait/WW1.jpg""style=""height:400px;""></img>","1","html-button-response","8","112565","0.0-3.0-7.0","49945","List1A","white","woman","","true","1","","","","","","","","","",""
"null","CORRECT","","html-keyboard-response","9","114072","0.0-3.0-8.0-0.0","49945","List1A","white","woman","","","","null","","","","","","","","",""
"1949","<img src=""portrait/WW2.jpg""style=""height:400px;""></img>","3","html-button-response","10","116023","0.0-3.0-10.0","49945","List1A","white","woman","","true","3","","","","","","","","","",""
"null","CORRECT","","html-keyboard-response","11","117534","0.0-3.0-11.0-0.0","49945","List1A","white","woman","","","","null","","","","","","","","",""
"6217.399999976158","<img src=""portrait/WM2.jpg""style=""height:400px;""></img>","7","html-button-response","12","123754","0.0-3.0-13.0","49945","List1A","white","woman","","true","7","","","","","","","","","",""
"null","CORRECT","","html-keyboard-response","13","125266","0.0-3.0-14.0-0.0","49945","List1A","white","woman","","","","null","","","","","","","","",""
"2290.600000023842","<img src=""portrait/BM1.jpg""style=""height:400px;""></img>","4","html-button-response","14","127558","0.0-3.0-16.0","49945","List1A","white","woman","","true","4","","","","","","","","","",""
"null","CORRECT","","html-keyboard-response","15","129067","0.0-3.0-17.0-0.0","49945","List1A","white","woman","","","","null","","","","","","","","",""
"2949.800000011921","<img src=""portrait/BM2.jpg""style=""height:400px;""></img>","5","html-button-response","16","132019","0.0-3.0-19.0","49945","List1A","white","woman","","true","5","","","","","","","","","",""
"null","CORRECT","","html-keyboard-response","17","133523","0.0-3.0-20.0-0.0","49945","List1A","white","woman","","","","null","","","","","","","","",""
"1677.800000011921","<img src=""portrait/WM1.jpg""style=""height:400px;""></img>","6","html-button-response","18","135203","0.0-3.0-22.0","49945","List1A","white","woman","","true","6","","","","","","","","","",""
"null","CORRECT","","html-keyboard-response","19","136709","0.0-3.0-23.0-0.0","49945","List1A","white","woman","","","","null","","","","","","","","",""
"1682.5","<p>You got 8 out of 8 right first time. Press Continue.</p>","0","html-button-response","20","138394","0.0-3.0-25.0","49945","List1A","white","woman","","","","","","","","","","","","",""
"27427.80000001192","<p>In this experiment, you will view photographs of the people from the memory game interacting.</p><p>By using the <strong>exact</strong> phrase given <i>after</i> the photograph appears and recalling the correct names of the people in the photographs, form a sentence describing the interaction. You do not need to capitalise names.</p><p>Type your answer in the space provided. Please complete every sentence before moving onto the next trial.</p><p>You will only have a few seconds to memorise each given photograph and phrase before you can respond, so try your best to focus.</p><p>An example is given below. Press 'Continue' when you are ready.</p><img src='img/speaking_example.jpg' style='width:800px;height:460px;''></img>","0","html-button-response","21","166830","0.0-4.0","49945","List1A","white","woman","","","","","","","","","","","","",""
"1702.1000000238419","<p>Before the experiment starts, you will watch two example trials. Press 'Continue'.</p>","0","html-button-response","22","169535","0.0-5.0","49945","List1A","white","woman","","","","","","","","","","","","",""
"null","<img src='img/play_eg.gif' style='height:400px;''></img>","","html-keyboard-response","23","172547","0.0-6.0","49945","List1A","white","woman","","","","null","","","","","","","","",""
"null","<p>is playing with</p>","","html-keyboard-response","24","174553","0.0-7.0","49945","List1A","white","woman","","","","null","","","","","","","","",""
"2847.699999988079","<p><b>Answer:</b> kate is playing with beth</p>","0","html-button-response","25","177402","0.0-8.0","49945","List1A","white","woman","","","","","","","","","","","","",""
"null","<img src='img/dance_eg.gif' style='height:400px;''></img>","","html-keyboard-response","26","180413","0.0-9.0","49945","List1A","white","woman","","","","null","","","","","","","","",""
"null","<p>is being entertained by</p>","","html-keyboard-response","27","182419","0.0-10.0","49945","List1A","white","woman","","","","null","","","","","","","","",""
"1403","<p><b>Answer:</b> luke is being entertained by dave</p>","0","html-button-response","28","183823","0.0-11.0","49945","List1A","white","woman","","","","","","","","","","","","",""
"4176.800000011921","<p>Ready to start the experiment?</p><br><p><strong>Remember to describe the picture using a full sentence,</strong></p><p><strong>that combines the names of the people with the <i>exact</i> phrase given.</strong></p><p><strong>To receive full payment you must do this correctly.</strong></p><p><strong> You do not need to capitalise names or use punctuation.</strong></p><br><p>Press 'Continue' to begin.</p>","0","html-button-response","29","189005","0.0-12.0","49945","List1A","white","woman","","","","","","","","","","","","",""
"null","<div style=""font-size:60px;"">+</div>","","html-keyboard-response","30","190517","0.0-13.0-0.0","49945","List1A","white","woman","","","","null","","","","","","","","",""
"null","<img src=""stim_listA/touch7.gif""style=""height:400px;""></stim_listA>","","html-keyboard-response","31","192523","0.0-13.0-1.0","49945","List1A","white","woman","","","","null","","","","","","","","",""
"null","is touching","","html-keyboard-response","32","194524","0.0-13.0-2.0","49945","List1A","white","woman","","","","null","","","","","","","","",""
"5854.199999988079","","","survey-text","33","200385","0.0-13.0-3.0","49945","List1A","white","woman","","","","","{""Q0"":""kate is touching jane""}","<img src=""stim_listA/touch7.gif""style=""height:400px;""></stim_listA>","is touching","","","","","",""
"null","<div style=""font-size:60px;"">+</div>","","html-keyboard-response","34","200887","0.0-13.0-0.1","49945","List1A","white","woman","","","","null","","","","","","","","",""
"null","<img src=""stim_listA/hug8.gif""style=""height:400px;""></stim_listA>","","html-keyboard-response","35","202889","0.0-13.0-1.1","49945","List1A","white","woman","","","","null","","","","","","","","",""
"null","is being hugged by","","html-keyboard-response","36","204896","0.0-13.0-2.1","49945","List1A","white","woman","","","","null","","","","","","","","",""
"4348.700000047684","","","survey-text","37","209249","0.0-13.0-3.1","49945","List1A","white","woman","","","","","{""Q0"":""kate is being hugged by jane""}","<img src=""stim_listA/hug8.gif""style=""height:400px;""></stim_listA>","is being hugged by","","","","","",""
"null","<div style=""font-size:60px;"">+</div>","","html-keyboard-response","38","209751","0.0-13.0-0.2","49945","List1A","white","woman","","","","null","","","","","","","","",""
"null","<img src=""stim_listA/hug7.gif""style=""height:400px;""></stim_listA>","","html-keyboard-response","39","211753","0.0-13.0-1.2","49945","List1A","white","woman","","","","null","","","","","","","","",""
"null","is hugging","","html-keyboard-response","40","213754","0.0-13.0-2.2","49945","List1A","white","woman","","","","null","","","","","","","","",""
"3252.699999988079","","","survey-text","41","217010","0.0-13.0-3.2","49945","List1A","white","woman","","","","","{""Q0"":""beth is hugging ruth""}","<img src=""stim_listA/hug7.gif""style=""height:400px;""></stim_listA>","is hugging","","","","","",""
"null","<div style=""font-size:60px;"">+</div>","","html-keyboard-response","42","217515","0.0-13.0-0.3","49945","List1A","white","woman","","","","null","","","","","","","","",""
"null","<img src=""stim_listA/seduce7.gif""style=""height:400px;""></stim_listA>","","html-keyboard-response","43","219522","0.0-13.0-1.3","49945","List1A","white","woman","","","","null","","","","","","","","",""
"null","is seducing","","html-keyboard-response","44","221528","0.0-13.0-2.3","49945","List1A","white","woman","","","","null","","","","","","","","",""
"18180.69999998808","","","survey-text","45","239713","0.0-13.0-3.3","49945","List1A","white","woman","","","","","{""Q0"":""jane is seducing beth""}","<img src=""stim_listA/seduce7.gif""style=""height:400px;""></stim_listA>","is seducing","","","","","",""
"null","<div style=""font-size:60px;"">+</div>","","html-keyboard-response","46","240217","0.0-13.0-0.4","49945","List1A","white","woman","","","","null","","","","","","","","",""
"null","<img src=""stim_listA/greet8.gif""style=""height:400px;""></stim_listA>","","html-keyboard-response","47","242220","0.0-13.0-1.4","49945","List1A","white","woman","","","","null","","","","","","","","",""
"null","is being greeted by","","html-keyboard-response","48","244221","0.0-13.0-2.4","49945","List1A","white","woman","","","","null","","","","","","","","",""
"5702","","","survey-text","49","249927","0.0-13.0-3.4","49945","List1A","white","woman","","","","","{""Q0"":""is being greeted by beth""}","<img src=""stim_listA/greet8.gif""style=""height:400px;""></stim_listA>","is being greeted by","","","","","",""
"null","<div style=""font-size:60px;"">+</div>","","html-keyboard-response","50","250431","0.0-13.0-0.5","49945","List1A","white","woman","","","","null","","","","","","","","",""
"null","<img src=""stim_listA/oppose7.gif""style=""height:400px;""></stim_listA>","","html-keyboard-response","51","252434","0.0-13.0-1.5","49945","List1A","white","woman","","","","null","","","","","","","","",""
"null","is opposing","","html-keyboard-response","52","254436","0.0-13.0-2.5","49945","List1A","white","woman","","","","null","","","","","","","","",""
"4363.400000035763","","","survey-text","53","258803","0.0-13.0-3.5","49945","List1A","white","woman","","","","","{""Q0"":""kate is opposing jane""}","<img src=""stim_listA/oppose7.gif""style=""height:400px;""></stim_listA>","is opposing","","","","","",""
"null","<div style=""font-size:60px;"">+</div>","","html-keyboard-response","54","259307","0.0-13.0-0.6","49945","List1A","white","woman","","","","null","","","","","","","","",""
"null","<img src=""stim_listA/challenge6.gif""style=""height:400px;""></stim_listA>","","html-keyboard-response","55","261313","0.0-13.0-1.6","49945","List1A","white","woman","","","","null","","","","","","","","",""
"null","is being challenged by","","html-keyboard-response","56","263319","0.0-13.0-2.6","49945","List1A","white","woman","","","","null","","","","","","","","",""
"8107.300000011921","","","survey-text","57","271431","0.0-13.0-3.6","49945","List1A","white","woman","","","","","{""Q0"":""fred is being challenged by dave""}","<img src=""stim_listA/challenge6.gif""style=""height:400px;""></stim_listA>","is being challenged by","","","","","",""
"null","<div style=""font-size:60px;"">+</div>","","html-keyboard-response","58","271935","0.0-13.0-0.7","49945","List1A","white","woman","","","","null","","","","","","","","",""
"null","<img src=""stim_listA/seduce6.gif""style=""height:400px;""></stim_listA>","","html-keyboard-response","59","273943","0.0-13.0-1.7","49945","List1A","white","woman","","","","null","","","","","","","","",""
"null","is being seduced by","","html-keyboard-response","60","275946","0.0-13.0-2.7","49945","List1A","white","woman","","","","null","","","","","","","","",""
"5354.800000011921","","","survey-text","61","281305","0.0-13.0-3.7","49945","List1A","white","woman","","","","","{""Q0"":""luke is being seduced by mike""}","<img src=""stim_listA/seduce6.gif""style=""height:400px;""></stim_listA>","is being seduced by","","","","","",""
"null","<div style=""font-size:60px;"">+</div>","","html-keyboard-response","62","281808","0.0-13.0-0.8","49945","List1A","white","woman","","","","null","","","","","","","","",""
"null","<img src=""stim_listA/copy2.gif""style=""height:400px;""></stim_listA>","","html-keyboard-response","63","283815","0.0-13.0-1.8","49945","List1A","white","woman","","","","null","","","","","","","","",""
"null","is being copied by","","html-keyboard-response","64","285821","0.0-13.0-2.8","49945","List1A","white","woman","","","","null","","","","","","","","",""
"5220.099999964237","","","survey-text","65","291045","0.0-13.0-3.8","49945","List1A","white","woman","","","","","{""Q0"":""kate is being copied by fred""}","<img src=""stim_listA/copy2.gif""style=""height:400px;""></stim_listA>","is being copied by","","","","","",""
"null","<div style=""font-size:60px;"">+</div>","","html-keyboard-response","66","291549","0.0-13.0-0.9","49945","List1A","white","woman","","","","null","","","","","","","","",""
"null","<img src=""stim_listA/copy4.gif""style=""height:400px;""></stim_listA>","","html-keyboard-response","67","293557","0.0-13.0-1.9","49945","List1A","white","woman","","","","null","","","","","","","","",""
"null","is being copied by","","html-keyboard-response","68","295561","0.0-13.0-2.9","49945","List1A","white","woman","","","","null","","","","","","","","",""
"5538","","","survey-text","69","301104","0.0-13.0-3.9","49945","List1A","white","woman","","","","","{""Q0"":""luke is being copied by jane""}","<img src=""stim_listA/copy4.gif""style=""height:400px;""></stim_listA>","is being copied by","","","","","",""
"null","<div style=""font-size:60px;"">+</div>","","html-keyboard-response","70","301608","0.0-13.0-0.10","49945","List1A","white","woman","","","","null","","","","","","","","",""
"null","<img src=""stim_listA/look5.gif""style=""height:400px;""></stim_listA>","","html-keyboard-response","71","303615","0.0-13.0-1.10","49945","List1A","white","woman","","","","null","","","","","","","","",""
"null","is looking at","","html-keyboard-response","72","305618","0.0-13.0-2.10","49945","List1A","white","woman","","","","null","","","","","","","","",""
"4163.899999976158","","","survey-text","73","309787","0.0-13.0-3.10","49945","List1A","white","woman","","","","","{""Q0"":""fred is looking at luke""}","<img src=""stim_listA/look5.gif""style=""height:400px;""></stim_listA>","is looking at","","","","","",""
"null","<div style=""font-size:60px;"">+</div>","","html-keyboard-response","74","310288","0.0-13.0-0.11","49945","List1A","white","woman","","","","null","","","","","","","","",""
"null","<img src=""stim_listA/kiss3.gif""style=""height:400px;""></stim_listA>","","html-keyboard-response","75","312291","0.0-13.0-1.11","49945","List1A","white","woman","","","","null","","","","","","","","",""
"null","is kissing","","html-keyboard-response","76","314294","0.0-13.0-2.11","49945","List1A","white","woman","","","","null","","","","","","","","",""
"2507.5","","","survey-text","77","316806","0.0-13.0-3.11","49945","List1A","white","woman","","","","","{""Q0"":""luke is kissing""}","<img src=""stim_listA/kiss3.gif""style=""height:400px;""></stim_listA>","is kissing","","","","","",""
"null","<div style=""font-size:60px;"">+</div>","","html-keyboard-response","78","317308","0.0-13.0-0.12","49945","List1A","white","woman","","","","null","","","","","","","","",""
"null","<img src=""stim_listA/look8.gif""style=""height:400px;""></stim_listA>","","html-keyboard-response","79","319310","0.0-13.0-1.12","49945","List1A","white","woman","","","","null","","","","","","","","",""
"null","is being looked at by","","html-keyboard-response","80","321311","0.0-13.0-2.12","49945","List1A","white","woman","","","","null","","","","","","","","",""
"7381.199999988079","","","survey-text","81","328697","0.0-13.0-3.12","49945","List1A","white","woman","","","","","{""Q0"":""kate is looking at jane""}","<img src=""stim_listA/look8.gif""style=""height:400px;""></stim_listA>","is being looked at by","","","","","",""
"null","<div style=""font-size:60px;"">+</div>","","html-keyboard-response","82","329201","0.0-13.0-0.13","49945","List1A","white","woman","","","","null","","","","","","","","",""
"null","<img src=""stim_listA/hug4.gif""style=""height:400px;""></stim_listA>","","html-keyboard-response","83","331205","0.0-13.0-1.13","49945","List1A","white","woman","","","","null","","","","","","","","",""
"null","is being hugged by","","html-keyboard-response","84","333211","0.0-13.0-2.13","49945","List1A","white","woman","","","","null","","","","","","","","",""
"4639.800000011921","","","survey-text","85","337855","0.0-13.0-3.13","49945","List1A","white","woman","","","","","{""Q0"":""jane is being hugged by dave""}","<img src=""stim_listA/hug4.gif""style=""height:400px;""></stim_listA>","is being hugged by","","","","","",""
"null","<div style=""font-size:60px;"">+</div>","","html-keyboard-response","86","338358","0.0-13.0-0.14","49945","List1A","white","woman","","","","null","","","","","","","","",""
"null","<img src=""stim_listA/oppose5.gif""style=""height:400px;""></stim_listA>","","html-keyboard-response","87","340361","0.0-13.0-1.14","49945","List1A","white","woman","","","","null","","","","","","","","",""
"null","is opposing","","html-keyboard-response","88","342363","0.0-13.0-2.14","49945","List1A","white","woman","","","","null","","","","","","","","",""
"3466.300000011921","","","survey-text","89","345833","0.0-13.0-3.14","49945","List1A","white","woman","","","","","{""Q0"":""mike is opposing dave""}","<img src=""stim_listA/oppose5.gif""style=""height:400px;""></stim_listA>","is opposing","","","","","",""
"null","<div style=""font-size:60px;"">+</div>","","html-keyboard-response","90","346337","0.0-13.0-0.15","49945","List1A","white","woman","","","","null","","","","","","","","",""
"null","<img src=""stim_listA/oppose6.gif""style=""height:400px;""></stim_listA>","","html-keyboard-response","91","348343","0.0-13.0-1.15","49945","List1A","white","woman","","","","null","","","","","","","","",""
"null","is being opposed by","","html-keyboard-response","92","350348","0.0-13.0-2.15","49945","List1A","white","woman","","","","null","","","","","","","","",""
"5353.600000023842","","","survey-text","93","355705","0.0-13.0-3.15","49945","List1A","white","woman","","","","","{""Q0"":""Luke is being opposed by fred""}","<img src=""stim_listA/oppose6.gif""style=""height:400px;""></stim_listA>","is being opposed by","","","","","",""
"null","<div style=""font-size:60px;"">+</div>","","html-keyboard-response","94","356209","0.0-13.0-0.16","49945","List1A","white","woman","","","","null","","","","","","","","",""
"null","<img src=""stim_listA/shout1.gif""style=""height:400px;""></stim_listA>","","html-keyboard-response","95","358216","0.0-13.0-1.16","49945","List1A","white","woman","","","","null","","","","","","","","",""
"null","is shouting at","","html-keyboard-response","96","360217","0.0-13.0-2.16","49945","List1A","white","woman","","","","null","","","","","","","","",""
"4023.300000011921","","","survey-text","97","364244","0.0-13.0-3.16","49945","List1A","white","woman","","","","","{""Q0"":""fred is shouting at beth""}","<img src=""stim_listA/shout1.gif""style=""height:400px;""></stim_listA>","is shouting at","","","","","",""
"null","<div style=""font-size:60px;"">+</div>","","html-keyboard-response","98","364746","0.0-13.0-0.17","49945","List1A","white","woman","","","","null","","","","","","","","",""
"null","<img src=""stim_listA/copy8.gif""style=""height:400px;""></stim_listA>","","html-keyboard-response","99","366753","0.0-13.0-1.17","49945","List1A","white","woman","","","","null","","","","","","","","",""
"null","is being copied by","","html-keyboard-response","100","368759","0.0-13.0-2.17","49945","List1A","white","woman","","","","null","","","","","","","","",""
"4249.600000023842","","","survey-text","101","373013","0.0-13.0-3.17","49945","List1A","white","woman","","","","","{""Q0"":""beth is being copied by jane""}","<img src=""stim_listA/copy8.gif""style=""height:400px;""></stim_listA>","is being copied by","","","","","",""
"null","<div style=""font-size:60px;"">+</div>","","html-keyboard-response","102","373517","0.0-13.0-0.18","49945","List1A","white","woman","","","","null","","","","","","","","",""
"null","<img src=""stim_listA/touch8.gif""style=""height:400px;""></stim_listA>","","html-keyboard-response","103","375524","0.0-13.0-1.18","49945","List1A","white","woman","","","","null","","","","","","","","",""
"null","is being touched by","","html-keyboard-response","104","377530","0.0-13.0-2.18","49945","List1A","white","woman","","","","null","","","","","","","","",""
"4063.300000011921","","","survey-text","105","381597","0.0-13.0-3.18","49945","List1A","white","woman","","","","","{""Q0"":""beth is being touched by""}","<img src=""stim_listA/touch8.gif""style=""height:400px;""></stim_listA>","is being touched by","","","","","",""
"null","<div style=""font-size:60px;"">+</div>","","html-keyboard-response","106","382099","0.0-13.0-0.19","49945","List1A","white","woman","","","","null","","","","","","","","",""
"null","<img src=""stim_listA/shout3.gif""style=""height:400px;""></stim_listA>","","html-keyboard-response","107","384106","0.0-13.0-1.19","49945","List1A","white","woman","","","","null","","","","","","","","",""
"null","is shouting at","","html-keyboard-response","108","386109","0.0-13.0-2.19","49945","List1A","white","woman","","","","null","","","","","","","","",""
"6485.699999988079","","","survey-text","109","392598","0.0-13.0-3.19","49945","List1A","white","woman","","","","","{""Q0"":""luke is shouting at jane""}","<img src=""stim_listA/shout3.gif""style=""height:400px;""></stim_listA>","is shouting at","","","","","",""
"22650.600000023842","<img src='img/portrait_matrix_list1.jpg' style='width:900px;height:500px;''></img><p>If you have memorised all the portraits and names and are ready to start, press Continue.</p><p><strong>Please note: Your memory of these faces will be tested 4 times during this experiment.</strong></p>","0","html-button-response","110","415250","0.0-14.0-0.0","49945","List1A","white","woman","","","","","","","","","","","","",""
"3523.900000035763","<img src=""portrait/BM2.jpg""style=""height:400px;""></img>","5","html-button-response","111","419779","0.0-14.0-1.0","49945","List1A","white","woman","","true","5","","","","","","","","","",""
"null","CORRECT","","html-keyboard-response","112","421287","0.0-14.0-2.0-0.0","49945","List1A","white","woman","","","","null","","","","","","","","",""
"1654.6000000238419","<img src=""portrait/WW1.jpg""style=""height:400px;""></img>","1","html-button-response","113","422944","0.0-14.0-4.0","49945","List1A","white","woman","","true","1","","","","","","","","","",""
"null","CORRECT","","html-keyboard-response","114","424454","0.0-14.0-5.0-0.0","49945","List1A","white","woman","","","","null","","","","","","","","",""
"1297.5999999642372","<img src=""portrait/BW1.jpg""style=""height:400px;""></img>","0","html-button-response","115","425754","0.0-14.0-7.0","49945","List1A","white","woman","","true","0","","","","","","","","","",""
"null","CORRECT","","html-keyboard-response","116","427265","0.0-14.0-8.0-0.0","49945","List1A","white","woman","","","","null","","","","","","","","",""
"1596.1000000238419","<img src=""portrait/BM1.jpg""style=""height:400px;""></img>","4","html-button-response","117","428863","0.0-14.0-10.0","49945","List1A","white","woman","","true","4","","","","","","","","","",""
"null","CORRECT","","html-keyboard-response","118","430371","0.0-14.0-11.0-0.0","49945","List1A","white","woman","","","","null","","","","","","","","",""
"2043.9000000357628","<img src=""portrait/WW2.jpg""style=""height:400px;""></img>","3","html-button-response","119","432418","0.0-14.0-13.0","49945","List1A","white","woman","","true","3","","","","","","","","","",""
"null","CORRECT","","html-keyboard-response","120","433927","0.0-14.0-14.0-0.0","49945","List1A","white","woman","","","","null","","","","","","","","",""
"1369.1000000238419","<img src=""portrait/WM2.jpg""style=""height:400px;""></img>","7","html-button-response","121","435299","0.0-14.0-16.0","49945","List1A","white","woman","","true","7","","","","","","","","","",""
"null","CORRECT","","html-keyboard-response","122","436807","0.0-14.0-17.0-0.0","49945","List1A","white","woman","","","","null","","","","","","","","",""
"1696.8999999761581","<img src=""portrait/BW2.jpg""style=""height:400px;""></img>","2","html-button-response","123","438506","0.0-14.0-19.0","49945","List1A","white","woman","","true","2","","","","","","","","","",""
"null","CORRECT","","html-keyboard-response","124","440010","0.0-14.0-20.0-0.0","49945","List1A","white","woman","","","","null","","","","","","","","",""
"1919.8999999761581","<img src=""portrait/WM1.jpg""style=""height:400px;""></img>","6","html-button-response","125","441932","0.0-14.0-22.0","49945","List1A","white","woman","","true","6","","","","","","","","","",""
"null","CORRECT","","html-keyboard-response","126","443434","0.0-14.0-23.0-0.0","49945","List1A","white","woman","","","","null","","","","","","","","",""
"960.3000000119209","<p>You got 8 out of 8 right first time. Press Continue.</p>","0","html-button-response","127","444396","0.0-14.0-25.0","49945","List1A","white","woman","","","","","","","","","","","","",""
"null","<div style=""font-size:60px;"">+</div>","","html-keyboard-response","128","445908","0.0-15.0-0.0","49945","List1A","white","woman","","","","null","","","","","","","","",""
"null","<img src=""stim_listA/greet6.gif""style=""height:400px;""></stim_listA>","","html-keyboard-response","129","447916","0.0-15.0-1.0","49945","List1A","white","woman","","","","null","","","","","","","","",""
"null","is being greeted by","","html-keyboard-response","130","449922","0.0-15.0-2.0","49945","List1A","white","woman","","","","null","","","","","","","","",""
"5235.699999988079","","","survey-text","131","455162","0.0-15.0-3.0","49945","List1A","white","woman","","","","","{""Q0"":""dave is being greeted by fred""}","<img src=""stim_listA/greet6.gif""style=""height:400px;""></stim_listA>","is being greeted by","","","","","",""
"null","<div style=""font-size:60px;"">+</div>","","html-keyboard-response","132","455666","0.0-15.0-0.1","49945","List1A","white","woman","","","","null","","","","","","","","",""
"null","<img src=""stim_listA/challenge8.gif""style=""height:400px;""></stim_listA>","","html-keyboard-response","133","457673","0.0-15.0-1.1","49945","List1A","white","woman","","","","null","","","","","","","","",""
"null","is being challenged by","","html-keyboard-response","134","459679","0.0-15.0-2.1","49945","List1A","white","woman","","","","null","","","","","","","","",""
"4293.800000011921","","","survey-text","135","463977","0.0-15.0-3.1","49945","List1A","white","woman","","","","","{""Q0"":""jane is being challenged by beth""}","<img src=""stim_listA/challenge8.gif""style=""height:400px;""></stim_listA>","is being challenged by","","","","","",""
"null","<div style=""font-size:60px;"">+</div>","","html-keyboard-response","136","464479","0.0-15.0-0.2","49945","List1A","white","woman","","","","null","","","","","","","","",""
"null","<img src=""stim_listA/touch1.gif""style=""height:400px;""></stim_listA>","","html-keyboard-response","137","466486","0.0-15.0-1.2","49945","List1A","white","woman","","","","null","","","","","","","","",""
"null","is touching","","html-keyboard-response","138","468492","0.0-15.0-2.2","49945","List1A","white","woman","","","","null","","","","","","","","",""
"2984.800000011921","","","survey-text","139","471482","0.0-15.0-3.2","49945","List1A","white","woman","","","","","{""Q0"":""mike is touching kate""}","<img src=""stim_listA/touch1.gif""style=""height:400px;""></stim_listA>","is touching","","","","","",""
"null","<div style=""font-size:60px;"">+</div>","","html-keyboard-response","140","471986","0.0-15.0-0.3","49945","List1A","white","woman","","","","null","","","","","","","","",""
"null","<img src=""stim_listA/copy3.gif""style=""height:400px;""></stim_listA>","","html-keyboard-response","141","473993","0.0-15.0-1.3","49945","List1A","white","woman","","","","null","","","","","","","","",""
"null","is copying","","html-keyboard-response","142","476000","0.0-15.0-2.3","49945","List1A","white","woman","","","","null","","","","","","","","",""
"3137.100000023842","","","survey-text","143","479141","0.0-15.0-3.3","49945","List1A","white","woman","","","","","{""Q0"":""dave is copying ruth""}","<img src=""stim_listA/copy3.gif""style=""height:400px;""></stim_listA>","is copying","","","","","",""
"null","<div style=""font-size:60px;"">+</div>","","html-keyboard-response","144","479646","0.0-15.0-0.4","49945","List1A","white","woman","","","","null","","","","","","","","",""
"null","<img src=""stim_listA/seduce4.gif""style=""height:400px;""></stim_listA>","","html-keyboard-response","145","481653","0.0-15.0-1.4","49945","List1A","white","woman","","","","null","","","","","","","","",""
"null","is being seduced by","","html-keyboard-response","146","483660","0.0-15.0-2.4","49945","List1A","white","woman","","","","null","","","","","","","","",""
"4299","","","survey-text","147","487963","0.0-15.0-3.4","49945","List1A","white","woman","","","","","{""Q0"":""ruth is being seduced by dave""}","<img src=""stim_listA/seduce4.gif""style=""height:400px;""></stim_listA>","is being seduced by","","","","","",""
"null","<div style=""font-size:60px;"">+</div>","","html-keyboard-response","148","488467","0.0-15.0-0.5","49945","List1A","white","woman","","","","null","","","","","","","","",""
"null","<img src=""stim_listA/look6.gif""style=""height:400px;""></stim_listA>","","html-keyboard-response","149","490475","0.0-15.0-1.5","49945","List1A","white","woman","","","","null","","","","","","","","",""
"null","is being looked at by","","html-keyboard-response","150","492481","0.0-15.0-2.5","49945","List1A","white","woman","","","","null","","","","","","","","",""
"5834.100000023842","","","survey-text","151","498320","0.0-15.0-3.5","49945","List1A","white","woman","","","","","{""Q0"":""dave is being looked at by mike""}","<img src=""stim_listA/look6.gif""style=""height:400px;""></stim_listA>","is being looked at by","","","","","",""
"null","<div style=""font-size:60px;"">+</div>","","html-keyboard-response","152","498824","0.0-15.0-0.6","49945","List1A","white","woman","","","","null","","","","","","","","",""
"null","<img src=""stim_listA/hug3.gif""style=""height:400px;""></stim_listA>","","html-keyboard-response","153","500830","0.0-15.0-1.6","49945","List1A","white","woman","","","","null","","","","","","","","",""
"null","is hugging","","html-keyboard-response","154","502836","0.0-15.0-2.6","49945","List1A","white","woman","","","","null","","","","","","","","",""
"3799.099999964237","","","survey-text","155","506639","0.0-15.0-3.6","49945","List1A","white","woman","","","","","{""Q0"":""ruth is hugging luke""}","<img src=""stim_listA/hug3.gif""style=""height:400px;""></stim_listA>","is hugging","","","","","",""
"null","<div style=""font-size:60px;"">+</div>","","html-keyboard-response","156","507143","0.0-15.0-0.7","49945","List1A","white","woman","","","","null","","","","","","","","",""
"null","<img src=""stim_listA/greet1.gif""style=""height:400px;""></stim_listA>","","html-keyboard-response","157","509145","0.0-15.0-1.7","49945","List1A","white","woman","","","","null","","","","","","","","",""
"null","is greeting","","html-keyboard-response","158","511151","0.0-15.0-2.7","49945","List1A","white","woman","","","","null","","","","","","","","",""
"2997.599999964237","","","survey-text","159","514153","0.0-15.0-3.7","49945","List1A","white","woman","","","","","{""Q0"":""mike is greeting beth""}","<img src=""stim_listA/greet1.gif""style=""height:400px;""></stim_listA>","is greeting","","","","","",""
"null","<div style=""font-size:60px;"">+</div>","","html-keyboard-response","160","514655","0.0-15.0-0.8","49945","List1A","white","woman","","","","null","","","","","","","","",""
"null","<img src=""stim_listA/look7.gif""style=""height:400px;""></stim_listA>","","html-keyboard-response","161","516662","0.0-15.0-1.8","49945","List1A","white","woman","","","","null","","","","","","","","",""
"null","is looking at","","html-keyboard-response","162","518668","0.0-15.0-2.8","49945","List1A","white","woman","","","","null","","","","","","","","",""
"3553.900000035763","","","survey-text","163","522226","0.0-15.0-3.8","49945","List1A","white","woman","","","","","{""Q0"":""ruth is looking at beth""}","<img src=""stim_listA/look7.gif""style=""height:400px;""></stim_listA>","is looking at","","","","","",""
"null","<div style=""font-size:60px;"">+</div>","","html-keyboard-response","164","522729","0.0-15.0-0.9","49945","List1A","white","woman","","","","null","","","","","","","","",""
"null","<img src=""stim_listA/seduce1.gif""style=""height:400px;""></stim_listA>","","html-keyboard-response","165","524735","0.0-15.0-1.9","49945","List1A","white","woman","","","","null","","","","","","","","",""
"null","is seducing","","html-keyboard-response","166","526738","0.0-15.0-2.9","49945","List1A","white","woman","","","","null","","","","","","","","",""
"3173.5","","","survey-text","167","529916","0.0-15.0-3.9","49945","List1A","white","woman","","","","","{""Q0"":""fred is seducing kate""}","<img src=""stim_listA/seduce1.gif""style=""height:400px;""></stim_listA>","is seducing","","","","","",""
"null","<div style=""font-size:60px;"">+</div>","","html-keyboard-response","168","530420","0.0-15.0-0.10","49945","List1A","white","woman","","","","null","","","","","","","","",""
"null","<img src=""stim_listA/kiss8.gif""style=""height:400px;""></stim_listA>","","html-keyboard-response","169","532427","0.0-15.0-1.10","49945","List1A","white","woman","","","","null","","","","","","","","",""
"null","is being kissed by","","html-keyboard-response","170","534433","0.0-15.0-2.10","49945","List1A","white","woman","","","","null","","","","","","","","",""
"4134","","","survey-text","171","538571","0.0-15.0-3.10","49945","List1A","white","woman","","","","","{""Q0"":""jane is being kissed by kate""}","<img src=""stim_listA/kiss8.gif""style=""height:400px;""></stim_listA>","is being kissed by","","","","","",""
"null","<div style=""font-size:60px;"">+</div>","","html-keyboard-response","172","539075","0.0-15.0-0.11","49945","List1A","white","woman","","","","null","","","","","","","","",""
"null","<img src=""stim_listA/seduce2.gif""style=""height:400px;""></stim_listA>","","html-keyboard-response","173","541078","0.0-15.0-1.11","49945","List1A","white","woman","","","","null","","","","","","","","",""
"null","is being seduced by","","html-keyboard-response","174","543084","0.0-15.0-2.11","49945","List1A","white","woman","","","","null","","","","","","","","",""
"4456.899999976158","","","survey-text","175","547545","0.0-15.0-3.11","49945","List1A","white","woman","","","","","{""Q0"":""beth is being seduced by mike""}","<img src=""stim_listA/seduce2.gif""style=""height:400px;""></stim_listA>","is being seduced by","","","","","",""
"null","<div style=""font-size:60px;"">+</div>","","html-keyboard-response","176","548047","0.0-15.0-0.12","49945","List1A","white","woman","","","","null","","","","","","","","",""
"null","<img src=""stim_listA/kiss5.gif""style=""height:400px;""></stim_listA>","","html-keyboard-response","177","550054","0.0-15.0-1.12","49945","List1A","white","woman","","","","null","","","","","","","","",""
"null","is kissing","","html-keyboard-response","178","552060","0.0-15.0-2.12","49945","List1A","white","woman","","","","null","","","","","","","","",""
"2794.300000011921","","","survey-text","179","554858","0.0-15.0-3.12","49945","List1A","white","woman","","","","","{""Q0"":""fred is kissing luke""}","<img src=""stim_listA/kiss5.gif""style=""height:400px;""></stim_listA>","is kissing","","","","","",""
"null","<div style=""font-size:60px;"">+</div>","","html-keyboard-response","180","555360","0.0-15.0-0.13","49945","List1A","white","woman","","","","null","","","","","","","","",""
"null","<img src=""stim_listA/oppose8.gif""style=""height:400px;""></stim_listA>","","html-keyboard-response","181","557362","0.0-15.0-1.13","49945","List1A","white","woman","","","","null","","","","","","","","",""
"null","is being opposed by","","html-keyboard-response","182","559365","0.0-15.0-2.13","49945","List1A","white","woman","","","","null","","","","","","","","",""
"4193","","","survey-text","183","563561","0.0-15.0-3.13","49945","List1A","white","woman","","","","","{""Q0"":""beth is being opposed by ruth""}","<img src=""stim_listA/oppose8.gif""style=""height:400px;""></stim_listA>","is being opposed by","","","","","",""
"null","<div style=""font-size:60px;"">+</div>","","html-keyboard-response","184","564064","0.0-15.0-0.14","49945","List1A","white","woman","","","","null","","","","","","","","",""
"null","<img src=""stim_listA/challenge4.gif""style=""height:400px;""></stim_listA>","","html-keyboard-response","185","566071","0.0-15.0-1.14","49945","List1A","white","woman","","","","null","","","","","","","","",""
"null","is being challenged by","","html-keyboard-response","186","568077","0.0-15.0-2.14","49945","List1A","white","woman","","","","null","","","","","","","","",""
"4216.199999988079","","","survey-text","187","572298","0.0-15.0-3.14","49945","List1A","white","woman","","","","","{""Q0"":""jane is being challenged by luke""}","<img src=""stim_listA/challenge4.gif""style=""height:400px;""></stim_listA>","is being challenged by","","","","","",""
"null","<div style=""font-size:60px;"">+</div>","","html-keyboard-response","188","572799","0.0-15.0-0.15","49945","List1A","white","woman","","","","null","","","","","","","","",""
"null","<img src=""stim_listA/touch3.gif""style=""height:400px;""></stim_listA>","","html-keyboard-response","189","574805","0.0-15.0-1.15","49945","List1A","white","woman","","","","null","","","","","","","","",""
"null","is touching","","html-keyboard-response","190","576807","0.0-15.0-2.15","49945","List1A","white","woman","","","","null","","","","","","","","",""
"2953.599999964237","","","survey-text","191","579765","0.0-15.0-3.15","49945","List1A","white","woman","","","","","{""Q0"":""dave is touching jane""}","<img src=""stim_listA/touch3.gif""style=""height:400px;""></stim_listA>","is touching","","","","","",""
"null","<div style=""font-size:60px;"">+</div>","","html-keyboard-response","192","580267","0.0-15.0-0.16","49945","List1A","white","woman","","","","null","","","","","","","","",""
"null","<img src=""stim_listA/greet5.gif""style=""height:400px;""></stim_listA>","","html-keyboard-response","193","582270","0.0-15.0-1.16","49945","List1A","white","woman","","","","null","","","","","","","","",""
"null","is greeting","","html-keyboard-response","194","584276","0.0-15.0-2.16","49945","List1A","white","woman","","","","null","","","","","","","","",""
"3130.5","","","survey-text","195","587411","0.0-15.0-3.16","49945","List1A","white","woman","","","","","{""Q0"":""mike is greeting luke""}","<img src=""stim_listA/greet5.gif""style=""height:400px;""></stim_listA>","is greeting","","","","","",""
"null","<div style=""font-size:60px;"">+</div>","","html-keyboard-response","196","587915","0.0-15.0-0.17","49945","List1A","white","woman","","","","null","","","","","","","","",""
"null","<img src=""stim_listA/kiss1.gif""style=""height:400px;""></stim_listA>","","html-keyboard-response","197","589922","0.0-15.0-1.17","49945","List1A","white","woman","","","","null","","","","","","","","",""
"null","is kissing","","html-keyboard-response","198","591927","0.0-15.0-2.17","49945","List1A","white","woman","","","","null","","","","","","","","",""
"2718.399999976158","","","survey-text","199","594650","0.0-15.0-3.17","49945","List1A","white","woman","","","","","{""Q0"":""fred is kissing beth""}","<img src=""stim_listA/kiss1.gif""style=""height:400px;""></stim_listA>","is kissing","","","","","",""
"null","<div style=""font-size:60px;"">+</div>","","html-keyboard-response","200","595154","0.0-15.0-0.18","49945","List1A","white","woman","","","","null","","","","","","","","",""
"null","<img src=""stim_listA/greet4.gif""style=""height:400px;""></stim_listA>","","html-keyboard-response","201","597157","0.0-15.0-1.18","49945","List1A","white","woman","","","","null","","","","","","","","",""
"null","is being greeted by","","html-keyboard-response","202","599158","0.0-15.0-2.18","49945","List1A","white","woman","","","","null","","","","","","","","",""
"5264.100000023842","","","survey-text","203","604426","0.0-15.0-3.18","49945","List1A","white","woman","","","","","{""Q0"":""jane is being greeted by luke""}","<img src=""stim_listA/greet4.gif""style=""height:400px;""></stim_listA>","is being greeted by","","","","","",""
"null","<div style=""font-size:60px;"">+</div>","","html-keyboard-response","204","604928","0.0-15.0-0.19","49945","List1A","white","woman","","","","null","","","","","","","","",""
"null","<img src=""stim_listA/touch2.gif""style=""height:400px;""></stim_listA>","","html-keyboard-response","205","606934","0.0-15.0-1.19","49945","List1A","white","woman","","","","null","","","","","","","","",""
"null","is being touched by","","html-keyboard-response","206","608940","0.0-15.0-2.19","49945","List1A","white","woman","","","","null","","","","","","","","",""
"4275.600000023842","","","survey-text","207","613220","0.0-15.0-3.19","49945","List1A","white","woman","","","","","{""Q0"":""beth is being touched by fred""}","<img src=""stim_listA/touch2.gif""style=""height:400px;""></stim_listA>","is being touched by","","","","","",""
"7523.699999988079","<img src='img/portrait_matrix_list1.jpg' style='width:900px;height:500px;''></img><p>If you have memorised all the portraits and names and are ready to start, press Continue.</p><p><strong>Please note: Your memory of these faces will be tested 4 times during this experiment.</strong></p>","0","html-button-response","208","620746","0.0-16.0-0.0","49945","List1A","white","woman","","","","","","","","","","","","",""
"2263.300000011921","<img src=""portrait/BM1.jpg""style=""height:400px;""></img>","4","html-button-response","209","624017","0.0-16.0-1.0","49945","List1A","white","woman","","true","4","","","","","","","","","",""
"null","CORRECT","","html-keyboard-response","210","625527","0.0-16.0-2.0-0.0","49945","List1A","white","woman","","","","null","","","","","","","","",""
"2965.099999964237","<img src=""portrait/BW2.jpg""style=""height:400px;""></img>","2","html-button-response","211","628495","0.0-16.0-4.0","49945","List1A","white","woman","","true","2","","","","","","","","","",""
"null","CORRECT","","html-keyboard-response","212","630005","0.0-16.0-5.0-0.0","49945","List1A","white","woman","","","","null","","","","","","","","",""
"2486.800000011921","<img src=""portrait/BM2.jpg""style=""height:400px;""></img>","5","html-button-response","213","632494","0.0-16.0-7.0","49945","List1A","white","woman","","true","5","","","","","","","","","",""
"null","CORRECT","","html-keyboard-response","214","634003","0.0-16.0-8.0-0.0","49945","List1A","white","woman","","","","null","","","","","","","","",""
"1764.5999999642372","<img src=""portrait/WM2.jpg""style=""height:400px;""></img>","7","html-button-response","215","635769","0.0-16.0-10.0","49945","List1A","white","woman","","true","7","","","","","","","","","",""
"null","CORRECT","","html-keyboard-response","216","637279","0.0-16.0-11.0-0.0","49945","List1A","white","woman","","","","null","","","","","","","","",""
"1334.199999988079","<img src=""portrait/WW2.jpg""style=""height:400px;""></img>","3","html-button-response","217","638616","0.0-16.0-13.0","49945","List1A","white","woman","","true","3","","","","","","","","","",""
"null","CORRECT","","html-keyboard-response","218","640124","0.0-16.0-14.0-0.0","49945","List1A","white","woman","","","","null","","","","","","","","",""
"1250.300000011921","<img src=""portrait/WW1.jpg""style=""height:400px;""></img>","1","html-button-response","219","641377","0.0-16.0-16.0","49945","List1A","white","woman","","true","1","","","","","","","","","",""
"null","CORRECT","","html-keyboard-response","220","642889","0.0-16.0-17.0-0.0","49945","List1A","white","woman","","","","null","","","","","","","","",""
"1627.0999999642372","<img src=""portrait/WM1.jpg""style=""height:400px;""></img>","6","html-button-response","221","644518","0.0-16.0-19.0","49945","List1A","white","woman","","true","6","","","","","","","","","",""
"null","CORRECT","","html-keyboard-response","222","646031","0.0-16.0-20.0-0.0","49945","List1A","white","woman","","","","null","","","","","","","","",""
"2809.199999988079","<img src=""portrait/BW1.jpg""style=""height:400px;""></img>","0","html-button-response","223","648842","0.0-16.0-22.0","49945","List1A","white","woman","","true","0","","","","","","","","","",""
"null","CORRECT","","html-keyboard-response","224","650351","0.0-16.0-23.0-0.0","49945","List1A","white","woman","","","","null","","","","","","","","",""
"926.0999999642372","<p>You got 8 out of 8 right first time. Press Continue.</p>","0","html-button-response","225","651280","0.0-16.0-25.0","49945","List1A","white","woman","","","","","","","","","","","","",""
"null","<div style=""font-size:60px;"">+</div>","","html-keyboard-response","226","652786","0.0-17.0-0.0","49945","List1A","white","woman","","","","null","","","","","","","","",""
"null","<img src=""stim_listA/oppose1.gif""style=""height:400px;""></stim_listA>","","html-keyboard-response","227","654790","0.0-17.0-1.0","49945","List1A","white","woman","","","","null","","","","","","","","",""
"null","is opposing","","html-keyboard-response","228","656794","0.0-17.0-2.0","49945","List1A","white","woman","","","","null","","","","","","","","",""
"3414.899999976158","","","survey-text","229","660213","0.0-17.0-3.0","49945","List1A","white","woman","","","","","{""Q0"":""kate is opposing mike""}","<img src=""stim_listA/oppose1.gif""style=""height:400px;""></stim_listA>","is opposing","","","","","",""
"null","<div style=""font-size:60px;"">+</div>","","html-keyboard-response","230","660718","0.0-17.0-0.1","49945","List1A","white","woman","","","","null","","","","","","","","",""
"null","<img src=""stim_listA/shout8.gif""style=""height:400px;""></stim_listA>","","html-keyboard-response","231","662719","0.0-17.0-1.1","49945","List1A","white","woman","","","","null","","","","","","","","",""
"null","is being shouted at by","","html-keyboard-response","232","664725","0.0-17.0-2.1","49945","List1A","white","woman","","","","null","","","","","","","","",""
"4671.5","","","survey-text","233","669401","0.0-17.0-3.1","49945","List1A","white","woman","","","","","{""Q0"":""jane is being shouted at by kate""}","<img src=""stim_listA/shout8.gif""style=""height:400px;""></stim_listA>","is being shouted at by","","","","","",""
"null","<div style=""font-size:60px;"">+</div>","","html-keyboard-response","234","669905","0.0-17.0-0.2","49945","List1A","white","woman","","","","null","","","","","","","","",""
"null","<img src=""stim_listA/copy1.gif""style=""height:400px;""></stim_listA>","","html-keyboard-response","235","671910","0.0-17.0-1.2","49945","List1A","white","woman","","","","null","","","","","","","","",""
"null","is copying","","html-keyboard-response","236","673911","0.0-17.0-2.2","49945","List1A","white","woman","","","","null","","","","","","","","",""
"2980.5","","","survey-text","237","676895","0.0-17.0-3.2","49945","List1A","white","woman","","","","","{""Q0"":""mike is copying beth""}","<img src=""stim_listA/copy1.gif""style=""height:400px;""></stim_listA>","is copying","","","","","",""
"null","<div style=""font-size:60px;"">+</div>","","html-keyboard-response","238","677399","0.0-17.0-0.3","49945","List1A","white","woman","","","","null","","","","","","","","",""
"null","<img src=""stim_listA/shout7.gif""style=""height:400px;""></stim_listA>","","html-keyboard-response","239","679406","0.0-17.0-1.3","49945","List1A","white","woman","","","","null","","","","","","","","",""
"null","is shouting at","","html-keyboard-response","240","681411","0.0-17.0-2.3","49945","List1A","white","woman","","","","null","","","","","","","","",""
"3711.900000035763","","","survey-text","241","685127","0.0-17.0-3.3","49945","List1A","white","woman","","","","","{""Q0"":""beth is shouting at ruth""}","<img src=""stim_listA/shout7.gif""style=""height:400px;""></stim_listA>","is shouting at","","","","","",""
"null","<div style=""font-size:60px;"">+</div>","","html-keyboard-response","242","685630","0.0-17.0-0.4","49945","List1A","white","woman","","","","null","","","","","","","","",""
"null","<img src=""stim_listA/shout4.gif""style=""height:400px;""></stim_listA>","","html-keyboard-response","243","687637","0.0-17.0-1.4","49945","List1A","white","woman","","","","null","","","","","","","","",""
"null","is being shouted at by","","html-keyboard-response","244","689643","0.0-17.0-2.4","49945","List1A","white","woman","","","","null","","","","","","","","",""
"4306.600000023842","","","survey-text","245","693954","0.0-17.0-3.4","49945","List1A","white","woman","","","","","{""Q0"":""jane is being shouted at by dave""}","<img src=""stim_listA/shout4.gif""style=""height:400px;""></stim_listA>","is being shouted at by","","","","","",""
"null","<div style=""font-size:60px;"">+</div>","","html-keyboard-response","246","694455","0.0-17.0-0.5","49945","List1A","white","woman","","","","null","","","","","","","","",""
"null","<img src=""stim_listA/touch6.gif""style=""height:400px;""></stim_listA>","","html-keyboard-response","247","696461","0.0-17.0-1.5","49945","List1A","white","woman","","","","null","","","","","","","","",""
"null","is being touched by","","html-keyboard-response","248","698466","0.0-17.0-2.5","49945","List1A","white","woman","","","","null","","","","","","","","",""
"3764.699999988079","","","survey-text","249","702235","0.0-17.0-3.5","49945","List1A","white","woman","","","","","{""Q0"":""luke is being touched by fred""}","<img src=""stim_listA/touch6.gif""style=""height:400px;""></stim_listA>","is being touched by","","","","","",""
"null","<div style=""font-size:60px;"">+</div>","","html-keyboard-response","250","702736","0.0-17.0-0.6","49945","List1A","white","woman","","","","null","","","","","","","","",""
"null","<img src=""stim_listA/oppose2.gif""style=""height:400px;""></stim_listA>","","html-keyboard-response","251","704743","0.0-17.0-1.6","49945","List1A","white","woman","","","","null","","","","","","","","",""
"null","is being opposed by","","html-keyboard-response","252","706750","0.0-17.0-2.6","49945","List1A","white","woman","","","","null","","","","","","","","",""
"4188.800000011921","","","survey-text","253","710942","0.0-17.0-3.6","49945","List1A","white","woman","","","","","{""Q0"":""beth is being opposed by fred""}","<img src=""stim_listA/oppose2.gif""style=""height:400px;""></stim_listA>","is being opposed by","","","","","",""
"null","<div style=""font-size:60px;"">+</div>","","html-keyboard-response","254","711447","0.0-17.0-0.7","49945","List1A","white","woman","","","","null","","","","","","","","",""
"null","<img src=""stim_listA/look1.gif""style=""height:400px;""></stim_listA>","","html-keyboard-response","255","713454","0.0-17.0-1.7","49945","List1A","white","woman","","","","null","","","","","","","","",""
"null","is looking at","","html-keyboard-response","256","715460","0.0-17.0-2.7","49945","List1A","white","woman","","","","null","","","","","","","","",""
"3461.899999976158","","","survey-text","257","718925","0.0-17.0-3.7","49945","List1A","white","woman","","","","","{""Q0"":""fred is looking at beth""}","<img src=""stim_listA/look1.gif""style=""height:400px;""></stim_listA>","is looking at","","","","","",""
"null","<div style=""font-size:60px;"">+</div>","","html-keyboard-response","258","719426","0.0-17.0-0.8","49945","List1A","white","woman","","","","null","","","","","","","","",""
"null","<img src=""stim_listA/kiss4.gif""style=""height:400px;""></stim_listA>","","html-keyboard-response","259","721429","0.0-17.0-1.8","49945","List1A","white","woman","","","","null","","","","","","","","",""
"null","is being kissed by","","html-keyboard-response","260","723435","0.0-17.0-2.8","49945","List1A","white","woman","","","","null","","","","","","","","",""
"4186.5","","","survey-text","261","727626","0.0-17.0-3.8","49945","List1A","white","woman","","","","","{""Q0"":""jane is being kissed by dave""}","<img src=""stim_listA/kiss4.gif""style=""height:400px;""></stim_listA>","is being kissed by","","","","","",""
"null","<div style=""font-size:60px;"">+</div>","","html-keyboard-response","262","728127","0.0-17.0-0.9","49945","List1A","white","woman","","","","null","","","","","","","","",""
"null","<img src=""stim_listA/look2.gif""style=""height:400px;""></stim_listA>","","html-keyboard-response","263","730134","0.0-17.0-1.9","49945","List1A","white","woman","","","","null","","","","","","","","",""
"null","is being looked at by","","html-keyboard-response","264","732141","0.0-17.0-2.9","49945","List1A","white","woman","","","","null","","","","","","","","",""
"4192.5","","","survey-text","265","736337","0.0-17.0-3.9","49945","List1A","white","woman","","","","","{""Q0"":""kate is being looked at by mike""}","<img src=""stim_listA/look2.gif""style=""height:400px;""></stim_listA>","is being looked at by","","","","","",""
"null","<div style=""font-size:60px;"">+</div>","","html-keyboard-response","266","736841","0.0-17.0-0.10","49945","List1A","white","woman","","","","null","","","","","","","","",""
"null","<img src=""stim_listA/touch5.gif""style=""height:400px;""></stim_listA>","","html-keyboard-response","267","738844","0.0-17.0-1.10","49945","List1A","white","woman","","","","null","","","","","","","","",""
"null","is touching","","html-keyboard-response","268","740851","0.0-17.0-2.10","49945","List1A","white","woman","","","","null","","","","","","","","",""
"3087.399999976158","","","survey-text","269","743942","0.0-17.0-3.10","49945","List1A","white","woman","","","","","{""Q0"":""mike is touching dave""}","<img src=""stim_listA/touch5.gif""style=""height:400px;""></stim_listA>","is touching","","","","","",""
"null","<div style=""font-size:60px;"">+</div>","","html-keyboard-response","270","744446","0.0-17.0-0.11","49945","List1A","white","woman","","","","null","","","","","","","","",""
"null","<img src=""stim_listA/challenge3.gif""style=""height:400px;""></stim_listA>","","html-keyboard-response","271","746453","0.0-17.0-1.11","49945","List1A","white","woman","","","","null","","","","","","","","",""
"null","is challenging","","html-keyboard-response","272","748459","0.0-17.0-2.11","49945","List1A","white","woman","","","","null","","","","","","","","",""
"4464.900000035763","","","survey-text","273","752928","0.0-17.0-3.11","49945","List1A","white","woman","","","","","{""Q0"":""dave is challenging ruth""}","<img src=""stim_listA/challenge3.gif""style=""height:400px;""></stim_listA>","is challenging","","","","","",""
"null","<div style=""font-size:60px;"">+</div>","","html-keyboard-response","274","753432","0.0-17.0-0.12","49945","List1A","white","woman","","","","null","","","","","","","","",""
"null","<img src=""stim_listA/oppose3.gif""style=""height:400px;""></stim_listA>","","html-keyboard-response","275","755439","0.0-17.0-1.12","49945","List1A","white","woman","","","","null","","","","","","","","",""
"null","is opposing","","html-keyboard-response","276","757444","0.0-17.0-2.12","49945","List1A","white","woman","","","","null","","","","","","","","",""
"3410.600000023842","","","survey-text","277","760859","0.0-17.0-3.12","49945","List1A","white","woman","","","","","{""Q0"":""dave is opposing jane""}","<img src=""stim_listA/oppose3.gif""style=""height:400px;""></stim_listA>","is opposing","","","","","",""
"null","<div style=""font-size:60px;"">+</div>","","html-keyboard-response","278","761361","0.0-17.0-0.13","49945","List1A","white","woman","","","","null","","","","","","","","",""
"null","<img src=""stim_listA/hug2.gif""style=""height:400px;""></stim_listA>","","html-keyboard-response","279","763365","0.0-17.0-1.13","49945","List1A","white","woman","","","","null","","","","","","","","",""
"null","is being hugged by","","html-keyboard-response","280","765369","0.0-17.0-2.13","49945","List1A","white","woman","","","","null","","","","","","","","",""
"6070.099999964237","","","survey-text","281","771443","0.0-17.0-3.13","49945","List1A","white","woman","","","","","{""Q0"":""kate is being hugged by mike""}","<img src=""stim_listA/hug2.gif""style=""height:400px;""></stim_listA>","is being hugged by","","","","","",""
"null","<div style=""font-size:60px;"">+</div>","","html-keyboard-response","282","771947","0.0-17.0-0.14","49945","List1A","white","woman","","","","null","","","","","","","","",""
"null","<img src=""stim_listA/look3.gif""style=""height:400px;""></stim_listA>","","html-keyboard-response","283","773951","0.0-17.0-1.14","49945","List1A","white","woman","","","","null","","","","","","","","",""
"null","is looking at","","html-keyboard-response","284","775955","0.0-17.0-2.14","49945","List1A","white","woman","","","","null","","","","","","","","",""
"3522.7000000476837","","","survey-text","285","779481","0.0-17.0-3.14","49945","List1A","white","woman","","","","","{""Q0"":""luke is looking at ruth""}","<img src=""stim_listA/look3.gif""style=""height:400px;""></stim_listA>","is looking at","","","","","",""
"null","<div style=""font-size:60px;"">+</div>","","html-keyboard-response","286","779984","0.0-17.0-0.15","49945","List1A","white","woman","","","","null","","","","","","","","",""
"null","<img src=""stim_listA/kiss6.gif""style=""height:400px;""></stim_listA>","","html-keyboard-response","287","781989","0.0-17.0-1.15","49945","List1A","white","woman","","","","null","","","","","","","","",""
"null","is being kissed by","","html-keyboard-response","288","783994","0.0-17.0-2.15","49945","List1A","white","woman","","","","null","","","","","","","","",""
"3979.600000023842","","","survey-text","289","787978","0.0-17.0-3.15","49945","List1A","white","woman","","","","","{""Q0"":""dave is being kissed by mike""}","<img src=""stim_listA/kiss6.gif""style=""height:400px;""></stim_listA>","is being kissed by","","","","","",""
"null","<div style=""font-size:60px;"">+</div>","","html-keyboard-response","290","788482","0.0-17.0-0.16","49945","List1A","white","woman","","","","null","","","","","","","","",""
"null","<img src=""stim_listA/seduce5.gif""style=""height:400px;""></stim_listA>","","html-keyboard-response","291","790489","0.0-17.0-1.16","49945","List1A","white","woman","","","","null","","","","","","","","",""
"null","is seducing","","html-keyboard-response","292","792496","0.0-17.0-2.16","49945","List1A","white","woman","","","","null","","","","","","","","",""
"3885.699999988079","","","survey-text","293","796386","0.0-17.0-3.16","49945","List1A","white","woman","","","","","{""Q0"":""fred is seducing dave""}","<img src=""stim_listA/seduce5.gif""style=""height:400px;""></stim_listA>","is seducing","","","","","",""
"null","<div style=""font-size:60px;"">+</div>","","html-keyboard-response","294","796887","0.0-17.0-0.17","49945","List1A","white","woman","","","","null","","","","","","","","",""
"null","<img src=""stim_listA/shout2.gif""style=""height:400px;""></stim_listA>","","html-keyboard-response","295","798892","0.0-17.0-1.17","49945","List1A","white","woman","","","","null","","","","","","","","",""
"null","is being shouted at by","","html-keyboard-response","296","800896","0.0-17.0-2.17","49945","List1A","white","woman","","","","null","","","","","","","","",""
"12334.399999976158","","","survey-text","297","813235","0.0-17.0-3.17","49945","List1A","white","woman","","","","","{""Q0"":""kate is being shouted at by mike""}","<img src=""stim_listA/shout2.gif""style=""height:400px;""></stim_listA>","is being shouted at by","","","","","",""
"null","<div style=""font-size:60px;"">+</div>","","html-keyboard-response","298","813737","0.0-17.0-0.18","49945","List1A","white","woman","","","","null","","","","","","","","",""
"null","<img src=""stim_listA/kiss7.gif""style=""height:400px;""></stim_listA>","","html-keyboard-response","299","815743","0.0-17.0-1.18","49945","List1A","white","woman","","","","null","","","","","","","","",""
"null","is kissing","","html-keyboard-response","300","817748","0.0-17.0-2.18","49945","List1A","white","woman","","","","null","","","","","","","","",""
"5441.599999964237","","","survey-text","301","823194","0.0-17.0-3.18","49945","List1A","white","woman","","","","","{""Q0"":""jane is kissing beth""}","<img src=""stim_listA/kiss7.gif""style=""height:400px;""></stim_listA>","is kissing","","","","","",""
"null","<div style=""font-size:60px;"">+</div>","","html-keyboard-response","302","823699","0.0-17.0-0.19","49945","List1A","white","woman","","","","null","","","","","","","","",""
"null","<img src=""stim_listA/copy6.gif""style=""height:400px;""></stim_listA>","","html-keyboard-response","303","825706","0.0-17.0-1.19","49945","List1A","white","woman","","","","null","","","","","","","","",""
"null","is being copied by","","html-keyboard-response","304","827709","0.0-17.0-2.19","49945","List1A","white","woman","","","","null","","","","","","","","",""
"3886.899999976158","","","survey-text","305","831600","0.0-17.0-3.19","49945","List1A","white","woman","","","","","{""Q0"":""dave is being copied by fred""}","<img src=""stim_listA/copy6.gif""style=""height:400px;""></stim_listA>","is being copied by","","","","","",""
"1889.5","<img src='img/portrait_matrix_list1.jpg' style='width:900px;height:500px;''></img><p>If you have memorised all the portraits and names and are ready to start, press Continue.</p><p><strong>Please note: Your memory of these faces will be tested 4 times during this experiment.</strong></p>","0","html-button-response","306","833492","0.0-18.0-0.0","49945","List1A","white","woman","","","","","","","","","","","","",""
"1939.2999999523163","<img src=""portrait/BW1.jpg""style=""height:400px;""></img>","0","html-button-response","307","836439","0.0-18.0-1.0","49945","List1A","white","woman","","true","0","","","","","","","","","",""
"null","CORRECT","","html-keyboard-response","308","837951","0.0-18.0-2.0-0.0","49945","List1A","white","woman","","","","null","","","","","","","","",""
"1836.199999988079","<img src=""portrait/WM2.jpg""style=""height:400px;""></img>","7","html-button-response","309","839790","0.0-18.0-4.0","49945","List1A","white","woman","","true","7","","","","","","","","","",""
"null","CORRECT","","html-keyboard-response","310","841296","0.0-18.0-5.0-0.0","49945","List1A","white","woman","","","","null","","","","","","","","",""
"1407.800000011921","<img src=""portrait/WW2.jpg""style=""height:400px;""></img>","3","html-button-response","311","842706","0.0-18.0-7.0","49945","List1A","white","woman","","true","3","","","","","","","","","",""
"null","CORRECT","","html-keyboard-response","312","844211","0.0-18.0-8.0-0.0","49945","List1A","white","woman","","","","null","","","","","","","","",""
"1602.4000000357628","<img src=""portrait/WW1.jpg""style=""height:400px;""></img>","1","html-button-response","313","845816","0.0-18.0-10.0","49945","List1A","white","woman","","true","1","","","","","","","","","",""
"null","CORRECT","","html-keyboard-response","314","847326","0.0-18.0-11.0-0.0","49945","List1A","white","woman","","","","null","","","","","","","","",""
"1748.699999988079","<img src=""portrait/BW2.jpg""style=""height:400px;""></img>","2","html-button-response","315","849079","0.0-18.0-13.0","49945","List1A","white","woman","","true","2","","","","","","","","","",""
"null","CORRECT","","html-keyboard-response","316","850586","0.0-18.0-14.0-0.0","49945","List1A","white","woman","","","","null","","","","","","","","",""
"5921.199999988079","<img src=""portrait/BM2.jpg""style=""height:400px;""></img>","5","html-button-response","317","856510","0.0-18.0-16.0","49945","List1A","white","woman","","true","5","","","","","","","","","",""
"null","CORRECT","","html-keyboard-response","318","858016","0.0-18.0-17.0-0.0","49945","List1A","white","woman","","","","null","","","","","","","","",""
"2522.900000035763","<img src=""portrait/WM1.jpg""style=""height:400px;""></img>","6","html-button-response","319","860541","0.0-18.0-19.0","49945","List1A","white","woman","","true","6","","","","","","","","","",""
"null","CORRECT","","html-keyboard-response","320","862049","0.0-18.0-20.0-0.0","49945","List1A","white","woman","","","","null","","","","","","","","",""
"1922","<img src=""portrait/BM1.jpg""style=""height:400px;""></img>","4","html-button-response","321","863973","0.0-18.0-22.0","49945","List1A","white","woman","","true","4","","","","","","","","","",""
"null","CORRECT","","html-keyboard-response","322","865481","0.0-18.0-23.0-0.0","49945","List1A","white","woman","","","","null","","","","","","","","",""
"1033.1000000238419","<p>You got 8 out of 8 right first time. Press Continue.</p>","0","html-button-response","323","866516","0.0-18.0-25.0","49945","List1A","white","woman","","","","","","","","","","","","",""
"null","<div style=""font-size:60px;"">+</div>","","html-keyboard-response","324","868022","0.0-19.0-0.0","49945","List1A","white","woman","","","","null","","","","","","","","",""
"null","<img src=""stim_listA/shout6.gif""style=""height:400px;""></stim_listA>","","html-keyboard-response","325","870029","0.0-19.0-1.0","49945","List1A","white","woman","","","","null","","","","","","","","",""
"null","is being shouted at by","","html-keyboard-response","326","872033","0.0-19.0-2.0","49945","List1A","white","woman","","","","null","","","","","","","","",""
"4565.600000023842","","","survey-text","327","876603","0.0-19.0-3.0","49945","List1A","white","woman","","","","","{""Q0"":""dave is being shouted at by mike""}","<img src=""stim_listA/shout6.gif""style=""height:400px;""></stim_listA>","is being shouted at by","","","","","",""
"null","<div style=""font-size:60px;"">+</div>","","html-keyboard-response","328","877107","0.0-19.0-0.1","49945","List1A","white","woman","","","","null","","","","","","","","",""
"null","<img src=""stim_listA/oppose4.gif""style=""height:400px;""></stim_listA>","","html-keyboard-response","329","879115","0.0-19.0-1.1","49945","List1A","white","woman","","","","null","","","","","","","","",""
"null","is being opposed by","","html-keyboard-response","330","881121","0.0-19.0-2.1","49945","List1A","white","woman","","","","null","","","","","","","","",""
"5813.800000011921","","","survey-text","331","886939","0.0-19.0-3.1","49945","List1A","white","woman","","","","","{""Q0"":""luke is being opposed by ruth""}","<img src=""stim_listA/oppose4.gif""style=""height:400px;""></stim_listA>","is being opposed by","","","","","",""
"null","<div style=""font-size:60px;"">+</div>","","html-keyboard-response","332","887443","0.0-19.0-0.2","49945","List1A","white","woman","","","","null","","","","","","","","",""
"null","<img src=""stim_listA/greet2.gif""style=""height:400px;""></stim_listA>","","html-keyboard-response","333","889449","0.0-19.0-1.2","49945","List1A","white","woman","","","","null","","","","","","","","",""
"null","is being greeted by","","html-keyboard-response","334","891455","0.0-19.0-2.2","49945","List1A","white","woman","","","","null","","","","","","","","",""
"4223.099999964237","","","survey-text","335","895682","0.0-19.0-3.2","49945","List1A","white","woman","","","","","{""Q0"":""kate is being greeted by fred""}","<img src=""stim_listA/greet2.gif""style=""height:400px;""></stim_listA>","is being greeted by","","","","","",""
"null","<div style=""font-size:60px;"">+</div>","","html-keyboard-response","336","896186","0.0-19.0-0.3","49945","List1A","white","woman","","","","null","","","","","","","","",""
"null","<img src=""stim_listA/hug5.gif""style=""height:400px;""></stim_listA>","","html-keyboard-response","337","898193","0.0-19.0-1.3","49945","List1A","white","woman","","","","null","","","","","","","","",""
"null","is hugging","","html-keyboard-response","338","900199","0.0-19.0-2.3","49945","List1A","white","woman","","","","null","","","","","","","","",""
"3299.300000011921","","","survey-text","339","903503","0.0-19.0-3.3","49945","List1A","white","woman","","","","","{""Q0"":""fred is hugging luke""}","<img src=""stim_listA/hug5.gif""style=""height:400px;""></stim_listA>","is hugging","","","","","",""
"null","<div style=""font-size:60px;"">+</div>","","html-keyboard-response","340","904007","0.0-19.0-0.4","49945","List1A","white","woman","","","","null","","","","","","","","",""
"null","<img src=""stim_listA/challenge1.gif""style=""height:400px;""></stim_listA>","","html-keyboard-response","341","906013","0.0-19.0-1.4","49945","List1A","white","woman","","","","null","","","","","","","","",""
"null","is challenging","","html-keyboard-response","342","908017","0.0-19.0-2.4","49945","List1A","white","woman","","","","null","","","","","","","","",""
"3168.399999976158","","","survey-text","343","911190","0.0-19.0-3.4","49945","List1A","white","woman","","","","","{""Q0"":""mike is challenging beth""}","<img src=""stim_listA/challenge1.gif""style=""height:400px;""></stim_listA>","is challenging","","","","","",""
"null","<div style=""font-size:60px;"">+</div>","","html-keyboard-response","344","911694","0.0-19.0-0.5","49945","List1A","white","woman","","","","null","","","","","","","","",""
"null","<img src=""stim_listA/copy5.gif""style=""height:400px;""></stim_listA>","","html-keyboard-response","345","913697","0.0-19.0-1.5","49945","List1A","white","woman","","","","null","","","","","","","","",""
"null","is copying","","html-keyboard-response","346","915703","0.0-19.0-2.5","49945","List1A","white","woman","","","","null","","","","","","","","",""
"2746.5","","","survey-text","347","918454","0.0-19.0-3.5","49945","List1A","white","woman","","","","","{""Q0"":""mike is copying luke""}","<img src=""stim_listA/copy5.gif""style=""height:400px;""></stim_listA>","is copying","","","","","",""
"null","<div style=""font-size:60px;"">+</div>","","html-keyboard-response","348","918956","0.0-19.0-0.6","49945","List1A","white","woman","","","","null","","","","","","","","",""
"null","<img src=""stim_listA/kiss2.gif""style=""height:400px;""></stim_listA>","","html-keyboard-response","349","920959","0.0-19.0-1.6","49945","List1A","white","woman","","","","null","","","","","","","","",""
"null","is being kissed by","","html-keyboard-response","350","922961","0.0-19.0-2.6","49945","List1A","white","woman","","","","null","","","","","","","","",""
"6731.100000023842","","","survey-text","351","929695","0.0-19.0-3.6","49945","List1A","white","woman","","","","","{""Q0"":""kate is being kissed by mike""}","<img src=""stim_listA/kiss2.gif""style=""height:400px;""></stim_listA>","is being kissed by","","","","","",""
"null","<div style=""font-size:60px;"">+</div>","","html-keyboard-response","352","930199","0.0-19.0-0.7","49945","List1A","white","woman","","","","null","","","","","","","","",""
"null","<img src=""stim_listA/touch4.gif""style=""height:400px;""></stim_listA>","","html-keyboard-response","353","932207","0.0-19.0-1.7","49945","List1A","white","woman","","","","null","","","","","","","","",""
"null","is being touched by","","html-keyboard-response","354","934213","0.0-19.0-2.7","49945","List1A","white","woman","","","","null","","","","","","","","",""
"3746.899999976158","","","survey-text","355","937964","0.0-19.0-3.7","49945","List1A","white","woman","","","","","{""Q0"":""luke is being touched by ruth""}","<img src=""stim_listA/touch4.gif""style=""height:400px;""></stim_listA>","is being touched by","","","","","",""
"null","<div style=""font-size:60px;"">+</div>","","html-keyboard-response","356","938468","0.0-19.0-0.8","49945","List1A","white","woman","","","","null","","","","","","","","",""
"null","<img src=""stim_listA/shout5.gif""style=""height:400px;""></stim_listA>","","html-keyboard-response","357","940471","0.0-19.0-1.8","49945","List1A","white","woman","","","","null","","","","","","","","",""
"null","is shouting at","","html-keyboard-response","358","942477","0.0-19.0-2.8","49945","List1A","white","woman","","","","null","","","","","","","","",""
"4109.299999952316","","","survey-text","359","946590","0.0-19.0-3.8","49945","List1A","white","woman","","","","","{""Q0"":""fred is shouting at luke""}","<img src=""stim_listA/shout5.gif""style=""height:400px;""></stim_listA>","is shouting at","","","","","",""
"null","<div style=""font-size:60px;"">+</div>","","html-keyboard-response","360","947092","0.0-19.0-0.9","49945","List1A","white","woman","","","","null","","","","","","","","",""
"null","<img src=""stim_listA/look4.gif""style=""height:400px;""></stim_listA>","","html-keyboard-response","361","949095","0.0-19.0-1.9","49945","List1A","white","woman","","","","null","","","","","","","","",""
"null","is being looked at by","","html-keyboard-response","362","951096","0.0-19.0-2.9","49945","List1A","white","woman","","","","null","","","","","","","","",""
"4250.699999988079","","","survey-text","363","955351","0.0-19.0-3.9","49945","List1A","white","woman","","","","","{""Q0"":""jane is being looked at by dave""}","<img src=""stim_listA/look4.gif""style=""height:400px;""></stim_listA>","is being looked at by","","","","","",""
"null","<div style=""font-size:60px;"">+</div>","","html-keyboard-response","364","955855","0.0-19.0-0.10","49945","List1A","white","woman","","","","null","","","","","","","","",""
"null","<img src=""stim_listA/challenge5.gif""style=""height:400px;""></stim_listA>","","html-keyboard-response","365","957863","0.0-19.0-1.10","49945","List1A","white","woman","","","","null","","","","","","","","",""
"null","is challenging","","html-keyboard-response","366","959869","0.0-19.0-2.10","49945","List1A","white","woman","","","","null","","","","","","","","",""
"3216.699999988079","","","survey-text","367","963090","0.0-19.0-3.10","49945","List1A","white","woman","","","","","{""Q0"":""mike is challenging luke""}","<img src=""stim_listA/challenge5.gif""style=""height:400px;""></stim_listA>","is challenging","","","","","",""
"null","<div style=""font-size:60px;"">+</div>","","html-keyboard-response","368","963592","0.0-19.0-0.11","49945","List1A","white","woman","","","","null","","","","","","","","",""
"null","<img src=""stim_listA/challenge2.gif""style=""height:400px;""></stim_listA>","","html-keyboard-response","369","965598","0.0-19.0-1.11","49945","List1A","white","woman","","","","null","","","","","","","","",""
"null","is being challenged by","","html-keyboard-response","370","967605","0.0-19.0-2.11","49945","List1A","white","woman","","","","null","","","","","","","","",""
"4599.600000023842","","","survey-text","371","972208","0.0-19.0-3.11","49945","List1A","white","woman","","","","","{""Q0"":""kate is being challenged by fred""}","<img src=""stim_listA/challenge2.gif""style=""height:400px;""></stim_listA>","is being challenged by","","","","","",""
"null","<div style=""font-size:60px;"">+</div>","","html-keyboard-response","372","972713","0.0-19.0-0.12","49945","List1A","white","woman","","","","null","","","","","","","","",""
"null","<img src=""stim_listA/greet3.gif""style=""height:400px;""></stim_listA>","","html-keyboard-response","373","974720","0.0-19.0-1.12","49945","List1A","white","woman","","","","null","","","","","","","","",""
"null","is greeting","","html-keyboard-response","374","976722","0.0-19.0-2.12","49945","List1A","white","woman","","","","null","","","","","","","","",""
"3297.5","","","survey-text","375","980023","0.0-19.0-3.12","49945","List1A","white","woman","","","","","{""Q0"":""dave is greeting ruth""}","<img src=""stim_listA/greet3.gif""style=""height:400px;""></stim_listA>","is greeting","","","","","",""
"null","<div style=""font-size:60px;"">+</div>","","html-keyboard-response","376","980525","0.0-19.0-0.13","49945","List1A","white","woman","","","","null","","","","","","","","",""
"null","<img src=""stim_listA/challenge7.gif""style=""height:400px;""></stim_listA>","","html-keyboard-response","377","982532","0.0-19.0-1.13","49945","List1A","white","woman","","","","null","","","","","","","","",""
"null","is challenging","","html-keyboard-response","378","984538","0.0-19.0-2.13","49945","List1A","white","woman","","","","null","","","","","","","","",""
"2895.5","","","survey-text","379","987438","0.0-19.0-3.13","49945","List1A","white","woman","","","","","{""Q0"":""kate is challenging ruth""}","<img src=""stim_listA/challenge7.gif""style=""height:400px;""></stim_listA>","is challenging","","","","","",""
"null","<div style=""font-size:60px;"">+</div>","","html-keyboard-response","380","987940","0.0-19.0-0.14","49945","List1A","white","woman","","","","null","","","","","","","","",""
"null","<img src=""stim_listA/seduce8.gif""style=""height:400px;""></stim_listA>","","html-keyboard-response","381","989947","0.0-19.0-1.14","49945","List1A","white","woman","","","","null","","","","","","","","",""
"null","is being seduced by","","html-keyboard-response","382","991951","0.0-19.0-2.14","49945","List1A","white","woman","","","","null","","","","","","","","",""
"8409.100000023842","","","survey-text","383","1000364","0.0-19.0-3.14","49945","List1A","white","woman","","","","","{""Q0"":""ruth is being seduced by kate""}","<img src=""stim_listA/seduce8.gif""style=""height:400px;""></stim_listA>","is being seduced by","","","","","",""
"null","<div style=""font-size:60px;"">+</div>","","html-keyboard-response","384","1000868","0.0-19.0-0.15","49945","List1A","white","woman","","","","null","","","","","","","","",""
"null","<img src=""stim_listA/hug6.gif""style=""height:400px;""></stim_listA>","","html-keyboard-response","385","1002875","0.0-19.0-1.15","49945","List1A","white","woman","","","","null","","","","","","","","",""
"null","is being hugged by","","html-keyboard-response","386","1004881","0.0-19.0-2.15","49945","List1A","white","woman","","","","null","","","","","","","","",""
"6689.699999988079","","","survey-text","387","1011575","0.0-19.0-3.15","49945","List1A","white","woman","","","","","{""Q0"":""dave is being hugged by mike""}","<img src=""stim_listA/hug6.gif""style=""height:400px;""></stim_listA>","is being hugged by","","","","","",""
"null","<div style=""font-size:60px;"">+</div>","","html-keyboard-response","388","1012080","0.0-19.0-0.16","49945","List1A","white","woman","","","","null","","","","","","","","",""
"null","<img src=""stim_listA/copy7.gif""style=""height:400px;""></stim_listA>","","html-keyboard-response","389","1014087","0.0-19.0-1.16","49945","List1A","white","woman","","","","null","","","","","","","","",""
"null","is copying","","html-keyboard-response","390","1016090","0.0-19.0-2.16","49945","List1A","white","woman","","","","null","","","","","","","","",""
"3887.2999999523163","","","survey-text","391","1019982","0.0-19.0-3.16","49945","List1A","white","woman","","","","","{""Q0"":""kate is copying ruth""}","<img src=""stim_listA/copy7.gif""style=""height:400px;""></stim_listA>","is copying","","","","","",""
"null","<div style=""font-size:60px;"">+</div>","","html-keyboard-response","392","1020486","0.0-19.0-0.17","49945","List1A","white","woman","","","","null","","","","","","","","",""
"null","<img src=""stim_listA/hug1.gif""style=""height:400px;""></stim_listA>","","html-keyboard-response","393","1022491","0.0-19.0-1.17","49945","List1A","white","woman","","","","null","","","","","","","","",""
"null","is hugging","","html-keyboard-response","394","1024493","0.0-19.0-2.17","49945","List1A","white","woman","","","","null","","","","","","","","",""
"3872.5","","","survey-text","395","1028370","0.0-19.0-3.17","49945","List1A","white","woman","","","","","{""Q0"":""beth is hugging fred""}","<img src=""stim_listA/hug1.gif""style=""height:400px;""></stim_listA>","is hugging","","","","","",""
"null","<div style=""font-size:60px;"">+</div>","","html-keyboard-response","396","1028872","0.0-19.0-0.18","49945","List1A","white","woman","","","","null","","","","","","","","",""
"null","<img src=""stim_listA/greet7.gif""style=""height:400px;""></stim_listA>","","html-keyboard-response","397","1030879","0.0-19.0-1.18","49945","List1A","white","woman","","","","null","","","","","","","","",""
"null","is greeting","","html-keyboard-response","398","1032885","0.0-19.0-2.18","49945","List1A","white","woman","","","","null","","","","","","","","",""
"3174.199999988079","","","survey-text","399","1036064","0.0-19.0-3.18","49945","List1A","white","woman","","","","","{""Q0"":""kate is greeting ruth""}","<img src=""stim_listA/greet7.gif""style=""height:400px;""></stim_listA>","is greeting","","","","","",""
"null","<div style=""font-size:60px;"">+</div>","","html-keyboard-response","400","1036566","0.0-19.0-0.19","49945","List1A","white","woman","","","","null","","","","","","","","",""
"null","<img src=""stim_listA/seduce3.gif""style=""height:400px;""></stim_listA>","","html-keyboard-response","401","1038573","0.0-19.0-1.19","49945","List1A","white","woman","","","","null","","","","","","","","",""
"null","is seducing","","html-keyboard-response","402","1040579","0.0-19.0-2.19","49945","List1A","white","woman","","","","null","","","","","","","","",""
"2856.199999988079","","","survey-text","403","1043440","0.0-19.0-3.19","49945","List1A","white","woman","","","","","{""Q0"":""luke is seducing jane""}","<img src=""stim_listA/seduce3.gif""style=""height:400px;""></stim_listA>","is seducing","","","","","",""
"2796.699999988079","<p>Thank you for completing that task.</p><p>The final part of this session is a questionnaire that will take about 4 minutes.</p><p>Press Continue.</p>","0","html-button-response","404","1046239","0.0-20.0","49945","List1A","white","woman","","","","","","","","","","","","",""
"16477.30000001192","","","survey-text","405","1063729","0.0-21.0","49945","List1A","white","woman","","","","","{""Q0"":""23"",""Q1"":""english"",""Q2"":""english"",""Q3"":""USA"",""Q4"":""American"",""Q5"":""white"",""Q6"":""female""}","","","demographics","","","","",""
"1678.699999988079","<p>Have you lived in the USA for the last 5 years or more?</p>","0","html-button-response","406","1065410","0.0-22.0","49945","List1A","white","woman","","","","","","","","fiveyears","","","","",""
"1926.6000000238419","<p>Move the slider to show the extent to which you agree with the following statements.</p>","0","html-button-response","407","1068343","0.0-23.0","49945","List1A","white","woman","","","","","","","","","","","","",""
"4190.5","","","html-slider-response","408","1073543","0.0-24.0-0.0-0.0","49945","List1A","white","woman","","","","","","","","survey_gender","89","","","Being my gender gives me a good feeling.","feeling"
"3390.099999964237","","","html-slider-response","409","1076935","0.0-24.0-0.0-0.1","49945","List1A","white","woman","","","","","","","","survey_gender","94","","","My friends have a lot in common with each other.","filler"
"2508.100000023842","","","html-slider-response","410","1079446","0.0-24.0-0.0-0.2","49945","List1A","white","woman","","","","","","","","survey_gender","100","","","I am similar to the average person of my gender.","similar"
"2119.699999988079","","","html-slider-response","411","1081568","0.0-24.0-0.0-0.3","49945","List1A","white","woman","","","","","","","","survey_gender","94","","","I feel solidarity with my friends.","filler"
"1966","","","html-slider-response","412","1083536","0.0-24.0-0.0-0.4","49945","List1A","white","woman","","","","","","","","survey_gender","100","","","I feel committed to my gender.","committed"
"1877.1000000238419","","","html-slider-response","413","1085415","0.0-24.0-0.0-0.5","49945","List1A","white","woman","","","","","","","","survey_gender","100","","","It is pleasant to be my gender.","pleasant"
"2921.5","","","html-slider-response","414","1088339","0.0-24.0-0.0-0.6","49945","List1A","white","woman","","","","","","","","survey_gender","44","","","I often think about the fact that I am my gender.","often"
"2070.2999999523163","","","html-slider-response","415","1090413","0.0-24.0-0.0-0.7","49945","List1A","white","woman","","","","","","","","survey_gender","100","","","I consider myself a highly empathetic person.","filler"
"2687","","","html-slider-response","416","1093102","0.0-24.0-0.0-0.8","49945","List1A","white","woman","","","","","","","","survey_gender","78","","","I have a lot in common with the average person of my gender.","average"
"2079.899999976158","","","html-slider-response","417","1095183","0.0-24.0-0.0-0.9","49945","List1A","white","woman","","","","","","","","survey_gender","89","","","I feel solidarity with my gender.","solidarity"
"2225.400000035763","","","html-slider-response","418","1097410","0.0-24.0-0.0-0.10","49945","List1A","white","woman","","","","","","","","survey_gender","83","","","My friends understand me.","filler"
"2088.800000011921","","","html-slider-response","419","1099501","0.0-24.0-0.0-0.11","49945","List1A","white","woman","","","","","","","","survey_gender","89","","","I have a lot in common with my friends.","filler"
"2168.400000035763","","","html-slider-response","420","1101671","0.0-24.0-0.0-0.12","49945","List1A","white","woman","","","","","","","","survey_gender","100","","","I would say I am an animal person.","filler"
"1681.699999988079","","","html-slider-response","421","1103354","0.0-24.0-0.0-0.13","49945","List1A","white","woman","","","","","","","","survey_gender","87","","","I feel a bond with my gender.","bond"
"2494","","","html-slider-response","422","1105850","0.0-24.0-0.0-0.14","49945","List1A","white","woman","","","","","","","","survey_gender","93","","","I am glad to have the friends that I have.","filler"
"4166.300000011921","","","html-slider-response","423","1110019","0.0-24.0-0.0-0.15","49945","List1A","white","woman","","","","","","","","survey_gender","48","","","Family is not more important to me than friendship.","filler"
"3216.199999988079","","","html-slider-response","424","1113237","0.0-24.0-0.0-0.16","49945","List1A","white","woman","","","","","","","","survey_gender","97","","","Being around my friends gives me a good feeling.","filler"
"2426.300000011921","","","html-slider-response","425","1115665","0.0-24.0-0.0-0.17","49945","List1A","white","woman","","","","","","","","survey_gender","76","","","Being my gender is an important part of how I see myself.","important"
"2492.900000035763","","","html-slider-response","426","1118160","0.0-24.0-0.0-0.18","49945","List1A","white","woman","","","","","","","","survey_gender","100","","","The fact that I am my gender is an important part of my identity.","identity"
"2680.099999964237","","","html-slider-response","427","1120843","0.0-24.0-0.0-0.19","49945","List1A","white","woman","","","","","","","","survey_gender","89","","","I often think about my actions.","filler"
"2468.099999964237","","","html-slider-response","428","1123313","0.0-24.0-0.0-0.20","49945","List1A","white","woman","","","","","","","","survey_gender","83","","","I think that my gender has a lot to be proud of.","proud"
"2363.599999964237","","","html-slider-response","429","1125679","0.0-24.0-0.0-0.21","49945","List1A","white","woman","","","","","","","","survey_gender","93","","","People of my gender have a lot in common with each other.","common"
"3958.800000011921","","","html-slider-response","430","1129640","0.0-24.0-0.0-0.22","49945","List1A","white","woman","","","","","","","","survey_gender","33","","","Routine is not important to me.","filler"
"1884.6000000238419","","","html-slider-response","431","1131527","0.0-24.0-0.0-0.23","49945","List1A","white","woman","","","","","","","","survey_gender","95","","","I feel a bond with my friends.","filler"
"3481","","","html-slider-response","432","1135009","0.0-24.0-0.0-0.24","49945","List1A","white","woman","","","","","","","","survey_gender","66","","","It is not always easy for people to know what I am thinking.","filler"
"2500.600000023842","","","html-slider-response","433","1137512","0.0-24.0-0.0-0.25","49945","List1A","white","woman","","","","","","","","survey_gender","97","","","I am glad to be my gender.","glad"
"2282.599999964237","","","html-slider-response","434","1139797","0.0-24.0-0.0-0.26","49945","List1A","white","woman","","","","","","","","survey_gender","44","","","People of my gender are very similar to each other.","verysimilar"
"2126.5","","","html-slider-response","435","1141926","0.0-24.0-0.0-0.27","49945","List1A","white","woman","","","","","","","","survey_gender","94","","","Most of the friends in my life are very similar to me.","filler"
"3180.800000011921","","","html-slider-response","436","1145108","0.0-24.0-1.0-0.0","49945","List1A","white","woman","","","","","","","","survey_race","46","","","The fact that I am my race is an important part of my identity.","identity"
"2081.199999988079","","","html-slider-response","437","1147192","0.0-24.0-1.0-0.1","49945","List1A","white","woman","","","","","","","","survey_race","58","","","It is pleasant to be my race.","pleasant"
"2703.300000011921","","","html-slider-response","438","1149897","0.0-24.0-1.0-0.2","49945","List1A","white","woman","","","","","","","","survey_race","87","","","I feel a bond with people the same age as me.","filler"
"1971.699999988079","","","html-slider-response","439","1151871","0.0-24.0-1.0-0.3","49945","List1A","white","woman","","","","","","","","survey_race","62","","","I consider myself an extrovert.","filler"
"1917.5","","","html-slider-response","440","1153791","0.0-24.0-1.0-0.4","49945","List1A","white","woman","","","","","","","","survey_race","47","","","I feel a bond with my race.","bond"
"2323.899999976158","","","html-slider-response","441","1156117","0.0-24.0-1.0-0.5","49945","List1A","white","woman","","","","","","","","survey_race","96","","","Being my age gives me a good feeling.","filler"
"2053.2000000476837","","","html-slider-response","442","1158172","0.0-24.0-1.0-0.6","49945","List1A","white","woman","","","","","","","","survey_race","100","","","I have a lot in common with people of a similar age to me.","filler"
"2210.5","","","html-slider-response","443","1160384","0.0-24.0-1.0-0.7","49945","List1A","white","woman","","","","","","","","survey_race","45","","","I consider myself an introvert.","filler"
"2646.199999988079","","","html-slider-response","444","1163033","0.0-24.0-1.0-0.8","49945","List1A","white","woman","","","","","","","","survey_race","96","","","I am glad to be my age.","filler"
"2726.5","","","html-slider-response","445","1165761","0.0-24.0-1.0-0.9","49945","List1A","white","woman","","","","","","","","survey_race","48","","","I feel solidarity with my race.","solidarity"
"2881.300000011921","","","html-slider-response","446","1168644","0.0-24.0-1.0-0.10","49945","List1A","white","woman","","","","","","","","survey_race","92","","","I am glad to be the age I am.","filler"
"2636.2999999523163","","","html-slider-response","447","1171283","0.0-24.0-1.0-0.11","49945","List1A","white","woman","","","","","","","","survey_race","41","","","I think that my race has a lot to be proud of.","proud"
"3246.300000011921","","","html-slider-response","448","1174530","0.0-24.0-1.0-0.12","49945","List1A","white","woman","","","","","","","","survey_race","63","","","My age is not an important part of who I am.","filler"
"2355.300000011921","","","html-slider-response","449","1176888","0.0-24.0-1.0-0.13","49945","List1A","white","woman","","","","","","","","survey_race","54","","","I often think about the fact that I am my age.","filler"
"2676.800000011921","","","html-slider-response","450","1179567","0.0-24.0-1.0-0.14","49945","List1A","white","woman","","","","","","","","survey_race","68","","","I am similar to the average person of my race.","similar"
"2479.199999988079","","","html-slider-response","451","1182047","0.0-24.0-1.0-0.15","49945","List1A","white","woman","","","","","","","","survey_race","54","","","Being my race gives me a good feeling.","feeling"
"2718.800000011921","","","html-slider-response","452","1184769","0.0-24.0-1.0-0.16","49945","List1A","white","woman","","","","","","","","survey_race","43","","","I often think about the fact that I am my race.","often"
"2201","","","html-slider-response","453","1186971","0.0-24.0-1.0-0.17","49945","List1A","white","woman","","","","","","","","survey_race","47","","","People of my race have a lot in common with each other.","common"
"2339.099999964237","","","html-slider-response","454","1189312","0.0-24.0-1.0-0.18","49945","List1A","white","woman","","","","","","","","survey_race","87","","","People my age have a lot in common with each other.","filler"
"2467.899999976158","","","html-slider-response","455","1191782","0.0-24.0-1.0-0.19","49945","List1A","white","woman","","","","","","","","survey_race","74","","","I enjoy being in large groups.","filler"
"2452.400000035763","","","html-slider-response","456","1194237","0.0-24.0-1.0-0.20","49945","List1A","white","woman","","","","","","","","survey_race","45","","","I have a lot in common with the average person of my race.","average"
"2838.699999988079","","","html-slider-response","457","1197078","0.0-24.0-1.0-0.21","49945","List1A","white","woman","","","","","","","","survey_race","30","","","Getting older does not worry me.","filler"
"2955.600000023842","","","html-slider-response","458","1200036","0.0-24.0-1.0-0.22","49945","List1A","white","woman","","","","","","","","survey_race","45","","","I am glad to be my race.","glad"
"1842","","","html-slider-response","459","1201880","0.0-24.0-1.0-0.23","49945","List1A","white","woman","","","","","","","","survey_race","45","","","The older I get, the wiser I feel.","filler"
"2413.900000035763","","","html-slider-response","460","1204296","0.0-24.0-1.0-0.24","49945","List1A","white","woman","","","","","","","","survey_race","42","","","People of my race are very similar to each other.","verysimilar"
"2873.300000011921","","","html-slider-response","461","1207171","0.0-24.0-1.0-0.25","49945","List1A","white","woman","","","","","","","","survey_race","48","","","I feel committed to my race.","committed"
"2589.600000023842","","","html-slider-response","462","1209762","0.0-24.0-1.0-0.26","49945","List1A","white","woman","","","","","","","","survey_race","93","","","I feel solidarity with people the same age as me.","filler"
"2151","","","html-slider-response","463","1211915","0.0-24.0-1.0-0.27","49945","List1A","white","woman","","","","","","","","survey_race","38","","","Being my race is an important part of how I see myself.","important"
"4483.099999964237","","","survey-text","464","1216403","0.0-25.0","49945","List1A","white","woman","","","","","{""Q0"":""5c999fd24c66db0001f77e54""}","","","worker_id","","","","",""
"37361.10000002384","","","external-html","465","1254186","0.0-26.0","49945","List1A","white","woman","debrief.html","","","","","","","","","","","",""
