"rt","stimulus","button_pressed","trial_type","trial_index","time_elapsed","internal_node_id","subject","list","ppt_race","ppt_gender","url","first_guess","correct","key_press","responses","image_type","phrase_type","test_part","response","stimulus1","stimulus2","question_type","survey_item"
"12246.600000023842","Welcome to the experiment. Press Continue to begin.","0","html-button-response","0","12249","0.0-0.0","50057","List1B","white","woman","","","","","","","","","","","","",""
"7866.5","","","external-html","1","21619","0.0-1.0","50057","List1B","white","woman","consent.html","","","","","","","","","","","",""
"101922.80000001192","<p>On the next page, you will see portraits of 8 people and their names.</p><p>Your first task is to take a few minutes to memorise the names of these people.</p><p>You will have to recall their names during the rest of the experiment, so it is</p><p>essential that you try to memorise these people and their names as best as you can.</p><br><p><strong>You will then be tested on your memory of these names and portraits.</strong></p><br><p>The experiment will start after you have completed this memory test.</p><br><p>Ready?</p>","0","html-button-response","2","123543","0.0-2.0","50057","List1B","white","woman","","","","","","","","","","","","",""
"63749.30000001192","<img src='img/portrait_matrix_list1.jpg' style='width:900px;height:500px;''></img><p>If you have memorised all the portraits and names and are ready to start, press Continue.</p><p><strong>Please note: Your memory of these faces will be tested 4 times during this experiment.</strong></p>","0","html-button-response","3","188298","0.0-3.0-0.0","50057","List1B","white","woman","","","","","","","","","","","","",""
"3279.399999976158","<img src=""portrait/WM1.jpg""style=""height:400px;""></img>","6","html-button-response","4","192589","0.0-3.0-1.0","50057","List1B","white","woman","","true","6","","","","","","","","","",""
"null","CORRECT","","html-keyboard-response","5","194108","0.0-3.0-2.0-0.0","50057","List1B","white","woman","","","","null","","","","","","","","",""
"2217.800000011921","<img src=""portrait/WM2.jpg""style=""height:400px;""></img>","7","html-button-response","6","196328","0.0-3.0-4.0","50057","List1B","white","woman","","true","7","","","","","","","","","",""
"null","CORRECT","","html-keyboard-response","7","197859","0.0-3.0-5.0-0.0","50057","List1B","white","woman","","","","null","","","","","","","","",""
"10339.899999976158","<img src=""portrait/WW1.jpg""style=""height:400px;""></img>","1","html-button-response","8","208201","0.0-3.0-7.0","50057","List1B","white","woman","","true","1","","","","","","","","","",""
"null","CORRECT","","html-keyboard-response","9","209703","0.0-3.0-8.0-0.0","50057","List1B","white","woman","","","","null","","","","","","","","",""
"3188.099999964237","<img src=""portrait/BW2.jpg""style=""height:400px;""></img>","2","html-button-response","10","212892","0.0-3.0-10.0","50057","List1B","white","woman","","true","2","","","","","","","","","",""
"null","CORRECT","","html-keyboard-response","11","214413","0.0-3.0-11.0-0.0","50057","List1B","white","woman","","","","null","","","","","","","","",""
"3538.300000011921","<img src=""portrait/BM2.jpg""style=""height:400px;""></img>","5","html-button-response","12","217953","0.0-3.0-13.0","50057","List1B","white","woman","","true","5","","","","","","","","","",""
"null","CORRECT","","html-keyboard-response","13","219462","0.0-3.0-14.0-0.0","50057","List1B","white","woman","","","","null","","","","","","","","",""
"6888.399999976158","<img src=""portrait/BW1.jpg""style=""height:400px;""></img>","0","html-button-response","14","226352","0.0-3.0-16.0","50057","List1B","white","woman","","true","0","","","","","","","","","",""
"null","CORRECT","","html-keyboard-response","15","227854","0.0-3.0-17.0-0.0","50057","List1B","white","woman","","","","null","","","","","","","","",""
"5110.699999988079","<img src=""portrait/BM1.jpg""style=""height:400px;""></img>","4","html-button-response","16","232966","0.0-3.0-19.0","50057","List1B","white","woman","","true","4","","","","","","","","","",""
"null","CORRECT","","html-keyboard-response","17","234482","0.0-3.0-20.0-0.0","50057","List1B","white","woman","","","","null","","","","","","","","",""
"2300.800000011921","<img src=""portrait/WW2.jpg""style=""height:400px;""></img>","3","html-button-response","18","236784","0.0-3.0-22.0","50057","List1B","white","woman","","true","3","","","","","","","","","",""
"null","CORRECT","","html-keyboard-response","19","238311","0.0-3.0-23.0-0.0","50057","List1B","white","woman","","","","null","","","","","","","","",""
"1458.0999999642372","<p>You got 8 out of 8 right first time. Press Continue.</p>","0","html-button-response","20","239770","0.0-3.0-25.0","50057","List1B","white","woman","","","","","","","","","","","","",""
"23618.400000035763","<p>In this experiment, you will view photographs of the people from the memory game interacting.</p><p>By using the <strong>exact</strong> phrase given <i>after</i> the photograph appears and recalling the correct names of the people in the photographs, form a sentence describing the interaction. You do not need to capitalise names.</p><p>Type your answer in the space provided. Please complete every sentence before moving onto the next trial.</p><p>You will only have a few seconds to memorise each given photograph and phrase before you can respond, so try your best to focus.</p><p>An example is given below. Press 'Continue' when you are ready.</p><img src='img/speaking_example.jpg' style='width:800px;height:460px;''></img>","0","html-button-response","21","264402","0.0-4.0","50057","List1B","white","woman","","","","","","","","","","","","",""
"2086.400000035763","<p>Before the experiment starts, you will watch two example trials. Press 'Continue'.</p>","0","html-button-response","22","267491","0.0-5.0","50057","List1B","white","woman","","","","","","","","","","","","",""
"null","<img src='img/play_eg.gif' style='height:400px;''></img>","","html-keyboard-response","23","270499","0.0-6.0","50057","List1B","white","woman","","","","null","","","","","","","","",""
"null","<p>is playing with</p>","","html-keyboard-response","24","272515","0.0-7.0","50057","List1B","white","woman","","","","null","","","","","","","","",""
"2046.800000011921","<p><b>Answer:</b> kate is playing with beth</p>","0","html-button-response","25","274563","0.0-8.0","50057","List1B","white","woman","","","","","","","","","","","","",""
"null","<img src='img/dance_eg.gif' style='height:400px;''></img>","","html-keyboard-response","26","277570","0.0-9.0","50057","List1B","white","woman","","","","null","","","","","","","","",""
"null","<p>is being entertained by</p>","","html-keyboard-response","27","279574","0.0-10.0","50057","List1B","white","woman","","","","null","","","","","","","","",""
"1261.800000011921","<p><b>Answer:</b> luke is being entertained by dave</p>","0","html-button-response","28","280836","0.0-11.0","50057","List1B","white","woman","","","","","","","","","","","","",""
"6557.600000023842","<p>Ready to start the experiment?</p><br><p><strong>Remember to describe the picture using a full sentence,</strong></p><p><strong>that combines the names of the people with the <i>exact</i> phrase given.</strong></p><p><strong>To receive full payment you must do this correctly.</strong></p><p><strong> You do not need to capitalise names or use punctuation.</strong></p><br><p>Press 'Continue' to begin.</p>","0","html-button-response","29","288410","0.0-12.0","50057","List1B","white","woman","","","","","","","","","","","","",""
"null","<div style=""font-size:60px;"">+</div>","","html-keyboard-response","30","289913","0.0-13.0-0.0","50057","List1B","white","woman","","","","null","","","","","","","","",""
"null","<img src=""stim_listB/seduce2.gif""style=""height:400px;""></stim_listB>","","html-keyboard-response","31","291923","0.0-13.0-1.0","50057","List1B","white","woman","","","","null","","","","","","","","",""
"null","is being seduced by","","html-keyboard-response","32","293932","0.0-13.0-2.0","50057","List1B","white","woman","","","","null","","","","","","","","",""
"7926.5","","","survey-text","33","301864","0.0-13.0-3.0","50057","List1B","white","woman","","","","","{""Q0"":""Mike is being seduced by Beth""}","<img src=""stim_listB/seduce2.gif""style=""height:400px;""></stim_listB>","is being seduced by","","","","","",""
"null","<div style=""font-size:60px;"">+</div>","","html-keyboard-response","34","302375","0.0-13.0-0.1","50057","List1B","white","woman","","","","null","","","","","","","","",""
"null","<img src=""stim_listB/seduce1.gif""style=""height:400px;""></stim_listB>","","html-keyboard-response","35","304388","0.0-13.0-1.1","50057","List1B","white","woman","","","","null","","","","","","","","",""
"null","is seducing","","html-keyboard-response","36","306389","0.0-13.0-2.1","50057","List1B","white","woman","","","","null","","","","","","","","",""
"9156.100000023842","","","survey-text","37","315548","0.0-13.0-3.1","50057","List1B","white","woman","","","","","{""Q0"":""Kate is seducing Fred""}","<img src=""stim_listB/seduce1.gif""style=""height:400px;""></stim_listB>","is seducing","","","","","",""
"null","<div style=""font-size:60px;"">+</div>","","html-keyboard-response","38","316057","0.0-13.0-0.2","50057","List1B","white","woman","","","","null","","","","","","","","",""
"null","<img src=""stim_listB/oppose4.gif""style=""height:400px;""></stim_listB>","","html-keyboard-response","39","318060","0.0-13.0-1.2","50057","List1B","white","woman","","","","null","","","","","","","","",""
"null","is being opposed by","","html-keyboard-response","40","320063","0.0-13.0-2.2","50057","List1B","white","woman","","","","null","","","","","","","","",""
"9226.100000023842","","","survey-text","41","329292","0.0-13.0-3.2","50057","List1B","white","woman","","","","","{""Q0"":""Luke is being opposed by Ruth""}","<img src=""stim_listB/oppose4.gif""style=""height:400px;""></stim_listB>","is being opposed by","","","","","",""
"null","<div style=""font-size:60px;"">+</div>","","html-keyboard-response","42","329805","0.0-13.0-0.3","50057","List1B","white","woman","","","","null","","","","","","","","",""
"null","<img src=""stim_listB/greet7.gif""style=""height:400px;""></stim_listB>","","html-keyboard-response","43","331809","0.0-13.0-1.3","50057","List1B","white","woman","","","","null","","","","","","","","",""
"null","is greeting","","html-keyboard-response","44","333815","0.0-13.0-2.3","50057","List1B","white","woman","","","","null","","","","","","","","",""
"5871","","","survey-text","45","339688","0.0-13.0-3.3","50057","List1B","white","woman","","","","","{""Q0"":""Kate is greeting Ruth""}","<img src=""stim_listB/greet7.gif""style=""height:400px;""></stim_listB>","is greeting","","","","","",""
"null","<div style=""font-size:60px;"">+</div>","","html-keyboard-response","46","340203","0.0-13.0-0.4","50057","List1B","white","woman","","","","null","","","","","","","","",""
"null","<img src=""stim_listB/kiss8.gif""style=""height:400px;""></stim_listB>","","html-keyboard-response","47","342220","0.0-13.0-1.4","50057","List1B","white","woman","","","","null","","","","","","","","",""
"null","is being kissed by","","html-keyboard-response","48","344234","0.0-13.0-2.4","50057","List1B","white","woman","","","","null","","","","","","","","",""
"14961.899999976158","","","survey-text","49","359198","0.0-13.0-3.4","50057","List1B","white","woman","","","","","{""Q0"":""Kate is being kissed by Jane""}","<img src=""stim_listB/kiss8.gif""style=""height:400px;""></stim_listB>","is being kissed by","","","","","",""
"null","<div style=""font-size:60px;"">+</div>","","html-keyboard-response","50","359705","0.0-13.0-0.5","50057","List1B","white","woman","","","","null","","","","","","","","",""
"null","<img src=""stim_listB/oppose8.gif""style=""height:400px;""></stim_listB>","","html-keyboard-response","51","361709","0.0-13.0-1.5","50057","List1B","white","woman","","","","null","","","","","","","","",""
"null","is being opposed by","","html-keyboard-response","52","363711","0.0-13.0-2.5","50057","List1B","white","woman","","","","null","","","","","","","","",""
"4852.900000035763","","","survey-text","53","368567","0.0-13.0-3.5","50057","List1B","white","woman","","","","","{""Q0"":""Beth is being opposed by Ruth""}","<img src=""stim_listB/oppose8.gif""style=""height:400px;""></stim_listB>","is being opposed by","","","","","",""
"null","<div style=""font-size:60px;"">+</div>","","html-keyboard-response","54","369080","0.0-13.0-0.6","50057","List1B","white","woman","","","","null","","","","","","","","",""
"null","<img src=""stim_listB/copy5.gif""style=""height:400px;""></stim_listB>","","html-keyboard-response","55","371096","0.0-13.0-1.6","50057","List1B","white","woman","","","","null","","","","","","","","",""
"null","is copying","","html-keyboard-response","56","373103","0.0-13.0-2.6","50057","List1B","white","woman","","","","null","","","","","","","","",""
"4482.199999988079","","","survey-text","57","377589","0.0-13.0-3.6","50057","List1B","white","woman","","","","","{""Q0"":""Mike is copying Luke""}","<img src=""stim_listB/copy5.gif""style=""height:400px;""></stim_listB>","is copying","","","","","",""
"null","<div style=""font-size:60px;"">+</div>","","html-keyboard-response","58","378091","0.0-13.0-0.7","50057","List1B","white","woman","","","","null","","","","","","","","",""
"null","<img src=""stim_listB/challenge2.gif""style=""height:400px;""></stim_listB>","","html-keyboard-response","59","380096","0.0-13.0-1.7","50057","List1B","white","woman","","","","null","","","","","","","","",""
"null","is being challenged by","","html-keyboard-response","60","382100","0.0-13.0-2.7","50057","List1B","white","woman","","","","null","","","","","","","","",""
"5717.5","","","survey-text","61","387821","0.0-13.0-3.7","50057","List1B","white","woman","","","","","{""Q0"":""Fred is challenged by Kate""}","<img src=""stim_listB/challenge2.gif""style=""height:400px;""></stim_listB>","is being challenged by","","","","","",""
"null","<div style=""font-size:60px;"">+</div>","","html-keyboard-response","62","388334","0.0-13.0-0.8","50057","List1B","white","woman","","","","null","","","","","","","","",""
"null","<img src=""stim_listB/touch7.gif""style=""height:400px;""></stim_listB>","","html-keyboard-response","63","390350","0.0-13.0-1.8","50057","List1B","white","woman","","","","null","","","","","","","","",""
"null","is touching","","html-keyboard-response","64","392353","0.0-13.0-2.8","50057","List1B","white","woman","","","","null","","","","","","","","",""
"3797.399999976158","","","survey-text","65","396153","0.0-13.0-3.8","50057","List1B","white","woman","","","","","{""Q0"":""Jane is touching Kate""}","<img src=""stim_listB/touch7.gif""style=""height:400px;""></stim_listB>","is touching","","","","","",""
"null","<div style=""font-size:60px;"">+</div>","","html-keyboard-response","66","396655","0.0-13.0-0.9","50057","List1B","white","woman","","","","null","","","","","","","","",""
"null","<img src=""stim_listB/oppose7.gif""style=""height:400px;""></stim_listB>","","html-keyboard-response","67","398661","0.0-13.0-1.9","50057","List1B","white","woman","","","","null","","","","","","","","",""
"null","is opposing","","html-keyboard-response","68","400678","0.0-13.0-2.9","50057","List1B","white","woman","","","","null","","","","","","","","",""
"3408.899999976158","","","survey-text","69","404090","0.0-13.0-3.9","50057","List1B","white","woman","","","","","{""Q0"":""Jane is opposing Kate""}","<img src=""stim_listB/oppose7.gif""style=""height:400px;""></stim_listB>","is opposing","","","","","",""
"null","<div style=""font-size:60px;"">+</div>","","html-keyboard-response","70","404597","0.0-13.0-0.10","50057","List1B","white","woman","","","","null","","","","","","","","",""
"null","<img src=""stim_listB/challenge6.gif""style=""height:400px;""></stim_listB>","","html-keyboard-response","71","406600","0.0-13.0-1.10","50057","List1B","white","woman","","","","null","","","","","","","","",""
"null","is being challenged by","","html-keyboard-response","72","408604","0.0-13.0-2.10","50057","List1B","white","woman","","","","null","","","","","","","","",""
"6116.100000023842","","","survey-text","73","414723","0.0-13.0-3.10","50057","List1B","white","woman","","","","","{""Q0"":""Fred is being challenged by Dave""}","<img src=""stim_listB/challenge6.gif""style=""height:400px;""></stim_listB>","is being challenged by","","","","","",""
"null","<div style=""font-size:60px;"">+</div>","","html-keyboard-response","74","415229","0.0-13.0-0.11","50057","List1B","white","woman","","","","null","","","","","","","","",""
"null","<img src=""stim_listB/shout1.gif""style=""height:400px;""></stim_listB>","","html-keyboard-response","75","417245","0.0-13.0-1.11","50057","List1B","white","woman","","","","null","","","","","","","","",""
"null","is shouting at","","html-keyboard-response","76","419250","0.0-13.0-2.11","50057","List1B","white","woman","","","","null","","","","","","","","",""
"4760.800000011921","","","survey-text","77","424014","0.0-13.0-3.11","50057","List1B","white","woman","","","","","{""Q0"":""Fred is shouting at Beth""}","<img src=""stim_listB/shout1.gif""style=""height:400px;""></stim_listB>","is shouting at","","","","","",""
"null","<div style=""font-size:60px;"">+</div>","","html-keyboard-response","78","424523","0.0-13.0-0.12","50057","List1B","white","woman","","","","null","","","","","","","","",""
"null","<img src=""stim_listB/greet5.gif""style=""height:400px;""></stim_listB>","","html-keyboard-response","79","426525","0.0-13.0-1.12","50057","List1B","white","woman","","","","null","","","","","","","","",""
"null","is greeting","","html-keyboard-response","80","428527","0.0-13.0-2.12","50057","List1B","white","woman","","","","null","","","","","","","","",""
"3616.100000023842","","","survey-text","81","432146","0.0-13.0-3.12","50057","List1B","white","woman","","","","","{""Q0"":""Luke is greeting Mike""}","<img src=""stim_listB/greet5.gif""style=""height:400px;""></stim_listB>","is greeting","","","","","",""
"null","<div style=""font-size:60px;"">+</div>","","html-keyboard-response","82","432659","0.0-13.0-0.13","50057","List1B","white","woman","","","","null","","","","","","","","",""
"null","<img src=""stim_listB/look2.gif""style=""height:400px;""></stim_listB>","","html-keyboard-response","83","434674","0.0-13.0-1.13","50057","List1B","white","woman","","","","null","","","","","","","","",""
"null","is being looked at by","","html-keyboard-response","84","436689","0.0-13.0-2.13","50057","List1B","white","woman","","","","null","","","","","","","","",""
"4878.799999952316","","","survey-text","85","441571","0.0-13.0-3.13","50057","List1B","white","woman","","","","","{""Q0"":""Kate is being looked at by Mike""}","<img src=""stim_listB/look2.gif""style=""height:400px;""></stim_listB>","is being looked at by","","","","","",""
"null","<div style=""font-size:60px;"">+</div>","","html-keyboard-response","86","442081","0.0-13.0-0.14","50057","List1B","white","woman","","","","null","","","","","","","","",""
"null","<img src=""stim_listB/copy2.gif""style=""height:400px;""></stim_listB>","","html-keyboard-response","87","444098","0.0-13.0-1.14","50057","List1B","white","woman","","","","null","","","","","","","","",""
"null","is being copied by","","html-keyboard-response","88","446115","0.0-13.0-2.14","50057","List1B","white","woman","","","","null","","","","","","","","",""
"4354.899999976158","","","survey-text","89","450472","0.0-13.0-3.14","50057","List1B","white","woman","","","","","{""Q0"":""Kate is being copied by Fred""}","<img src=""stim_listB/copy2.gif""style=""height:400px;""></stim_listB>","is being copied by","","","","","",""
"null","<div style=""font-size:60px;"">+</div>","","html-keyboard-response","90","450984","0.0-13.0-0.15","50057","List1B","white","woman","","","","null","","","","","","","","",""
"null","<img src=""stim_listB/touch6.gif""style=""height:400px;""></stim_listB>","","html-keyboard-response","91","452986","0.0-13.0-1.15","50057","List1B","white","woman","","","","null","","","","","","","","",""
"null","is being touched by","","html-keyboard-response","92","454995","0.0-13.0-2.15","50057","List1B","white","woman","","","","null","","","","","","","","",""
"4154.600000023842","","","survey-text","93","459153","0.0-13.0-3.15","50057","List1B","white","woman","","","","","{""Q0"":""Fred is being touched by Luke""}","<img src=""stim_listB/touch6.gif""style=""height:400px;""></stim_listB>","is being touched by","","","","","",""
"null","<div style=""font-size:60px;"">+</div>","","html-keyboard-response","94","459668","0.0-13.0-0.16","50057","List1B","white","woman","","","","null","","","","","","","","",""
"null","<img src=""stim_listB/seduce7.gif""style=""height:400px;""></stim_listB>","","html-keyboard-response","95","461671","0.0-13.0-1.16","50057","List1B","white","woman","","","","null","","","","","","","","",""
"null","is seducing","","html-keyboard-response","96","463673","0.0-13.0-2.16","50057","List1B","white","woman","","","","null","","","","","","","","",""
"3057.300000011921","","","survey-text","97","466733","0.0-13.0-3.16","50057","List1B","white","woman","","","","","{""Q0"":""Beth is seducing Jane""}","<img src=""stim_listB/seduce7.gif""style=""height:400px;""></stim_listB>","is seducing","","","","","",""
"null","<div style=""font-size:60px;"">+</div>","","html-keyboard-response","98","467236","0.0-13.0-0.17","50057","List1B","white","woman","","","","null","","","","","","","","",""
"null","<img src=""stim_listB/kiss4.gif""style=""height:400px;""></stim_listB>","","html-keyboard-response","99","469239","0.0-13.0-1.17","50057","List1B","white","woman","","","","null","","","","","","","","",""
"null","is being kissed by","","html-keyboard-response","100","471253","0.0-13.0-2.17","50057","List1B","white","woman","","","","null","","","","","","","","",""
"4144.400000035763","","","survey-text","101","475399","0.0-13.0-3.17","50057","List1B","white","woman","","","","","{""Q0"":""Jane is being kissed by Dave""}","<img src=""stim_listB/kiss4.gif""style=""height:400px;""></stim_listB>","is being kissed by","","","","","",""
"null","<div style=""font-size:60px;"">+</div>","","html-keyboard-response","102","475908","0.0-13.0-0.18","50057","List1B","white","woman","","","","null","","","","","","","","",""
"null","<img src=""stim_listB/touch4.gif""style=""height:400px;""></stim_listB>","","html-keyboard-response","103","477911","0.0-13.0-1.18","50057","List1B","white","woman","","","","null","","","","","","","","",""
"null","is being touched by","","html-keyboard-response","104","479915","0.0-13.0-2.18","50057","List1B","white","woman","","","","null","","","","","","","","",""
"4009.5","","","survey-text","105","483927","0.0-13.0-3.18","50057","List1B","white","woman","","","","","{""Q0"":""Luke is being touched by Ruth""}","<img src=""stim_listB/touch4.gif""style=""height:400px;""></stim_listB>","is being touched by","","","","","",""
"null","<div style=""font-size:60px;"">+</div>","","html-keyboard-response","106","484441","0.0-13.0-0.19","50057","List1B","white","woman","","","","null","","","","","","","","",""
"null","<img src=""stim_listB/challenge1.gif""style=""height:400px;""></stim_listB>","","html-keyboard-response","107","486456","0.0-13.0-1.19","50057","List1B","white","woman","","","","null","","","","","","","","",""
"null","is challenging","","html-keyboard-response","108","488473","0.0-13.0-2.19","50057","List1B","white","woman","","","","null","","","","","","","","",""
"4363.100000023842","","","survey-text","109","492839","0.0-13.0-3.19","50057","List1B","white","woman","","","","","{""Q0"":""Beth is challenging Mike""}","<img src=""stim_listB/challenge1.gif""style=""height:400px;""></stim_listB>","is challenging","","","","","",""
"9056.300000011921","<img src='img/portrait_matrix_list1.jpg' style='width:900px;height:500px;''></img><p>If you have memorised all the portraits and names and are ready to start, press Continue.</p><p><strong>Please note: Your memory of these faces will be tested 4 times during this experiment.</strong></p>","0","html-button-response","110","501896","0.0-14.0-0.0","50057","List1B","white","woman","","","","","","","","","","","","",""
"2190.600000023842","<img src=""portrait/WW2.jpg""style=""height:400px;""></img>","3","html-button-response","111","505089","0.0-14.0-1.0","50057","List1B","white","woman","","true","3","","","","","","","","","",""
"null","CORRECT","","html-keyboard-response","112","506597","0.0-14.0-2.0-0.0","50057","List1B","white","woman","","","","null","","","","","","","","",""
"2769.5","<img src=""portrait/WM1.jpg""style=""height:400px;""></img>","6","html-button-response","113","509369","0.0-14.0-4.0","50057","List1B","white","woman","","true","6","","","","","","","","","",""
"null","CORRECT","","html-keyboard-response","114","510872","0.0-14.0-5.0-0.0","50057","List1B","white","woman","","","","null","","","","","","","","",""
"1660.1000000238419","<img src=""portrait/BM1.jpg""style=""height:400px;""></img>","4","html-button-response","115","512535","0.0-14.0-7.0","50057","List1B","white","woman","","true","4","","","","","","","","","",""
"null","CORRECT","","html-keyboard-response","116","514051","0.0-14.0-8.0-0.0","50057","List1B","white","woman","","","","null","","","","","","","","",""
"1911.7000000476837","<img src=""portrait/BW2.jpg""style=""height:400px;""></img>","2","html-button-response","117","515965","0.0-14.0-10.0","50057","List1B","white","woman","","true","2","","","","","","","","","",""
"null","CORRECT","","html-keyboard-response","118","517469","0.0-14.0-11.0-0.0","50057","List1B","white","woman","","","","null","","","","","","","","",""
"1834.7000000476837","<img src=""portrait/WW1.jpg""style=""height:400px;""></img>","1","html-button-response","119","519305","0.0-14.0-13.0","50057","List1B","white","woman","","true","1","","","","","","","","","",""
"null","CORRECT","","html-keyboard-response","120","520831","0.0-14.0-14.0-0.0","50057","List1B","white","woman","","","","null","","","","","","","","",""
"1511.8999999761581","<img src=""portrait/WM2.jpg""style=""height:400px;""></img>","7","html-button-response","121","522345","0.0-14.0-16.0","50057","List1B","white","woman","","true","7","","","","","","","","","",""
"null","CORRECT","","html-keyboard-response","122","523869","0.0-14.0-17.0-0.0","50057","List1B","white","woman","","","","null","","","","","","","","",""
"1964.300000011921","<img src=""portrait/BM2.jpg""style=""height:400px;""></img>","5","html-button-response","123","525835","0.0-14.0-19.0","50057","List1B","white","woman","","true","5","","","","","","","","","",""
"null","CORRECT","","html-keyboard-response","124","527362","0.0-14.0-20.0-0.0","50057","List1B","white","woman","","","","null","","","","","","","","",""
"1940.4000000357628","<img src=""portrait/BW1.jpg""style=""height:400px;""></img>","0","html-button-response","125","529304","0.0-14.0-22.0","50057","List1B","white","woman","","true","0","","","","","","","","","",""
"null","CORRECT","","html-keyboard-response","126","530837","0.0-14.0-23.0-0.0","50057","List1B","white","woman","","","","null","","","","","","","","",""
"1385.699999988079","<p>You got 8 out of 8 right first time. Press Continue.</p>","0","html-button-response","127","532224","0.0-14.0-25.0","50057","List1B","white","woman","","","","","","","","","","","","",""
"null","<div style=""font-size:60px;"">+</div>","","html-keyboard-response","128","533749","0.0-15.0-0.0","50057","List1B","white","woman","","","","null","","","","","","","","",""
"null","<img src=""stim_listB/oppose3.gif""style=""height:400px;""></stim_listB>","","html-keyboard-response","129","535752","0.0-15.0-1.0","50057","List1B","white","woman","","","","null","","","","","","","","",""
"null","is opposing","","html-keyboard-response","130","537754","0.0-15.0-2.0","50057","List1B","white","woman","","","","null","","","","","","","","",""
"4779.200000047684","","","survey-text","131","542537","0.0-15.0-3.0","50057","List1B","white","woman","","","","","{""Q0"":""Jane is opposing Dave""}","<img src=""stim_listB/oppose3.gif""style=""height:400px;""></stim_listB>","is opposing","","","","","",""
"null","<div style=""font-size:60px;"">+</div>","","html-keyboard-response","132","543052","0.0-15.0-0.1","50057","List1B","white","woman","","","","null","","","","","","","","",""
"null","<img src=""stim_listB/shout4.gif""style=""height:400px;""></stim_listB>","","html-keyboard-response","133","545068","0.0-15.0-1.1","50057","List1B","white","woman","","","","null","","","","","","","","",""
"null","is being shouted at by","","html-keyboard-response","134","547073","0.0-15.0-2.1","50057","List1B","white","woman","","","","null","","","","","","","","",""
"6220.400000035763","","","survey-text","135","553296","0.0-15.0-3.1","50057","List1B","white","woman","","","","","{""Q0"":""Dave is being shouted at by Jane""}","<img src=""stim_listB/shout4.gif""style=""height:400px;""></stim_listB>","is being shouted at by","","","","","",""
"null","<div style=""font-size:60px;"">+</div>","","html-keyboard-response","136","553811","0.0-15.0-0.2","50057","List1B","white","woman","","","","null","","","","","","","","",""
"null","<img src=""stim_listB/seduce5.gif""style=""height:400px;""></stim_listB>","","html-keyboard-response","137","555813","0.0-15.0-1.2","50057","List1B","white","woman","","","","null","","","","","","","","",""
"null","is seducing","","html-keyboard-response","138","557825","0.0-15.0-2.2","50057","List1B","white","woman","","","","null","","","","","","","","",""
"5484.899999976158","","","survey-text","139","563312","0.0-15.0-3.2","50057","List1B","white","woman","","","","","{""Q0"":""Fred is seducing Dave""}","<img src=""stim_listB/seduce5.gif""style=""height:400px;""></stim_listB>","is seducing","","","","","",""
"null","<div style=""font-size:60px;"">+</div>","","html-keyboard-response","140","563827","0.0-15.0-0.3","50057","List1B","white","woman","","","","null","","","","","","","","",""
"null","<img src=""stim_listB/touch5.gif""style=""height:400px;""></stim_listB>","","html-keyboard-response","141","565829","0.0-15.0-1.3","50057","List1B","white","woman","","","","null","","","","","","","","",""
"null","is touching","","html-keyboard-response","142","567835","0.0-15.0-2.3","50057","List1B","white","woman","","","","null","","","","","","","","",""
"3389.300000011921","","","survey-text","143","571227","0.0-15.0-3.3","50057","List1B","white","woman","","","","","{""Q0"":""Dave is touching Mike""}","<img src=""stim_listB/touch5.gif""style=""height:400px;""></stim_listB>","is touching","","","","","",""
"null","<div style=""font-size:60px;"">+</div>","","html-keyboard-response","144","571731","0.0-15.0-0.4","50057","List1B","white","woman","","","","null","","","","","","","","",""
"null","<img src=""stim_listB/challenge5.gif""style=""height:400px;""></stim_listB>","","html-keyboard-response","145","573733","0.0-15.0-1.4","50057","List1B","white","woman","","","","null","","","","","","","","",""
"null","is challenging","","html-keyboard-response","146","575738","0.0-15.0-2.4","50057","List1B","white","woman","","","","null","","","","","","","","",""
"3420.099999964237","","","survey-text","147","579161","0.0-15.0-3.4","50057","List1B","white","woman","","","","","{""Q0"":""Mike is challenging Luke""}","<img src=""stim_listB/challenge5.gif""style=""height:400px;""></stim_listB>","is challenging","","","","","",""
"null","<div style=""font-size:60px;"">+</div>","","html-keyboard-response","148","579671","0.0-15.0-0.5","50057","List1B","white","woman","","","","null","","","","","","","","",""
"null","<img src=""stim_listB/look3.gif""style=""height:400px;""></stim_listB>","","html-keyboard-response","149","581675","0.0-15.0-1.5","50057","List1B","white","woman","","","","null","","","","","","","","",""
"null","is looking at","","html-keyboard-response","150","583685","0.0-15.0-2.5","50057","List1B","white","woman","","","","null","","","","","","","","",""
"3826.2000000476837","","","survey-text","151","587514","0.0-15.0-3.5","50057","List1B","white","woman","","","","","{""Q0"":""Luke is looking at Ruth""}","<img src=""stim_listB/look3.gif""style=""height:400px;""></stim_listB>","is looking at","","","","","",""
"null","<div style=""font-size:60px;"">+</div>","","html-keyboard-response","152","588020","0.0-15.0-0.6","50057","List1B","white","woman","","","","null","","","","","","","","",""
"null","<img src=""stim_listB/greet4.gif""style=""height:400px;""></stim_listB>","","html-keyboard-response","153","590036","0.0-15.0-1.6","50057","List1B","white","woman","","","","null","","","","","","","","",""
"null","is being greeted by","","html-keyboard-response","154","592053","0.0-15.0-2.6","50057","List1B","white","woman","","","","null","","","","","","","","",""
"5692.800000011921","","","survey-text","155","597748","0.0-15.0-3.6","50057","List1B","white","woman","","","","","{""Q0"":""Jane is being greeted by Luke""}","<img src=""stim_listB/greet4.gif""style=""height:400px;""></stim_listB>","is being greeted by","","","","","",""
"null","<div style=""font-size:60px;"">+</div>","","html-keyboard-response","156","598262","0.0-15.0-0.7","50057","List1B","white","woman","","","","null","","","","","","","","",""
"null","<img src=""stim_listB/copy1.gif""style=""height:400px;""></stim_listB>","","html-keyboard-response","157","600277","0.0-15.0-1.7","50057","List1B","white","woman","","","","null","","","","","","","","",""
"null","is copying","","html-keyboard-response","158","602280","0.0-15.0-2.7","50057","List1B","white","woman","","","","null","","","","","","","","",""
"3007","","","survey-text","159","605290","0.0-15.0-3.7","50057","List1B","white","woman","","","","","{""Q0"":""Beth is copying Mike""}","<img src=""stim_listB/copy1.gif""style=""height:400px;""></stim_listB>","is copying","","","","","",""
"null","<div style=""font-size:60px;"">+</div>","","html-keyboard-response","160","605798","0.0-15.0-0.8","50057","List1B","white","woman","","","","null","","","","","","","","",""
"null","<img src=""stim_listB/challenge4.gif""style=""height:400px;""></stim_listB>","","html-keyboard-response","161","607800","0.0-15.0-1.8","50057","List1B","white","woman","","","","null","","","","","","","","",""
"null","is being challenged by","","html-keyboard-response","162","609816","0.0-15.0-2.8","50057","List1B","white","woman","","","","null","","","","","","","","",""
"7417.800000011921","","","survey-text","163","617236","0.0-15.0-3.8","50057","List1B","white","woman","","","","","{""Q0"":""Luke is being challenged by Jane""}","<img src=""stim_listB/challenge4.gif""style=""height:400px;""></stim_listB>","is being challenged by","","","","","",""
"null","<div style=""font-size:60px;"">+</div>","","html-keyboard-response","164","617740","0.0-15.0-0.9","50057","List1B","white","woman","","","","null","","","","","","","","",""
"null","<img src=""stim_listB/hug8.gif""style=""height:400px;""></stim_listB>","","html-keyboard-response","165","619744","0.0-15.0-1.9","50057","List1B","white","woman","","","","null","","","","","","","","",""
"null","is being hugged by","","html-keyboard-response","166","621758","0.0-15.0-2.9","50057","List1B","white","woman","","","","null","","","","","","","","",""
"5456.599999964237","","","survey-text","167","627217","0.0-15.0-3.9","50057","List1B","white","woman","","","","","{""Q0"":""Kate is being hugged by Jane""}","<img src=""stim_listB/hug8.gif""style=""height:400px;""></stim_listB>","is being hugged by","","","","","",""
"null","<div style=""font-size:60px;"">+</div>","","html-keyboard-response","168","627720","0.0-15.0-0.10","50057","List1B","white","woman","","","","null","","","","","","","","",""
"null","<img src=""stim_listB/touch2.gif""style=""height:400px;""></stim_listB>","","html-keyboard-response","169","629737","0.0-15.0-1.10","50057","List1B","white","woman","","","","null","","","","","","","","",""
"null","is being touched by","","html-keyboard-response","170","631739","0.0-15.0-2.10","50057","List1B","white","woman","","","","null","","","","","","","","",""
"3872.400000035763","","","survey-text","171","635614","0.0-15.0-3.10","50057","List1B","white","woman","","","","","{""Q0"":""Beth is being touched by Fred""}","<img src=""stim_listB/touch2.gif""style=""height:400px;""></stim_listB>","is being touched by","","","","","",""
"null","<div style=""font-size:60px;"">+</div>","","html-keyboard-response","172","636130","0.0-15.0-0.11","50057","List1B","white","woman","","","","null","","","","","","","","",""
"null","<img src=""stim_listB/look5.gif""style=""height:400px;""></stim_listB>","","html-keyboard-response","173","638138","0.0-15.0-1.11","50057","List1B","white","woman","","","","null","","","","","","","","",""
"null","is looking at","","html-keyboard-response","174","640152","0.0-15.0-2.11","50057","List1B","white","woman","","","","null","","","","","","","","",""
"3231.399999976158","","","survey-text","175","643386","0.0-15.0-3.11","50057","List1B","white","woman","","","","","{""Q0"":""Fred is looking at LUke""}","<img src=""stim_listB/look5.gif""style=""height:400px;""></stim_listB>","is looking at","","","","","",""
"null","<div style=""font-size:60px;"">+</div>","","html-keyboard-response","176","643901","0.0-15.0-0.12","50057","List1B","white","woman","","","","null","","","","","","","","",""
"null","<img src=""stim_listB/kiss6.gif""style=""height:400px;""></stim_listB>","","html-keyboard-response","177","645916","0.0-15.0-1.12","50057","List1B","white","woman","","","","null","","","","","","","","",""
"null","is being kissed by","","html-keyboard-response","178","647921","0.0-15.0-2.12","50057","List1B","white","woman","","","","null","","","","","","","","",""
"5197.300000011921","","","survey-text","179","653121","0.0-15.0-3.12","50057","List1B","white","woman","","","","","{""Q0"":""Dave is being kissed by Mike""}","<img src=""stim_listB/kiss6.gif""style=""height:400px;""></stim_listB>","is being kissed by","","","","","",""
"null","<div style=""font-size:60px;"">+</div>","","html-keyboard-response","180","653630","0.0-15.0-0.13","50057","List1B","white","woman","","","","null","","","","","","","","",""
"null","<img src=""stim_listB/greet2.gif""style=""height:400px;""></stim_listB>","","html-keyboard-response","181","655633","0.0-15.0-1.13","50057","List1B","white","woman","","","","null","","","","","","","","",""
"null","is being greeted by","","html-keyboard-response","182","657635","0.0-15.0-2.13","50057","List1B","white","woman","","","","null","","","","","","","","",""
"6064.600000023842","","","survey-text","183","663703","0.0-15.0-3.13","50057","List1B","white","woman","","","","","{""Q0"":""Fred is being greeted by Kate""}","<img src=""stim_listB/greet2.gif""style=""height:400px;""></stim_listB>","is being greeted by","","","","","",""
"null","<div style=""font-size:60px;"">+</div>","","html-keyboard-response","184","664208","0.0-15.0-0.14","50057","List1B","white","woman","","","","null","","","","","","","","",""
"null","<img src=""stim_listB/copy7.gif""style=""height:400px;""></stim_listB>","","html-keyboard-response","185","666223","0.0-15.0-1.14","50057","List1B","white","woman","","","","null","","","","","","","","",""
"null","is copying","","html-keyboard-response","186","668237","0.0-15.0-2.14","50057","List1B","white","woman","","","","null","","","","","","","","",""
"2812.5","","","survey-text","187","671053","0.0-15.0-3.14","50057","List1B","white","woman","","","","","{""Q0"":""Kate is copying Ruth""}","<img src=""stim_listB/copy7.gif""style=""height:400px;""></stim_listB>","is copying","","","","","",""
"null","<div style=""font-size:60px;"">+</div>","","html-keyboard-response","188","671554","0.0-15.0-0.15","50057","List1B","white","woman","","","","null","","","","","","","","",""
"null","<img src=""stim_listB/greet3.gif""style=""height:400px;""></stim_listB>","","html-keyboard-response","189","673569","0.0-15.0-1.15","50057","List1B","white","woman","","","","null","","","","","","","","",""
"null","is greeting","","html-keyboard-response","190","675573","0.0-15.0-2.15","50057","List1B","white","woman","","","","null","","","","","","","","",""
"3053.100000023842","","","survey-text","191","678629","0.0-15.0-3.15","50057","List1B","white","woman","","","","","{""Q0"":""Ruth is greeting Dave""}","<img src=""stim_listB/greet3.gif""style=""height:400px;""></stim_listB>","is greeting","","","","","",""
"null","<div style=""font-size:60px;"">+</div>","","html-keyboard-response","192","679141","0.0-15.0-0.16","50057","List1B","white","woman","","","","null","","","","","","","","",""
"null","<img src=""stim_listB/hug3.gif""style=""height:400px;""></stim_listB>","","html-keyboard-response","193","681143","0.0-15.0-1.16","50057","List1B","white","woman","","","","null","","","","","","","","",""
"null","is hugging","","html-keyboard-response","194","683159","0.0-15.0-2.16","50057","List1B","white","woman","","","","null","","","","","","","","",""
"3627.399999976158","","","survey-text","195","686789","0.0-15.0-3.16","50057","List1B","white","woman","","","","","{""Q0"":""Ruth is hugging LUke""}","<img src=""stim_listB/hug3.gif""style=""height:400px;""></stim_listB>","is hugging","","","","","",""
"null","<div style=""font-size:60px;"">+</div>","","html-keyboard-response","196","687302","0.0-15.0-0.17","50057","List1B","white","woman","","","","null","","","","","","","","",""
"null","<img src=""stim_listB/challenge3.gif""style=""height:400px;""></stim_listB>","","html-keyboard-response","197","689307","0.0-15.0-1.17","50057","List1B","white","woman","","","","null","","","","","","","","",""
"null","is challenging","","html-keyboard-response","198","691312","0.0-15.0-2.17","50057","List1B","white","woman","","","","null","","","","","","","","",""
"3631","","","survey-text","199","694947","0.0-15.0-3.17","50057","List1B","white","woman","","","","","{""Q0"":""Dave is challenging ruth""}","<img src=""stim_listB/challenge3.gif""style=""height:400px;""></stim_listB>","is challenging","","","","","",""
"null","<div style=""font-size:60px;"">+</div>","","html-keyboard-response","200","695451","0.0-15.0-0.18","50057","List1B","white","woman","","","","null","","","","","","","","",""
"null","<img src=""stim_listB/look8.gif""style=""height:400px;""></stim_listB>","","html-keyboard-response","201","697462","0.0-15.0-1.18","50057","List1B","white","woman","","","","null","","","","","","","","",""
"null","is being looked at by","","html-keyboard-response","202","699475","0.0-15.0-2.18","50057","List1B","white","woman","","","","null","","","","","","","","",""
"4922.699999988079","","","survey-text","203","704401","0.0-15.0-3.18","50057","List1B","white","woman","","","","","{""Q0"":""jane is being looked at by kate""}","<img src=""stim_listB/look8.gif""style=""height:400px;""></stim_listB>","is being looked at by","","","","","",""
"null","<div style=""font-size:60px;"">+</div>","","html-keyboard-response","204","704917","0.0-15.0-0.19","50057","List1B","white","woman","","","","null","","","","","","","","",""
"null","<img src=""stim_listB/touch1.gif""style=""height:400px;""></stim_listB>","","html-keyboard-response","205","706929","0.0-15.0-1.19","50057","List1B","white","woman","","","","null","","","","","","","","",""
"null","is touching","","html-keyboard-response","206","708945","0.0-15.0-2.19","50057","List1B","white","woman","","","","null","","","","","","","","",""
"2656.899999976158","","","survey-text","207","711605","0.0-15.0-3.19","50057","List1B","white","woman","","","","","{""Q0"":""kate is touching mike""}","<img src=""stim_listB/touch1.gif""style=""height:400px;""></stim_listB>","is touching","","","","","",""
"3495.899999976158","<img src='img/portrait_matrix_list1.jpg' style='width:900px;height:500px;''></img><p>If you have memorised all the portraits and names and are ready to start, press Continue.</p><p><strong>Please note: Your memory of these faces will be tested 4 times during this experiment.</strong></p>","0","html-button-response","208","715102","0.0-16.0-0.0","50057","List1B","white","woman","","","","","","","","","","","","",""
"1849","<img src=""portrait/BW2.jpg""style=""height:400px;""></img>","2","html-button-response","209","717954","0.0-16.0-1.0","50057","List1B","white","woman","","true","2","","","","","","","","","",""
"null","CORRECT","","html-keyboard-response","210","719467","0.0-16.0-2.0-0.0","50057","List1B","white","woman","","","","null","","","","","","","","",""
"1832.300000011921","<img src=""portrait/BM1.jpg""style=""height:400px;""></img>","4","html-button-response","211","721300","0.0-16.0-4.0","50057","List1B","white","woman","","true","4","","","","","","","","","",""
"null","CORRECT","","html-keyboard-response","212","722814","0.0-16.0-5.0-0.0","50057","List1B","white","woman","","","","null","","","","","","","","",""
"2952.699999988079","<img src=""portrait/BW1.jpg""style=""height:400px;""></img>","0","html-button-response","213","725768","0.0-16.0-7.0","50057","List1B","white","woman","","true","0","","","","","","","","","",""
"null","CORRECT","","html-keyboard-response","214","727272","0.0-16.0-8.0-0.0","50057","List1B","white","woman","","","","null","","","","","","","","",""
"1573.9000000357628","<img src=""portrait/WM1.jpg""style=""height:400px;""></img>","6","html-button-response","215","728848","0.0-16.0-10.0","50057","List1B","white","woman","","true","6","","","","","","","","","",""
"null","CORRECT","","html-keyboard-response","216","730362","0.0-16.0-11.0-0.0","50057","List1B","white","woman","","","","null","","","","","","","","",""
"1563.5999999642372","<img src=""portrait/WM2.jpg""style=""height:400px;""></img>","7","html-button-response","217","731929","0.0-16.0-13.0","50057","List1B","white","woman","","true","7","","","","","","","","","",""
"null","CORRECT","","html-keyboard-response","218","733455","0.0-16.0-14.0-0.0","50057","List1B","white","woman","","","","null","","","","","","","","",""
"1463.199999988079","<img src=""portrait/BM2.jpg""style=""height:400px;""></img>","5","html-button-response","219","734921","0.0-16.0-16.0","50057","List1B","white","woman","","true","5","","","","","","","","","",""
"null","CORRECT","","html-keyboard-response","220","736430","0.0-16.0-17.0-0.0","50057","List1B","white","woman","","","","null","","","","","","","","",""
"2024.5999999642372","<img src=""portrait/WW1.jpg""style=""height:400px;""></img>","1","html-button-response","221","738457","0.0-16.0-19.0","50057","List1B","white","woman","","true","1","","","","","","","","","",""
"null","CORRECT","","html-keyboard-response","222","739962","0.0-16.0-20.0-0.0","50057","List1B","white","woman","","","","null","","","","","","","","",""
"2137.800000011921","<img src=""portrait/WW2.jpg""style=""height:400px;""></img>","3","html-button-response","223","742103","0.0-16.0-22.0","50057","List1B","white","woman","","true","3","","","","","","","","","",""
"null","CORRECT","","html-keyboard-response","224","743611","0.0-16.0-23.0-0.0","50057","List1B","white","woman","","","","null","","","","","","","","",""
"1378.8999999761581","<p>You got 8 out of 8 right first time. Press Continue.</p>","0","html-button-response","225","744992","0.0-16.0-25.0","50057","List1B","white","woman","","","","","","","","","","","","",""
"null","<div style=""font-size:60px;"">+</div>","","html-keyboard-response","226","746515","0.0-17.0-0.0","50057","List1B","white","woman","","","","null","","","","","","","","",""
"null","<img src=""stim_listB/oppose5.gif""style=""height:400px;""></stim_listB>","","html-keyboard-response","227","748518","0.0-17.0-1.0","50057","List1B","white","woman","","","","null","","","","","","","","",""
"null","is opposing","","html-keyboard-response","228","750529","0.0-17.0-2.0","50057","List1B","white","woman","","","","null","","","","","","","","",""
"3386.5","","","survey-text","229","753918","0.0-17.0-3.0","50057","List1B","white","woman","","","","","{""Q0"":""dave is opposing mike""}","<img src=""stim_listB/oppose5.gif""style=""height:400px;""></stim_listB>","is opposing","","","","","",""
"null","<div style=""font-size:60px;"">+</div>","","html-keyboard-response","230","754422","0.0-17.0-0.1","50057","List1B","white","woman","","","","null","","","","","","","","",""
"null","<img src=""stim_listB/kiss3.gif""style=""height:400px;""></stim_listB>","","html-keyboard-response","231","756425","0.0-17.0-1.1","50057","List1B","white","woman","","","","null","","","","","","","","",""
"null","is kissing","","html-keyboard-response","232","758434","0.0-17.0-2.1","50057","List1B","white","woman","","","","null","","","","","","","","",""
"4297.599999964237","","","survey-text","233","762735","0.0-17.0-3.1","50057","List1B","white","woman","","","","","{""Q0"":""ruth is kissing luke""}","<img src=""stim_listB/kiss3.gif""style=""height:400px;""></stim_listB>","is kissing","","","","","",""
"null","<div style=""font-size:60px;"">+</div>","","html-keyboard-response","234","763250","0.0-17.0-0.2","50057","List1B","white","woman","","","","null","","","","","","","","",""
"null","<img src=""stim_listB/shout7.gif""style=""height:400px;""></stim_listB>","","html-keyboard-response","235","765256","0.0-17.0-1.2","50057","List1B","white","woman","","","","null","","","","","","","","",""
"null","is shouting at","","html-keyboard-response","236","767272","0.0-17.0-2.2","50057","List1B","white","woman","","","","null","","","","","","","","",""
"4157.699999988079","","","survey-text","237","771432","0.0-17.0-3.2","50057","List1B","white","woman","","","","","{""Q0"":""beth is shouting at ruth""}","<img src=""stim_listB/shout7.gif""style=""height:400px;""></stim_listB>","is shouting at","","","","","",""
"null","<div style=""font-size:60px;"">+</div>","","html-keyboard-response","238","771941","0.0-17.0-0.3","50057","List1B","white","woman","","","","null","","","","","","","","",""
"null","<img src=""stim_listB/seduce4.gif""style=""height:400px;""></stim_listB>","","html-keyboard-response","239","773959","0.0-17.0-1.3","50057","List1B","white","woman","","","","null","","","","","","","","",""
"null","is being seduced by","","html-keyboard-response","240","775975","0.0-17.0-2.3","50057","List1B","white","woman","","","","null","","","","","","","","",""
"4140.699999988079","","","survey-text","241","780118","0.0-17.0-3.3","50057","List1B","white","woman","","","","","{""Q0"":""ruth is being seduced by dave""}","<img src=""stim_listB/seduce4.gif""style=""height:400px;""></stim_listB>","is being seduced by","","","","","",""
"null","<div style=""font-size:60px;"">+</div>","","html-keyboard-response","242","780629","0.0-17.0-0.4","50057","List1B","white","woman","","","","null","","","","","","","","",""
"null","<img src=""stim_listB/oppose1.gif""style=""height:400px;""></stim_listB>","","html-keyboard-response","243","782631","0.0-17.0-1.4","50057","List1B","white","woman","","","","null","","","","","","","","",""
"null","is opposing","","html-keyboard-response","244","784647","0.0-17.0-2.4","50057","List1B","white","woman","","","","null","","","","","","","","",""
"3492.800000011921","","","survey-text","245","788143","0.0-17.0-3.4","50057","List1B","white","woman","","","","","{""Q0"":""kate is opposing mike""}","<img src=""stim_listB/oppose1.gif""style=""height:400px;""></stim_listB>","is opposing","","","","","",""
"null","<div style=""font-size:60px;"">+</div>","","html-keyboard-response","246","788650","0.0-17.0-0.5","50057","List1B","white","woman","","","","null","","","","","","","","",""
"null","<img src=""stim_listB/greet6.gif""style=""height:400px;""></stim_listB>","","html-keyboard-response","247","790653","0.0-17.0-1.5","50057","List1B","white","woman","","","","null","","","","","","","","",""
"null","is being greeted by","","html-keyboard-response","248","792657","0.0-17.0-2.5","50057","List1B","white","woman","","","","null","","","","","","","","",""
"4279.300000011921","","","survey-text","249","796937","0.0-17.0-3.5","50057","List1B","white","woman","","","","","{""Q0"":""fred is being greeted by dave""}","<img src=""stim_listB/greet6.gif""style=""height:400px;""></stim_listB>","is being greeted by","","","","","",""
"null","<div style=""font-size:60px;"">+</div>","","html-keyboard-response","250","797447","0.0-17.0-0.6","50057","List1B","white","woman","","","","null","","","","","","","","",""
"null","<img src=""stim_listB/touch3.gif""style=""height:400px;""></stim_listB>","","html-keyboard-response","251","799450","0.0-17.0-1.6","50057","List1B","white","woman","","","","null","","","","","","","","",""
"null","is touching","","html-keyboard-response","252","801456","0.0-17.0-2.6","50057","List1B","white","woman","","","","null","","","","","","","","",""
"2476.800000011921","","","survey-text","253","803936","0.0-17.0-3.6","50057","List1B","white","woman","","","","","{""Q0"":""dave is touching jane""}","<img src=""stim_listB/touch3.gif""style=""height:400px;""></stim_listB>","is touching","","","","","",""
"null","<div style=""font-size:60px;"">+</div>","","html-keyboard-response","254","804440","0.0-17.0-0.7","50057","List1B","white","woman","","","","null","","","","","","","","",""
"null","<img src=""stim_listB/look7.gif""style=""height:400px;""></stim_listB>","","html-keyboard-response","255","806442","0.0-17.0-1.7","50057","List1B","white","woman","","","","null","","","","","","","","",""
"null","is looking at","","html-keyboard-response","256","808445","0.0-17.0-2.7","50057","List1B","white","woman","","","","null","","","","","","","","",""
"2879.699999988079","","","survey-text","257","811328","0.0-17.0-3.7","50057","List1B","white","woman","","","","","{""Q0"":""ruth is looking at beth""}","<img src=""stim_listB/look7.gif""style=""height:400px;""></stim_listB>","is looking at","","","","","",""
"null","<div style=""font-size:60px;"">+</div>","","html-keyboard-response","258","811835","0.0-17.0-0.8","50057","List1B","white","woman","","","","null","","","","","","","","",""
"null","<img src=""stim_listB/shout3.gif""style=""height:400px;""></stim_listB>","","html-keyboard-response","259","813840","0.0-17.0-1.8","50057","List1B","white","woman","","","","null","","","","","","","","",""
"null","is shouting at","","html-keyboard-response","260","815845","0.0-17.0-2.8","50057","List1B","white","woman","","","","null","","","","","","","","",""
"4860.099999964237","","","survey-text","261","820708","0.0-17.0-3.8","50057","List1B","white","woman","","","","","{""Q0"":""luke is shouting at ruth""}","<img src=""stim_listB/shout3.gif""style=""height:400px;""></stim_listB>","is shouting at","","","","","",""
"null","<div style=""font-size:60px;"">+</div>","","html-keyboard-response","262","821215","0.0-17.0-0.9","50057","List1B","white","woman","","","","null","","","","","","","","",""
"null","<img src=""stim_listB/shout8.gif""style=""height:400px;""></stim_listB>","","html-keyboard-response","263","823223","0.0-17.0-1.9","50057","List1B","white","woman","","","","null","","","","","","","","",""
"null","is being shouted at by","","html-keyboard-response","264","825229","0.0-17.0-2.9","50057","List1B","white","woman","","","","null","","","","","","","","",""
"4948.100000023842","","","survey-text","265","830180","0.0-17.0-3.9","50057","List1B","white","woman","","","","","{""Q0"":""jane is being shouted at by kate""}","<img src=""stim_listB/shout8.gif""style=""height:400px;""></stim_listB>","is being shouted at by","","","","","",""
"null","<div style=""font-size:60px;"">+</div>","","html-keyboard-response","266","830686","0.0-17.0-0.10","50057","List1B","white","woman","","","","null","","","","","","","","",""
"null","<img src=""stim_listB/challenge8.gif""style=""height:400px;""></stim_listB>","","html-keyboard-response","267","832690","0.0-17.0-1.10","50057","List1B","white","woman","","","","null","","","","","","","","",""
"null","is being challenged by","","html-keyboard-response","268","834705","0.0-17.0-2.10","50057","List1B","white","woman","","","","null","","","","","","","","",""
"4480.600000023842","","","survey-text","269","839189","0.0-17.0-3.10","50057","List1B","white","woman","","","","","{""Q0"":""beth is being challenged by jane""}","<img src=""stim_listB/challenge8.gif""style=""height:400px;""></stim_listB>","is being challenged by","","","","","",""
"null","<div style=""font-size:60px;"">+</div>","","html-keyboard-response","270","839705","0.0-17.0-0.11","50057","List1B","white","woman","","","","null","","","","","","","","",""
"null","<img src=""stim_listB/kiss2.gif""style=""height:400px;""></stim_listB>","","html-keyboard-response","271","841707","0.0-17.0-1.11","50057","List1B","white","woman","","","","null","","","","","","","","",""
"null","is being kissed by","","html-keyboard-response","272","843712","0.0-17.0-2.11","50057","List1B","white","woman","","","","null","","","","","","","","",""
"4388","","","survey-text","273","848102","0.0-17.0-3.11","50057","List1B","white","woman","","","","","{""Q0"":""kate is being kissed by mike""}","<img src=""stim_listB/kiss2.gif""style=""height:400px;""></stim_listB>","is being kissed by","","","","","",""
"null","<div style=""font-size:60px;"">+</div>","","html-keyboard-response","274","848612","0.0-17.0-0.12","50057","List1B","white","woman","","","","null","","","","","","","","",""
"null","<img src=""stim_listB/hug2.gif""style=""height:400px;""></stim_listB>","","html-keyboard-response","275","850616","0.0-17.0-1.12","50057","List1B","white","woman","","","","null","","","","","","","","",""
"null","is being hugged by","","html-keyboard-response","276","852624","0.0-17.0-2.12","50057","List1B","white","woman","","","","null","","","","","","","","",""
"4716.800000011921","","","survey-text","277","857342","0.0-17.0-3.12","50057","List1B","white","woman","","","","","{""Q0"":""mike is being hugged by kate""}","<img src=""stim_listB/hug2.gif""style=""height:400px;""></stim_listB>","is being hugged by","","","","","",""
"null","<div style=""font-size:60px;"">+</div>","","html-keyboard-response","278","857858","0.0-17.0-0.13","50057","List1B","white","woman","","","","null","","","","","","","","",""
"null","<img src=""stim_listB/shout6.gif""style=""height:400px;""></stim_listB>","","html-keyboard-response","279","859874","0.0-17.0-1.13","50057","List1B","white","woman","","","","null","","","","","","","","",""
"null","is being shouted at by","","html-keyboard-response","280","861878","0.0-17.0-2.13","50057","List1B","white","woman","","","","null","","","","","","","","",""
"5257","","","survey-text","281","867137","0.0-17.0-3.13","50057","List1B","white","woman","","","","","{""Q0"":""dave is being shouted at by mike""}","<img src=""stim_listB/shout6.gif""style=""height:400px;""></stim_listB>","is being shouted at by","","","","","",""
"null","<div style=""font-size:60px;"">+</div>","","html-keyboard-response","282","867645","0.0-17.0-0.14","50057","List1B","white","woman","","","","null","","","","","","","","",""
"null","<img src=""stim_listB/seduce8.gif""style=""height:400px;""></stim_listB>","","html-keyboard-response","283","869649","0.0-17.0-1.14","50057","List1B","white","woman","","","","null","","","","","","","","",""
"null","is being seduced by","","html-keyboard-response","284","871654","0.0-17.0-2.14","50057","List1B","white","woman","","","","null","","","","","","","","",""
"4783.199999988079","","","survey-text","285","876440","0.0-17.0-3.14","50057","List1B","white","woman","","","","","{""Q0"":""ruth is being seduced by kate""}","<img src=""stim_listB/seduce8.gif""style=""height:400px;""></stim_listB>","is being seduced by","","","","","",""
"null","<div style=""font-size:60px;"">+</div>","","html-keyboard-response","286","876943","0.0-17.0-0.15","50057","List1B","white","woman","","","","null","","","","","","","","",""
"null","<img src=""stim_listB/hug6.gif""style=""height:400px;""></stim_listB>","","html-keyboard-response","287","878959","0.0-17.0-1.15","50057","List1B","white","woman","","","","null","","","","","","","","",""
"null","is being hugged by","","html-keyboard-response","288","880965","0.0-17.0-2.15","50057","List1B","white","woman","","","","null","","","","","","","","",""
"4157.400000035763","","","survey-text","289","885125","0.0-17.0-3.15","50057","List1B","white","woman","","","","","{""Q0"":""dave is being hugged by mike""}","<img src=""stim_listB/hug6.gif""style=""height:400px;""></stim_listB>","is being hugged by","","","","","",""
"null","<div style=""font-size:60px;"">+</div>","","html-keyboard-response","290","885638","0.0-17.0-0.16","50057","List1B","white","woman","","","","null","","","","","","","","",""
"null","<img src=""stim_listB/hug1.gif""style=""height:400px;""></stim_listB>","","html-keyboard-response","291","887656","0.0-17.0-1.16","50057","List1B","white","woman","","","","null","","","","","","","","",""
"null","is hugging","","html-keyboard-response","292","889672","0.0-17.0-2.16","50057","List1B","white","woman","","","","null","","","","","","","","",""
"3020.699999988079","","","survey-text","293","892696","0.0-17.0-3.16","50057","List1B","white","woman","","","","","{""Q0"":""fred is hugging beth""}","<img src=""stim_listB/hug1.gif""style=""height:400px;""></stim_listB>","is hugging","","","","","",""
"null","<div style=""font-size:60px;"">+</div>","","html-keyboard-response","294","893206","0.0-17.0-0.17","50057","List1B","white","woman","","","","null","","","","","","","","",""
"null","<img src=""stim_listB/look6.gif""style=""height:400px;""></stim_listB>","","html-keyboard-response","295","895207","0.0-17.0-1.17","50057","List1B","white","woman","","","","null","","","","","","","","",""
"null","is being looked at by","","html-keyboard-response","296","897210","0.0-17.0-2.17","50057","List1B","white","woman","","","","null","","","","","","","","",""
"4483.599999964237","","","survey-text","297","901697","0.0-17.0-3.17","50057","List1B","white","woman","","","","","{""Q0"":""mike is being looked at by dave""}","<img src=""stim_listB/look6.gif""style=""height:400px;""></stim_listB>","is being looked at by","","","","","",""
"null","<div style=""font-size:60px;"">+</div>","","html-keyboard-response","298","902199","0.0-17.0-0.18","50057","List1B","white","woman","","","","null","","","","","","","","",""
"null","<img src=""stim_listB/copy4.gif""style=""height:400px;""></stim_listB>","","html-keyboard-response","299","904217","0.0-17.0-1.18","50057","List1B","white","woman","","","","null","","","","","","","","",""
"null","is being copied by","","html-keyboard-response","300","906221","0.0-17.0-2.18","50057","List1B","white","woman","","","","null","","","","","","","","",""
"4289.800000011921","","","survey-text","301","910514","0.0-17.0-3.18","50057","List1B","white","woman","","","","","{""Q0"":""jane is being copied by luke""}","<img src=""stim_listB/copy4.gif""style=""height:400px;""></stim_listB>","is being copied by","","","","","",""
"null","<div style=""font-size:60px;"">+</div>","","html-keyboard-response","302","911020","0.0-17.0-0.19","50057","List1B","white","woman","","","","null","","","","","","","","",""
"null","<img src=""stim_listB/hug7.gif""style=""height:400px;""></stim_listB>","","html-keyboard-response","303","913025","0.0-17.0-1.19","50057","List1B","white","woman","","","","null","","","","","","","","",""
"null","is hugging","","html-keyboard-response","304","915033","0.0-17.0-2.19","50057","List1B","white","woman","","","","null","","","","","","","","",""
"4163.699999988079","","","survey-text","305","919200","0.0-17.0-3.19","50057","List1B","white","woman","","","","","{""Q0"":""ruth is hugging beth""}","<img src=""stim_listB/hug7.gif""style=""height:400px;""></stim_listB>","is hugging","","","","","",""
"3050.2999999523163","<img src='img/portrait_matrix_list1.jpg' style='width:900px;height:500px;''></img><p>If you have memorised all the portraits and names and are ready to start, press Continue.</p><p><strong>Please note: Your memory of these faces will be tested 4 times during this experiment.</strong></p>","0","html-button-response","306","922252","0.0-18.0-0.0","50057","List1B","white","woman","","","","","","","","","","","","",""
"2202.7999999523163","<img src=""portrait/WM1.jpg""style=""height:400px;""></img>","6","html-button-response","307","925460","0.0-18.0-1.0","50057","List1B","white","woman","","true","6","","","","","","","","","",""
"null","CORRECT","","html-keyboard-response","308","926970","0.0-18.0-2.0-0.0","50057","List1B","white","woman","","","","null","","","","","","","","",""
"1537.800000011921","<img src=""portrait/BW2.jpg""style=""height:400px;""></img>","2","html-button-response","309","928510","0.0-18.0-4.0","50057","List1B","white","woman","","true","2","","","","","","","","","",""
"null","CORRECT","","html-keyboard-response","310","930021","0.0-18.0-5.0-0.0","50057","List1B","white","woman","","","","null","","","","","","","","",""
"1328.7999999523163","<img src=""portrait/BM1.jpg""style=""height:400px;""></img>","4","html-button-response","311","931352","0.0-18.0-7.0","50057","List1B","white","woman","","true","4","","","","","","","","","",""
"null","CORRECT","","html-keyboard-response","312","932884","0.0-18.0-8.0-0.0","50057","List1B","white","woman","","","","null","","","","","","","","",""
"1687.5","<img src=""portrait/WM2.jpg""style=""height:400px;""></img>","7","html-button-response","313","934576","0.0-18.0-10.0","50057","List1B","white","woman","","true","7","","","","","","","","","",""
"null","CORRECT","","html-keyboard-response","314","936080","0.0-18.0-11.0-0.0","50057","List1B","white","woman","","","","null","","","","","","","","",""
"3306","<img src=""portrait/BW1.jpg""style=""height:400px;""></img>","0","html-button-response","315","939388","0.0-18.0-13.0","50057","List1B","white","woman","","true","0","","","","","","","","","",""
"null","CORRECT","","html-keyboard-response","316","940896","0.0-18.0-14.0-0.0","50057","List1B","white","woman","","","","null","","","","","","","","",""
"1324.699999988079","<img src=""portrait/WW2.jpg""style=""height:400px;""></img>","3","html-button-response","317","942222","0.0-18.0-16.0","50057","List1B","white","woman","","true","3","","","","","","","","","",""
"null","CORRECT","","html-keyboard-response","318","943743","0.0-18.0-17.0-0.0","50057","List1B","white","woman","","","","null","","","","","","","","",""
"2078.5","<img src=""portrait/BM2.jpg""style=""height:400px;""></img>","5","html-button-response","319","945823","0.0-18.0-19.0","50057","List1B","white","woman","","true","5","","","","","","","","","",""
"null","CORRECT","","html-keyboard-response","320","947351","0.0-18.0-20.0-0.0","50057","List1B","white","woman","","","","null","","","","","","","","",""
"1599.199999988079","<img src=""portrait/WW1.jpg""style=""height:400px;""></img>","1","html-button-response","321","948952","0.0-18.0-22.0","50057","List1B","white","woman","","true","1","","","","","","","","","",""
"null","CORRECT","","html-keyboard-response","322","950458","0.0-18.0-23.0-0.0","50057","List1B","white","woman","","","","null","","","","","","","","",""
"1155.800000011921","<p>You got 8 out of 8 right first time. Press Continue.</p>","0","html-button-response","323","951616","0.0-18.0-25.0","50057","List1B","white","woman","","","","","","","","","","","","",""
"null","<div style=""font-size:60px;"">+</div>","","html-keyboard-response","324","953124","0.0-19.0-0.0","50057","List1B","white","woman","","","","null","","","","","","","","",""
"null","<img src=""stim_listB/copy8.gif""style=""height:400px;""></stim_listB>","","html-keyboard-response","325","955142","0.0-19.0-1.0","50057","List1B","white","woman","","","","null","","","","","","","","",""
"null","is being copied by","","html-keyboard-response","326","957157","0.0-19.0-2.0","50057","List1B","white","woman","","","","null","","","","","","","","",""
"4329.599999964237","","","survey-text","327","961490","0.0-19.0-3.0","50057","List1B","white","woman","","","","","{""Q0"":""jane is being copied by beth""}","<img src=""stim_listB/copy8.gif""style=""height:400px;""></stim_listB>","is being copied by","","","","","",""
"null","<div style=""font-size:60px;"">+</div>","","html-keyboard-response","328","961992","0.0-19.0-0.1","50057","List1B","white","woman","","","","null","","","","","","","","",""
"null","<img src=""stim_listB/hug4.gif""style=""height:400px;""></stim_listB>","","html-keyboard-response","329","963994","0.0-19.0-1.1","50057","List1B","white","woman","","","","null","","","","","","","","",""
"null","is being hugged by","","html-keyboard-response","330","966009","0.0-19.0-2.1","50057","List1B","white","woman","","","","null","","","","","","","","",""
"3474.5","","","survey-text","331","969486","0.0-19.0-3.1","50057","List1B","white","woman","","","","","{""Q0"":""jane is being hugged by dave""}","<img src=""stim_listB/hug4.gif""style=""height:400px;""></stim_listB>","is being hugged by","","","","","",""
"null","<div style=""font-size:60px;"">+</div>","","html-keyboard-response","332","969992","0.0-19.0-0.2","50057","List1B","white","woman","","","","null","","","","","","","","",""
"null","<img src=""stim_listB/shout2.gif""style=""height:400px;""></stim_listB>","","html-keyboard-response","333","971994","0.0-19.0-1.2","50057","List1B","white","woman","","","","null","","","","","","","","",""
"null","is being shouted at by","","html-keyboard-response","334","973997","0.0-19.0-2.2","50057","List1B","white","woman","","","","null","","","","","","","","",""
"4199.5","","","survey-text","335","978199","0.0-19.0-3.2","50057","List1B","white","woman","","","","","{""Q0"":""mike is being shouted at by kate""}","<img src=""stim_listB/shout2.gif""style=""height:400px;""></stim_listB>","is being shouted at by","","","","","",""
"null","<div style=""font-size:60px;"">+</div>","","html-keyboard-response","336","978705","0.0-19.0-0.3","50057","List1B","white","woman","","","","null","","","","","","","","",""
"null","<img src=""stim_listB/kiss5.gif""style=""height:400px;""></stim_listB>","","html-keyboard-response","337","980723","0.0-19.0-1.3","50057","List1B","white","woman","","","","null","","","","","","","","",""
"null","is kissing","","html-keyboard-response","338","982724","0.0-19.0-2.3","50057","List1B","white","woman","","","","null","","","","","","","","",""
"2835.400000035763","","","survey-text","339","985561","0.0-19.0-3.3","50057","List1B","white","woman","","","","","{""Q0"":""fred is kissing luke""}","<img src=""stim_listB/kiss5.gif""style=""height:400px;""></stim_listB>","is kissing","","","","","",""
"null","<div style=""font-size:60px;"">+</div>","","html-keyboard-response","340","986068","0.0-19.0-0.4","50057","List1B","white","woman","","","","null","","","","","","","","",""
"null","<img src=""stim_listB/seduce3.gif""style=""height:400px;""></stim_listB>","","html-keyboard-response","341","988086","0.0-19.0-1.4","50057","List1B","white","woman","","","","null","","","","","","","","",""
"null","is seducing","","html-keyboard-response","342","990100","0.0-19.0-2.4","50057","List1B","white","woman","","","","null","","","","","","","","",""
"3520.300000011921","","","survey-text","343","993624","0.0-19.0-3.4","50057","List1B","white","woman","","","","","{""Q0"":""luke is seducing jane""}","<img src=""stim_listB/seduce3.gif""style=""height:400px;""></stim_listB>","is seducing","","","","","",""
"null","<div style=""font-size:60px;"">+</div>","","html-keyboard-response","344","994137","0.0-19.0-0.5","50057","List1B","white","woman","","","","null","","","","","","","","",""
"null","<img src=""stim_listB/oppose6.gif""style=""height:400px;""></stim_listB>","","html-keyboard-response","345","996154","0.0-19.0-1.5","50057","List1B","white","woman","","","","null","","","","","","","","",""
"null","is being opposed by","","html-keyboard-response","346","998156","0.0-19.0-2.5","50057","List1B","white","woman","","","","null","","","","","","","","",""
"5431.399999976158","","","survey-text","347","1003589","0.0-19.0-3.5","50057","List1B","white","woman","","","","","{""Q0"":""luke is being opposed by fred""}","<img src=""stim_listB/oppose6.gif""style=""height:400px;""></stim_listB>","is being opposed by","","","","","",""
"null","<div style=""font-size:60px;"">+</div>","","html-keyboard-response","348","1004090","0.0-19.0-0.6","50057","List1B","white","woman","","","","null","","","","","","","","",""
"null","<img src=""stim_listB/kiss7.gif""style=""height:400px;""></stim_listB>","","html-keyboard-response","349","1006093","0.0-19.0-1.6","50057","List1B","white","woman","","","","null","","","","","","","","",""
"null","is kissing","","html-keyboard-response","350","1008096","0.0-19.0-2.6","50057","List1B","white","woman","","","","null","","","","","","","","",""
"2410.800000011921","","","survey-text","351","1010509","0.0-19.0-3.6","50057","List1B","white","woman","","","","","{""Q0"":""ruth is kissing beth""}","<img src=""stim_listB/kiss7.gif""style=""height:400px;""></stim_listB>","is kissing","","","","","",""
"null","<div style=""font-size:60px;"">+</div>","","html-keyboard-response","352","1011020","0.0-19.0-0.7","50057","List1B","white","woman","","","","null","","","","","","","","",""
"null","<img src=""stim_listB/oppose2.gif""style=""height:400px;""></stim_listB>","","html-keyboard-response","353","1013033","0.0-19.0-1.7","50057","List1B","white","woman","","","","null","","","","","","","","",""
"null","is being opposed by","","html-keyboard-response","354","1015036","0.0-19.0-2.7","50057","List1B","white","woman","","","","null","","","","","","","","",""
"4152.5","","","survey-text","355","1019191","0.0-19.0-3.7","50057","List1B","white","woman","","","","","{""Q0"":""beth is being opposed by fred""}","<img src=""stim_listB/oppose2.gif""style=""height:400px;""></stim_listB>","is being opposed by","","","","","",""
"null","<div style=""font-size:60px;"">+</div>","","html-keyboard-response","356","1019708","0.0-19.0-0.8","50057","List1B","white","woman","","","","null","","","","","","","","",""
"null","<img src=""stim_listB/challenge7.gif""style=""height:400px;""></stim_listB>","","html-keyboard-response","357","1021711","0.0-19.0-1.8","50057","List1B","white","woman","","","","null","","","","","","","","",""
"null","is challenging","","html-keyboard-response","358","1023727","0.0-19.0-2.8","50057","List1B","white","woman","","","","null","","","","","","","","",""
"3234.699999988079","","","survey-text","359","1026965","0.0-19.0-3.8","50057","List1B","white","woman","","","","","{""Q0"":""kate is challenging ruth""}","<img src=""stim_listB/challenge7.gif""style=""height:400px;""></stim_listB>","is challenging","","","","","",""
"null","<div style=""font-size:60px;"">+</div>","","html-keyboard-response","360","1027478","0.0-19.0-0.9","50057","List1B","white","woman","","","","null","","","","","","","","",""
"null","<img src=""stim_listB/seduce6.gif""style=""height:400px;""></stim_listB>","","html-keyboard-response","361","1029481","0.0-19.0-1.9","50057","List1B","white","woman","","","","null","","","","","","","","",""
"null","is being seduced by","","html-keyboard-response","362","1031498","0.0-19.0-2.9","50057","List1B","white","woman","","","","null","","","","","","","","",""
"4716.100000023842","","","survey-text","363","1036217","0.0-19.0-3.9","50057","List1B","white","woman","","","","","{""Q0"":""mike is being seduced by luke""}","<img src=""stim_listB/seduce6.gif""style=""height:400px;""></stim_listB>","is being seduced by","","","","","",""
"null","<div style=""font-size:60px;"">+</div>","","html-keyboard-response","364","1036725","0.0-19.0-0.10","50057","List1B","white","woman","","","","null","","","","","","","","",""
"null","<img src=""stim_listB/shout5.gif""style=""height:400px;""></stim_listB>","","html-keyboard-response","365","1038729","0.0-19.0-1.10","50057","List1B","white","woman","","","","null","","","","","","","","",""
"null","is shouting at","","html-keyboard-response","366","1040746","0.0-19.0-2.10","50057","List1B","white","woman","","","","null","","","","","","","","",""
"3736.899999976158","","","survey-text","367","1044486","0.0-19.0-3.10","50057","List1B","white","woman","","","","","{""Q0"":""luke is shouting at fred""}","<img src=""stim_listB/shout5.gif""style=""height:400px;""></stim_listB>","is shouting at","","","","","",""
"null","<div style=""font-size:60px;"">+</div>","","html-keyboard-response","368","1044995","0.0-19.0-0.11","50057","List1B","white","woman","","","","null","","","","","","","","",""
"null","<img src=""stim_listB/hug5.gif""style=""height:400px;""></stim_listB>","","html-keyboard-response","369","1047011","0.0-19.0-1.11","50057","List1B","white","woman","","","","null","","","","","","","","",""
"null","is hugging","","html-keyboard-response","370","1049018","0.0-19.0-2.11","50057","List1B","white","woman","","","","null","","","","","","","","",""
"3188.400000035763","","","survey-text","371","1052210","0.0-19.0-3.11","50057","List1B","white","woman","","","","","{""Q0"":""luke is hugging fred""}","<img src=""stim_listB/hug5.gif""style=""height:400px;""></stim_listB>","is hugging","","","","","",""
"null","<div style=""font-size:60px;"">+</div>","","html-keyboard-response","372","1052718","0.0-19.0-0.12","50057","List1B","white","woman","","","","null","","","","","","","","",""
"null","<img src=""stim_listB/touch8.gif""style=""height:400px;""></stim_listB>","","html-keyboard-response","373","1054731","0.0-19.0-1.12","50057","List1B","white","woman","","","","null","","","","","","","","",""
"null","is being touched by","","html-keyboard-response","374","1056736","0.0-19.0-2.12","50057","List1B","white","woman","","","","null","","","","","","","","",""
"4330.100000023842","","","survey-text","375","1061069","0.0-19.0-3.12","50057","List1B","white","woman","","","","","{""Q0"":""ruth is being touched by beth""}","<img src=""stim_listB/touch8.gif""style=""height:400px;""></stim_listB>","is being touched by","","","","","",""
"null","<div style=""font-size:60px;"">+</div>","","html-keyboard-response","376","1061574","0.0-19.0-0.13","50057","List1B","white","woman","","","","null","","","","","","","","",""
"null","<img src=""stim_listB/look1.gif""style=""height:400px;""></stim_listB>","","html-keyboard-response","377","1063577","0.0-19.0-1.13","50057","List1B","white","woman","","","","null","","","","","","","","",""
"null","is looking at","","html-keyboard-response","378","1065583","0.0-19.0-2.13","50057","List1B","white","woman","","","","null","","","","","","","","",""
"2966.399999976158","","","survey-text","379","1068553","0.0-19.0-3.13","50057","List1B","white","woman","","","","","{""Q0"":""beth is looking at fred""}","<img src=""stim_listB/look1.gif""style=""height:400px;""></stim_listB>","is looking at","","","","","",""
"null","<div style=""font-size:60px;"">+</div>","","html-keyboard-response","380","1069062","0.0-19.0-0.14","50057","List1B","white","woman","","","","null","","","","","","","","",""
"null","<img src=""stim_listB/look4.gif""style=""height:400px;""></stim_listB>","","html-keyboard-response","381","1071076","0.0-19.0-1.14","50057","List1B","white","woman","","","","null","","","","","","","","",""
"null","is being looked at by","","html-keyboard-response","382","1073083","0.0-19.0-2.14","50057","List1B","white","woman","","","","null","","","","","","","","",""
"5600.899999976158","","","survey-text","383","1078687","0.0-19.0-3.14","50057","List1B","white","woman","","","","","{""Q0"":""dave is being looked at by jane""}","<img src=""stim_listB/look4.gif""style=""height:400px;""></stim_listB>","is being looked at by","","","","","",""
"null","<div style=""font-size:60px;"">+</div>","","html-keyboard-response","384","1079199","0.0-19.0-0.15","50057","List1B","white","woman","","","","null","","","","","","","","",""
"null","<img src=""stim_listB/greet8.gif""style=""height:400px;""></stim_listB>","","html-keyboard-response","385","1081211","0.0-19.0-1.15","50057","List1B","white","woman","","","","null","","","","","","","","",""
"null","is being greeted by","","html-keyboard-response","386","1083218","0.0-19.0-2.15","50057","List1B","white","woman","","","","null","","","","","","","","",""
"4066.100000023842","","","survey-text","387","1087286","0.0-19.0-3.15","50057","List1B","white","woman","","","","","{""Q0"":""beth is being greeted by jane""}","<img src=""stim_listB/greet8.gif""style=""height:400px;""></stim_listB>","is being greeted by","","","","","",""
"null","<div style=""font-size:60px;"">+</div>","","html-keyboard-response","388","1087791","0.0-19.0-0.16","50057","List1B","white","woman","","","","null","","","","","","","","",""
"null","<img src=""stim_listB/copy3.gif""style=""height:400px;""></stim_listB>","","html-keyboard-response","389","1089795","0.0-19.0-1.16","50057","List1B","white","woman","","","","null","","","","","","","","",""
"null","is copying","","html-keyboard-response","390","1091808","0.0-19.0-2.16","50057","List1B","white","woman","","","","null","","","","","","","","",""
"2576.900000035763","","","survey-text","391","1094389","0.0-19.0-3.16","50057","List1B","white","woman","","","","","{""Q0"":""ruth is copying dave""}","<img src=""stim_listB/copy3.gif""style=""height:400px;""></stim_listB>","is copying","","","","","",""
"null","<div style=""font-size:60px;"">+</div>","","html-keyboard-response","392","1094900","0.0-19.0-0.17","50057","List1B","white","woman","","","","null","","","","","","","","",""
"null","<img src=""stim_listB/copy6.gif""style=""height:400px;""></stim_listB>","","html-keyboard-response","393","1096916","0.0-19.0-1.17","50057","List1B","white","woman","","","","null","","","","","","","","",""
"null","is being copied by","","html-keyboard-response","394","1098932","0.0-19.0-2.17","50057","List1B","white","woman","","","","null","","","","","","","","",""
"5028.800000011921","","","survey-text","395","1103964","0.0-19.0-3.17","50057","List1B","white","woman","","","","","{""Q0"":""fred is being copied by dave""}","<img src=""stim_listB/copy6.gif""style=""height:400px;""></stim_listB>","is being copied by","","","","","",""
"null","<div style=""font-size:60px;"">+</div>","","html-keyboard-response","396","1104471","0.0-19.0-0.18","50057","List1B","white","woman","","","","null","","","","","","","","",""
"null","<img src=""stim_listB/greet1.gif""style=""height:400px;""></stim_listB>","","html-keyboard-response","397","1106474","0.0-19.0-1.18","50057","List1B","white","woman","","","","null","","","","","","","","",""
"null","is greeting","","html-keyboard-response","398","1108483","0.0-19.0-2.18","50057","List1B","white","woman","","","","null","","","","","","","","",""
"3218","","","survey-text","399","1111704","0.0-19.0-3.18","50057","List1B","white","woman","","","","","{""Q0"":""beth is greeting mike""}","<img src=""stim_listB/greet1.gif""style=""height:400px;""></stim_listB>","is greeting","","","","","",""
"null","<div style=""font-size:60px;"">+</div>","","html-keyboard-response","400","1112219","0.0-19.0-0.19","50057","List1B","white","woman","","","","null","","","","","","","","",""
"null","<img src=""stim_listB/kiss1.gif""style=""height:400px;""></stim_listB>","","html-keyboard-response","401","1114222","0.0-19.0-1.19","50057","List1B","white","woman","","","","null","","","","","","","","",""
"null","is kissing","","html-keyboard-response","402","1116229","0.0-19.0-2.19","50057","List1B","white","woman","","","","null","","","","","","","","",""
"2469","","","survey-text","403","1118701","0.0-19.0-3.19","50057","List1B","white","woman","","","","","{""Q0"":""beth is kissing fred""}","<img src=""stim_listB/kiss1.gif""style=""height:400px;""></stim_listB>","is kissing","","","","","",""
"2557.400000035763","<p>Thank you for completing that task.</p><p>The final part of this session is a questionnaire that will take about 4 minutes.</p><p>Press Continue.</p>","0","html-button-response","404","1121260","0.0-20.0","50057","List1B","white","woman","","","","","","","","","","","","",""
"52571.09999996424","","","survey-text","405","1174850","0.0-21.0","50057","List1B","white","woman","","","","","{""Q0"":""36"",""Q1"":""English"",""Q2"":""English"",""Q3"":""United States"",""Q4"":""American"",""Q5"":""caucasian"",""Q6"":""female""}","","","demographics","","","","",""
"2306.7000000476837","<p>Have you lived in the USA for the last 5 years or more?</p>","0","html-button-response","406","1177160","0.0-22.0","50057","List1B","white","woman","","","","","","","","fiveyears","","","","",""
"2252","<p>Move the slider to show the extent to which you agree with the following statements.</p>","0","html-button-response","407","1180416","0.0-23.0","50057","List1B","white","woman","","","","","","","","","","","","",""
"6988.100000023842","","","html-slider-response","408","1188448","0.0-24.0-0.0-0.0","50057","List1B","white","woman","","","","","","","","survey_gender","33","","","People of my gender are very similar to each other.","verysimilar"
"3416","","","html-slider-response","409","1191866","0.0-24.0-0.0-0.1","50057","List1B","white","woman","","","","","","","","survey_gender","82","","","I am glad to have the friends that I have.","filler"
"6098","","","html-slider-response","410","1197966","0.0-24.0-0.0-0.2","50057","List1B","white","woman","","","","","","","","survey_gender","38","","","It is not always easy for people to know what I am thinking.","filler"
"3338.099999964237","","","html-slider-response","411","1201306","0.0-24.0-0.0-0.3","50057","List1B","white","woman","","","","","","","","survey_gender","89","","","I have a lot in common with the average person of my gender.","average"
"6716.300000011921","","","html-slider-response","412","1208023","0.0-24.0-0.0-0.4","50057","List1B","white","woman","","","","","","","","survey_gender","50","","","Family is not more important to me than friendship.","filler"
"2434.199999988079","","","html-slider-response","413","1210459","0.0-24.0-0.0-0.5","50057","List1B","white","woman","","","","","","","","survey_gender","69","","","I feel solidarity with my friends.","filler"
"3497","","","html-slider-response","414","1213957","0.0-24.0-0.0-0.6","50057","List1B","white","woman","","","","","","","","survey_gender","99","","","Being around my friends gives me a good feeling.","filler"
"2962.800000011921","","","html-slider-response","415","1216922","0.0-24.0-0.0-0.7","50057","List1B","white","woman","","","","","","","","survey_gender","80","","","My friends have a lot in common with each other.","filler"
"3124.599999964237","","","html-slider-response","416","1220047","0.0-24.0-0.0-0.8","50057","List1B","white","woman","","","","","","","","survey_gender","92","","","Being my gender is an important part of how I see myself.","important"
"2406.699999988079","","","html-slider-response","417","1222455","0.0-24.0-0.0-0.9","50057","List1B","white","woman","","","","","","","","survey_gender","95","","","I feel a bond with my friends.","filler"
"2777","","","html-slider-response","418","1225233","0.0-24.0-0.0-0.10","50057","List1B","white","woman","","","","","","","","survey_gender","100","","","I consider myself a highly empathetic person.","filler"
"2913.900000035763","","","html-slider-response","419","1228149","0.0-24.0-0.0-0.11","50057","List1B","white","woman","","","","","","","","survey_gender","75","","","I feel solidarity with my gender.","solidarity"
"7117.300000011921","","","html-slider-response","420","1235267","0.0-24.0-0.0-0.12","50057","List1B","white","woman","","","","","","","","survey_gender","83","","","I am similar to the average person of my gender.","similar"
"3122.099999964237","","","html-slider-response","421","1238391","0.0-24.0-0.0-0.13","50057","List1B","white","woman","","","","","","","","survey_gender","97","","","I often think about my actions.","filler"
"3330.800000011921","","","html-slider-response","422","1241724","0.0-24.0-0.0-0.14","50057","List1B","white","woman","","","","","","","","survey_gender","100","","","I feel committed to my gender.","committed"
"3504","","","html-slider-response","423","1245229","0.0-24.0-0.0-0.15","50057","List1B","white","woman","","","","","","","","survey_gender","26","","","Routine is not important to me.","filler"
"2212","","","html-slider-response","424","1247443","0.0-24.0-0.0-0.16","50057","List1B","white","woman","","","","","","","","survey_gender","75","","","I feel a bond with my gender.","bond"
"3808","","","html-slider-response","425","1251252","0.0-24.0-0.0-0.17","50057","List1B","white","woman","","","","","","","","survey_gender","91","","","I am glad to be my gender.","glad"
"3463","","","html-slider-response","426","1254717","0.0-24.0-0.0-0.18","50057","List1B","white","woman","","","","","","","","survey_gender","28","","","I often think about the fact that I am my gender.","often"
"2393.300000011921","","","html-slider-response","427","1257111","0.0-24.0-0.0-0.19","50057","List1B","white","woman","","","","","","","","survey_gender","91","","","It is pleasant to be my gender.","pleasant"
"4306.099999964237","","","html-slider-response","428","1261419","0.0-24.0-0.0-0.20","50057","List1B","white","woman","","","","","","","","survey_gender","100","","","I think that my gender has a lot to be proud of.","proud"
"3670.5","","","html-slider-response","429","1265091","0.0-24.0-0.0-0.21","50057","List1B","white","woman","","","","","","","","survey_gender","78","","","My friends understand me.","filler"
"2642.100000023842","","","html-slider-response","430","1267735","0.0-24.0-0.0-0.22","50057","List1B","white","woman","","","","","","","","survey_gender","91","","","I would say I am an animal person.","filler"
"2762.5","","","html-slider-response","431","1270499","0.0-24.0-0.0-0.23","50057","List1B","white","woman","","","","","","","","survey_gender","77","","","I have a lot in common with my friends.","filler"
"4031.900000035763","","","html-slider-response","432","1274532","0.0-24.0-0.0-0.24","50057","List1B","white","woman","","","","","","","","survey_gender","81","","","Most of the friends in my life are very similar to me.","filler"
"3259.800000011921","","","html-slider-response","433","1277793","0.0-24.0-0.0-0.25","50057","List1B","white","woman","","","","","","","","survey_gender","84","","","The fact that I am my gender is an important part of my identity.","identity"
"3644.300000011921","","","html-slider-response","434","1281439","0.0-24.0-0.0-0.26","50057","List1B","white","woman","","","","","","","","survey_gender","86","","","Being my gender gives me a good feeling.","feeling"
"2972.199999988079","","","html-slider-response","435","1284413","0.0-24.0-0.0-0.27","50057","List1B","white","woman","","","","","","","","survey_gender","71","","","People of my gender have a lot in common with each other.","common"
"10233.199999988079","","","html-slider-response","436","1294647","0.0-24.0-1.0-0.0","50057","List1B","white","woman","","","","","","","","survey_race","32","","","I feel solidarity with my race.","solidarity"
"3835.699999988079","","","html-slider-response","437","1298485","0.0-24.0-1.0-0.1","50057","List1B","white","woman","","","","","","","","survey_race","93","","","I am glad to be my age.","filler"
"2841","","","html-slider-response","438","1301327","0.0-24.0-1.0-0.2","50057","List1B","white","woman","","","","","","","","survey_race","94","","","I feel solidarity with people the same age as me.","filler"
"2387.100000023842","","","html-slider-response","439","1303715","0.0-24.0-1.0-0.3","50057","List1B","white","woman","","","","","","","","survey_race","92","","","I am glad to be the age I am.","filler"
"3552.7000000476837","","","html-slider-response","440","1307269","0.0-24.0-1.0-0.4","50057","List1B","white","woman","","","","","","","","survey_race","36","","","I feel committed to my race.","committed"
"4124.100000023842","","","html-slider-response","441","1311395","0.0-24.0-1.0-0.5","50057","List1B","white","woman","","","","","","","","survey_race","13","","","I think that my race has a lot to be proud of.","proud"
"3499.800000011921","","","html-slider-response","442","1314897","0.0-24.0-1.0-0.6","50057","List1B","white","woman","","","","","","","","survey_race","80","","","Getting older does not worry me.","filler"
"4166.800000011921","","","html-slider-response","443","1319065","0.0-24.0-1.0-0.7","50057","List1B","white","woman","","","","","","","","survey_race","44","","","I consider myself an extrovert.","filler"
"3428.199999988079","","","html-slider-response","444","1322495","0.0-24.0-1.0-0.8","50057","List1B","white","woman","","","","","","","","survey_race","47","","","Being my race gives me a good feeling.","feeling"
"2424.699999988079","","","html-slider-response","445","1324921","0.0-24.0-1.0-0.9","50057","List1B","white","woman","","","","","","","","survey_race","52","","","I feel a bond with people the same age as me.","filler"
"2624.300000011921","","","html-slider-response","446","1327547","0.0-24.0-1.0-0.10","50057","List1B","white","woman","","","","","","","","survey_race","66","","","People of my race are very similar to each other.","verysimilar"
"2434.900000035763","","","html-slider-response","447","1329984","0.0-24.0-1.0-0.11","50057","List1B","white","woman","","","","","","","","survey_race","45","","","I enjoy being in large groups.","filler"
"2456.699999988079","","","html-slider-response","448","1332441","0.0-24.0-1.0-0.12","50057","List1B","white","woman","","","","","","","","survey_race","45","","","I am glad to be my race.","glad"
"3210.5","","","html-slider-response","449","1335653","0.0-24.0-1.0-0.13","50057","List1B","white","woman","","","","","","","","survey_race","19","","","I feel a bond with my race.","bond"
"6532.400000035763","","","html-slider-response","450","1342188","0.0-24.0-1.0-0.14","50057","List1B","white","woman","","","","","","","","survey_race","75","","","My age is not an important part of who I am.","filler"
"3303.899999976158","","","html-slider-response","451","1345494","0.0-24.0-1.0-0.15","50057","List1B","white","woman","","","","","","","","survey_race","11","","","I often think about the fact that I am my race.","often"
"3302.199999988079","","","html-slider-response","452","1348798","0.0-24.0-1.0-0.16","50057","List1B","white","woman","","","","","","","","survey_race","49","","","I consider myself an introvert.","filler"
"4727.900000035763","","","html-slider-response","453","1353527","0.0-24.0-1.0-0.17","50057","List1B","white","woman","","","","","","","","survey_race","72","","","I am similar to the average person of my race.","similar"
"5770.600000023842","","","html-slider-response","454","1359299","0.0-24.0-1.0-0.18","50057","List1B","white","woman","","","","","","","","survey_race","62","","","The older I get, the wiser I feel.","filler"
"2578.5","","","html-slider-response","455","1361879","0.0-24.0-1.0-0.19","50057","List1B","white","woman","","","","","","","","survey_race","58","","","People of my race have a lot in common with each other.","common"
"2750.899999976158","","","html-slider-response","456","1364631","0.0-24.0-1.0-0.20","50057","List1B","white","woman","","","","","","","","survey_race","69","","","Being my age gives me a good feeling.","filler"
"3380.699999988079","","","html-slider-response","457","1368013","0.0-24.0-1.0-0.21","50057","List1B","white","woman","","","","","","","","survey_race","66","","","I have a lot in common with the average person of my race.","average"
"3100","","","html-slider-response","458","1371115","0.0-24.0-1.0-0.22","50057","List1B","white","woman","","","","","","","","survey_race","2","","","The fact that I am my race is an important part of my identity.","identity"
"4857.600000023842","","","html-slider-response","459","1375973","0.0-24.0-1.0-0.23","50057","List1B","white","woman","","","","","","","","survey_race","28","","","I often think about the fact that I am my age.","filler"
"3482.300000011921","","","html-slider-response","460","1379458","0.0-24.0-1.0-0.24","50057","List1B","white","woman","","","","","","","","survey_race","52","","","It is pleasant to be my race.","pleasant"
"5920.199999988079","","","html-slider-response","461","1385379","0.0-24.0-1.0-0.25","50057","List1B","white","woman","","","","","","","","survey_race","10","","","Being my race is an important part of how I see myself.","important"
"4426.300000011921","","","html-slider-response","462","1389807","0.0-24.0-1.0-0.26","50057","List1B","white","woman","","","","","","","","survey_race","52","","","I have a lot in common with people of a similar age to me.","filler"
"4668","","","html-slider-response","463","1394477","0.0-24.0-1.0-0.27","50057","List1B","white","woman","","","","","","","","survey_race","35","","","People my age have a lot in common with each other.","filler"
"7451.399999976158","","","survey-text","464","1401931","0.0-25.0","50057","List1B","white","woman","","","","","{""Q0"":""5eb2134abde80d38a869a0a3""}","","","worker_id","","","","",""
"13811.399999976158","","","external-html","465","1416559","0.0-26.0","50057","List1B","white","woman","debrief.html","","","","","","","","","","","",""
