"rt","stimulus","button_pressed","trial_type","trial_index","time_elapsed","internal_node_id","subject","list","ppt_race","ppt_gender","url","first_guess","correct","key_press","responses","image_type","phrase_type","test_part","response","stimulus1","stimulus2","question_type","survey_item"
"1528.5999999642372","Welcome to the experiment. Press Continue to begin.","0","html-button-response","0","1530","0.0-0.0","50092","List1A","white","woman","","","","","","","","","","","","",""
"33504.69999998808","","","external-html","1","36215","0.0-1.0","50092","List1A","white","woman","consent.html","","","","","","","","","","","",""
"8937.400000035763","<p>On the next page, you will see portraits of 8 people and their names.</p><p>Your first task is to take a few minutes to memorise the names of these people.</p><p>You will have to recall their names during the rest of the experiment, so it is</p><p>essential that you try to memorise these people and their names as best as you can.</p><br><p><strong>You will then be tested on your memory of these names and portraits.</strong></p><br><p>The experiment will start after you have completed this memory test.</p><br><p>Ready?</p>","0","html-button-response","2","45154","0.0-2.0","50092","List1A","white","woman","","","","","","","","","","","","",""
"76980.40000003576","<img src='img/portrait_matrix_list1.jpg' style='width:900px;height:500px;''></img><p>If you have memorised all the portraits and names and are ready to start, press Continue.</p><p><strong>Please note: Your memory of these faces will be tested 4 times during this experiment.</strong></p>","0","html-button-response","3","123138","0.0-3.0-0.0","50092","List1A","white","woman","","","","","","","","","","","","",""
"4982","<img src=""portrait/BM2.jpg""style=""height:400px;""></img>","5","html-button-response","4","129122","0.0-3.0-1.0","50092","List1A","white","woman","","true","5","","","","","","","","","",""
"null","CORRECT","","html-keyboard-response","5","130625","0.0-3.0-2.0-0.0","50092","List1A","white","woman","","","","null","","","","","","","","",""
"3736.100000023842","<img src=""portrait/BW1.jpg""style=""height:400px;""></img>","1","html-button-response","6","134362","0.0-3.0-4.0","50092","List1A","white","woman","","true","0","","","","","","","","","",""
"4236.899999976158","<img src=""portrait/BW1.jpg""style=""height:400px;""></img>","0","html-button-response","7","139602","0.0-3.0-6.0-0.0","50092","List1A","white","woman","","false","0","","","","","","","","","",""
"null","CORRECT","","html-keyboard-response","8","141107","0.0-3.0-6.0-1.0-0.0","50092","List1A","white","woman","","","","null","","","","","","","","",""
"3143.199999988079","<img src=""portrait/BM1.jpg""style=""height:400px;""></img>","4","html-button-response","9","144251","0.0-3.0-7.0","50092","List1A","white","woman","","true","4","","","","","","","","","",""
"null","CORRECT","","html-keyboard-response","10","145753","0.0-3.0-8.0-0.0","50092","List1A","white","woman","","","","null","","","","","","","","",""
"2640.900000035763","<img src=""portrait/BW2.jpg""style=""height:400px;""></img>","2","html-button-response","11","148395","0.0-3.0-10.0","50092","List1A","white","woman","","true","2","","","","","","","","","",""
"null","CORRECT","","html-keyboard-response","12","149896","0.0-3.0-11.0-0.0","50092","List1A","white","woman","","","","null","","","","","","","","",""
"2016.800000011921","<img src=""portrait/WW2.jpg""style=""height:400px;""></img>","3","html-button-response","13","151914","0.0-3.0-13.0","50092","List1A","white","woman","","true","3","","","","","","","","","",""
"null","CORRECT","","html-keyboard-response","14","153418","0.0-3.0-14.0-0.0","50092","List1A","white","woman","","","","null","","","","","","","","",""
"2552.400000035763","<img src=""portrait/WM2.jpg""style=""height:400px;""></img>","7","html-button-response","15","155971","0.0-3.0-16.0","50092","List1A","white","woman","","true","7","","","","","","","","","",""
"null","CORRECT","","html-keyboard-response","16","157476","0.0-3.0-17.0-0.0","50092","List1A","white","woman","","","","null","","","","","","","","",""
"2269.600000023842","<img src=""portrait/WW1.jpg""style=""height:400px;""></img>","1","html-button-response","17","159746","0.0-3.0-19.0","50092","List1A","white","woman","","true","1","","","","","","","","","",""
"null","CORRECT","","html-keyboard-response","18","161251","0.0-3.0-20.0-0.0","50092","List1A","white","woman","","","","null","","","","","","","","",""
"2702.199999988079","<img src=""portrait/WM1.jpg""style=""height:400px;""></img>","6","html-button-response","19","163954","0.0-3.0-22.0","50092","List1A","white","woman","","true","6","","","","","","","","","",""
"null","CORRECT","","html-keyboard-response","20","165458","0.0-3.0-23.0-0.0","50092","List1A","white","woman","","","","null","","","","","","","","",""
"1655.800000011921","<p>You got 7 out of 8 right first time. Press Continue.</p>","0","html-button-response","21","167114","0.0-3.0-25.0","50092","List1A","white","woman","","","","","","","","","","","","",""
"2345.600000023842","As you did not score 100%, the memory game will repeat. Press Continue.","0","html-button-response","22","170461","0.0-3.0-26.0-0.0","50092","List1A","white","woman","","","","","","","","","","","","",""
"2265.099999964237","<img src='img/portrait_matrix_list1.jpg' style='width:900px;height:500px;''></img><p>If you have memorised all the portraits and names and are ready to start, press Continue.</p><p><strong>Please note: Your memory of these faces will be tested 4 times during this experiment.</strong></p>","0","html-button-response","23","173730","0.0-3.1-0.1","50092","List1A","white","woman","","","","","","","","","","","","",""
"3103.099999964237","<img src=""portrait/BM2.jpg""style=""height:400px;""></img>","5","html-button-response","24","177834","0.0-3.1-1.1","50092","List1A","white","woman","","true","5","","","","","","","","","",""
"null","CORRECT","","html-keyboard-response","25","179337","0.0-3.1-2.1-0.1","50092","List1A","white","woman","","","","null","","","","","","","","",""
"2088.600000023842","<img src=""portrait/BW1.jpg""style=""height:400px;""></img>","0","html-button-response","26","181426","0.0-3.1-4.1","50092","List1A","white","woman","","true","0","","","","","","","","","",""
"null","CORRECT","","html-keyboard-response","27","182931","0.0-3.1-5.1-0.1","50092","List1A","white","woman","","","","null","","","","","","","","",""
"1541.9000000357628","<img src=""portrait/BM1.jpg""style=""height:400px;""></img>","4","html-button-response","28","184474","0.0-3.1-7.1","50092","List1A","white","woman","","true","4","","","","","","","","","",""
"null","CORRECT","","html-keyboard-response","29","185980","0.0-3.1-8.1-0.1","50092","List1A","white","woman","","","","null","","","","","","","","",""
"1917.699999988079","<img src=""portrait/BW2.jpg""style=""height:400px;""></img>","2","html-button-response","30","187898","0.0-3.1-10.1","50092","List1A","white","woman","","true","2","","","","","","","","","",""
"null","CORRECT","","html-keyboard-response","31","189402","0.0-3.1-11.1-0.1","50092","List1A","white","woman","","","","null","","","","","","","","",""
"1359.5999999642372","<img src=""portrait/WW2.jpg""style=""height:400px;""></img>","3","html-button-response","32","190763","0.0-3.1-13.1","50092","List1A","white","woman","","true","3","","","","","","","","","",""
"null","CORRECT","","html-keyboard-response","33","192266","0.0-3.1-14.1-0.1","50092","List1A","white","woman","","","","null","","","","","","","","",""
"1551.1000000238419","<img src=""portrait/WM2.jpg""style=""height:400px;""></img>","7","html-button-response","34","193819","0.0-3.1-16.1","50092","List1A","white","woman","","true","7","","","","","","","","","",""
"null","CORRECT","","html-keyboard-response","35","195323","0.0-3.1-17.1-0.1","50092","List1A","white","woman","","","","null","","","","","","","","",""
"1407","<img src=""portrait/WW1.jpg""style=""height:400px;""></img>","1","html-button-response","36","196731","0.0-3.1-19.1","50092","List1A","white","woman","","true","1","","","","","","","","","",""
"null","CORRECT","","html-keyboard-response","37","198237","0.0-3.1-20.1-0.1","50092","List1A","white","woman","","","","null","","","","","","","","",""
"2044","<img src=""portrait/WM1.jpg""style=""height:400px;""></img>","6","html-button-response","38","200282","0.0-3.1-22.1","50092","List1A","white","woman","","true","6","","","","","","","","","",""
"null","CORRECT","","html-keyboard-response","39","201790","0.0-3.1-23.1-0.1","50092","List1A","white","woman","","","","null","","","","","","","","",""
"2083","<p>You got 8 out of 8 right first time. Press Continue.</p>","0","html-button-response","40","203874","0.0-3.1-25.1","50092","List1A","white","woman","","","","","","","","","","","","",""
"33573.60000002384","<p>In this experiment, you will view photographs of the people from the memory game interacting.</p><p>By using the <strong>exact</strong> phrase given <i>after</i> the photograph appears and recalling the correct names of the people in the photographs, form a sentence describing the interaction. You do not need to capitalise names.</p><p>Type your answer in the space provided. Please complete every sentence before moving onto the next trial.</p><p>You will only have a few seconds to memorise each given photograph and phrase before you can respond, so try your best to focus.</p><p>An example is given below. Press 'Continue' when you are ready.</p><img src='img/speaking_example.jpg' style='width:800px;height:460px;''></img>","0","html-button-response","41","238451","0.0-4.0","50092","List1A","white","woman","","","","","","","","","","","","",""
"2430.100000023842","<p>Before the experiment starts, you will watch two example trials. Press 'Continue'.</p>","0","html-button-response","42","241882","0.0-5.0","50092","List1A","white","woman","","","","","","","","","","","","",""
"null","<img src='img/play_eg.gif' style='height:400px;''></img>","","html-keyboard-response","43","244891","0.0-6.0","50092","List1A","white","woman","","","","null","","","","","","","","",""
"null","<p>is playing with</p>","","html-keyboard-response","44","246892","0.0-7.0","50092","List1A","white","woman","","","","null","","","","","","","","",""
"4439","<p><b>Answer:</b> kate is playing with beth</p>","0","html-button-response","45","251332","0.0-8.0","50092","List1A","white","woman","","","","","","","","","","","","",""
"null","<img src='img/dance_eg.gif' style='height:400px;''></img>","","html-keyboard-response","46","254340","0.0-9.0","50092","List1A","white","woman","","","","null","","","","","","","","",""
"null","<p>is being entertained by</p>","","html-keyboard-response","47","256345","0.0-10.0","50092","List1A","white","woman","","","","null","","","","","","","","",""
"1505","<p><b>Answer:</b> luke is being entertained by dave</p>","0","html-button-response","48","257851","0.0-11.0","50092","List1A","white","woman","","","","","","","","","","","","",""
"7886.600000023842","<p>Ready to start the experiment?</p><br><p><strong>Remember to describe the picture using a full sentence,</strong></p><p><strong>that combines the names of the people with the <i>exact</i> phrase given.</strong></p><p><strong>To receive full payment you must do this correctly.</strong></p><p><strong> You do not need to capitalise names or use punctuation.</strong></p><br><p>Press 'Continue' to begin.</p>","0","html-button-response","49","266739","0.0-12.0","50092","List1A","white","woman","","","","","","","","","","","","",""
"null","<div style=""font-size:60px;"">+</div>","","html-keyboard-response","50","268243","0.0-13.0-0.0","50092","List1A","white","woman","","","","null","","","","","","","","",""
"null","<img src=""stim_listA/oppose8.gif""style=""height:400px;""></stim_listA>","","html-keyboard-response","51","270244","0.0-13.0-1.0","50092","List1A","white","woman","","","","null","","","","","","","","",""
"null","is being opposed by","","html-keyboard-response","52","272248","0.0-13.0-2.0","50092","List1A","white","woman","","","","null","","","","","","","","",""
"5537.5","","","survey-text","53","277788","0.0-13.0-3.0","50092","List1A","white","woman","","","","","{""Q0"":""ruth is being opposed by beth""}","<img src=""stim_listA/oppose8.gif""style=""height:400px;""></stim_listA>","is being opposed by","","","","","",""
"null","<div style=""font-size:60px;"">+</div>","","html-keyboard-response","54","278290","0.0-13.0-0.1","50092","List1A","white","woman","","","","null","","","","","","","","",""
"null","<img src=""stim_listA/kiss5.gif""style=""height:400px;""></stim_listA>","","html-keyboard-response","55","280296","0.0-13.0-1.1","50092","List1A","white","woman","","","","null","","","","","","","","",""
"null","is kissing","","html-keyboard-response","56","282296","0.0-13.0-2.1","50092","List1A","white","woman","","","","null","","","","","","","","",""
"5850.099999964237","","","survey-text","57","288148","0.0-13.0-3.1","50092","List1A","white","woman","","","","","{""Q0"":""fred is kissing luke""}","<img src=""stim_listA/kiss5.gif""style=""height:400px;""></stim_listA>","is kissing","","","","","",""
"null","<div style=""font-size:60px;"">+</div>","","html-keyboard-response","58","288652","0.0-13.0-0.2","50092","List1A","white","woman","","","","null","","","","","","","","",""
"null","<img src=""stim_listA/seduce4.gif""style=""height:400px;""></stim_listA>","","html-keyboard-response","59","290657","0.0-13.0-1.2","50092","List1A","white","woman","","","","null","","","","","","","","",""
"null","is being seduced by","","html-keyboard-response","60","292662","0.0-13.0-2.2","50092","List1A","white","woman","","","","null","","","","","","","","",""
"6222.199999988079","","","survey-text","61","298886","0.0-13.0-3.2","50092","List1A","white","woman","","","","","{""Q0"":""jane is being seduced by dave""}","<img src=""stim_listA/seduce4.gif""style=""height:400px;""></stim_listA>","is being seduced by","","","","","",""
"null","<div style=""font-size:60px;"">+</div>","","html-keyboard-response","62","299387","0.0-13.0-0.3","50092","List1A","white","woman","","","","null","","","","","","","","",""
"null","<img src=""stim_listA/hug8.gif""style=""height:400px;""></stim_listA>","","html-keyboard-response","63","301392","0.0-13.0-1.3","50092","List1A","white","woman","","","","null","","","","","","","","",""
"null","is being hugged by","","html-keyboard-response","64","303396","0.0-13.0-2.3","50092","List1A","white","woman","","","","null","","","","","","","","",""
"4806.299999952316","","","survey-text","65","308204","0.0-13.0-3.3","50092","List1A","white","woman","","","","","{""Q0"":""jane is being hugged by kate""}","<img src=""stim_listA/hug8.gif""style=""height:400px;""></stim_listA>","is being hugged by","","","","","",""
"null","<div style=""font-size:60px;"">+</div>","","html-keyboard-response","66","308708","0.0-13.0-0.4","50092","List1A","white","woman","","","","null","","","","","","","","",""
"null","<img src=""stim_listA/seduce6.gif""style=""height:400px;""></stim_listA>","","html-keyboard-response","67","310713","0.0-13.0-1.4","50092","List1A","white","woman","","","","null","","","","","","","","",""
"null","is being seduced by","","html-keyboard-response","68","312716","0.0-13.0-2.4","50092","List1A","white","woman","","","","null","","","","","","","","",""
"7047","","","survey-text","69","319764","0.0-13.0-3.4","50092","List1A","white","woman","","","","","{""Q0"":""luke is being seduced by mike""}","<img src=""stim_listA/seduce6.gif""style=""height:400px;""></stim_listA>","is being seduced by","","","","","",""
"null","<div style=""font-size:60px;"">+</div>","","html-keyboard-response","70","320269","0.0-13.0-0.5","50092","List1A","white","woman","","","","null","","","","","","","","",""
"null","<img src=""stim_listA/kiss3.gif""style=""height:400px;""></stim_listA>","","html-keyboard-response","71","322272","0.0-13.0-1.5","50092","List1A","white","woman","","","","null","","","","","","","","",""
"null","is kissing","","html-keyboard-response","72","324272","0.0-13.0-2.5","50092","List1A","white","woman","","","","null","","","","","","","","",""
"13587.299999952316","","","survey-text","73","337861","0.0-13.0-3.5","50092","List1A","white","woman","","","","","{""Q0"":""luke is kissing ruth""}","<img src=""stim_listA/kiss3.gif""style=""height:400px;""></stim_listA>","is kissing","","","","","",""
"null","<div style=""font-size:60px;"">+</div>","","html-keyboard-response","74","338364","0.0-13.0-0.6","50092","List1A","white","woman","","","","null","","","","","","","","",""
"null","<img src=""stim_listA/seduce5.gif""style=""height:400px;""></stim_listA>","","html-keyboard-response","75","340366","0.0-13.0-1.6","50092","List1A","white","woman","","","","null","","","","","","","","",""
"null","is seducing","","html-keyboard-response","76","342368","0.0-13.0-2.6","50092","List1A","white","woman","","","","null","","","","","","","","",""
"4939.100000023842","","","survey-text","77","347308","0.0-13.0-3.6","50092","List1A","white","woman","","","","","{""Q0"":""fred is seducing dave""}","<img src=""stim_listA/seduce5.gif""style=""height:400px;""></stim_listA>","is seducing","","","","","",""
"null","<div style=""font-size:60px;"">+</div>","","html-keyboard-response","78","347810","0.0-13.0-0.7","50092","List1A","white","woman","","","","null","","","","","","","","",""
"null","<img src=""stim_listA/challenge7.gif""style=""height:400px;""></stim_listA>","","html-keyboard-response","79","349816","0.0-13.0-1.7","50092","List1A","white","woman","","","","null","","","","","","","","",""
"null","is challenging","","html-keyboard-response","80","351820","0.0-13.0-2.7","50092","List1A","white","woman","","","","null","","","","","","","","",""
"8022.699999988079","","","survey-text","81","359844","0.0-13.0-3.7","50092","List1A","white","woman","","","","","{""Q0"":""kate is challenging ruth""}","<img src=""stim_listA/challenge7.gif""style=""height:400px;""></stim_listA>","is challenging","","","","","",""
"null","<div style=""font-size:60px;"">+</div>","","html-keyboard-response","82","360346","0.0-13.0-0.8","50092","List1A","white","woman","","","","null","","","","","","","","",""
"null","<img src=""stim_listA/copy3.gif""style=""height:400px;""></stim_listA>","","html-keyboard-response","83","362347","0.0-13.0-1.8","50092","List1A","white","woman","","","","null","","","","","","","","",""
"null","is copying","","html-keyboard-response","84","364353","0.0-13.0-2.8","50092","List1A","white","woman","","","","null","","","","","","","","",""
"3657.899999976158","","","survey-text","85","368013","0.0-13.0-3.8","50092","List1A","white","woman","","","","","{""Q0"":""ruth is copying dave""}","<img src=""stim_listA/copy3.gif""style=""height:400px;""></stim_listA>","is copying","","","","","",""
"null","<div style=""font-size:60px;"">+</div>","","html-keyboard-response","86","368515","0.0-13.0-0.9","50092","List1A","white","woman","","","","null","","","","","","","","",""
"null","<img src=""stim_listA/kiss7.gif""style=""height:400px;""></stim_listA>","","html-keyboard-response","87","370517","0.0-13.0-1.9","50092","List1A","white","woman","","","","null","","","","","","","","",""
"null","is kissing","","html-keyboard-response","88","372522","0.0-13.0-2.9","50092","List1A","white","woman","","","","null","","","","","","","","",""
"5784.799999952316","","","survey-text","89","378308","0.0-13.0-3.9","50092","List1A","white","woman","","","","","{""Q0"":""beth is kissing ruth""}","<img src=""stim_listA/kiss7.gif""style=""height:400px;""></stim_listA>","is kissing","","","","","",""
"null","<div style=""font-size:60px;"">+</div>","","html-keyboard-response","90","378812","0.0-13.0-0.10","50092","List1A","white","woman","","","","null","","","","","","","","",""
"null","<img src=""stim_listA/copy2.gif""style=""height:400px;""></stim_listA>","","html-keyboard-response","91","380817","0.0-13.0-1.10","50092","List1A","white","woman","","","","null","","","","","","","","",""
"null","is being copied by","","html-keyboard-response","92","382820","0.0-13.0-2.10","50092","List1A","white","woman","","","","null","","","","","","","","",""
"6070.5","","","survey-text","93","388892","0.0-13.0-3.10","50092","List1A","white","woman","","","","","{""Q0"":""kate is being copied by fred""}","<img src=""stim_listA/copy2.gif""style=""height:400px;""></stim_listA>","is being copied by","","","","","",""
"null","<div style=""font-size:60px;"">+</div>","","html-keyboard-response","94","389396","0.0-13.0-0.11","50092","List1A","white","woman","","","","null","","","","","","","","",""
"null","<img src=""stim_listA/oppose1.gif""style=""height:400px;""></stim_listA>","","html-keyboard-response","95","391397","0.0-13.0-1.11","50092","List1A","white","woman","","","","null","","","","","","","","",""
"null","is opposing","","html-keyboard-response","96","393398","0.0-13.0-2.11","50092","List1A","white","woman","","","","null","","","","","","","","",""
"3700.2999999523163","","","survey-text","97","397100","0.0-13.0-3.11","50092","List1A","white","woman","","","","","{""Q0"":""mike is opposing kate""}","<img src=""stim_listA/oppose1.gif""style=""height:400px;""></stim_listA>","is opposing","","","","","",""
"null","<div style=""font-size:60px;"">+</div>","","html-keyboard-response","98","397603","0.0-13.0-0.12","50092","List1A","white","woman","","","","null","","","","","","","","",""
"null","<img src=""stim_listA/copy4.gif""style=""height:400px;""></stim_listA>","","html-keyboard-response","99","399605","0.0-13.0-1.12","50092","List1A","white","woman","","","","null","","","","","","","","",""
"null","is being copied by","","html-keyboard-response","100","401607","0.0-13.0-2.12","50092","List1A","white","woman","","","","null","","","","","","","","",""
"13251.399999976158","","","survey-text","101","414860","0.0-13.0-3.12","50092","List1A","white","woman","","","","","{""Q0"":""jane is opposing luke""}","<img src=""stim_listA/copy4.gif""style=""height:400px;""></stim_listA>","is being copied by","","","","","",""
"null","<div style=""font-size:60px;"">+</div>","","html-keyboard-response","102","415362","0.0-13.0-0.13","50092","List1A","white","woman","","","","null","","","","","","","","",""
"null","<img src=""stim_listA/touch7.gif""style=""height:400px;""></stim_listA>","","html-keyboard-response","103","417367","0.0-13.0-1.13","50092","List1A","white","woman","","","","null","","","","","","","","",""
"null","is touching","","html-keyboard-response","104","419369","0.0-13.0-2.13","50092","List1A","white","woman","","","","null","","","","","","","","",""
"4122.5","","","survey-text","105","423493","0.0-13.0-3.13","50092","List1A","white","woman","","","","","{""Q0"":""kate is touching jane""}","<img src=""stim_listA/touch7.gif""style=""height:400px;""></stim_listA>","is touching","","","","","",""
"null","<div style=""font-size:60px;"">+</div>","","html-keyboard-response","106","423997","0.0-13.0-0.14","50092","List1A","white","woman","","","","null","","","","","","","","",""
"null","<img src=""stim_listA/look2.gif""style=""height:400px;""></stim_listA>","","html-keyboard-response","107","426004","0.0-13.0-1.14","50092","List1A","white","woman","","","","null","","","","","","","","",""
"null","is being looked at by","","html-keyboard-response","108","428006","0.0-13.0-2.14","50092","List1A","white","woman","","","","null","","","","","","","","",""
"5069.699999988079","","","survey-text","109","433077","0.0-13.0-3.14","50092","List1A","white","woman","","","","","{""Q0"":""kate is being looked at by mike""}","<img src=""stim_listA/look2.gif""style=""height:400px;""></stim_listA>","is being looked at by","","","","","",""
"null","<div style=""font-size:60px;"">+</div>","","html-keyboard-response","110","433579","0.0-13.0-0.15","50092","List1A","white","woman","","","","null","","","","","","","","",""
"null","<img src=""stim_listA/hug5.gif""style=""height:400px;""></stim_listA>","","html-keyboard-response","111","435584","0.0-13.0-1.15","50092","List1A","white","woman","","","","null","","","","","","","","",""
"null","is hugging","","html-keyboard-response","112","437585","0.0-13.0-2.15","50092","List1A","white","woman","","","","null","","","","","","","","",""
"5049.100000023842","","","survey-text","113","442636","0.0-13.0-3.15","50092","List1A","white","woman","","","","","{""Q0"":""fred is hugging luke""}","<img src=""stim_listA/hug5.gif""style=""height:400px;""></stim_listA>","is hugging","","","","","",""
"null","<div style=""font-size:60px;"">+</div>","","html-keyboard-response","114","443139","0.0-13.0-0.16","50092","List1A","white","woman","","","","null","","","","","","","","",""
"null","<img src=""stim_listA/touch5.gif""style=""height:400px;""></stim_listA>","","html-keyboard-response","115","445141","0.0-13.0-1.16","50092","List1A","white","woman","","","","null","","","","","","","","",""
"null","is touching","","html-keyboard-response","116","447143","0.0-13.0-2.16","50092","List1A","white","woman","","","","null","","","","","","","","",""
"3516.5","","","survey-text","117","450661","0.0-13.0-3.16","50092","List1A","white","woman","","","","","{""Q0"":""mike is touching dave""}","<img src=""stim_listA/touch5.gif""style=""height:400px;""></stim_listA>","is touching","","","","","",""
"null","<div style=""font-size:60px;"">+</div>","","html-keyboard-response","118","451162","0.0-13.0-0.17","50092","List1A","white","woman","","","","null","","","","","","","","",""
"null","<img src=""stim_listA/copy6.gif""style=""height:400px;""></stim_listA>","","html-keyboard-response","119","453164","0.0-13.0-1.17","50092","List1A","white","woman","","","","null","","","","","","","","",""
"null","is being copied by","","html-keyboard-response","120","455167","0.0-13.0-2.17","50092","List1A","white","woman","","","","null","","","","","","","","",""
"4036.5","","","survey-text","121","459205","0.0-13.0-3.17","50092","List1A","white","woman","","","","","{""Q0"":""dave is being copied by fred""}","<img src=""stim_listA/copy6.gif""style=""height:400px;""></stim_listA>","is being copied by","","","","","",""
"null","<div style=""font-size:60px;"">+</div>","","html-keyboard-response","122","459709","0.0-13.0-0.18","50092","List1A","white","woman","","","","null","","","","","","","","",""
"null","<img src=""stim_listA/shout5.gif""style=""height:400px;""></stim_listA>","","html-keyboard-response","123","461711","0.0-13.0-1.18","50092","List1A","white","woman","","","","null","","","","","","","","",""
"null","is shouting at","","html-keyboard-response","124","463717","0.0-13.0-2.18","50092","List1A","white","woman","","","","null","","","","","","","","",""
"3526.900000035763","","","survey-text","125","467245","0.0-13.0-3.18","50092","List1A","white","woman","","","","","{""Q0"":""fred is shouting at luke""}","<img src=""stim_listA/shout5.gif""style=""height:400px;""></stim_listA>","is shouting at","","","","","",""
"null","<div style=""font-size:60px;"">+</div>","","html-keyboard-response","126","467750","0.0-13.0-0.19","50092","List1A","white","woman","","","","null","","","","","","","","",""
"null","<img src=""stim_listA/look1.gif""style=""height:400px;""></stim_listA>","","html-keyboard-response","127","469756","0.0-13.0-1.19","50092","List1A","white","woman","","","","null","","","","","","","","",""
"null","is looking at","","html-keyboard-response","128","471761","0.0-13.0-2.19","50092","List1A","white","woman","","","","null","","","","","","","","",""
"3531.100000023842","","","survey-text","129","475293","0.0-13.0-3.19","50092","List1A","white","woman","","","","","{""Q0"":""fred is looking at beth""}","<img src=""stim_listA/look1.gif""style=""height:400px;""></stim_listA>","is looking at","","","","","",""
"16389.399999976158","<img src='img/portrait_matrix_list1.jpg' style='width:900px;height:500px;''></img><p>If you have memorised all the portraits and names and are ready to start, press Continue.</p><p><strong>Please note: Your memory of these faces will be tested 4 times during this experiment.</strong></p>","0","html-button-response","130","491684","0.0-14.0-0.0","50092","List1A","white","woman","","","","","","","","","","","","",""
"3950.199999988079","<img src=""portrait/BW1.jpg""style=""height:400px;""></img>","0","html-button-response","131","496636","0.0-14.0-1.0","50092","List1A","white","woman","","true","0","","","","","","","","","",""
"null","CORRECT","","html-keyboard-response","132","498137","0.0-14.0-2.0-0.0","50092","List1A","white","woman","","","","null","","","","","","","","",""
"1473.5999999642372","<img src=""portrait/WW1.jpg""style=""height:400px;""></img>","1","html-button-response","133","499612","0.0-14.0-4.0","50092","List1A","white","woman","","true","1","","","","","","","","","",""
"null","CORRECT","","html-keyboard-response","134","501116","0.0-14.0-5.0-0.0","50092","List1A","white","woman","","","","null","","","","","","","","",""
"1406.5","<img src=""portrait/WM2.jpg""style=""height:400px;""></img>","7","html-button-response","135","502524","0.0-14.0-7.0","50092","List1A","white","woman","","true","7","","","","","","","","","",""
"null","CORRECT","","html-keyboard-response","136","504027","0.0-14.0-8.0-0.0","50092","List1A","white","woman","","","","null","","","","","","","","",""
"1959.8999999761581","<img src=""portrait/WM1.jpg""style=""height:400px;""></img>","6","html-button-response","137","505988","0.0-14.0-10.0","50092","List1A","white","woman","","true","6","","","","","","","","","",""
"null","CORRECT","","html-keyboard-response","138","507492","0.0-14.0-11.0-0.0","50092","List1A","white","woman","","","","null","","","","","","","","",""
"1655","<img src=""portrait/BM2.jpg""style=""height:400px;""></img>","5","html-button-response","139","509148","0.0-14.0-13.0","50092","List1A","white","woman","","true","5","","","","","","","","","",""
"null","CORRECT","","html-keyboard-response","140","510656","0.0-14.0-14.0-0.0","50092","List1A","white","woman","","","","null","","","","","","","","",""
"1610.800000011921","<img src=""portrait/WW2.jpg""style=""height:400px;""></img>","3","html-button-response","141","512268","0.0-14.0-16.0","50092","List1A","white","woman","","true","3","","","","","","","","","",""
"null","CORRECT","","html-keyboard-response","142","513776","0.0-14.0-17.0-0.0","50092","List1A","white","woman","","","","null","","","","","","","","",""
"1482.8999999761581","<img src=""portrait/BM1.jpg""style=""height:400px;""></img>","4","html-button-response","143","515260","0.0-14.0-19.0","50092","List1A","white","woman","","true","4","","","","","","","","","",""
"null","CORRECT","","html-keyboard-response","144","516767","0.0-14.0-20.0-0.0","50092","List1A","white","woman","","","","null","","","","","","","","",""
"1420.199999988079","<img src=""portrait/BW2.jpg""style=""height:400px;""></img>","2","html-button-response","145","518188","0.0-14.0-22.0","50092","List1A","white","woman","","true","2","","","","","","","","","",""
"null","CORRECT","","html-keyboard-response","146","519692","0.0-14.0-23.0-0.0","50092","List1A","white","woman","","","","null","","","","","","","","",""
"1711.1000000238419","<p>You got 8 out of 8 right first time. Press Continue.</p>","0","html-button-response","147","521404","0.0-14.0-25.0","50092","List1A","white","woman","","","","","","","","","","","","",""
"null","<div style=""font-size:60px;"">+</div>","","html-keyboard-response","148","522911","0.0-15.0-0.0","50092","List1A","white","woman","","","","null","","","","","","","","",""
"null","<img src=""stim_listA/challenge1.gif""style=""height:400px;""></stim_listA>","","html-keyboard-response","149","524916","0.0-15.0-1.0","50092","List1A","white","woman","","","","null","","","","","","","","",""
"null","is challenging","","html-keyboard-response","150","526921","0.0-15.0-2.0","50092","List1A","white","woman","","","","null","","","","","","","","",""
"4177.600000023842","","","survey-text","151","531101","0.0-15.0-3.0","50092","List1A","white","woman","","","","","{""Q0"":""beth is challenging mike""}","<img src=""stim_listA/challenge1.gif""style=""height:400px;""></stim_listA>","is challenging","","","","","",""
"null","<div style=""font-size:60px;"">+</div>","","html-keyboard-response","152","531605","0.0-15.0-0.1","50092","List1A","white","woman","","","","null","","","","","","","","",""
"null","<img src=""stim_listA/shout3.gif""style=""height:400px;""></stim_listA>","","html-keyboard-response","153","533610","0.0-15.0-1.1","50092","List1A","white","woman","","","","null","","","","","","","","",""
"null","is shouting at","","html-keyboard-response","154","535612","0.0-15.0-2.1","50092","List1A","white","woman","","","","null","","","","","","","","",""
"6671.899999976158","","","survey-text","155","542285","0.0-15.0-3.1","50092","List1A","white","woman","","","","","{""Q0"":""luke is shouting at ruth""}","<img src=""stim_listA/shout3.gif""style=""height:400px;""></stim_listA>","is shouting at","","","","","",""
"null","<div style=""font-size:60px;"">+</div>","","html-keyboard-response","156","542786","0.0-15.0-0.2","50092","List1A","white","woman","","","","null","","","","","","","","",""
"null","<img src=""stim_listA/touch6.gif""style=""height:400px;""></stim_listA>","","html-keyboard-response","157","544792","0.0-15.0-1.2","50092","List1A","white","woman","","","","null","","","","","","","","",""
"null","is being touched by","","html-keyboard-response","158","546794","0.0-15.0-2.2","50092","List1A","white","woman","","","","null","","","","","","","","",""
"4857.699999988079","","","survey-text","159","551653","0.0-15.0-3.2","50092","List1A","white","woman","","","","","{""Q0"":""luke is being touched by fred""}","<img src=""stim_listA/touch6.gif""style=""height:400px;""></stim_listA>","is being touched by","","","","","",""
"null","<div style=""font-size:60px;"">+</div>","","html-keyboard-response","160","552154","0.0-15.0-0.3","50092","List1A","white","woman","","","","null","","","","","","","","",""
"null","<img src=""stim_listA/copy1.gif""style=""height:400px;""></stim_listA>","","html-keyboard-response","161","554156","0.0-15.0-1.3","50092","List1A","white","woman","","","","null","","","","","","","","",""
"null","is copying","","html-keyboard-response","162","556158","0.0-15.0-2.3","50092","List1A","white","woman","","","","null","","","","","","","","",""
"3349.600000023842","","","survey-text","163","559509","0.0-15.0-3.3","50092","List1A","white","woman","","","","","{""Q0"":""mike is copying beth""}","<img src=""stim_listA/copy1.gif""style=""height:400px;""></stim_listA>","is copying","","","","","",""
"null","<div style=""font-size:60px;"">+</div>","","html-keyboard-response","164","560010","0.0-15.0-0.4","50092","List1A","white","woman","","","","null","","","","","","","","",""
"null","<img src=""stim_listA/kiss2.gif""style=""height:400px;""></stim_listA>","","html-keyboard-response","165","562013","0.0-15.0-1.4","50092","List1A","white","woman","","","","null","","","","","","","","",""
"null","is being kissed by","","html-keyboard-response","166","564019","0.0-15.0-2.4","50092","List1A","white","woman","","","","null","","","","","","","","",""
"4816.5","","","survey-text","167","568837","0.0-15.0-3.4","50092","List1A","white","woman","","","","","{""Q0"":""mike is being kissed by kate""}","<img src=""stim_listA/kiss2.gif""style=""height:400px;""></stim_listA>","is being kissed by","","","","","",""
"null","<div style=""font-size:60px;"">+</div>","","html-keyboard-response","168","569342","0.0-15.0-0.5","50092","List1A","white","woman","","","","null","","","","","","","","",""
"null","<img src=""stim_listA/touch2.gif""style=""height:400px;""></stim_listA>","","html-keyboard-response","169","571344","0.0-15.0-1.5","50092","List1A","white","woman","","","","null","","","","","","","","",""
"null","is being touched by","","html-keyboard-response","170","573347","0.0-15.0-2.5","50092","List1A","white","woman","","","","null","","","","","","","","",""
"5146.199999988079","","","survey-text","171","578495","0.0-15.0-3.5","50092","List1A","white","woman","","","","","{""Q0"":""beth is being touched by fred""}","<img src=""stim_listA/touch2.gif""style=""height:400px;""></stim_listA>","is being touched by","","","","","",""
"null","<div style=""font-size:60px;"">+</div>","","html-keyboard-response","172","578999","0.0-15.0-0.6","50092","List1A","white","woman","","","","null","","","","","","","","",""
"null","<img src=""stim_listA/seduce7.gif""style=""height:400px;""></stim_listA>","","html-keyboard-response","173","581005","0.0-15.0-1.6","50092","List1A","white","woman","","","","null","","","","","","","","",""
"null","is seducing","","html-keyboard-response","174","583008","0.0-15.0-2.6","50092","List1A","white","woman","","","","null","","","","","","","","",""
"5693.5","","","survey-text","175","588703","0.0-15.0-3.6","50092","List1A","white","woman","","","","","{""Q0"":""beth is seducing jane""}","<img src=""stim_listA/seduce7.gif""style=""height:400px;""></stim_listA>","is seducing","","","","","",""
"null","<div style=""font-size:60px;"">+</div>","","html-keyboard-response","176","589204","0.0-15.0-0.7","50092","List1A","white","woman","","","","null","","","","","","","","",""
"null","<img src=""stim_listA/greet7.gif""style=""height:400px;""></stim_listA>","","html-keyboard-response","177","591208","0.0-15.0-1.7","50092","List1A","white","woman","","","","null","","","","","","","","",""
"null","is greeting","","html-keyboard-response","178","593212","0.0-15.0-2.7","50092","List1A","white","woman","","","","null","","","","","","","","",""
"3927.800000011921","","","survey-text","179","597142","0.0-15.0-3.7","50092","List1A","white","woman","","","","","{""Q0"":""kate is greeting ruth""}","<img src=""stim_listA/greet7.gif""style=""height:400px;""></stim_listA>","is greeting","","","","","",""
"null","<div style=""font-size:60px;"">+</div>","","html-keyboard-response","180","597643","0.0-15.0-0.8","50092","List1A","white","woman","","","","null","","","","","","","","",""
"null","<img src=""stim_listA/challenge2.gif""style=""height:400px;""></stim_listA>","","html-keyboard-response","181","599649","0.0-15.0-1.8","50092","List1A","white","woman","","","","null","","","","","","","","",""
"null","is being challenged by","","html-keyboard-response","182","601654","0.0-15.0-2.8","50092","List1A","white","woman","","","","null","","","","","","","","",""
"5557.300000011921","","","survey-text","183","607213","0.0-15.0-3.8","50092","List1A","white","woman","","","","","{""Q0"":""kate is being challenged by fred""}","<img src=""stim_listA/challenge2.gif""style=""height:400px;""></stim_listA>","is being challenged by","","","","","",""
"null","<div style=""font-size:60px;"">+</div>","","html-keyboard-response","184","607714","0.0-15.0-0.9","50092","List1A","white","woman","","","","null","","","","","","","","",""
"null","<img src=""stim_listA/shout7.gif""style=""height:400px;""></stim_listA>","","html-keyboard-response","185","609717","0.0-15.0-1.9","50092","List1A","white","woman","","","","null","","","","","","","","",""
"null","is shouting at","","html-keyboard-response","186","611720","0.0-15.0-2.9","50092","List1A","white","woman","","","","null","","","","","","","","",""
"3652.399999976158","","","survey-text","187","615374","0.0-15.0-3.9","50092","List1A","white","woman","","","","","{""Q0"":""beth is shouting at ruth""}","<img src=""stim_listA/shout7.gif""style=""height:400px;""></stim_listA>","is shouting at","","","","","",""
"null","<div style=""font-size:60px;"">+</div>","","html-keyboard-response","188","615878","0.0-15.0-0.10","50092","List1A","white","woman","","","","null","","","","","","","","",""
"null","<img src=""stim_listA/challenge3.gif""style=""height:400px;""></stim_listA>","","html-keyboard-response","189","617884","0.0-15.0-1.10","50092","List1A","white","woman","","","","null","","","","","","","","",""
"null","is challenging","","html-keyboard-response","190","619886","0.0-15.0-2.10","50092","List1A","white","woman","","","","null","","","","","","","","",""
"4054.199999988079","","","survey-text","191","623942","0.0-15.0-3.10","50092","List1A","white","woman","","","","","{""Q0"":""dave is challenging ruth""}","<img src=""stim_listA/challenge3.gif""style=""height:400px;""></stim_listA>","is challenging","","","","","",""
"null","<div style=""font-size:60px;"">+</div>","","html-keyboard-response","192","624442","0.0-15.0-0.11","50092","List1A","white","woman","","","","null","","","","","","","","",""
"null","<img src=""stim_listA/oppose3.gif""style=""height:400px;""></stim_listA>","","html-keyboard-response","193","626443","0.0-15.0-1.11","50092","List1A","white","woman","","","","null","","","","","","","","",""
"null","is opposing","","html-keyboard-response","194","628444","0.0-15.0-2.11","50092","List1A","white","woman","","","","null","","","","","","","","",""
"3824.400000035763","","","survey-text","195","632270","0.0-15.0-3.11","50092","List1A","white","woman","","","","","{""Q0"":""dave is opposing jane""}","<img src=""stim_listA/oppose3.gif""style=""height:400px;""></stim_listA>","is opposing","","","","","",""
"null","<div style=""font-size:60px;"">+</div>","","html-keyboard-response","196","632773","0.0-15.0-0.12","50092","List1A","white","woman","","","","null","","","","","","","","",""
"null","<img src=""stim_listA/look8.gif""style=""height:400px;""></stim_listA>","","html-keyboard-response","197","634778","0.0-15.0-1.12","50092","List1A","white","woman","","","","null","","","","","","","","",""
"null","is being looked at by","","html-keyboard-response","198","636779","0.0-15.0-2.12","50092","List1A","white","woman","","","","null","","","","","","","","",""
"5513","","","survey-text","199","642294","0.0-15.0-3.12","50092","List1A","white","woman","","","","","{""Q0"":""jane is being looked at by kate""}","<img src=""stim_listA/look8.gif""style=""height:400px;""></stim_listA>","is being looked at by","","","","","",""
"null","<div style=""font-size:60px;"">+</div>","","html-keyboard-response","200","642795","0.0-15.0-0.13","50092","List1A","white","woman","","","","null","","","","","","","","",""
"null","<img src=""stim_listA/challenge8.gif""style=""height:400px;""></stim_listA>","","html-keyboard-response","201","644796","0.0-15.0-1.13","50092","List1A","white","woman","","","","null","","","","","","","","",""
"null","is being challenged by","","html-keyboard-response","202","646801","0.0-15.0-2.13","50092","List1A","white","woman","","","","null","","","","","","","","",""
"4779.100000023842","","","survey-text","203","651582","0.0-15.0-3.13","50092","List1A","white","woman","","","","","{""Q0"":""jane is being challenged by beth""}","<img src=""stim_listA/challenge8.gif""style=""height:400px;""></stim_listA>","is being challenged by","","","","","",""
"null","<div style=""font-size:60px;"">+</div>","","html-keyboard-response","204","652084","0.0-15.0-0.14","50092","List1A","white","woman","","","","null","","","","","","","","",""
"null","<img src=""stim_listA/look6.gif""style=""height:400px;""></stim_listA>","","html-keyboard-response","205","654090","0.0-15.0-1.14","50092","List1A","white","woman","","","","null","","","","","","","","",""
"null","is being looked at by","","html-keyboard-response","206","656094","0.0-15.0-2.14","50092","List1A","white","woman","","","","null","","","","","","","","",""
"4686.300000011921","","","survey-text","207","660782","0.0-15.0-3.14","50092","List1A","white","woman","","","","","{""Q0"":""dave is being looked at by mike""}","<img src=""stim_listA/look6.gif""style=""height:400px;""></stim_listA>","is being looked at by","","","","","",""
"null","<div style=""font-size:60px;"">+</div>","","html-keyboard-response","208","661286","0.0-15.0-0.15","50092","List1A","white","woman","","","","null","","","","","","","","",""
"null","<img src=""stim_listA/oppose4.gif""style=""height:400px;""></stim_listA>","","html-keyboard-response","209","663291","0.0-15.0-1.15","50092","List1A","white","woman","","","","null","","","","","","","","",""
"null","is being opposed by","","html-keyboard-response","210","665295","0.0-15.0-2.15","50092","List1A","white","woman","","","","null","","","","","","","","",""
"4197.699999988079","","","survey-text","211","669494","0.0-15.0-3.15","50092","List1A","white","woman","","","","","{""Q0"":""ruth is being opposed by luke""}","<img src=""stim_listA/oppose4.gif""style=""height:400px;""></stim_listA>","is being opposed by","","","","","",""
"null","<div style=""font-size:60px;"">+</div>","","html-keyboard-response","212","669995","0.0-15.0-0.16","50092","List1A","white","woman","","","","null","","","","","","","","",""
"null","<img src=""stim_listA/hug4.gif""style=""height:400px;""></stim_listA>","","html-keyboard-response","213","672001","0.0-15.0-1.16","50092","List1A","white","woman","","","","null","","","","","","","","",""
"null","is being hugged by","","html-keyboard-response","214","674004","0.0-15.0-2.16","50092","List1A","white","woman","","","","null","","","","","","","","",""
"7672","","","survey-text","215","681678","0.0-15.0-3.16","50092","List1A","white","woman","","","","","{""Q0"":""jane is being hugged by dave""}","<img src=""stim_listA/hug4.gif""style=""height:400px;""></stim_listA>","is being hugged by","","","","","",""
"null","<div style=""font-size:60px;"">+</div>","","html-keyboard-response","216","682182","0.0-15.0-0.17","50092","List1A","white","woman","","","","null","","","","","","","","",""
"null","<img src=""stim_listA/look4.gif""style=""height:400px;""></stim_listA>","","html-keyboard-response","217","684185","0.0-15.0-1.17","50092","List1A","white","woman","","","","null","","","","","","","","",""
"null","is being looked at by","","html-keyboard-response","218","686187","0.0-15.0-2.17","50092","List1A","white","woman","","","","null","","","","","","","","",""
"5241.800000011921","","","survey-text","219","691430","0.0-15.0-3.17","50092","List1A","white","woman","","","","","{""Q0"":""jane is being looked at by dave""}","<img src=""stim_listA/look4.gif""style=""height:400px;""></stim_listA>","is being looked at by","","","","","",""
"null","<div style=""font-size:60px;"">+</div>","","html-keyboard-response","220","691933","0.0-15.0-0.18","50092","List1A","white","woman","","","","null","","","","","","","","",""
"null","<img src=""stim_listA/hug7.gif""style=""height:400px;""></stim_listA>","","html-keyboard-response","221","693937","0.0-15.0-1.18","50092","List1A","white","woman","","","","null","","","","","","","","",""
"null","is hugging","","html-keyboard-response","222","695941","0.0-15.0-2.18","50092","List1A","white","woman","","","","null","","","","","","","","",""
"4047.099999964237","","","survey-text","223","699990","0.0-15.0-3.18","50092","List1A","white","woman","","","","","{""Q0"":""beth is hugging ruth""}","<img src=""stim_listA/hug7.gif""style=""height:400px;""></stim_listA>","is hugging","","","","","",""
"null","<div style=""font-size:60px;"">+</div>","","html-keyboard-response","224","700493","0.0-15.0-0.19","50092","List1A","white","woman","","","","null","","","","","","","","",""
"null","<img src=""stim_listA/shout6.gif""style=""height:400px;""></stim_listA>","","html-keyboard-response","225","702495","0.0-15.0-1.19","50092","List1A","white","woman","","","","null","","","","","","","","",""
"null","is being shouted at by","","html-keyboard-response","226","704498","0.0-15.0-2.19","50092","List1A","white","woman","","","","null","","","","","","","","",""
"4618.600000023842","","","survey-text","227","709118","0.0-15.0-3.19","50092","List1A","white","woman","","","","","{""Q0"":""dave is being shouted at by mike""}","<img src=""stim_listA/shout6.gif""style=""height:400px;""></stim_listA>","is being shouted at by","","","","","",""
"3261.600000023842","<img src='img/portrait_matrix_list1.jpg' style='width:900px;height:500px;''></img><p>If you have memorised all the portraits and names and are ready to start, press Continue.</p><p><strong>Please note: Your memory of these faces will be tested 4 times during this experiment.</strong></p>","0","html-button-response","228","712381","0.0-16.0-0.0","50092","List1A","white","woman","","","","","","","","","","","","",""
"3095.400000035763","<img src=""portrait/BW1.jpg""style=""height:400px;""></img>","0","html-button-response","229","716478","0.0-16.0-1.0","50092","List1A","white","woman","","true","0","","","","","","","","","",""
"null","CORRECT","","html-keyboard-response","230","717984","0.0-16.0-2.0-0.0","50092","List1A","white","woman","","","","null","","","","","","","","",""
"1187.6000000238419","<img src=""portrait/WW2.jpg""style=""height:400px;""></img>","3","html-button-response","231","719173","0.0-16.0-4.0","50092","List1A","white","woman","","true","3","","","","","","","","","",""
"null","CORRECT","","html-keyboard-response","232","720678","0.0-16.0-5.0-0.0","50092","List1A","white","woman","","","","null","","","","","","","","",""
"1526.4000000357628","<img src=""portrait/WM2.jpg""style=""height:400px;""></img>","7","html-button-response","233","722206","0.0-16.0-7.0","50092","List1A","white","woman","","true","7","","","","","","","","","",""
"null","CORRECT","","html-keyboard-response","234","723708","0.0-16.0-8.0-0.0","50092","List1A","white","woman","","","","null","","","","","","","","",""
"1479.3999999761581","<img src=""portrait/BM1.jpg""style=""height:400px;""></img>","4","html-button-response","235","725189","0.0-16.0-10.0","50092","List1A","white","woman","","true","4","","","","","","","","","",""
"null","CORRECT","","html-keyboard-response","236","726691","0.0-16.0-11.0-0.0","50092","List1A","white","woman","","","","null","","","","","","","","",""
"1488.5","<img src=""portrait/BM2.jpg""style=""height:400px;""></img>","5","html-button-response","237","728181","0.0-16.0-13.0","50092","List1A","white","woman","","true","5","","","","","","","","","",""
"null","CORRECT","","html-keyboard-response","238","729688","0.0-16.0-14.0-0.0","50092","List1A","white","woman","","","","null","","","","","","","","",""
"1516.3999999761581","<img src=""portrait/BW2.jpg""style=""height:400px;""></img>","2","html-button-response","239","731205","0.0-16.0-16.0","50092","List1A","white","woman","","true","2","","","","","","","","","",""
"null","CORRECT","","html-keyboard-response","240","732709","0.0-16.0-17.0-0.0","50092","List1A","white","woman","","","","null","","","","","","","","",""
"2095.199999988079","<img src=""portrait/WM1.jpg""style=""height:400px;""></img>","6","html-button-response","241","734805","0.0-16.0-19.0","50092","List1A","white","woman","","true","6","","","","","","","","","",""
"null","CORRECT","","html-keyboard-response","242","736309","0.0-16.0-20.0-0.0","50092","List1A","white","woman","","","","null","","","","","","","","",""
"2167.199999988079","<img src=""portrait/WW1.jpg""style=""height:400px;""></img>","1","html-button-response","243","738477","0.0-16.0-22.0","50092","List1A","white","woman","","true","1","","","","","","","","","",""
"null","CORRECT","","html-keyboard-response","244","739979","0.0-16.0-23.0-0.0","50092","List1A","white","woman","","","","null","","","","","","","","",""
"1065.199999988079","<p>You got 8 out of 8 right first time. Press Continue.</p>","0","html-button-response","245","741045","0.0-16.0-25.0","50092","List1A","white","woman","","","","","","","","","","","","",""
"null","<div style=""font-size:60px;"">+</div>","","html-keyboard-response","246","742554","0.0-17.0-0.0","50092","List1A","white","woman","","","","null","","","","","","","","",""
"null","<img src=""stim_listA/seduce8.gif""style=""height:400px;""></stim_listA>","","html-keyboard-response","247","744556","0.0-17.0-1.0","50092","List1A","white","woman","","","","null","","","","","","","","",""
"null","is being seduced by","","html-keyboard-response","248","746557","0.0-17.0-2.0","50092","List1A","white","woman","","","","null","","","","","","","","",""
"5577","","","survey-text","249","752136","0.0-17.0-3.0","50092","List1A","white","woman","","","","","{""Q0"":""ruth is being seduced by kate""}","<img src=""stim_listA/seduce8.gif""style=""height:400px;""></stim_listA>","is being seduced by","","","","","",""
"null","<div style=""font-size:60px;"">+</div>","","html-keyboard-response","250","752637","0.0-17.0-0.1","50092","List1A","white","woman","","","","null","","","","","","","","",""
"null","<img src=""stim_listA/challenge5.gif""style=""height:400px;""></stim_listA>","","html-keyboard-response","251","754641","0.0-17.0-1.1","50092","List1A","white","woman","","","","null","","","","","","","","",""
"null","is challenging","","html-keyboard-response","252","756642","0.0-17.0-2.1","50092","List1A","white","woman","","","","null","","","","","","","","",""
"6267.199999988079","","","survey-text","253","762910","0.0-17.0-3.1","50092","List1A","white","woman","","","","","{""Q0"":""mike is challenging luke""}","<img src=""stim_listA/challenge5.gif""style=""height:400px;""></stim_listA>","is challenging","","","","","",""
"null","<div style=""font-size:60px;"">+</div>","","html-keyboard-response","254","763411","0.0-17.0-0.2","50092","List1A","white","woman","","","","null","","","","","","","","",""
"null","<img src=""stim_listA/copy8.gif""style=""height:400px;""></stim_listA>","","html-keyboard-response","255","765417","0.0-17.0-1.2","50092","List1A","white","woman","","","","null","","","","","","","","",""
"null","is being copied by","","html-keyboard-response","256","767418","0.0-17.0-2.2","50092","List1A","white","woman","","","","null","","","","","","","","",""
"4690.600000023842","","","survey-text","257","772110","0.0-17.0-3.2","50092","List1A","white","woman","","","","","{""Q0"":""jane is being copied by beth""}","<img src=""stim_listA/copy8.gif""style=""height:400px;""></stim_listA>","is being copied by","","","","","",""
"null","<div style=""font-size:60px;"">+</div>","","html-keyboard-response","258","772611","0.0-17.0-0.3","50092","List1A","white","woman","","","","null","","","","","","","","",""
"null","<img src=""stim_listA/greet8.gif""style=""height:400px;""></stim_listA>","","html-keyboard-response","259","774614","0.0-17.0-1.3","50092","List1A","white","woman","","","","null","","","","","","","","",""
"null","is being greeted by","","html-keyboard-response","260","776619","0.0-17.0-2.3","50092","List1A","white","woman","","","","null","","","","","","","","",""
"4553.399999976158","","","survey-text","261","781175","0.0-17.0-3.3","50092","List1A","white","woman","","","","","{""Q0"":""jane is being greeted by beth""}","<img src=""stim_listA/greet8.gif""style=""height:400px;""></stim_listA>","is being greeted by","","","","","",""
"null","<div style=""font-size:60px;"">+</div>","","html-keyboard-response","262","781678","0.0-17.0-0.4","50092","List1A","white","woman","","","","null","","","","","","","","",""
"null","<img src=""stim_listA/seduce3.gif""style=""height:400px;""></stim_listA>","","html-keyboard-response","263","783684","0.0-17.0-1.4","50092","List1A","white","woman","","","","null","","","","","","","","",""
"null","is seducing","","html-keyboard-response","264","785687","0.0-17.0-2.4","50092","List1A","white","woman","","","","null","","","","","","","","",""
"5230.600000023842","","","survey-text","265","790919","0.0-17.0-3.4","50092","List1A","white","woman","","","","","{""Q0"":""luke is seducing jane""}","<img src=""stim_listA/seduce3.gif""style=""height:400px;""></stim_listA>","is seducing","","","","","",""
"null","<div style=""font-size:60px;"">+</div>","","html-keyboard-response","266","791423","0.0-17.0-0.5","50092","List1A","white","woman","","","","null","","","","","","","","",""
"null","<img src=""stim_listA/hug2.gif""style=""height:400px;""></stim_listA>","","html-keyboard-response","267","793428","0.0-17.0-1.5","50092","List1A","white","woman","","","","null","","","","","","","","",""
"null","is being hugged by","","html-keyboard-response","268","795430","0.0-17.0-2.5","50092","List1A","white","woman","","","","null","","","","","","","","",""
"5622.600000023842","","","survey-text","269","801054","0.0-17.0-3.5","50092","List1A","white","woman","","","","","{""Q0"":""kate is being hugged by mike""}","<img src=""stim_listA/hug2.gif""style=""height:400px;""></stim_listA>","is being hugged by","","","","","",""
"null","<div style=""font-size:60px;"">+</div>","","html-keyboard-response","270","801556","0.0-17.0-0.6","50092","List1A","white","woman","","","","null","","","","","","","","",""
"null","<img src=""stim_listA/oppose6.gif""style=""height:400px;""></stim_listA>","","html-keyboard-response","271","803559","0.0-17.0-1.6","50092","List1A","white","woman","","","","null","","","","","","","","",""
"null","is being opposed by","","html-keyboard-response","272","805562","0.0-17.0-2.6","50092","List1A","white","woman","","","","null","","","","","","","","",""
"7522.700000047684","","","survey-text","273","813086","0.0-17.0-3.6","50092","List1A","white","woman","","","","","{""Q0"":""luke is being opposed by fred""}","<img src=""stim_listA/oppose6.gif""style=""height:400px;""></stim_listA>","is being opposed by","","","","","",""
"null","<div style=""font-size:60px;"">+</div>","","html-keyboard-response","274","813587","0.0-17.0-0.7","50092","List1A","white","woman","","","","null","","","","","","","","",""
"null","<img src=""stim_listA/kiss6.gif""style=""height:400px;""></stim_listA>","","html-keyboard-response","275","815589","0.0-17.0-1.7","50092","List1A","white","woman","","","","null","","","","","","","","",""
"null","is being kissed by","","html-keyboard-response","276","817590","0.0-17.0-2.7","50092","List1A","white","woman","","","","null","","","","","","","","",""
"4447.699999988079","","","survey-text","277","822039","0.0-17.0-3.7","50092","List1A","white","woman","","","","","{""Q0"":""dave is being kissed by mike""}","<img src=""stim_listA/kiss6.gif""style=""height:400px;""></stim_listA>","is being kissed by","","","","","",""
"null","<div style=""font-size:60px;"">+</div>","","html-keyboard-response","278","822540","0.0-17.0-0.8","50092","List1A","white","woman","","","","null","","","","","","","","",""
"null","<img src=""stim_listA/seduce2.gif""style=""height:400px;""></stim_listA>","","html-keyboard-response","279","824542","0.0-17.0-1.8","50092","List1A","white","woman","","","","null","","","","","","","","",""
"null","is being seduced by","","html-keyboard-response","280","826544","0.0-17.0-2.8","50092","List1A","white","woman","","","","null","","","","","","","","",""
"5588.900000035763","","","survey-text","281","832134","0.0-17.0-3.8","50092","List1A","white","woman","","","","","{""Q0"":""beth is being seduced by mike""}","<img src=""stim_listA/seduce2.gif""style=""height:400px;""></stim_listA>","is being seduced by","","","","","",""
"null","<div style=""font-size:60px;"">+</div>","","html-keyboard-response","282","832638","0.0-17.0-0.9","50092","List1A","white","woman","","","","null","","","","","","","","",""
"null","<img src=""stim_listA/kiss1.gif""style=""height:400px;""></stim_listA>","","html-keyboard-response","283","834642","0.0-17.0-1.9","50092","List1A","white","woman","","","","null","","","","","","","","",""
"null","is kissing","","html-keyboard-response","284","836644","0.0-17.0-2.9","50092","List1A","white","woman","","","","null","","","","","","","","",""
"3168.100000023842","","","survey-text","285","839814","0.0-17.0-3.9","50092","List1A","white","woman","","","","","{""Q0"":""fred is kissing beth""}","<img src=""stim_listA/kiss1.gif""style=""height:400px;""></stim_listA>","is kissing","","","","","",""
"null","<div style=""font-size:60px;"">+</div>","","html-keyboard-response","286","840318","0.0-17.0-0.10","50092","List1A","white","woman","","","","null","","","","","","","","",""
"null","<img src=""stim_listA/shout8.gif""style=""height:400px;""></stim_listA>","","html-keyboard-response","287","842320","0.0-17.0-1.10","50092","List1A","white","woman","","","","null","","","","","","","","",""
"null","is being shouted at by","","html-keyboard-response","288","844321","0.0-17.0-2.10","50092","List1A","white","woman","","","","null","","","","","","","","",""
"5011.699999988079","","","survey-text","289","849335","0.0-17.0-3.10","50092","List1A","white","woman","","","","","{""Q0"":""jane is being shouted at by kate""}","<img src=""stim_listA/shout8.gif""style=""height:400px;""></stim_listA>","is being shouted at by","","","","","",""
"null","<div style=""font-size:60px;"">+</div>","","html-keyboard-response","290","849835","0.0-17.0-0.11","50092","List1A","white","woman","","","","null","","","","","","","","",""
"null","<img src=""stim_listA/touch8.gif""style=""height:400px;""></stim_listA>","","html-keyboard-response","291","851838","0.0-17.0-1.11","50092","List1A","white","woman","","","","null","","","","","","","","",""
"null","is being touched by","","html-keyboard-response","292","853842","0.0-17.0-2.11","50092","List1A","white","woman","","","","null","","","","","","","","",""
"4788","","","survey-text","293","858631","0.0-17.0-3.11","50092","List1A","white","woman","","","","","{""Q0"":""ruth is being touched by beth""}","<img src=""stim_listA/touch8.gif""style=""height:400px;""></stim_listA>","is being touched by","","","","","",""
"null","<div style=""font-size:60px;"">+</div>","","html-keyboard-response","294","859132","0.0-17.0-0.12","50092","List1A","white","woman","","","","null","","","","","","","","",""
"null","<img src=""stim_listA/look3.gif""style=""height:400px;""></stim_listA>","","html-keyboard-response","295","861136","0.0-17.0-1.12","50092","List1A","white","woman","","","","null","","","","","","","","",""
"null","is looking at","","html-keyboard-response","296","863140","0.0-17.0-2.12","50092","List1A","white","woman","","","","null","","","","","","","","",""
"4527.800000011921","","","survey-text","297","867671","0.0-17.0-3.12","50092","List1A","white","woman","","","","","{""Q0"":""ruth is looking at luke""}","<img src=""stim_listA/look3.gif""style=""height:400px;""></stim_listA>","is looking at","","","","","",""
"null","<div style=""font-size:60px;"">+</div>","","html-keyboard-response","298","868175","0.0-17.0-0.13","50092","List1A","white","woman","","","","null","","","","","","","","",""
"null","<img src=""stim_listA/hug3.gif""style=""height:400px;""></stim_listA>","","html-keyboard-response","299","870177","0.0-17.0-1.13","50092","List1A","white","woman","","","","null","","","","","","","","",""
"null","is hugging","","html-keyboard-response","300","872179","0.0-17.0-2.13","50092","List1A","white","woman","","","","null","","","","","","","","",""
"5186.5","","","survey-text","301","877367","0.0-17.0-3.13","50092","List1A","white","woman","","","","","{""Q0"":""luke is hugging ruth""}","<img src=""stim_listA/hug3.gif""style=""height:400px;""></stim_listA>","is hugging","","","","","",""
"null","<div style=""font-size:60px;"">+</div>","","html-keyboard-response","302","877871","0.0-17.0-0.14","50092","List1A","white","woman","","","","null","","","","","","","","",""
"null","<img src=""stim_listA/hug6.gif""style=""height:400px;""></stim_listA>","","html-keyboard-response","303","879877","0.0-17.0-1.14","50092","List1A","white","woman","","","","null","","","","","","","","",""
"null","is being hugged by","","html-keyboard-response","304","881878","0.0-17.0-2.14","50092","List1A","white","woman","","","","null","","","","","","","","",""
"6782.699999988079","","","survey-text","305","888663","0.0-17.0-3.14","50092","List1A","white","woman","","","","","{""Q0"":""dave is being hugged by mike""}","<img src=""stim_listA/hug6.gif""style=""height:400px;""></stim_listA>","is being hugged by","","","","","",""
"null","<div style=""font-size:60px;"">+</div>","","html-keyboard-response","306","889167","0.0-17.0-0.15","50092","List1A","white","woman","","","","null","","","","","","","","",""
"null","<img src=""stim_listA/seduce1.gif""style=""height:400px;""></stim_listA>","","html-keyboard-response","307","891168","0.0-17.0-1.15","50092","List1A","white","woman","","","","null","","","","","","","","",""
"null","is seducing","","html-keyboard-response","308","893169","0.0-17.0-2.15","50092","List1A","white","woman","","","","null","","","","","","","","",""
"4348.400000035763","","","survey-text","309","897519","0.0-17.0-3.15","50092","List1A","white","woman","","","","","{""Q0"":""fred is seducing kate""}","<img src=""stim_listA/seduce1.gif""style=""height:400px;""></stim_listA>","is seducing","","","","","",""
"null","<div style=""font-size:60px;"">+</div>","","html-keyboard-response","310","898023","0.0-17.0-0.16","50092","List1A","white","woman","","","","null","","","","","","","","",""
"null","<img src=""stim_listA/challenge6.gif""style=""height:400px;""></stim_listA>","","html-keyboard-response","311","900025","0.0-17.0-1.16","50092","List1A","white","woman","","","","null","","","","","","","","",""
"null","is being challenged by","","html-keyboard-response","312","902027","0.0-17.0-2.16","50092","List1A","white","woman","","","","null","","","","","","","","",""
"5617.5","","","survey-text","313","907646","0.0-17.0-3.16","50092","List1A","white","woman","","","","","{""Q0"":""dave is being challenged by fred""}","<img src=""stim_listA/challenge6.gif""style=""height:400px;""></stim_listA>","is being challenged by","","","","","",""
"null","<div style=""font-size:60px;"">+</div>","","html-keyboard-response","314","908150","0.0-17.0-0.17","50092","List1A","white","woman","","","","null","","","","","","","","",""
"null","<img src=""stim_listA/greet2.gif""style=""height:400px;""></stim_listA>","","html-keyboard-response","315","910155","0.0-17.0-1.17","50092","List1A","white","woman","","","","null","","","","","","","","",""
"null","is being greeted by","","html-keyboard-response","316","912159","0.0-17.0-2.17","50092","List1A","white","woman","","","","null","","","","","","","","",""
"7222.199999988079","","","survey-text","317","919382","0.0-17.0-3.17","50092","List1A","white","woman","","","","","{""Q0"":""kate is being greeted by fred""}","<img src=""stim_listA/greet2.gif""style=""height:400px;""></stim_listA>","is being greeted by","","","","","",""
"null","<div style=""font-size:60px;"">+</div>","","html-keyboard-response","318","919883","0.0-17.0-0.18","50092","List1A","white","woman","","","","null","","","","","","","","",""
"null","<img src=""stim_listA/shout4.gif""style=""height:400px;""></stim_listA>","","html-keyboard-response","319","921886","0.0-17.0-1.18","50092","List1A","white","woman","","","","null","","","","","","","","",""
"null","is being shouted at by","","html-keyboard-response","320","923887","0.0-17.0-2.18","50092","List1A","white","woman","","","","null","","","","","","","","",""
"4493.699999988079","","","survey-text","321","928382","0.0-17.0-3.18","50092","List1A","white","woman","","","","","{""Q0"":""jane is being shouted at by dave""}","<img src=""stim_listA/shout4.gif""style=""height:400px;""></stim_listA>","is being shouted at by","","","","","",""
"null","<div style=""font-size:60px;"">+</div>","","html-keyboard-response","322","928887","0.0-17.0-0.19","50092","List1A","white","woman","","","","null","","","","","","","","",""
"null","<img src=""stim_listA/touch4.gif""style=""height:400px;""></stim_listA>","","html-keyboard-response","323","930890","0.0-17.0-1.19","50092","List1A","white","woman","","","","null","","","","","","","","",""
"null","is being touched by","","html-keyboard-response","324","932896","0.0-17.0-2.19","50092","List1A","white","woman","","","","null","","","","","","","","",""
"6109.100000023842","","","survey-text","325","939007","0.0-17.0-3.19","50092","List1A","white","woman","","","","","{""Q0"":""luke is being touched by ruth""}","<img src=""stim_listA/touch4.gif""style=""height:400px;""></stim_listA>","is being touched by","","","","","",""
"2741.699999988079","<img src='img/portrait_matrix_list1.jpg' style='width:900px;height:500px;''></img><p>If you have memorised all the portraits and names and are ready to start, press Continue.</p><p><strong>Please note: Your memory of these faces will be tested 4 times during this experiment.</strong></p>","0","html-button-response","326","941750","0.0-18.0-0.0","50092","List1A","white","woman","","","","","","","","","","","","",""
"2421.300000011921","<img src=""portrait/WM1.jpg""style=""height:400px;""></img>","6","html-button-response","327","945174","0.0-18.0-1.0","50092","List1A","white","woman","","true","6","","","","","","","","","",""
"null","CORRECT","","html-keyboard-response","328","946679","0.0-18.0-2.0-0.0","50092","List1A","white","woman","","","","null","","","","","","","","",""
"1845.4000000357628","<img src=""portrait/BW1.jpg""style=""height:400px;""></img>","0","html-button-response","329","948526","0.0-18.0-4.0","50092","List1A","white","woman","","true","0","","","","","","","","","",""
"null","CORRECT","","html-keyboard-response","330","950029","0.0-18.0-5.0-0.0","50092","List1A","white","woman","","","","null","","","","","","","","",""
"1519.800000011921","<img src=""portrait/WM2.jpg""style=""height:400px;""></img>","7","html-button-response","331","951550","0.0-18.0-7.0","50092","List1A","white","woman","","true","7","","","","","","","","","",""
"null","CORRECT","","html-keyboard-response","332","953052","0.0-18.0-8.0-0.0","50092","List1A","white","woman","","","","null","","","","","","","","",""
"1385.1000000238419","<img src=""portrait/BM2.jpg""style=""height:400px;""></img>","5","html-button-response","333","954438","0.0-18.0-10.0","50092","List1A","white","woman","","true","5","","","","","","","","","",""
"null","CORRECT","","html-keyboard-response","334","955946","0.0-18.0-11.0-0.0","50092","List1A","white","woman","","","","null","","","","","","","","",""
"1763.3999999761581","<img src=""portrait/BW2.jpg""style=""height:400px;""></img>","2","html-button-response","335","957710","0.0-18.0-13.0","50092","List1A","white","woman","","true","2","","","","","","","","","",""
"null","CORRECT","","html-keyboard-response","336","959214","0.0-18.0-14.0-0.0","50092","List1A","white","woman","","","","null","","","","","","","","",""
"975.3999999761581","<img src=""portrait/WW2.jpg""style=""height:400px;""></img>","3","html-button-response","337","960190","0.0-18.0-16.0","50092","List1A","white","woman","","true","3","","","","","","","","","",""
"null","CORRECT","","html-keyboard-response","338","961696","0.0-18.0-17.0-0.0","50092","List1A","white","woman","","","","null","","","","","","","","",""
"1141.300000011921","<img src=""portrait/WW1.jpg""style=""height:400px;""></img>","1","html-button-response","339","962838","0.0-18.0-19.0","50092","List1A","white","woman","","true","1","","","","","","","","","",""
"null","CORRECT","","html-keyboard-response","340","964344","0.0-18.0-20.0-0.0","50092","List1A","white","woman","","","","null","","","","","","","","",""
"1436.6000000238419","<img src=""portrait/BM1.jpg""style=""height:400px;""></img>","4","html-button-response","341","965782","0.0-18.0-22.0","50092","List1A","white","woman","","true","4","","","","","","","","","",""
"null","CORRECT","","html-keyboard-response","342","967288","0.0-18.0-23.0-0.0","50092","List1A","white","woman","","","","null","","","","","","","","",""
"3028.800000011921","<p>You got 8 out of 8 right first time. Press Continue.</p>","0","html-button-response","343","970318","0.0-18.0-25.0","50092","List1A","white","woman","","","","","","","","","","","","",""
"null","<div style=""font-size:60px;"">+</div>","","html-keyboard-response","344","971822","0.0-19.0-0.0","50092","List1A","white","woman","","","","null","","","","","","","","",""
"null","<img src=""stim_listA/oppose5.gif""style=""height:400px;""></stim_listA>","","html-keyboard-response","345","973828","0.0-19.0-1.0","50092","List1A","white","woman","","","","null","","","","","","","","",""
"null","is opposing","","html-keyboard-response","346","975831","0.0-19.0-2.0","50092","List1A","white","woman","","","","null","","","","","","","","",""
"3870.699999988079","","","survey-text","347","979704","0.0-19.0-3.0","50092","List1A","white","woman","","","","","{""Q0"":""mike is opposing dave""}","<img src=""stim_listA/oppose5.gif""style=""height:400px;""></stim_listA>","is opposing","","","","","",""
"null","<div style=""font-size:60px;"">+</div>","","html-keyboard-response","348","980204","0.0-19.0-0.1","50092","List1A","white","woman","","","","null","","","","","","","","",""
"null","<img src=""stim_listA/kiss8.gif""style=""height:400px;""></stim_listA>","","html-keyboard-response","349","982205","0.0-19.0-1.1","50092","List1A","white","woman","","","","null","","","","","","","","",""
"null","is being kissed by","","html-keyboard-response","350","984210","0.0-19.0-2.1","50092","List1A","white","woman","","","","null","","","","","","","","",""
"8299.700000047684","","","survey-text","351","992511","0.0-19.0-3.1","50092","List1A","white","woman","","","","","{""Q0"":""jane is being kissed by kate""}","<img src=""stim_listA/kiss8.gif""style=""height:400px;""></stim_listA>","is being kissed by","","","","","",""
"null","<div style=""font-size:60px;"">+</div>","","html-keyboard-response","352","993015","0.0-19.0-0.2","50092","List1A","white","woman","","","","null","","","","","","","","",""
"null","<img src=""stim_listA/oppose7.gif""style=""height:400px;""></stim_listA>","","html-keyboard-response","353","995020","0.0-19.0-1.2","50092","List1A","white","woman","","","","null","","","","","","","","",""
"null","is opposing","","html-keyboard-response","354","997024","0.0-19.0-2.2","50092","List1A","white","woman","","","","null","","","","","","","","",""
"3805.300000011921","","","survey-text","355","1000831","0.0-19.0-3.2","50092","List1A","white","woman","","","","","{""Q0"":""kate is opposing jane""}","<img src=""stim_listA/oppose7.gif""style=""height:400px;""></stim_listA>","is opposing","","","","","",""
"null","<div style=""font-size:60px;"">+</div>","","html-keyboard-response","356","1001332","0.0-19.0-0.3","50092","List1A","white","woman","","","","null","","","","","","","","",""
"null","<img src=""stim_listA/greet6.gif""style=""height:400px;""></stim_listA>","","html-keyboard-response","357","1003335","0.0-19.0-1.3","50092","List1A","white","woman","","","","null","","","","","","","","",""
"null","is being greeted by","","html-keyboard-response","358","1005337","0.0-19.0-2.3","50092","List1A","white","woman","","","","null","","","","","","","","",""
"4499.899999976158","","","survey-text","359","1009839","0.0-19.0-3.3","50092","List1A","white","woman","","","","","{""Q0"":""dave is being greeted by fred""}","<img src=""stim_listA/greet6.gif""style=""height:400px;""></stim_listA>","is being greeted by","","","","","",""
"null","<div style=""font-size:60px;"">+</div>","","html-keyboard-response","360","1010343","0.0-19.0-0.4","50092","List1A","white","woman","","","","null","","","","","","","","",""
"null","<img src=""stim_listA/greet1.gif""style=""height:400px;""></stim_listA>","","html-keyboard-response","361","1012349","0.0-19.0-1.4","50092","List1A","white","woman","","","","null","","","","","","","","",""
"null","is greeting","","html-keyboard-response","362","1014352","0.0-19.0-2.4","50092","List1A","white","woman","","","","null","","","","","","","","",""
"4309.5","","","survey-text","363","1018663","0.0-19.0-3.4","50092","List1A","white","woman","","","","","{""Q0"":""mike is greeting beth""}","<img src=""stim_listA/greet1.gif""style=""height:400px;""></stim_listA>","is greeting","","","","","",""
"null","<div style=""font-size:60px;"">+</div>","","html-keyboard-response","364","1019167","0.0-19.0-0.5","50092","List1A","white","woman","","","","null","","","","","","","","",""
"null","<img src=""stim_listA/touch1.gif""style=""height:400px;""></stim_listA>","","html-keyboard-response","365","1021169","0.0-19.0-1.5","50092","List1A","white","woman","","","","null","","","","","","","","",""
"null","is touching","","html-keyboard-response","366","1023170","0.0-19.0-2.5","50092","List1A","white","woman","","","","null","","","","","","","","",""
"3043.100000023842","","","survey-text","367","1026215","0.0-19.0-3.5","50092","List1A","white","woman","","","","","{""Q0"":""mike is touching kate""}","<img src=""stim_listA/touch1.gif""style=""height:400px;""></stim_listA>","is touching","","","","","",""
"null","<div style=""font-size:60px;"">+</div>","","html-keyboard-response","368","1026719","0.0-19.0-0.6","50092","List1A","white","woman","","","","null","","","","","","","","",""
"null","<img src=""stim_listA/oppose2.gif""style=""height:400px;""></stim_listA>","","html-keyboard-response","369","1028722","0.0-19.0-1.6","50092","List1A","white","woman","","","","null","","","","","","","","",""
"null","is being opposed by","","html-keyboard-response","370","1030723","0.0-19.0-2.6","50092","List1A","white","woman","","","","null","","","","","","","","",""
"4698.300000011921","","","survey-text","371","1035423","0.0-19.0-3.6","50092","List1A","white","woman","","","","","{""Q0"":""beth is being opposed by fred""}","<img src=""stim_listA/oppose2.gif""style=""height:400px;""></stim_listA>","is being opposed by","","","","","",""
"null","<div style=""font-size:60px;"">+</div>","","html-keyboard-response","372","1035927","0.0-19.0-0.7","50092","List1A","white","woman","","","","null","","","","","","","","",""
"null","<img src=""stim_listA/touch3.gif""style=""height:400px;""></stim_listA>","","html-keyboard-response","373","1037933","0.0-19.0-1.7","50092","List1A","white","woman","","","","null","","","","","","","","",""
"null","is touching","","html-keyboard-response","374","1039936","0.0-19.0-2.7","50092","List1A","white","woman","","","","null","","","","","","","","",""
"3404.899999976158","","","survey-text","375","1043343","0.0-19.0-3.7","50092","List1A","white","woman","","","","","{""Q0"":""dave is touching jane""}","<img src=""stim_listA/touch3.gif""style=""height:400px;""></stim_listA>","is touching","","","","","",""
"null","<div style=""font-size:60px;"">+</div>","","html-keyboard-response","376","1043847","0.0-19.0-0.8","50092","List1A","white","woman","","","","null","","","","","","","","",""
"null","<img src=""stim_listA/copy7.gif""style=""height:400px;""></stim_listA>","","html-keyboard-response","377","1045850","0.0-19.0-1.8","50092","List1A","white","woman","","","","null","","","","","","","","",""
"null","is copying","","html-keyboard-response","378","1047855","0.0-19.0-2.8","50092","List1A","white","woman","","","","null","","","","","","","","",""
"5207.100000023842","","","survey-text","379","1053063","0.0-19.0-3.8","50092","List1A","white","woman","","","","","{""Q0"":""kate is copying ruth""}","<img src=""stim_listA/copy7.gif""style=""height:400px;""></stim_listA>","is copying","","","","","",""
"null","<div style=""font-size:60px;"">+</div>","","html-keyboard-response","380","1053567","0.0-19.0-0.9","50092","List1A","white","woman","","","","null","","","","","","","","",""
"null","<img src=""stim_listA/shout1.gif""style=""height:400px;""></stim_listA>","","html-keyboard-response","381","1055572","0.0-19.0-1.9","50092","List1A","white","woman","","","","null","","","","","","","","",""
"null","is shouting at","","html-keyboard-response","382","1057577","0.0-19.0-2.9","50092","List1A","white","woman","","","","null","","","","","","","","",""
"3892.899999976158","","","survey-text","383","1061471","0.0-19.0-3.9","50092","List1A","white","woman","","","","","{""Q0"":""fred is shouting at beth""}","<img src=""stim_listA/shout1.gif""style=""height:400px;""></stim_listA>","is shouting at","","","","","",""
"null","<div style=""font-size:60px;"">+</div>","","html-keyboard-response","384","1061975","0.0-19.0-0.10","50092","List1A","white","woman","","","","null","","","","","","","","",""
"null","<img src=""stim_listA/greet3.gif""style=""height:400px;""></stim_listA>","","html-keyboard-response","385","1063979","0.0-19.0-1.10","50092","List1A","white","woman","","","","null","","","","","","","","",""
"null","is greeting","","html-keyboard-response","386","1065984","0.0-19.0-2.10","50092","List1A","white","woman","","","","null","","","","","","","","",""
"3588.5","","","survey-text","387","1069575","0.0-19.0-3.10","50092","List1A","white","woman","","","","","{""Q0"":""dave is greeting ruth""}","<img src=""stim_listA/greet3.gif""style=""height:400px;""></stim_listA>","is greeting","","","","","",""
"null","<div style=""font-size:60px;"">+</div>","","html-keyboard-response","388","1070080","0.0-19.0-0.11","50092","List1A","white","woman","","","","null","","","","","","","","",""
"null","<img src=""stim_listA/look5.gif""style=""height:400px;""></stim_listA>","","html-keyboard-response","389","1072082","0.0-19.0-1.11","50092","List1A","white","woman","","","","null","","","","","","","","",""
"null","is looking at","","html-keyboard-response","390","1074085","0.0-19.0-2.11","50092","List1A","white","woman","","","","null","","","","","","","","",""
"7016.5","","","survey-text","391","1081104","0.0-19.0-3.11","50092","List1A","white","woman","","","","","{""Q0"":""fred is looking at luke""}","<img src=""stim_listA/look5.gif""style=""height:400px;""></stim_listA>","is looking at","","","","","",""
"null","<div style=""font-size:60px;"">+</div>","","html-keyboard-response","392","1081607","0.0-19.0-0.12","50092","List1A","white","woman","","","","null","","","","","","","","",""
"null","<img src=""stim_listA/greet4.gif""style=""height:400px;""></stim_listA>","","html-keyboard-response","393","1083613","0.0-19.0-1.12","50092","List1A","white","woman","","","","null","","","","","","","","",""
"null","is being greeted by","","html-keyboard-response","394","1085615","0.0-19.0-2.12","50092","List1A","white","woman","","","","null","","","","","","","","",""
"5079.900000035763","","","survey-text","395","1090696","0.0-19.0-3.12","50092","List1A","white","woman","","","","","{""Q0"":""luke is being greeted by jane""}","<img src=""stim_listA/greet4.gif""style=""height:400px;""></stim_listA>","is being greeted by","","","","","",""
"null","<div style=""font-size:60px;"">+</div>","","html-keyboard-response","396","1091198","0.0-19.0-0.13","50092","List1A","white","woman","","","","null","","","","","","","","",""
"null","<img src=""stim_listA/shout2.gif""style=""height:400px;""></stim_listA>","","html-keyboard-response","397","1093203","0.0-19.0-1.13","50092","List1A","white","woman","","","","null","","","","","","","","",""
"null","is being shouted at by","","html-keyboard-response","398","1095206","0.0-19.0-2.13","50092","List1A","white","woman","","","","null","","","","","","","","",""
"5231.700000047684","","","survey-text","399","1100439","0.0-19.0-3.13","50092","List1A","white","woman","","","","","{""Q0"":""kate is being shouted at by mike""}","<img src=""stim_listA/shout2.gif""style=""height:400px;""></stim_listA>","is being shouted at by","","","","","",""
"null","<div style=""font-size:60px;"">+</div>","","html-keyboard-response","400","1100944","0.0-19.0-0.14","50092","List1A","white","woman","","","","null","","","","","","","","",""
"null","<img src=""stim_listA/challenge4.gif""style=""height:400px;""></stim_listA>","","html-keyboard-response","401","1102948","0.0-19.0-1.14","50092","List1A","white","woman","","","","null","","","","","","","","",""
"null","is being challenged by","","html-keyboard-response","402","1104953","0.0-19.0-2.14","50092","List1A","white","woman","","","","null","","","","","","","","",""
"6413.899999976158","","","survey-text","403","1111368","0.0-19.0-3.14","50092","List1A","white","woman","","","","","{""Q0"":""jane is being challenged by luke""}","<img src=""stim_listA/challenge4.gif""style=""height:400px;""></stim_listA>","is being challenged by","","","","","",""
"null","<div style=""font-size:60px;"">+</div>","","html-keyboard-response","404","1111871","0.0-19.0-0.15","50092","List1A","white","woman","","","","null","","","","","","","","",""
"null","<img src=""stim_listA/copy5.gif""style=""height:400px;""></stim_listA>","","html-keyboard-response","405","1113875","0.0-19.0-1.15","50092","List1A","white","woman","","","","null","","","","","","","","",""
"null","is copying","","html-keyboard-response","406","1115879","0.0-19.0-2.15","50092","List1A","white","woman","","","","null","","","","","","","","",""
"3398.699999988079","","","survey-text","407","1119279","0.0-19.0-3.15","50092","List1A","white","woman","","","","","{""Q0"":""mike is copying luke""}","<img src=""stim_listA/copy5.gif""style=""height:400px;""></stim_listA>","is copying","","","","","",""
"null","<div style=""font-size:60px;"">+</div>","","html-keyboard-response","408","1119784","0.0-19.0-0.16","50092","List1A","white","woman","","","","null","","","","","","","","",""
"null","<img src=""stim_listA/kiss4.gif""style=""height:400px;""></stim_listA>","","html-keyboard-response","409","1121787","0.0-19.0-1.16","50092","List1A","white","woman","","","","null","","","","","","","","",""
"null","is being kissed by","","html-keyboard-response","410","1123791","0.0-19.0-2.16","50092","List1A","white","woman","","","","null","","","","","","","","",""
"4414.900000035763","","","survey-text","411","1128208","0.0-19.0-3.16","50092","List1A","white","woman","","","","","{""Q0"":""jane is being kissed by dave""}","<img src=""stim_listA/kiss4.gif""style=""height:400px;""></stim_listA>","is being kissed by","","","","","",""
"null","<div style=""font-size:60px;"">+</div>","","html-keyboard-response","412","1128712","0.0-19.0-0.17","50092","List1A","white","woman","","","","null","","","","","","","","",""
"null","<img src=""stim_listA/greet5.gif""style=""height:400px;""></stim_listA>","","html-keyboard-response","413","1130713","0.0-19.0-1.17","50092","List1A","white","woman","","","","null","","","","","","","","",""
"null","is greeting","","html-keyboard-response","414","1132718","0.0-19.0-2.17","50092","List1A","white","woman","","","","null","","","","","","","","",""
"4064.599999964237","","","survey-text","415","1136784","0.0-19.0-3.17","50092","List1A","white","woman","","","","","{""Q0"":""mike is greeting luke""}","<img src=""stim_listA/greet5.gif""style=""height:400px;""></stim_listA>","is greeting","","","","","",""
"null","<div style=""font-size:60px;"">+</div>","","html-keyboard-response","416","1137285","0.0-19.0-0.18","50092","List1A","white","woman","","","","null","","","","","","","","",""
"null","<img src=""stim_listA/hug1.gif""style=""height:400px;""></stim_listA>","","html-keyboard-response","417","1139290","0.0-19.0-1.18","50092","List1A","white","woman","","","","null","","","","","","","","",""
"null","is hugging","","html-keyboard-response","418","1141293","0.0-19.0-2.18","50092","List1A","white","woman","","","","null","","","","","","","","",""
"3145.399999976158","","","survey-text","419","1144440","0.0-19.0-3.18","50092","List1A","white","woman","","","","","{""Q0"":""beth is hugging fred""}","<img src=""stim_listA/hug1.gif""style=""height:400px;""></stim_listA>","is hugging","","","","","",""
"null","<div style=""font-size:60px;"">+</div>","","html-keyboard-response","420","1144942","0.0-19.0-0.19","50092","List1A","white","woman","","","","null","","","","","","","","",""
"null","<img src=""stim_listA/look7.gif""style=""height:400px;""></stim_listA>","","html-keyboard-response","421","1146948","0.0-19.0-1.19","50092","List1A","white","woman","","","","null","","","","","","","","",""
"null","is looking at","","html-keyboard-response","422","1148950","0.0-19.0-2.19","50092","List1A","white","woman","","","","null","","","","","","","","",""
"4111.800000011921","","","survey-text","423","1153064","0.0-19.0-3.19","50092","List1A","white","woman","","","","","{""Q0"":""beth is looking at ruth""}","<img src=""stim_listA/look7.gif""style=""height:400px;""></stim_listA>","is looking at","","","","","",""
"2478.199999988079","<p>Thank you for completing that task.</p><p>The final part of this session is a questionnaire that will take about 4 minutes.</p><p>Press Continue.</p>","0","html-button-response","424","1155543","0.0-20.0","50092","List1A","white","woman","","","","","","","","","","","","",""
"20333","","","survey-text","425","1176879","0.0-21.0","50092","List1A","white","woman","","","","","{""Q0"":""52"",""Q1"":""english"",""Q2"":""english"",""Q3"":""United States"",""Q4"":""United States"",""Q5"":""white"",""Q6"":""female""}","","","demographics","","","","",""
"2054.300000011921","<p>Have you lived in the USA for the last 5 years or more?</p>","0","html-button-response","426","1178935","0.0-22.0","50092","List1A","white","woman","","","","","","","","fiveyears","","","","",""
"2566.800000011921","<p>Move the slider to show the extent to which you agree with the following statements.</p>","0","html-button-response","427","1182503","0.0-23.0","50092","List1A","white","woman","","","","","","","","","","","","",""
"4863.700000047684","","","html-slider-response","428","1188376","0.0-24.0-0.0-0.0","50092","List1A","white","woman","","","","","","","","survey_race","72","","","Getting older does not worry me.","filler"
"4142","","","html-slider-response","429","1192519","0.0-24.0-0.0-0.1","50092","List1A","white","woman","","","","","","","","survey_race","90","","","I am glad to be my age.","filler"
"4630.899999976158","","","html-slider-response","430","1197151","0.0-24.0-0.0-0.2","50092","List1A","white","woman","","","","","","","","survey_race","31","","","I am similar to the average person of my race.","similar"
"5142.199999988079","","","html-slider-response","431","1202295","0.0-24.0-0.0-0.3","50092","List1A","white","woman","","","","","","","","survey_race","33","","","I think that my race has a lot to be proud of.","proud"
"4639.199999988079","","","html-slider-response","432","1206935","0.0-24.0-0.0-0.4","50092","List1A","white","woman","","","","","","","","survey_race","62","","","Being my age gives me a good feeling.","filler"
"3582.800000011921","","","html-slider-response","433","1210519","0.0-24.0-0.0-0.5","50092","List1A","white","woman","","","","","","","","survey_race","0","","","People of my race are very similar to each other.","verysimilar"
"4462.899999976158","","","html-slider-response","434","1214983","0.0-24.0-0.0-0.6","50092","List1A","white","woman","","","","","","","","survey_race","42","","","I have a lot in common with people of a similar age to me.","filler"
"3431","","","html-slider-response","435","1218416","0.0-24.0-0.0-0.7","50092","List1A","white","woman","","","","","","","","survey_race","0","","","Being my race is an important part of how I see myself.","important"
"5806.600000023842","","","html-slider-response","436","1224224","0.0-24.0-0.0-0.8","50092","List1A","white","woman","","","","","","","","survey_race","53","","","I often think about the fact that I am my age.","filler"
"4718.099999964237","","","html-slider-response","437","1228943","0.0-24.0-0.0-0.9","50092","List1A","white","woman","","","","","","","","survey_race","61","","","I am glad to be the age I am.","filler"
"2982.899999976158","","","html-slider-response","438","1231927","0.0-24.0-0.0-0.10","50092","List1A","white","woman","","","","","","","","survey_race","0","","","Being my race gives me a good feeling.","feeling"
"3830.5","","","html-slider-response","439","1235759","0.0-24.0-0.0-0.11","50092","List1A","white","woman","","","","","","","","survey_race","0","","","People of my race have a lot in common with each other.","common"
"3175.199999988079","","","html-slider-response","440","1238935","0.0-24.0-0.0-0.12","50092","List1A","white","woman","","","","","","","","survey_race","0","","","I often think about the fact that I am my race.","often"
"2935.5","","","html-slider-response","441","1241872","0.0-24.0-0.0-0.13","50092","List1A","white","woman","","","","","","","","survey_race","0","","","I feel a bond with my race.","bond"
"3078.599999964237","","","html-slider-response","442","1244952","0.0-24.0-0.0-0.14","50092","List1A","white","woman","","","","","","","","survey_race","67","","","I consider myself an introvert.","filler"
"4366.5","","","html-slider-response","443","1249319","0.0-24.0-0.0-0.15","50092","List1A","white","woman","","","","","","","","survey_race","38","","","My age is not an important part of who I am.","filler"
"5047","","","html-slider-response","444","1254368","0.0-24.0-0.0-0.16","50092","List1A","white","woman","","","","","","","","survey_race","55","","","I feel solidarity with people the same age as me.","filler"
"3966.199999988079","","","html-slider-response","445","1258335","0.0-24.0-0.0-0.17","50092","List1A","white","woman","","","","","","","","survey_race","0","","","I have a lot in common with the average person of my race.","average"
"4358.5","","","html-slider-response","446","1262695","0.0-24.0-0.0-0.18","50092","List1A","white","woman","","","","","","","","survey_race","18","","","I enjoy being in large groups.","filler"
"6391","","","html-slider-response","447","1269088","0.0-24.0-0.0-0.19","50092","List1A","white","woman","","","","","","","","survey_race","36","","","I feel a bond with people the same age as me.","filler"
"3246.7000000476837","","","html-slider-response","448","1272336","0.0-24.0-0.0-0.20","50092","List1A","white","woman","","","","","","","","survey_race","0","","","I feel solidarity with my race.","solidarity"
"3574.800000011921","","","html-slider-response","449","1275911","0.0-24.0-0.0-0.21","50092","List1A","white","woman","","","","","","","","survey_race","66","","","I am glad to be my race.","glad"
"8270.5","","","html-slider-response","450","1284183","0.0-24.0-0.0-0.22","50092","List1A","white","woman","","","","","","","","survey_race","50","","","The fact that I am my race is an important part of my identity.","identity"
"2974.800000011921","","","html-slider-response","451","1287159","0.0-24.0-0.0-0.23","50092","List1A","white","woman","","","","","","","","survey_race","65","","","The older I get, the wiser I feel.","filler"
"5551.200000047684","","","html-slider-response","452","1292712","0.0-24.0-0.0-0.24","50092","List1A","white","woman","","","","","","","","survey_race","68","","","People my age have a lot in common with each other.","filler"
"2622","","","html-slider-response","453","1295335","0.0-24.0-0.0-0.25","50092","List1A","white","woman","","","","","","","","survey_race","0","","","I feel committed to my race.","committed"
"2687.199999988079","","","html-slider-response","454","1298024","0.0-24.0-0.0-0.26","50092","List1A","white","woman","","","","","","","","survey_race","26","","","I consider myself an extrovert.","filler"
"3094.199999988079","","","html-slider-response","455","1301119","0.0-24.0-0.0-0.27","50092","List1A","white","woman","","","","","","","","survey_race","70","","","It is pleasant to be my race.","pleasant"
"3383.300000011921","","","html-slider-response","456","1304504","0.0-24.0-1.0-0.0","50092","List1A","white","woman","","","","","","","","survey_gender","64","","","My friends understand me.","filler"
"4591","","","html-slider-response","457","1309096","0.0-24.0-1.0-0.1","50092","List1A","white","woman","","","","","","","","survey_gender","38","","","Most of the friends in my life are very similar to me.","filler"
"2598.400000035763","","","html-slider-response","458","1311696","0.0-24.0-1.0-0.2","50092","List1A","white","woman","","","","","","","","survey_gender","65","","","I feel a bond with my friends.","filler"
"5207.100000023842","","","html-slider-response","459","1316904","0.0-24.0-1.0-0.3","50092","List1A","white","woman","","","","","","","","survey_gender","19","","","I have a lot in common with the average person of my gender.","average"
"11062.699999988079","","","html-slider-response","460","1327968","0.0-24.0-1.0-0.4","50092","List1A","white","woman","","","","","","","","survey_gender","29","","","I feel solidarity with my gender.","solidarity"
"5518.900000035763","","","html-slider-response","461","1333488","0.0-24.0-1.0-0.5","50092","List1A","white","woman","","","","","","","","survey_gender","67","","","I feel committed to my gender.","committed"
"5438.100000023842","","","html-slider-response","462","1338927","0.0-24.0-1.0-0.6","50092","List1A","white","woman","","","","","","","","survey_gender","0","","","People of my gender are very similar to each other.","verysimilar"
"3463.199999988079","","","html-slider-response","463","1342392","0.0-24.0-1.0-0.7","50092","List1A","white","woman","","","","","","","","survey_gender","57","","","I often think about the fact that I am my gender.","often"
"3679.300000011921","","","html-slider-response","464","1346072","0.0-24.0-1.0-0.8","50092","List1A","white","woman","","","","","","","","survey_gender","58","","","I would say I am an animal person.","filler"
"2774.300000011921","","","html-slider-response","465","1348848","0.0-24.0-1.0-0.9","50092","List1A","white","woman","","","","","","","","survey_gender","80","","","I am glad to be my gender.","glad"
"4646.599999964237","","","html-slider-response","466","1353496","0.0-24.0-1.0-0.10","50092","List1A","white","woman","","","","","","","","survey_gender","34","","","My friends have a lot in common with each other.","filler"
"4494.399999976158","","","html-slider-response","467","1357991","0.0-24.0-1.0-0.11","50092","List1A","white","woman","","","","","","","","survey_gender","0","","","I am similar to the average person of my gender.","similar"
"4332.5","","","html-slider-response","468","1362325","0.0-24.0-1.0-0.12","50092","List1A","white","woman","","","","","","","","survey_gender","83","","","I have a lot in common with my friends.","filler"
"6265.100000023842","","","html-slider-response","469","1368592","0.0-24.0-1.0-0.13","50092","List1A","white","woman","","","","","","","","survey_gender","63","","","It is not always easy for people to know what I am thinking.","filler"
"6094.899999976158","","","html-slider-response","470","1374688","0.0-24.0-1.0-0.14","50092","List1A","white","woman","","","","","","","","survey_gender","68","","","Being around my friends gives me a good feeling.","filler"
"2638.699999988079","","","html-slider-response","471","1377328","0.0-24.0-1.0-0.15","50092","List1A","white","woman","","","","","","","","survey_gender","77","","","I feel solidarity with my friends.","filler"
"4102.699999988079","","","html-slider-response","472","1381432","0.0-24.0-1.0-0.16","50092","List1A","white","woman","","","","","","","","survey_gender","56","","","I feel a bond with my gender.","bond"
"4798.900000035763","","","html-slider-response","473","1386232","0.0-24.0-1.0-0.17","50092","List1A","white","woman","","","","","","","","survey_gender","100","","","I think that my gender has a lot to be proud of.","proud"
"3622.399999976158","","","html-slider-response","474","1389856","0.0-24.0-1.0-0.18","50092","List1A","white","woman","","","","","","","","survey_gender","100","","","I often think about my actions.","filler"
"3598.599999964237","","","html-slider-response","475","1393456","0.0-24.0-1.0-0.19","50092","List1A","white","woman","","","","","","","","survey_gender","100","","","It is pleasant to be my gender.","pleasant"
"2774.600000023842","","","html-slider-response","476","1396232","0.0-24.0-1.0-0.20","50092","List1A","white","woman","","","","","","","","survey_gender","100","","","Being my gender gives me a good feeling.","feeling"
