"rt","stimulus","button_pressed","trial_type","trial_index","time_elapsed","internal_node_id","subject","list","ppt_race","ppt_gender","url","first_guess","correct","key_press","responses","image_type","phrase_type","test_part","response","stimulus1","stimulus2","question_type","survey_item"
"8149","Welcome to the experiment. Press Continue to begin.","0","html-button-response","0","8150","0.0-0.0","50288","List1A","white","man","","","","","","","","","","","","",""
"4219.300000190735","","","external-html","1","13713","0.0-1.0","50288","List1A","white","man","consent.html","","","","","","","","","","","",""
"2092.7000000476837","<p>On the next page, you will see portraits of 8 people and their names.</p><p>Your first task is to take a few minutes to memorise the names of these people.</p><p>You will have to recall their names during the rest of the experiment, so it is</p><p>essential that you try to memorise these people and their names as best as you can.</p><br><p><strong>You will then be tested on your memory of these names and portraits.</strong></p><br><p>The experiment will start after you have completed this memory test.</p><br><p>Ready?</p>","0","html-button-response","2","15806","0.0-2.0","50288","List1A","white","man","","","","","","","","","","","","",""
"16138.399999856949","<img src='img/portrait_matrix_list1.jpg' style='width:900px;height:500px;''></img><p>If you have memorised all the portraits and names and are ready to start, press Continue.</p><p><strong>Please note: Your memory of these faces will be tested 4 times during this experiment.</strong></p>","0","html-button-response","3","32945","0.0-3.0-0.0","50288","List1A","white","man","","","","","","","","","","","","",""
"1990.7000000476837","<img src=""portrait/BM1.jpg""style=""height:400px;""></img>","4","html-button-response","4","35938","0.0-3.0-1.0","50288","List1A","white","man","","true","4","","","","","","","","","",""
"null","CORRECT","","html-keyboard-response","5","37446","0.0-3.0-2.0-0.0","50288","List1A","white","man","","","","null","","","","","","","","",""
"2394.5","<img src=""portrait/WM2.jpg""style=""height:400px;""></img>","5","html-button-response","6","39842","0.0-3.0-4.0","50288","List1A","white","man","","true","7","","","","","","","","","",""
"3649.2999999523163","<img src=""portrait/WM2.jpg""style=""height:400px;""></img>","7","html-button-response","7","44503","0.0-3.0-6.0-0.0","50288","List1A","white","man","","false","7","","","","","","","","","",""
"null","CORRECT","","html-keyboard-response","8","46017","0.0-3.0-6.0-1.0-0.0","50288","List1A","white","man","","","","null","","","","","","","","",""
"1891.5999999046326","<img src=""portrait/WM1.jpg""style=""height:400px;""></img>","6","html-button-response","9","47910","0.0-3.0-7.0","50288","List1A","white","man","","true","6","","","","","","","","","",""
"null","CORRECT","","html-keyboard-response","10","49432","0.0-3.0-8.0-0.0","50288","List1A","white","man","","","","null","","","","","","","","",""
"2627.7000000476837","<img src=""portrait/WW2.jpg""style=""height:400px;""></img>","1","html-button-response","11","52061","0.0-3.0-10.0","50288","List1A","white","man","","true","3","","","","","","","","","",""
"3229.300000190735","<img src=""portrait/WW2.jpg""style=""height:400px;""></img>","3","html-button-response","12","56298","0.0-3.0-12.0-0.0","50288","List1A","white","man","","false","3","","","","","","","","","",""
"null","CORRECT","","html-keyboard-response","13","57814","0.0-3.0-12.0-1.0-0.0","50288","List1A","white","man","","","","null","","","","","","","","",""
"2842.2999999523163","<img src=""portrait/WW1.jpg""style=""height:400px;""></img>","1","html-button-response","14","60657","0.0-3.0-13.0","50288","List1A","white","man","","true","1","","","","","","","","","",""
"null","CORRECT","","html-keyboard-response","15","62159","0.0-3.0-14.0-0.0","50288","List1A","white","man","","","","null","","","","","","","","",""
"2178.800000190735","<img src=""portrait/BW1.jpg""style=""height:400px;""></img>","0","html-button-response","16","64339","0.0-3.0-16.0","50288","List1A","white","man","","true","0","","","","","","","","","",""
"null","CORRECT","","html-keyboard-response","17","65859","0.0-3.0-17.0-0.0","50288","List1A","white","man","","","","null","","","","","","","","",""
"3482.5999999046326","<img src=""portrait/BM2.jpg""style=""height:400px;""></img>","7","html-button-response","18","69343","0.0-3.0-19.0","50288","List1A","white","man","","true","5","","","","","","","","","",""
"2528.699999809265","<img src=""portrait/BM2.jpg""style=""height:400px;""></img>","5","html-button-response","19","72878","0.0-3.0-21.0-0.0","50288","List1A","white","man","","false","5","","","","","","","","","",""
"null","CORRECT","","html-keyboard-response","20","74387","0.0-3.0-21.0-1.0-0.0","50288","List1A","white","man","","","","null","","","","","","","","",""
"2670","<img src=""portrait/BW2.jpg""style=""height:400px;""></img>","2","html-button-response","21","77057","0.0-3.0-22.0","50288","List1A","white","man","","true","2","","","","","","","","","",""
"null","CORRECT","","html-keyboard-response","22","78560","0.0-3.0-23.0-0.0","50288","List1A","white","man","","","","null","","","","","","","","",""
"2187.2000000476837","<p>You got 5 out of 8 right first time. Press Continue.</p>","0","html-button-response","23","80749","0.0-3.0-25.0","50288","List1A","white","man","","","","","","","","","","","","",""
"3245.9000000953674","As you did not score 100%, the memory game will repeat. Press Continue.","0","html-button-response","24","85007","0.0-3.0-26.0-0.0","50288","List1A","white","man","","","","","","","","","","","","",""
"55316.700000047684","<img src='img/portrait_matrix_list1.jpg' style='width:900px;height:500px;''></img><p>If you have memorised all the portraits and names and are ready to start, press Continue.</p><p><strong>Please note: Your memory of these faces will be tested 4 times during this experiment.</strong></p>","0","html-button-response","25","141334","0.0-3.1-0.1","50288","List1A","white","man","","","","","","","","","","","","",""
"1384.9000000953674","<img src=""portrait/BM1.jpg""style=""height:400px;""></img>","4","html-button-response","26","143720","0.0-3.1-1.1","50288","List1A","white","man","","true","4","","","","","","","","","",""
"null","CORRECT","","html-keyboard-response","27","145222","0.0-3.1-2.1-0.1","50288","List1A","white","man","","","","null","","","","","","","","",""
"5184.700000047684","<img src=""portrait/WM2.jpg""style=""height:400px;""></img>","7","html-button-response","28","150408","0.0-3.1-4.1","50288","List1A","white","man","","true","7","","","","","","","","","",""
"null","CORRECT","","html-keyboard-response","29","151910","0.0-3.1-5.1-0.1","50288","List1A","white","man","","","","null","","","","","","","","",""
"2186","<img src=""portrait/WM1.jpg""style=""height:400px;""></img>","6","html-button-response","30","154097","0.0-3.1-7.1","50288","List1A","white","man","","true","6","","","","","","","","","",""
"null","CORRECT","","html-keyboard-response","31","155599","0.0-3.1-8.1-0.1","50288","List1A","white","man","","","","null","","","","","","","","",""
"4258.600000143051","<img src=""portrait/WW2.jpg""style=""height:400px;""></img>","3","html-button-response","32","159859","0.0-3.1-10.1","50288","List1A","white","man","","true","3","","","","","","","","","",""
"null","CORRECT","","html-keyboard-response","33","161374","0.0-3.1-11.1-0.1","50288","List1A","white","man","","","","null","","","","","","","","",""
"4334.900000095367","<img src=""portrait/WW1.jpg""style=""height:400px;""></img>","1","html-button-response","34","165711","0.0-3.1-13.1","50288","List1A","white","man","","true","1","","","","","","","","","",""
"null","CORRECT","","html-keyboard-response","35","167219","0.0-3.1-14.1-0.1","50288","List1A","white","man","","","","null","","","","","","","","",""
"3753","<img src=""portrait/BW1.jpg""style=""height:400px;""></img>","0","html-button-response","36","170974","0.0-3.1-16.1","50288","List1A","white","man","","true","0","","","","","","","","","",""
"null","CORRECT","","html-keyboard-response","37","172489","0.0-3.1-17.1-0.1","50288","List1A","white","man","","","","null","","","","","","","","",""
"3968.2000000476837","<img src=""portrait/BM2.jpg""style=""height:400px;""></img>","5","html-button-response","38","176458","0.0-3.1-19.1","50288","List1A","white","man","","true","5","","","","","","","","","",""
"null","CORRECT","","html-keyboard-response","39","177973","0.0-3.1-20.1-0.1","50288","List1A","white","man","","","","null","","","","","","","","",""
"4055","<img src=""portrait/BW2.jpg""style=""height:400px;""></img>","2","html-button-response","40","182029","0.0-3.1-22.1","50288","List1A","white","man","","true","2","","","","","","","","","",""
"null","CORRECT","","html-keyboard-response","41","183537","0.0-3.1-23.1-0.1","50288","List1A","white","man","","","","null","","","","","","","","",""
"1319.2999999523163","<p>You got 8 out of 8 right first time. Press Continue.</p>","0","html-button-response","42","184859","0.0-3.1-25.1","50288","List1A","white","man","","","","","","","","","","","","",""
"27499","<p>In this experiment, you will view photographs of the people from the memory game interacting.</p><p>By using the <strong>exact</strong> phrase given <i>after</i> the photograph appears and recalling the correct names of the people in the photographs, form a sentence describing the interaction. You do not need to capitalise names.</p><p>Type your answer in the space provided. Please complete every sentence before moving onto the next trial.</p><p>You will only have a few seconds to memorise each given photograph and phrase before you can respond, so try your best to focus.</p><p>An example is given below. Press 'Continue' when you are ready.</p><img src='img/speaking_example.jpg' style='width:800px;height:460px;''></img>","0","html-button-response","43","213368","0.0-4.0","50288","List1A","white","man","","","","","","","","","","","","",""
"3271.4000000953674","<p>Before the experiment starts, you will watch two example trials. Press 'Continue'.</p>","0","html-button-response","44","217642","0.0-5.0","50288","List1A","white","man","","","","","","","","","","","","",""
"null","<img src='img/play_eg.gif' style='height:400px;''></img>","","html-keyboard-response","45","220656","0.0-6.0","50288","List1A","white","man","","","","null","","","","","","","","",""
"null","<p>is playing with</p>","","html-keyboard-response","46","222666","0.0-7.0","50288","List1A","white","man","","","","null","","","","","","","","",""
"1827.6000001430511","<p><b>Answer:</b> kate is playing with beth</p>","0","html-button-response","47","224494","0.0-8.0","50288","List1A","white","man","","","","","","","","","","","","",""
"null","<img src='img/dance_eg.gif' style='height:400px;''></img>","","html-keyboard-response","48","227506","0.0-9.0","50288","List1A","white","man","","","","null","","","","","","","","",""
"null","<p>is being entertained by</p>","","html-keyboard-response","49","229522","0.0-10.0","50288","List1A","white","man","","","","null","","","","","","","","",""
"1098.2999999523163","<p><b>Answer:</b> luke is being entertained by dave</p>","0","html-button-response","50","230621","0.0-11.0","50288","List1A","white","man","","","","","","","","","","","","",""
"5771.5","<p>Ready to start the experiment?</p><br><p><strong>Remember to describe the picture using a full sentence,</strong></p><p><strong>that combines the names of the people with the <i>exact</i> phrase given.</strong></p><p><strong>To receive full payment you must do this correctly.</strong></p><p><strong> You do not need to capitalise names or use punctuation.</strong></p><br><p>Press 'Continue' to begin.</p>","0","html-button-response","51","237395","0.0-12.0","50288","List1A","white","man","","","","","","","","","","","","",""
"null","<div style=""font-size:60px;"">+</div>","","html-keyboard-response","52","238907","0.0-13.0-0.0","50288","List1A","white","man","","","","null","","","","","","","","",""
"null","<img src=""stim_listA/oppose4.gif""style=""height:400px;""></stim_listA>","","html-keyboard-response","53","240911","0.0-13.0-1.0","50288","List1A","white","man","","","","null","","","","","","","","",""
"null","is being opposed by","","html-keyboard-response","54","242912","0.0-13.0-2.0","50288","List1A","white","man","","","","null","","","","","","","","",""
"5679.799999952316","","","survey-text","55","248594","0.0-13.0-3.0","50288","List1A","white","man","","","","","{""Q0"":""Luke is being opposed by Ruth""}","<img src=""stim_listA/oppose4.gif""style=""height:400px;""></stim_listA>","is being opposed by","","","","","",""
"null","<div style=""font-size:60px;"">+</div>","","html-keyboard-response","56","249102","0.0-13.0-0.1","50288","List1A","white","man","","","","null","","","","","","","","",""
"null","<img src=""stim_listA/shout4.gif""style=""height:400px;""></stim_listA>","","html-keyboard-response","57","251105","0.0-13.0-1.1","50288","List1A","white","man","","","","null","","","","","","","","",""
"null","is being shouted at by","","html-keyboard-response","58","253115","0.0-13.0-2.1","50288","List1A","white","man","","","","null","","","","","","","","",""
"12474","","","survey-text","59","265596","0.0-13.0-3.1","50288","List1A","white","man","","","","","{""Q0"":""Dave is being shouted at by Jane""}","<img src=""stim_listA/shout4.gif""style=""height:400px;""></stim_listA>","is being shouted at by","","","","","",""
"null","<div style=""font-size:60px;"">+</div>","","html-keyboard-response","60","266106","0.0-13.0-0.2","50288","List1A","white","man","","","","null","","","","","","","","",""
"null","<img src=""stim_listA/shout5.gif""style=""height:400px;""></stim_listA>","","html-keyboard-response","61","268111","0.0-13.0-1.2","50288","List1A","white","man","","","","null","","","","","","","","",""
"null","is shouting at","","html-keyboard-response","62","270126","0.0-13.0-2.2","50288","List1A","white","man","","","","null","","","","","","","","",""
"7935.799999952316","","","survey-text","63","278063","0.0-13.0-3.2","50288","List1A","white","man","","","","","{""Q0"":""Fred is shouting at Luke""}","<img src=""stim_listA/shout5.gif""style=""height:400px;""></stim_listA>","is shouting at","","","","","",""
"null","<div style=""font-size:60px;"">+</div>","","html-keyboard-response","64","278574","0.0-13.0-0.3","50288","List1A","white","man","","","","null","","","","","","","","",""
"null","<img src=""stim_listA/shout2.gif""style=""height:400px;""></stim_listA>","","html-keyboard-response","65","280581","0.0-13.0-1.3","50288","List1A","white","man","","","","null","","","","","","","","",""
"null","is being shouted at by","","html-keyboard-response","66","282581","0.0-13.0-2.3","50288","List1A","white","man","","","","null","","","","","","","","",""
"6639.799999952316","","","survey-text","67","289223","0.0-13.0-3.3","50288","List1A","white","man","","","","","{""Q0"":""Mike is being shouted at by Kate""}","<img src=""stim_listA/shout2.gif""style=""height:400px;""></stim_listA>","is being shouted at by","","","","","",""
"null","<div style=""font-size:60px;"">+</div>","","html-keyboard-response","68","289727","0.0-13.0-0.4","50288","List1A","white","man","","","","null","","","","","","","","",""
"null","<img src=""stim_listA/hug6.gif""style=""height:400px;""></stim_listA>","","html-keyboard-response","69","291733","0.0-13.0-1.4","50288","List1A","white","man","","","","null","","","","","","","","",""
"null","is being hugged by","","html-keyboard-response","70","293736","0.0-13.0-2.4","50288","List1A","white","man","","","","null","","","","","","","","",""
"5775.600000143051","","","survey-text","71","299516","0.0-13.0-3.4","50288","List1A","white","man","","","","","{""Q0"":""Mike is being hugged by dave""}","<img src=""stim_listA/hug6.gif""style=""height:400px;""></stim_listA>","is being hugged by","","","","","",""
"null","<div style=""font-size:60px;"">+</div>","","html-keyboard-response","72","300018","0.0-13.0-0.5","50288","List1A","white","man","","","","null","","","","","","","","",""
"null","<img src=""stim_listA/challenge3.gif""style=""height:400px;""></stim_listA>","","html-keyboard-response","73","302025","0.0-13.0-1.5","50288","List1A","white","man","","","","null","","","","","","","","",""
"null","is challenging","","html-keyboard-response","74","304039","0.0-13.0-2.5","50288","List1A","white","man","","","","null","","","","","","","","",""
"8857.699999809265","","","survey-text","75","312898","0.0-13.0-3.5","50288","List1A","white","man","","","","","{""Q0"":""Ruth is being opposed by Dave""}","<img src=""stim_listA/challenge3.gif""style=""height:400px;""></stim_listA>","is challenging","","","","","",""
"null","<div style=""font-size:60px;"">+</div>","","html-keyboard-response","76","313400","0.0-13.0-0.6","50288","List1A","white","man","","","","null","","","","","","","","",""
"null","<img src=""stim_listA/shout8.gif""style=""height:400px;""></stim_listA>","","html-keyboard-response","77","315415","0.0-13.0-1.6","50288","List1A","white","man","","","","null","","","","","","","","",""
"null","is being shouted at by","","html-keyboard-response","78","317421","0.0-13.0-2.6","50288","List1A","white","man","","","","null","","","","","","","","",""
"8078.200000047684","","","survey-text","79","325501","0.0-13.0-3.6","50288","List1A","white","man","","","","","{""Q0"":""Ruth is being shouted at by Kate""}","<img src=""stim_listA/shout8.gif""style=""height:400px;""></stim_listA>","is being shouted at by","","","","","",""
"null","<div style=""font-size:60px;"">+</div>","","html-keyboard-response","80","326003","0.0-13.0-0.7","50288","List1A","white","man","","","","null","","","","","","","","",""
"null","<img src=""stim_listA/copy6.gif""style=""height:400px;""></stim_listA>","","html-keyboard-response","81","328015","0.0-13.0-1.7","50288","List1A","white","man","","","","null","","","","","","","","",""
"null","is being copied by","","html-keyboard-response","82","330023","0.0-13.0-2.7","50288","List1A","white","man","","","","null","","","","","","","","",""
"6455.5","","","survey-text","83","336481","0.0-13.0-3.7","50288","List1A","white","man","","","","","{""Q0"":""Dave is being copied by Fred""}","<img src=""stim_listA/copy6.gif""style=""height:400px;""></stim_listA>","is being copied by","","","","","",""
"null","<div style=""font-size:60px;"">+</div>","","html-keyboard-response","84","336991","0.0-13.0-0.8","50288","List1A","white","man","","","","null","","","","","","","","",""
"null","<img src=""stim_listA/kiss7.gif""style=""height:400px;""></stim_listA>","","html-keyboard-response","85","338994","0.0-13.0-1.8","50288","List1A","white","man","","","","null","","","","","","","","",""
"null","is kissing","","html-keyboard-response","86","340999","0.0-13.0-2.8","50288","List1A","white","man","","","","null","","","","","","","","",""
"5473.399999856949","","","survey-text","87","346474","0.0-13.0-3.8","50288","List1A","white","man","","","","","{""Q0"":""Beth is kissing Ruth""}","<img src=""stim_listA/kiss7.gif""style=""height:400px;""></stim_listA>","is kissing","","","","","",""
"null","<div style=""font-size:60px;"">+</div>","","html-keyboard-response","88","346976","0.0-13.0-0.9","50288","List1A","white","man","","","","null","","","","","","","","",""
"null","<img src=""stim_listA/look5.gif""style=""height:400px;""></stim_listA>","","html-keyboard-response","89","348980","0.0-13.0-1.9","50288","List1A","white","man","","","","null","","","","","","","","",""
"null","is looking at","","html-keyboard-response","90","350982","0.0-13.0-2.9","50288","List1A","white","man","","","","null","","","","","","","","",""
"5205","","","survey-text","91","356192","0.0-13.0-3.9","50288","List1A","white","man","","","","","{""Q0"":""Luke is looking at Fred""}","<img src=""stim_listA/look5.gif""style=""height:400px;""></stim_listA>","is looking at","","","","","",""
"null","<div style=""font-size:60px;"">+</div>","","html-keyboard-response","92","356706","0.0-13.0-0.10","50288","List1A","white","man","","","","null","","","","","","","","",""
"null","<img src=""stim_listA/greet8.gif""style=""height:400px;""></stim_listA>","","html-keyboard-response","93","358710","0.0-13.0-1.10","50288","List1A","white","man","","","","null","","","","","","","","",""
"null","is being greeted by","","html-keyboard-response","94","360725","0.0-13.0-2.10","50288","List1A","white","man","","","","null","","","","","","","","",""
"6692.599999904633","","","survey-text","95","367419","0.0-13.0-3.10","50288","List1A","white","man","","","","","{""Q0"":""Beth is waving at Jane""}","<img src=""stim_listA/greet8.gif""style=""height:400px;""></stim_listA>","is being greeted by","","","","","",""
"null","<div style=""font-size:60px;"">+</div>","","html-keyboard-response","96","367924","0.0-13.0-0.11","50288","List1A","white","man","","","","null","","","","","","","","",""
"null","<img src=""stim_listA/oppose1.gif""style=""height:400px;""></stim_listA>","","html-keyboard-response","97","369933","0.0-13.0-1.11","50288","List1A","white","man","","","","null","","","","","","","","",""
"null","is opposing","","html-keyboard-response","98","371935","0.0-13.0-2.11","50288","List1A","white","man","","","","null","","","","","","","","",""
"4472.800000190735","","","survey-text","99","376411","0.0-13.0-3.11","50288","List1A","white","man","","","","","{""Q0"":""Mike is opposing kate""}","<img src=""stim_listA/oppose1.gif""style=""height:400px;""></stim_listA>","is opposing","","","","","",""
"null","<div style=""font-size:60px;"">+</div>","","html-keyboard-response","100","376918","0.0-13.0-0.12","50288","List1A","white","man","","","","null","","","","","","","","",""
"null","<img src=""stim_listA/touch3.gif""style=""height:400px;""></stim_listA>","","html-keyboard-response","101","378919","0.0-13.0-1.12","50288","List1A","white","man","","","","null","","","","","","","","",""
"null","is touching","","html-keyboard-response","102","380920","0.0-13.0-2.12","50288","List1A","white","man","","","","null","","","","","","","","",""
"4590.199999809265","","","survey-text","103","385512","0.0-13.0-3.12","50288","List1A","white","man","","","","","{""Q0"":""Jane is touching Dave""}","<img src=""stim_listA/touch3.gif""style=""height:400px;""></stim_listA>","is touching","","","","","",""
"null","<div style=""font-size:60px;"">+</div>","","html-keyboard-response","104","386027","0.0-13.0-0.13","50288","List1A","white","man","","","","null","","","","","","","","",""
"null","<img src=""stim_listA/look3.gif""style=""height:400px;""></stim_listA>","","html-keyboard-response","105","388030","0.0-13.0-1.13","50288","List1A","white","man","","","","null","","","","","","","","",""
"null","is looking at","","html-keyboard-response","106","390032","0.0-13.0-2.13","50288","List1A","white","man","","","","null","","","","","","","","",""
"4080.5","","","survey-text","107","394115","0.0-13.0-3.13","50288","List1A","white","man","","","","","{""Q0"":""Luke is looking at Ruth""}","<img src=""stim_listA/look3.gif""style=""height:400px;""></stim_listA>","is looking at","","","","","",""
"null","<div style=""font-size:60px;"">+</div>","","html-keyboard-response","108","394615","0.0-13.0-0.14","50288","List1A","white","man","","","","null","","","","","","","","",""
"null","<img src=""stim_listA/copy4.gif""style=""height:400px;""></stim_listA>","","html-keyboard-response","109","396622","0.0-13.0-1.14","50288","List1A","white","man","","","","null","","","","","","","","",""
"null","is being copied by","","html-keyboard-response","110","398632","0.0-13.0-2.14","50288","List1A","white","man","","","","null","","","","","","","","",""
"5029.100000143051","","","survey-text","111","403663","0.0-13.0-3.14","50288","List1A","white","man","","","","","{""Q0"":""Jane is being copied by Luke""}","<img src=""stim_listA/copy4.gif""style=""height:400px;""></stim_listA>","is being copied by","","","","","",""
"null","<div style=""font-size:60px;"">+</div>","","html-keyboard-response","112","404164","0.0-13.0-0.15","50288","List1A","white","man","","","","null","","","","","","","","",""
"null","<img src=""stim_listA/touch8.gif""style=""height:400px;""></stim_listA>","","html-keyboard-response","113","406166","0.0-13.0-1.15","50288","List1A","white","man","","","","null","","","","","","","","",""
"null","is being touched by","","html-keyboard-response","114","408177","0.0-13.0-2.15","50288","List1A","white","man","","","","null","","","","","","","","",""
"4715.5","","","survey-text","115","412898","0.0-13.0-3.15","50288","List1A","white","man","","","","","{""Q0"":""Ruth is being touched by Beth""}","<img src=""stim_listA/touch8.gif""style=""height:400px;""></stim_listA>","is being touched by","","","","","",""
"null","<div style=""font-size:60px;"">+</div>","","html-keyboard-response","116","413400","0.0-13.0-0.16","50288","List1A","white","man","","","","null","","","","","","","","",""
"null","<img src=""stim_listA/challenge1.gif""style=""height:400px;""></stim_listA>","","html-keyboard-response","117","415411","0.0-13.0-1.16","50288","List1A","white","man","","","","null","","","","","","","","",""
"null","is challenging","","html-keyboard-response","118","417422","0.0-13.0-2.16","50288","List1A","white","man","","","","null","","","","","","","","",""
"3006.5999999046326","","","survey-text","119","420433","0.0-13.0-3.16","50288","List1A","white","man","","","","","{""Q0"":""Beth is challenging Mike""}","<img src=""stim_listA/challenge1.gif""style=""height:400px;""></stim_listA>","is challenging","","","","","",""
"null","<div style=""font-size:60px;"">+</div>","","html-keyboard-response","120","420941","0.0-13.0-0.17","50288","List1A","white","man","","","","null","","","","","","","","",""
"null","<img src=""stim_listA/shout7.gif""style=""height:400px;""></stim_listA>","","html-keyboard-response","121","422948","0.0-13.0-1.17","50288","List1A","white","man","","","","null","","","","","","","","",""
"null","is shouting at","","html-keyboard-response","122","424948","0.0-13.0-2.17","50288","List1A","white","man","","","","null","","","","","","","","",""
"4887.900000095367","","","survey-text","123","429839","0.0-13.0-3.17","50288","List1A","white","man","","","","","{""Q0"":""Beth is shouting at Ruth""}","<img src=""stim_listA/shout7.gif""style=""height:400px;""></stim_listA>","is shouting at","","","","","",""
"null","<div style=""font-size:60px;"">+</div>","","html-keyboard-response","124","430355","0.0-13.0-0.18","50288","List1A","white","man","","","","null","","","","","","","","",""
"null","<img src=""stim_listA/oppose6.gif""style=""height:400px;""></stim_listA>","","html-keyboard-response","125","432373","0.0-13.0-1.18","50288","List1A","white","man","","","","null","","","","","","","","",""
"null","is being opposed by","","html-keyboard-response","126","434375","0.0-13.0-2.18","50288","List1A","white","man","","","","null","","","","","","","","",""
"3106.899999856949","","","survey-text","127","437487","0.0-13.0-3.18","50288","List1A","white","man","","","","","{""Q0"":""Fred is being opposed by Luke""}","<img src=""stim_listA/oppose6.gif""style=""height:400px;""></stim_listA>","is being opposed by","","","","","",""
"null","<div style=""font-size:60px;"">+</div>","","html-keyboard-response","128","437989","0.0-13.0-0.19","50288","List1A","white","man","","","","null","","","","","","","","",""
"null","<img src=""stim_listA/oppose7.gif""style=""height:400px;""></stim_listA>","","html-keyboard-response","129","439996","0.0-13.0-1.19","50288","List1A","white","man","","","","null","","","","","","","","",""
"null","is opposing","","html-keyboard-response","130","441999","0.0-13.0-2.19","50288","List1A","white","man","","","","null","","","","","","","","",""
"3225.2000000476837","","","survey-text","131","445226","0.0-13.0-3.19","50288","List1A","white","man","","","","","{""Q0"":""Kate is opposing Jane""}","<img src=""stim_listA/oppose7.gif""style=""height:400px;""></stim_listA>","is opposing","","","","","",""
"6193.899999856949","<img src='img/portrait_matrix_list1.jpg' style='width:900px;height:500px;''></img><p>If you have memorised all the portraits and names and are ready to start, press Continue.</p><p><strong>Please note: Your memory of these faces will be tested 4 times during this experiment.</strong></p>","0","html-button-response","132","451421","0.0-14.0-0.0","50288","List1A","white","man","","","","","","","","","","","","",""
"1961.5","<img src=""portrait/BM1.jpg""style=""height:400px;""></img>","4","html-button-response","133","454385","0.0-14.0-1.0","50288","List1A","white","man","","true","4","","","","","","","","","",""
"null","CORRECT","","html-keyboard-response","134","455887","0.0-14.0-2.0-0.0","50288","List1A","white","man","","","","null","","","","","","","","",""
"4678.099999904633","<img src=""portrait/BW1.jpg""style=""height:400px;""></img>","0","html-button-response","135","460566","0.0-14.0-4.0","50288","List1A","white","man","","true","0","","","","","","","","","",""
"null","CORRECT","","html-keyboard-response","136","462083","0.0-14.0-5.0-0.0","50288","List1A","white","man","","","","null","","","","","","","","",""
"3091.300000190735","<img src=""portrait/BM2.jpg""style=""height:400px;""></img>","5","html-button-response","137","465175","0.0-14.0-7.0","50288","List1A","white","man","","true","5","","","","","","","","","",""
"null","CORRECT","","html-keyboard-response","138","466699","0.0-14.0-8.0-0.0","50288","List1A","white","man","","","","null","","","","","","","","",""
"2233.5999999046326","<img src=""portrait/WM1.jpg""style=""height:400px;""></img>","6","html-button-response","139","468934","0.0-14.0-10.0","50288","List1A","white","man","","true","6","","","","","","","","","",""
"null","CORRECT","","html-keyboard-response","140","470455","0.0-14.0-11.0-0.0","50288","List1A","white","man","","","","null","","","","","","","","",""
"2826.5","<img src=""portrait/WW2.jpg""style=""height:400px;""></img>","3","html-button-response","141","473282","0.0-14.0-13.0","50288","List1A","white","man","","true","3","","","","","","","","","",""
"null","CORRECT","","html-keyboard-response","142","474790","0.0-14.0-14.0-0.0","50288","List1A","white","man","","","","null","","","","","","","","",""
"2552.0999999046326","<img src=""portrait/BW2.jpg""style=""height:400px;""></img>","2","html-button-response","143","477343","0.0-14.0-16.0","50288","List1A","white","man","","true","2","","","","","","","","","",""
"null","CORRECT","","html-keyboard-response","144","478854","0.0-14.0-17.0-0.0","50288","List1A","white","man","","","","null","","","","","","","","",""
"3269","<img src=""portrait/WW1.jpg""style=""height:400px;""></img>","1","html-button-response","145","482124","0.0-14.0-19.0","50288","List1A","white","man","","true","1","","","","","","","","","",""
"null","CORRECT","","html-keyboard-response","146","483638","0.0-14.0-20.0-0.0","50288","List1A","white","man","","","","null","","","","","","","","",""
"2856.5","<img src=""portrait/WM2.jpg""style=""height:400px;""></img>","7","html-button-response","147","486496","0.0-14.0-22.0","50288","List1A","white","man","","true","7","","","","","","","","","",""
"null","CORRECT","","html-keyboard-response","148","488027","0.0-14.0-23.0-0.0","50288","List1A","white","man","","","","null","","","","","","","","",""
"838.5","<p>You got 8 out of 8 right first time. Press Continue.</p>","0","html-button-response","149","488867","0.0-14.0-25.0","50288","List1A","white","man","","","","","","","","","","","","",""
"null","<div style=""font-size:60px;"">+</div>","","html-keyboard-response","150","490393","0.0-15.0-0.0","50288","List1A","white","man","","","","null","","","","","","","","",""
"null","<img src=""stim_listA/touch5.gif""style=""height:400px;""></stim_listA>","","html-keyboard-response","151","492401","0.0-15.0-1.0","50288","List1A","white","man","","","","null","","","","","","","","",""
"null","is touching","","html-keyboard-response","152","494403","0.0-15.0-2.0","50288","List1A","white","man","","","","null","","","","","","","","",""
"9016.799999952316","","","survey-text","153","503425","0.0-15.0-3.0","50288","List1A","white","man","","","","","{""Q0"":""Dave is touching Mike""}","<img src=""stim_listA/touch5.gif""style=""height:400px;""></stim_listA>","is touching","","","","","",""
"null","<div style=""font-size:60px;"">+</div>","","html-keyboard-response","154","503937","0.0-15.0-0.1","50288","List1A","white","man","","","","null","","","","","","","","",""
"null","<img src=""stim_listA/seduce5.gif""style=""height:400px;""></stim_listA>","","html-keyboard-response","155","505951","0.0-15.0-1.1","50288","List1A","white","man","","","","null","","","","","","","","",""
"null","is seducing","","html-keyboard-response","156","507953","0.0-15.0-2.1","50288","List1A","white","man","","","","null","","","","","","","","",""
"3467.4000000953674","","","survey-text","157","511422","0.0-15.0-3.1","50288","List1A","white","man","","","","","{""Q0"":""Mike is seducing Fred""}","<img src=""stim_listA/seduce5.gif""style=""height:400px;""></stim_listA>","is seducing","","","","","",""
"null","<div style=""font-size:60px;"">+</div>","","html-keyboard-response","158","511926","0.0-15.0-0.2","50288","List1A","white","man","","","","null","","","","","","","","",""
"null","<img src=""stim_listA/touch7.gif""style=""height:400px;""></stim_listA>","","html-keyboard-response","159","513929","0.0-15.0-1.2","50288","List1A","white","man","","","","null","","","","","","","","",""
"null","is touching","","html-keyboard-response","160","515941","0.0-15.0-2.2","50288","List1A","white","man","","","","null","","","","","","","","",""
"2205","","","survey-text","161","518147","0.0-15.0-3.2","50288","List1A","white","man","","","","","{""Q0"":""Kate is touching Jane""}","<img src=""stim_listA/touch7.gif""style=""height:400px;""></stim_listA>","is touching","","","","","",""
"null","<div style=""font-size:60px;"">+</div>","","html-keyboard-response","162","518659","0.0-15.0-0.3","50288","List1A","white","man","","","","null","","","","","","","","",""
"null","<img src=""stim_listA/copy1.gif""style=""height:400px;""></stim_listA>","","html-keyboard-response","163","520669","0.0-15.0-1.3","50288","List1A","white","man","","","","null","","","","","","","","",""
"null","is copying","","html-keyboard-response","164","522678","0.0-15.0-2.3","50288","List1A","white","man","","","","null","","","","","","","","",""
"2175.0999999046326","","","survey-text","165","524856","0.0-15.0-3.3","50288","List1A","white","man","","","","","{""Q0"":""Mike is copying Beth""}","<img src=""stim_listA/copy1.gif""style=""height:400px;""></stim_listA>","is copying","","","","","",""
"null","<div style=""font-size:60px;"">+</div>","","html-keyboard-response","166","525371","0.0-15.0-0.4","50288","List1A","white","man","","","","null","","","","","","","","",""
"null","<img src=""stim_listA/look6.gif""style=""height:400px;""></stim_listA>","","html-keyboard-response","167","527383","0.0-15.0-1.4","50288","List1A","white","man","","","","null","","","","","","","","",""
"null","is being looked at by","","html-keyboard-response","168","529398","0.0-15.0-2.4","50288","List1A","white","man","","","","null","","","","","","","","",""
"4833.699999809265","","","survey-text","169","534234","0.0-15.0-3.4","50288","List1A","white","man","","","","","{""Q0"":""Dave is being look at by Mike""}","<img src=""stim_listA/look6.gif""style=""height:400px;""></stim_listA>","is being looked at by","","","","","",""
"null","<div style=""font-size:60px;"">+</div>","","html-keyboard-response","170","534748","0.0-15.0-0.5","50288","List1A","white","man","","","","null","","","","","","","","",""
"null","<img src=""stim_listA/kiss5.gif""style=""height:400px;""></stim_listA>","","html-keyboard-response","171","536755","0.0-15.0-1.5","50288","List1A","white","man","","","","null","","","","","","","","",""
"null","is kissing","","html-keyboard-response","172","538772","0.0-15.0-2.5","50288","List1A","white","man","","","","null","","","","","","","","",""
"2718.100000143051","","","survey-text","173","541496","0.0-15.0-3.5","50288","List1A","white","man","","","","","{""Q0"":""Luke is kissing Fred""}","<img src=""stim_listA/kiss5.gif""style=""height:400px;""></stim_listA>","is kissing","","","","","",""
"null","<div style=""font-size:60px;"">+</div>","","html-keyboard-response","174","542001","0.0-15.0-0.6","50288","List1A","white","man","","","","null","","","","","","","","",""
"null","<img src=""stim_listA/shout1.gif""style=""height:400px;""></stim_listA>","","html-keyboard-response","175","544016","0.0-15.0-1.6","50288","List1A","white","man","","","","null","","","","","","","","",""
"null","is shouting at","","html-keyboard-response","176","546028","0.0-15.0-2.6","50288","List1A","white","man","","","","null","","","","","","","","",""
"5418","","","survey-text","177","551447","0.0-15.0-3.6","50288","List1A","white","man","","","","","{""Q0"":""Fred is shouting at Beth""}","<img src=""stim_listA/shout1.gif""style=""height:400px;""></stim_listA>","is shouting at","","","","","",""
"null","<div style=""font-size:60px;"">+</div>","","html-keyboard-response","178","551957","0.0-15.0-0.7","50288","List1A","white","man","","","","null","","","","","","","","",""
"null","<img src=""stim_listA/look4.gif""style=""height:400px;""></stim_listA>","","html-keyboard-response","179","553959","0.0-15.0-1.7","50288","List1A","white","man","","","","null","","","","","","","","",""
"null","is being looked at by","","html-keyboard-response","180","555968","0.0-15.0-2.7","50288","List1A","white","man","","","","null","","","","","","","","",""
"8963.100000143051","","","survey-text","181","564933","0.0-15.0-3.7","50288","List1A","white","man","","","","","{""Q0"":""X""}","<img src=""stim_listA/look4.gif""style=""height:400px;""></stim_listA>","is being looked at by","","","","","",""
"null","<div style=""font-size:60px;"">+</div>","","html-keyboard-response","182","565433","0.0-15.0-0.8","50288","List1A","white","man","","","","null","","","","","","","","",""
"null","<img src=""stim_listA/greet3.gif""style=""height:400px;""></stim_listA>","","html-keyboard-response","183","567449","0.0-15.0-1.8","50288","List1A","white","man","","","","null","","","","","","","","",""
"null","is greeting","","html-keyboard-response","184","569451","0.0-15.0-2.8","50288","List1A","white","man","","","","null","","","","","","","","",""
"3253.2999999523163","","","survey-text","185","572707","0.0-15.0-3.8","50288","List1A","white","man","","","","","{""Q0"":""Ruth is greeting Dave""}","<img src=""stim_listA/greet3.gif""style=""height:400px;""></stim_listA>","is greeting","","","","","",""
"null","<div style=""font-size:60px;"">+</div>","","html-keyboard-response","186","573222","0.0-15.0-0.9","50288","List1A","white","man","","","","null","","","","","","","","",""
"null","<img src=""stim_listA/hug8.gif""style=""height:400px;""></stim_listA>","","html-keyboard-response","187","575224","0.0-15.0-1.9","50288","List1A","white","man","","","","null","","","","","","","","",""
"null","is being hugged by","","html-keyboard-response","188","577231","0.0-15.0-2.9","50288","List1A","white","man","","","","null","","","","","","","","",""
"3769.600000143051","","","survey-text","189","581006","0.0-15.0-3.9","50288","List1A","white","man","","","","","{""Q0"":""Jane is being hugged by Kate""}","<img src=""stim_listA/hug8.gif""style=""height:400px;""></stim_listA>","is being hugged by","","","","","",""
"null","<div style=""font-size:60px;"">+</div>","","html-keyboard-response","190","581511","0.0-15.0-0.10","50288","List1A","white","man","","","","null","","","","","","","","",""
"null","<img src=""stim_listA/seduce4.gif""style=""height:400px;""></stim_listA>","","html-keyboard-response","191","583516","0.0-15.0-1.10","50288","List1A","white","man","","","","null","","","","","","","","",""
"null","is being seduced by","","html-keyboard-response","192","585522","0.0-15.0-2.10","50288","List1A","white","man","","","","null","","","","","","","","",""
"5048.200000047684","","","survey-text","193","590581","0.0-15.0-3.10","50288","List1A","white","man","","","","","{""Q0"":""Dave is being seduced by Ruth""}","<img src=""stim_listA/seduce4.gif""style=""height:400px;""></stim_listA>","is being seduced by","","","","","",""
"null","<div style=""font-size:60px;"">+</div>","","html-keyboard-response","194","591089","0.0-15.0-0.11","50288","List1A","white","man","","","","null","","","","","","","","",""
"null","<img src=""stim_listA/touch4.gif""style=""height:400px;""></stim_listA>","","html-keyboard-response","195","593091","0.0-15.0-1.11","50288","List1A","white","man","","","","null","","","","","","","","",""
"null","is being touched by","","html-keyboard-response","196","595109","0.0-15.0-2.11","50288","List1A","white","man","","","","null","","","","","","","","",""
"3086.7999999523163","","","survey-text","197","598200","0.0-15.0-3.11","50288","List1A","white","man","","","","","{""Q0"":""Ruth is being touched by Luke""}","<img src=""stim_listA/touch4.gif""style=""height:400px;""></stim_listA>","is being touched by","","","","","",""
"null","<div style=""font-size:60px;"">+</div>","","html-keyboard-response","198","598714","0.0-15.0-0.12","50288","List1A","white","man","","","","null","","","","","","","","",""
"null","<img src=""stim_listA/kiss4.gif""style=""height:400px;""></stim_listA>","","html-keyboard-response","199","600729","0.0-15.0-1.12","50288","List1A","white","man","","","","null","","","","","","","","",""
"null","is being kissed by","","html-keyboard-response","200","602733","0.0-15.0-2.12","50288","List1A","white","man","","","","null","","","","","","","","",""
"11446","","","survey-text","201","614185","0.0-15.0-3.12","50288","List1A","white","man","","","","","{""Q0"":""Dave is being kissed by Jane""}","<img src=""stim_listA/kiss4.gif""style=""height:400px;""></stim_listA>","is being kissed by","","","","","",""
"null","<div style=""font-size:60px;"">+</div>","","html-keyboard-response","202","614686","0.0-15.0-0.13","50288","List1A","white","man","","","","null","","","","","","","","",""
"null","<img src=""stim_listA/challenge8.gif""style=""height:400px;""></stim_listA>","","html-keyboard-response","203","616687","0.0-15.0-1.13","50288","List1A","white","man","","","","null","","","","","","","","",""
"null","is being challenged by","","html-keyboard-response","204","618689","0.0-15.0-2.13","50288","List1A","white","man","","","","null","","","","","","","","",""
"3791.2999999523163","","","survey-text","205","622483","0.0-15.0-3.13","50288","List1A","white","man","","","","","{""Q0"":""Beth is being challenged by Jane""}","<img src=""stim_listA/challenge8.gif""style=""height:400px;""></stim_listA>","is being challenged by","","","","","",""
"null","<div style=""font-size:60px;"">+</div>","","html-keyboard-response","206","622986","0.0-15.0-0.14","50288","List1A","white","man","","","","null","","","","","","","","",""
"null","<img src=""stim_listA/greet1.gif""style=""height:400px;""></stim_listA>","","html-keyboard-response","207","624993","0.0-15.0-1.14","50288","List1A","white","man","","","","null","","","","","","","","",""
"null","is greeting","","html-keyboard-response","208","626999","0.0-15.0-2.14","50288","List1A","white","man","","","","null","","","","","","","","",""
"2338.7999999523163","","","survey-text","209","629339","0.0-15.0-3.14","50288","List1A","white","man","","","","","{""Q0"":""Beth is greeting Mike""}","<img src=""stim_listA/greet1.gif""style=""height:400px;""></stim_listA>","is greeting","","","","","",""
"null","<div style=""font-size:60px;"">+</div>","","html-keyboard-response","210","629846","0.0-15.0-0.15","50288","List1A","white","man","","","","null","","","","","","","","",""
"null","<img src=""stim_listA/touch2.gif""style=""height:400px;""></stim_listA>","","html-keyboard-response","211","631848","0.0-15.0-1.15","50288","List1A","white","man","","","","null","","","","","","","","",""
"null","is being touched by","","html-keyboard-response","212","633860","0.0-15.0-2.15","50288","List1A","white","man","","","","null","","","","","","","","",""
"3307.5","","","survey-text","213","637170","0.0-15.0-3.15","50288","List1A","white","man","","","","","{""Q0"":""Beth is being touched by Fred""}","<img src=""stim_listA/touch2.gif""style=""height:400px;""></stim_listA>","is being touched by","","","","","",""
"null","<div style=""font-size:60px;"">+</div>","","html-keyboard-response","214","637678","0.0-15.0-0.16","50288","List1A","white","man","","","","null","","","","","","","","",""
"null","<img src=""stim_listA/kiss2.gif""style=""height:400px;""></stim_listA>","","html-keyboard-response","215","639683","0.0-15.0-1.16","50288","List1A","white","man","","","","null","","","","","","","","",""
"null","is being kissed by","","html-keyboard-response","216","641688","0.0-15.0-2.16","50288","List1A","white","man","","","","null","","","","","","","","",""
"2894.7999999523163","","","survey-text","217","644585","0.0-15.0-3.16","50288","List1A","white","man","","","","","{""Q0"":""Kate is being kissed by Mike""}","<img src=""stim_listA/kiss2.gif""style=""height:400px;""></stim_listA>","is being kissed by","","","","","",""
"null","<div style=""font-size:60px;"">+</div>","","html-keyboard-response","218","645087","0.0-15.0-0.17","50288","List1A","white","man","","","","null","","","","","","","","",""
"null","<img src=""stim_listA/greet2.gif""style=""height:400px;""></stim_listA>","","html-keyboard-response","219","647097","0.0-15.0-1.17","50288","List1A","white","man","","","","null","","","","","","","","",""
"null","is being greeted by","","html-keyboard-response","220","649101","0.0-15.0-2.17","50288","List1A","white","man","","","","null","","","","","","","","",""
"4526.799999952316","","","survey-text","221","653630","0.0-15.0-3.17","50288","List1A","white","man","","","","","{""Q0"":""Kate is being greeted by Fred""}","<img src=""stim_listA/greet2.gif""style=""height:400px;""></stim_listA>","is being greeted by","","","","","",""
"null","<div style=""font-size:60px;"">+</div>","","html-keyboard-response","222","654140","0.0-15.0-0.18","50288","List1A","white","man","","","","null","","","","","","","","",""
"null","<img src=""stim_listA/seduce3.gif""style=""height:400px;""></stim_listA>","","html-keyboard-response","223","656157","0.0-15.0-1.18","50288","List1A","white","man","","","","null","","","","","","","","",""
"null","is seducing","","html-keyboard-response","224","658172","0.0-15.0-2.18","50288","List1A","white","man","","","","null","","","","","","","","",""
"3214.2999999523163","","","survey-text","225","661388","0.0-15.0-3.18","50288","List1A","white","man","","","","","{""Q0"":""Luke is seducing Jane""}","<img src=""stim_listA/seduce3.gif""style=""height:400px;""></stim_listA>","is seducing","","","","","",""
"null","<div style=""font-size:60px;"">+</div>","","html-keyboard-response","226","661894","0.0-15.0-0.19","50288","List1A","white","man","","","","null","","","","","","","","",""
"null","<img src=""stim_listA/greet7.gif""style=""height:400px;""></stim_listA>","","html-keyboard-response","227","663895","0.0-15.0-1.19","50288","List1A","white","man","","","","null","","","","","","","","",""
"null","is greeting","","html-keyboard-response","228","665898","0.0-15.0-2.19","50288","List1A","white","man","","","","null","","","","","","","","",""
"2718.2000000476837","","","survey-text","229","668620","0.0-15.0-3.19","50288","List1A","white","man","","","","","{""Q0"":""Kate is greeting Ruth""}","<img src=""stim_listA/greet7.gif""style=""height:400px;""></stim_listA>","is greeting","","","","","",""
"1494.2999999523163","<img src='img/portrait_matrix_list1.jpg' style='width:900px;height:500px;''></img><p>If you have memorised all the portraits and names and are ready to start, press Continue.</p><p><strong>Please note: Your memory of these faces will be tested 4 times during this experiment.</strong></p>","0","html-button-response","230","670116","0.0-16.0-0.0","50288","List1A","white","man","","","","","","","","","","","","",""
"1424.9000000953674","<img src=""portrait/BM1.jpg""style=""height:400px;""></img>","4","html-button-response","231","672542","0.0-16.0-1.0","50288","List1A","white","man","","true","4","","","","","","","","","",""
"null","CORRECT","","html-keyboard-response","232","674044","0.0-16.0-2.0-0.0","50288","List1A","white","man","","","","null","","","","","","","","",""
"1915.5999999046326","<img src=""portrait/WW1.jpg""style=""height:400px;""></img>","1","html-button-response","233","675961","0.0-16.0-4.0","50288","List1A","white","man","","true","1","","","","","","","","","",""
"null","CORRECT","","html-keyboard-response","234","677474","0.0-16.0-5.0-0.0","50288","List1A","white","man","","","","null","","","","","","","","",""
"2090.899999856949","<img src=""portrait/WM1.jpg""style=""height:400px;""></img>","6","html-button-response","235","679565","0.0-16.0-7.0","50288","List1A","white","man","","true","6","","","","","","","","","",""
"null","CORRECT","","html-keyboard-response","236","681073","0.0-16.0-8.0-0.0","50288","List1A","white","man","","","","null","","","","","","","","",""
"2362.7000000476837","<img src=""portrait/WM2.jpg""style=""height:400px;""></img>","7","html-button-response","237","683437","0.0-16.0-10.0","50288","List1A","white","man","","true","7","","","","","","","","","",""
"null","CORRECT","","html-keyboard-response","238","684939","0.0-16.0-11.0-0.0","50288","List1A","white","man","","","","null","","","","","","","","",""
"1921","<img src=""portrait/WW2.jpg""style=""height:400px;""></img>","3","html-button-response","239","686861","0.0-16.0-13.0","50288","List1A","white","man","","true","3","","","","","","","","","",""
"null","CORRECT","","html-keyboard-response","240","688377","0.0-16.0-14.0-0.0","50288","List1A","white","man","","","","null","","","","","","","","",""
"2410.899999856949","<img src=""portrait/BM2.jpg""style=""height:400px;""></img>","5","html-button-response","241","690789","0.0-16.0-16.0","50288","List1A","white","man","","true","5","","","","","","","","","",""
"null","CORRECT","","html-keyboard-response","242","692306","0.0-16.0-17.0-0.0","50288","List1A","white","man","","","","null","","","","","","","","",""
"2556.5","<img src=""portrait/BW2.jpg""style=""height:400px;""></img>","2","html-button-response","243","694863","0.0-16.0-19.0","50288","List1A","white","man","","true","2","","","","","","","","","",""
"null","CORRECT","","html-keyboard-response","244","696365","0.0-16.0-20.0-0.0","50288","List1A","white","man","","","","null","","","","","","","","",""
"2730.2000000476837","<img src=""portrait/BW1.jpg""style=""height:400px;""></img>","0","html-button-response","245","699097","0.0-16.0-22.0","50288","List1A","white","man","","true","0","","","","","","","","","",""
"null","CORRECT","","html-keyboard-response","246","700615","0.0-16.0-23.0-0.0","50288","List1A","white","man","","","","null","","","","","","","","",""
"770.2999999523163","<p>You got 8 out of 8 right first time. Press Continue.</p>","0","html-button-response","247","701387","0.0-16.0-25.0","50288","List1A","white","man","","","","","","","","","","","","",""
"null","<div style=""font-size:60px;"">+</div>","","html-keyboard-response","248","702917","0.0-17.0-0.0","50288","List1A","white","man","","","","null","","","","","","","","",""
"null","<img src=""stim_listA/copy5.gif""style=""height:400px;""></stim_listA>","","html-keyboard-response","249","704928","0.0-17.0-1.0","50288","List1A","white","man","","","","null","","","","","","","","",""
"null","is copying","","html-keyboard-response","250","706930","0.0-17.0-2.0","50288","List1A","white","man","","","","null","","","","","","","","",""
"4055.0999999046326","","","survey-text","251","710990","0.0-17.0-3.0","50288","List1A","white","man","","","","","{""Q0"":""Luke is copying Mike""}","<img src=""stim_listA/copy5.gif""style=""height:400px;""></stim_listA>","is copying","","","","","",""
"null","<div style=""font-size:60px;"">+</div>","","html-keyboard-response","252","711491","0.0-17.0-0.1","50288","List1A","white","man","","","","null","","","","","","","","",""
"null","<img src=""stim_listA/greet5.gif""style=""height:400px;""></stim_listA>","","html-keyboard-response","253","713506","0.0-17.0-1.1","50288","List1A","white","man","","","","null","","","","","","","","",""
"null","is greeting","","html-keyboard-response","254","715510","0.0-17.0-2.1","50288","List1A","white","man","","","","null","","","","","","","","",""
"2460.2999999523163","","","survey-text","255","717972","0.0-17.0-3.1","50288","List1A","white","man","","","","","{""Q0"":""Mike is greeting Luke""}","<img src=""stim_listA/greet5.gif""style=""height:400px;""></stim_listA>","is greeting","","","","","",""
"null","<div style=""font-size:60px;"">+</div>","","html-keyboard-response","256","718474","0.0-17.0-0.2","50288","List1A","white","man","","","","null","","","","","","","","",""
"null","<img src=""stim_listA/copy3.gif""style=""height:400px;""></stim_listA>","","html-keyboard-response","257","720475","0.0-17.0-1.2","50288","List1A","white","man","","","","null","","","","","","","","",""
"null","is copying","","html-keyboard-response","258","722486","0.0-17.0-2.2","50288","List1A","white","man","","","","null","","","","","","","","",""
"2179.399999856949","","","survey-text","259","724668","0.0-17.0-3.2","50288","List1A","white","man","","","","","{""Q0"":""Dave is copying Ruth""}","<img src=""stim_listA/copy3.gif""style=""height:400px;""></stim_listA>","is copying","","","","","",""
"null","<div style=""font-size:60px;"">+</div>","","html-keyboard-response","260","725177","0.0-17.0-0.3","50288","List1A","white","man","","","","null","","","","","","","","",""
"null","<img src=""stim_listA/greet4.gif""style=""height:400px;""></stim_listA>","","html-keyboard-response","261","727182","0.0-17.0-1.3","50288","List1A","white","man","","","","null","","","","","","","","",""
"null","is being greeted by","","html-keyboard-response","262","729189","0.0-17.0-2.3","50288","List1A","white","man","","","","null","","","","","","","","",""
"3633.7999999523163","","","survey-text","263","732824","0.0-17.0-3.3","50288","List1A","white","man","","","","","{""Q0"":""Luke is being greeted by Jane""}","<img src=""stim_listA/greet4.gif""style=""height:400px;""></stim_listA>","is being greeted by","","","","","",""
"null","<div style=""font-size:60px;"">+</div>","","html-keyboard-response","264","733337","0.0-17.0-0.4","50288","List1A","white","man","","","","null","","","","","","","","",""
"null","<img src=""stim_listA/touch1.gif""style=""height:400px;""></stim_listA>","","html-keyboard-response","265","735344","0.0-17.0-1.4","50288","List1A","white","man","","","","null","","","","","","","","",""
"null","is touching","","html-keyboard-response","266","737354","0.0-17.0-2.4","50288","List1A","white","man","","","","null","","","","","","","","",""
"2432.600000143051","","","survey-text","267","739792","0.0-17.0-3.4","50288","List1A","white","man","","","","","{""Q0"":""Mike is touching Kate""}","<img src=""stim_listA/touch1.gif""style=""height:400px;""></stim_listA>","is touching","","","","","",""
"null","<div style=""font-size:60px;"">+</div>","","html-keyboard-response","268","740295","0.0-17.0-0.5","50288","List1A","white","man","","","","null","","","","","","","","",""
"null","<img src=""stim_listA/kiss3.gif""style=""height:400px;""></stim_listA>","","html-keyboard-response","269","742298","0.0-17.0-1.5","50288","List1A","white","man","","","","null","","","","","","","","",""
"null","is kissing","","html-keyboard-response","270","744311","0.0-17.0-2.5","50288","List1A","white","man","","","","null","","","","","","","","",""
"2258.7000000476837","","","survey-text","271","746575","0.0-17.0-3.5","50288","List1A","white","man","","","","","{""Q0"":""Ruth is kissing Luke""}","<img src=""stim_listA/kiss3.gif""style=""height:400px;""></stim_listA>","is kissing","","","","","",""
"null","<div style=""font-size:60px;"">+</div>","","html-keyboard-response","272","747077","0.0-17.0-0.6","50288","List1A","white","man","","","","null","","","","","","","","",""
"null","<img src=""stim_listA/seduce8.gif""style=""height:400px;""></stim_listA>","","html-keyboard-response","273","749079","0.0-17.0-1.6","50288","List1A","white","man","","","","null","","","","","","","","",""
"null","is being seduced by","","html-keyboard-response","274","751090","0.0-17.0-2.6","50288","List1A","white","man","","","","null","","","","","","","","",""
"3594.899999856949","","","survey-text","275","754689","0.0-17.0-3.6","50288","List1A","white","man","","","","","{""Q0"":""Ruth is being seduced by Kate""}","<img src=""stim_listA/seduce8.gif""style=""height:400px;""></stim_listA>","is being seduced by","","","","","",""
"null","<div style=""font-size:60px;"">+</div>","","html-keyboard-response","276","755193","0.0-17.0-0.7","50288","List1A","white","man","","","","null","","","","","","","","",""
"null","<img src=""stim_listA/shout6.gif""style=""height:400px;""></stim_listA>","","html-keyboard-response","277","757206","0.0-17.0-1.7","50288","List1A","white","man","","","","null","","","","","","","","",""
"null","is being shouted at by","","html-keyboard-response","278","759215","0.0-17.0-2.7","50288","List1A","white","man","","","","null","","","","","","","","",""
"3057.4000000953674","","","survey-text","279","762274","0.0-17.0-3.7","50288","List1A","white","man","","","","","{""Q0"":""Dave is being shouted at by Mike""}","<img src=""stim_listA/shout6.gif""style=""height:400px;""></stim_listA>","is being shouted at by","","","","","",""
"null","<div style=""font-size:60px;"">+</div>","","html-keyboard-response","280","762784","0.0-17.0-0.8","50288","List1A","white","man","","","","null","","","","","","","","",""
"null","<img src=""stim_listA/touch6.gif""style=""height:400px;""></stim_listA>","","html-keyboard-response","281","764799","0.0-17.0-1.8","50288","List1A","white","man","","","","null","","","","","","","","",""
"null","is being touched by","","html-keyboard-response","282","766811","0.0-17.0-2.8","50288","List1A","white","man","","","","null","","","","","","","","",""
"2751.7999999523163","","","survey-text","283","769568","0.0-17.0-3.8","50288","List1A","white","man","","","","","{""Q0"":""Fred is being touched by Luke""}","<img src=""stim_listA/touch6.gif""style=""height:400px;""></stim_listA>","is being touched by","","","","","",""
"null","<div style=""font-size:60px;"">+</div>","","html-keyboard-response","284","770070","0.0-17.0-0.9","50288","List1A","white","man","","","","null","","","","","","","","",""
"null","<img src=""stim_listA/challenge2.gif""style=""height:400px;""></stim_listA>","","html-keyboard-response","285","772082","0.0-17.0-1.9","50288","List1A","white","man","","","","null","","","","","","","","",""
"null","is being challenged by","","html-keyboard-response","286","774099","0.0-17.0-2.9","50288","List1A","white","man","","","","null","","","","","","","","",""
"3777.0999999046326","","","survey-text","287","777884","0.0-17.0-3.9","50288","List1A","white","man","","","","","{""Q0"":""Kate is being challenged by Fred""}","<img src=""stim_listA/challenge2.gif""style=""height:400px;""></stim_listA>","is being challenged by","","","","","",""
"null","<div style=""font-size:60px;"">+</div>","","html-keyboard-response","288","778392","0.0-17.0-0.10","50288","List1A","white","man","","","","null","","","","","","","","",""
"null","<img src=""stim_listA/hug4.gif""style=""height:400px;""></stim_listA>","","html-keyboard-response","289","780394","0.0-17.0-1.10","50288","List1A","white","man","","","","null","","","","","","","","",""
"null","is being hugged by","","html-keyboard-response","290","782398","0.0-17.0-2.10","50288","List1A","white","man","","","","null","","","","","","","","",""
"4381","","","survey-text","291","786782","0.0-17.0-3.10","50288","List1A","white","man","","","","","{""Q0"":""Dave is being hugged by Jane ""}","<img src=""stim_listA/hug4.gif""style=""height:400px;""></stim_listA>","is being hugged by","","","","","",""
"null","<div style=""font-size:60px;"">+</div>","","html-keyboard-response","292","787288","0.0-17.0-0.11","50288","List1A","white","man","","","","null","","","","","","","","",""
"null","<img src=""stim_listA/seduce7.gif""style=""height:400px;""></stim_listA>","","html-keyboard-response","293","789304","0.0-17.0-1.11","50288","List1A","white","man","","","","null","","","","","","","","",""
"null","is seducing","","html-keyboard-response","294","791307","0.0-17.0-2.11","50288","List1A","white","man","","","","null","","","","","","","","",""
"4053.2999999523163","","","survey-text","295","795361","0.0-17.0-3.11","50288","List1A","white","man","","","","","{""Q0"":""Beth is seducing Kate""}","<img src=""stim_listA/seduce7.gif""style=""height:400px;""></stim_listA>","is seducing","","","","","",""
"null","<div style=""font-size:60px;"">+</div>","","html-keyboard-response","296","795873","0.0-17.0-0.12","50288","List1A","white","man","","","","null","","","","","","","","",""
"null","<img src=""stim_listA/kiss8.gif""style=""height:400px;""></stim_listA>","","html-keyboard-response","297","797874","0.0-17.0-1.12","50288","List1A","white","man","","","","null","","","","","","","","",""
"null","is being kissed by","","html-keyboard-response","298","799885","0.0-17.0-2.12","50288","List1A","white","man","","","","null","","","","","","","","",""
"4301.299999952316","","","survey-text","299","804191","0.0-17.0-3.12","50288","List1A","white","man","","","","","{""Q0"":""Kate is being kissed by Jane ""}","<img src=""stim_listA/kiss8.gif""style=""height:400px;""></stim_listA>","is being kissed by","","","","","",""
"null","<div style=""font-size:60px;"">+</div>","","html-keyboard-response","300","804692","0.0-17.0-0.13","50288","List1A","white","man","","","","null","","","","","","","","",""
"null","<img src=""stim_listA/copy7.gif""style=""height:400px;""></stim_listA>","","html-keyboard-response","301","806693","0.0-17.0-1.13","50288","List1A","white","man","","","","null","","","","","","","","",""
"null","is copying","","html-keyboard-response","302","808705","0.0-17.0-2.13","50288","List1A","white","man","","","","null","","","","","","","","",""
"3806.4000000953674","","","survey-text","303","812516","0.0-17.0-3.13","50288","List1A","white","man","","","","","{""Q0"":""Ruth is copying Kate""}","<img src=""stim_listA/copy7.gif""style=""height:400px;""></stim_listA>","is copying","","","","","",""
"null","<div style=""font-size:60px;"">+</div>","","html-keyboard-response","304","813018","0.0-17.0-0.14","50288","List1A","white","man","","","","null","","","","","","","","",""
"null","<img src=""stim_listA/hug7.gif""style=""height:400px;""></stim_listA>","","html-keyboard-response","305","815029","0.0-17.0-1.14","50288","List1A","white","man","","","","null","","","","","","","","",""
"null","is hugging","","html-keyboard-response","306","817035","0.0-17.0-2.14","50288","List1A","white","man","","","","null","","","","","","","","",""
"2725.899999856949","","","survey-text","307","819766","0.0-17.0-3.14","50288","List1A","white","man","","","","","{""Q0"":""Beth is hugging Ruth""}","<img src=""stim_listA/hug7.gif""style=""height:400px;""></stim_listA>","is hugging","","","","","",""
"null","<div style=""font-size:60px;"">+</div>","","html-keyboard-response","308","820276","0.0-17.0-0.15","50288","List1A","white","man","","","","null","","","","","","","","",""
"null","<img src=""stim_listA/oppose3.gif""style=""height:400px;""></stim_listA>","","html-keyboard-response","309","822284","0.0-17.0-1.15","50288","List1A","white","man","","","","null","","","","","","","","",""
"null","is opposing","","html-keyboard-response","310","824291","0.0-17.0-2.15","50288","List1A","white","man","","","","null","","","","","","","","",""
"2538.0999999046326","","","survey-text","311","826832","0.0-17.0-3.15","50288","List1A","white","man","","","","","{""Q0"":""Jane is opposing Dave""}","<img src=""stim_listA/oppose3.gif""style=""height:400px;""></stim_listA>","is opposing","","","","","",""
"null","<div style=""font-size:60px;"">+</div>","","html-keyboard-response","312","827339","0.0-17.0-0.16","50288","List1A","white","man","","","","null","","","","","","","","",""
"null","<img src=""stim_listA/look7.gif""style=""height:400px;""></stim_listA>","","html-keyboard-response","313","829353","0.0-17.0-1.16","50288","List1A","white","man","","","","null","","","","","","","","",""
"null","is looking at","","html-keyboard-response","314","831364","0.0-17.0-2.16","50288","List1A","white","man","","","","null","","","","","","","","",""
"2420.4000000953674","","","survey-text","315","833787","0.0-17.0-3.16","50288","List1A","white","man","","","","","{""Q0"":""Beth  is looking at Ruth""}","<img src=""stim_listA/look7.gif""style=""height:400px;""></stim_listA>","is looking at","","","","","",""
"null","<div style=""font-size:60px;"">+</div>","","html-keyboard-response","316","834289","0.0-17.0-0.17","50288","List1A","white","man","","","","null","","","","","","","","",""
"null","<img src=""stim_listA/look1.gif""style=""height:400px;""></stim_listA>","","html-keyboard-response","317","836292","0.0-17.0-1.17","50288","List1A","white","man","","","","null","","","","","","","","",""
"null","is looking at","","html-keyboard-response","318","838299","0.0-17.0-2.17","50288","List1A","white","man","","","","null","","","","","","","","",""
"2501.2999999523163","","","survey-text","319","840803","0.0-17.0-3.17","50288","List1A","white","man","","","","","{""Q0"":""Fred is looking at Beth""}","<img src=""stim_listA/look1.gif""style=""height:400px;""></stim_listA>","is looking at","","","","","",""
"null","<div style=""font-size:60px;"">+</div>","","html-keyboard-response","320","841314","0.0-17.0-0.18","50288","List1A","white","man","","","","null","","","","","","","","",""
"null","<img src=""stim_listA/seduce1.gif""style=""height:400px;""></stim_listA>","","html-keyboard-response","321","843324","0.0-17.0-1.18","50288","List1A","white","man","","","","null","","","","","","","","",""
"null","is seducing","","html-keyboard-response","322","845338","0.0-17.0-2.18","50288","List1A","white","man","","","","null","","","","","","","","",""
"2670.2000000476837","","","survey-text","323","848010","0.0-17.0-3.18","50288","List1A","white","man","","","","","{""Q0"":""Fred is seducing Kate""}","<img src=""stim_listA/seduce1.gif""style=""height:400px;""></stim_listA>","is seducing","","","","","",""
"null","<div style=""font-size:60px;"">+</div>","","html-keyboard-response","324","848512","0.0-17.0-0.19","50288","List1A","white","man","","","","null","","","","","","","","",""
"null","<img src=""stim_listA/look2.gif""style=""height:400px;""></stim_listA>","","html-keyboard-response","325","850513","0.0-17.0-1.19","50288","List1A","white","man","","","","null","","","","","","","","",""
"null","is being looked at by","","html-keyboard-response","326","852521","0.0-17.0-2.19","50288","List1A","white","man","","","","null","","","","","","","","",""
"3009.100000143051","","","survey-text","327","855536","0.0-17.0-3.19","50288","List1A","white","man","","","","","{""Q0"":""Kate is being looked at by Mike ""}","<img src=""stim_listA/look2.gif""style=""height:400px;""></stim_listA>","is being looked at by","","","","","",""
"3114.2000000476837","<img src='img/portrait_matrix_list1.jpg' style='width:900px;height:500px;''></img><p>If you have memorised all the portraits and names and are ready to start, press Continue.</p><p><strong>Please note: Your memory of these faces will be tested 4 times during this experiment.</strong></p>","0","html-button-response","328","858651","0.0-18.0-0.0","50288","List1A","white","man","","","","","","","","","","","","",""
"1846.2000000476837","<img src=""portrait/WW2.jpg""style=""height:400px;""></img>","3","html-button-response","329","861499","0.0-18.0-1.0","50288","List1A","white","man","","true","3","","","","","","","","","",""
"null","CORRECT","","html-keyboard-response","330","863020","0.0-18.0-2.0-0.0","50288","List1A","white","man","","","","null","","","","","","","","",""
"3028.5","<img src=""portrait/WM1.jpg""style=""height:400px;""></img>","6","html-button-response","331","866050","0.0-18.0-4.0","50288","List1A","white","man","","true","6","","","","","","","","","",""
"null","CORRECT","","html-keyboard-response","332","867568","0.0-18.0-5.0-0.0","50288","List1A","white","man","","","","null","","","","","","","","",""
"3574.2999999523163","<img src=""portrait/BM2.jpg""style=""height:400px;""></img>","5","html-button-response","333","871143","0.0-18.0-7.0","50288","List1A","white","man","","true","5","","","","","","","","","",""
"null","CORRECT","","html-keyboard-response","334","872656","0.0-18.0-8.0-0.0","50288","List1A","white","man","","","","null","","","","","","","","",""
"2110.300000190735","<img src=""portrait/BW2.jpg""style=""height:400px;""></img>","2","html-button-response","335","874767","0.0-18.0-10.0","50288","List1A","white","man","","true","2","","","","","","","","","",""
"null","CORRECT","","html-keyboard-response","336","876298","0.0-18.0-11.0-0.0","50288","List1A","white","man","","","","null","","","","","","","","",""
"2051.300000190735","<img src=""portrait/WW1.jpg""style=""height:400px;""></img>","1","html-button-response","337","878350","0.0-18.0-13.0","50288","List1A","white","man","","true","1","","","","","","","","","",""
"null","CORRECT","","html-keyboard-response","338","879867","0.0-18.0-14.0-0.0","50288","List1A","white","man","","","","null","","","","","","","","",""
"2468.2000000476837","<img src=""portrait/BW1.jpg""style=""height:400px;""></img>","0","html-button-response","339","882336","0.0-18.0-16.0","50288","List1A","white","man","","true","0","","","","","","","","","",""
"null","CORRECT","","html-keyboard-response","340","883858","0.0-18.0-17.0-0.0","50288","List1A","white","man","","","","null","","","","","","","","",""
"2277.0999999046326","<img src=""portrait/BM1.jpg""style=""height:400px;""></img>","4","html-button-response","341","886137","0.0-18.0-19.0","50288","List1A","white","man","","true","4","","","","","","","","","",""
"null","CORRECT","","html-keyboard-response","342","887650","0.0-18.0-20.0-0.0","50288","List1A","white","man","","","","null","","","","","","","","",""
"1892.9000000953674","<img src=""portrait/WM2.jpg""style=""height:400px;""></img>","7","html-button-response","343","889544","0.0-18.0-22.0","50288","List1A","white","man","","true","7","","","","","","","","","",""
"null","CORRECT","","html-keyboard-response","344","891059","0.0-18.0-23.0-0.0","50288","List1A","white","man","","","","null","","","","","","","","",""
"649.6000001430511","<p>You got 8 out of 8 right first time. Press Continue.</p>","0","html-button-response","345","891710","0.0-18.0-25.0","50288","List1A","white","man","","","","","","","","","","","","",""
"null","<div style=""font-size:60px;"">+</div>","","html-keyboard-response","346","893242","0.0-19.0-0.0","50288","List1A","white","man","","","","null","","","","","","","","",""
"null","<img src=""stim_listA/challenge5.gif""style=""height:400px;""></stim_listA>","","html-keyboard-response","347","895247","0.0-19.0-1.0","50288","List1A","white","man","","","","null","","","","","","","","",""
"null","is challenging","","html-keyboard-response","348","897251","0.0-19.0-2.0","50288","List1A","white","man","","","","null","","","","","","","","",""
"3709.5","","","survey-text","349","900962","0.0-19.0-3.0","50288","List1A","white","man","","","","","{""Q0"":""Luke is challenging Mike ""}","<img src=""stim_listA/challenge5.gif""style=""height:400px;""></stim_listA>","is challenging","","","","","",""
"null","<div style=""font-size:60px;"">+</div>","","html-keyboard-response","350","901467","0.0-19.0-0.1","50288","List1A","white","man","","","","null","","","","","","","","",""
"null","<img src=""stim_listA/challenge6.gif""style=""height:400px;""></stim_listA>","","html-keyboard-response","351","903478","0.0-19.0-1.1","50288","List1A","white","man","","","","null","","","","","","","","",""
"null","is being challenged by","","html-keyboard-response","352","905489","0.0-19.0-2.1","50288","List1A","white","man","","","","null","","","","","","","","",""
"3529.0999999046326","","","survey-text","353","909020","0.0-19.0-3.1","50288","List1A","white","man","","","","","{""Q0"":""Dave is being challenged by Fred""}","<img src=""stim_listA/challenge6.gif""style=""height:400px;""></stim_listA>","is being challenged by","","","","","",""
"null","<div style=""font-size:60px;"">+</div>","","html-keyboard-response","354","909521","0.0-19.0-0.2","50288","List1A","white","man","","","","null","","","","","","","","",""
"null","<img src=""stim_listA/oppose8.gif""style=""height:400px;""></stim_listA>","","html-keyboard-response","355","911533","0.0-19.0-1.2","50288","List1A","white","man","","","","null","","","","","","","","",""
"null","is being opposed by","","html-keyboard-response","356","913541","0.0-19.0-2.2","50288","List1A","white","man","","","","null","","","","","","","","",""
"2995.600000143051","","","survey-text","357","916538","0.0-19.0-3.2","50288","List1A","white","man","","","","","{""Q0"":""Ruth is being opposed by Beth""}","<img src=""stim_listA/oppose8.gif""style=""height:400px;""></stim_listA>","is being opposed by","","","","","",""
"null","<div style=""font-size:60px;"">+</div>","","html-keyboard-response","358","917040","0.0-19.0-0.3","50288","List1A","white","man","","","","null","","","","","","","","",""
"null","<img src=""stim_listA/kiss1.gif""style=""height:400px;""></stim_listA>","","html-keyboard-response","359","919042","0.0-19.0-1.3","50288","List1A","white","man","","","","null","","","","","","","","",""
"null","is kissing","","html-keyboard-response","360","921045","0.0-19.0-2.3","50288","List1A","white","man","","","","null","","","","","","","","",""
"2072.5","","","survey-text","361","923124","0.0-19.0-3.3","50288","List1A","white","man","","","","","{""Q0"":""Fred is kissing Beth""}","<img src=""stim_listA/kiss1.gif""style=""height:400px;""></stim_listA>","is kissing","","","","","",""
"null","<div style=""font-size:60px;"">+</div>","","html-keyboard-response","362","923636","0.0-19.0-0.4","50288","List1A","white","man","","","","null","","","","","","","","",""
"null","<img src=""stim_listA/shout3.gif""style=""height:400px;""></stim_listA>","","html-keyboard-response","363","925638","0.0-19.0-1.4","50288","List1A","white","man","","","","null","","","","","","","","",""
"null","is shouting at","","html-keyboard-response","364","927647","0.0-19.0-2.4","50288","List1A","white","man","","","","null","","","","","","","","",""
"2383.600000143051","","","survey-text","365","930034","0.0-19.0-3.4","50288","List1A","white","man","","","","","{""Q0"":""Luke is shouting at Ruth""}","<img src=""stim_listA/shout3.gif""style=""height:400px;""></stim_listA>","is shouting at","","","","","",""
"null","<div style=""font-size:60px;"">+</div>","","html-keyboard-response","366","930536","0.0-19.0-0.5","50288","List1A","white","man","","","","null","","","","","","","","",""
"null","<img src=""stim_listA/seduce2.gif""style=""height:400px;""></stim_listA>","","html-keyboard-response","367","932538","0.0-19.0-1.5","50288","List1A","white","man","","","","null","","","","","","","","",""
"null","is being seduced by","","html-keyboard-response","368","934539","0.0-19.0-2.5","50288","List1A","white","man","","","","null","","","","","","","","",""
"4523.199999809265","","","survey-text","369","939064","0.0-19.0-3.5","50288","List1A","white","man","","","","","{""Q0"":""Beth is being seduced by Mike ""}","<img src=""stim_listA/seduce2.gif""style=""height:400px;""></stim_listA>","is being seduced by","","","","","",""
"null","<div style=""font-size:60px;"">+</div>","","html-keyboard-response","370","939565","0.0-19.0-0.6","50288","List1A","white","man","","","","null","","","","","","","","",""
"null","<img src=""stim_listA/seduce6.gif""style=""height:400px;""></stim_listA>","","html-keyboard-response","371","941580","0.0-19.0-1.6","50288","List1A","white","man","","","","null","","","","","","","","",""
"null","is being seduced by","","html-keyboard-response","372","943584","0.0-19.0-2.6","50288","List1A","white","man","","","","null","","","","","","","","",""
"3966.399999856949","","","survey-text","373","947552","0.0-19.0-3.6","50288","List1A","white","man","","","","","{""Q0"":""Luke is being seduced by Mike""}","<img src=""stim_listA/seduce6.gif""style=""height:400px;""></stim_listA>","is being seduced by","","","","","",""
"null","<div style=""font-size:60px;"">+</div>","","html-keyboard-response","374","948061","0.0-19.0-0.7","50288","List1A","white","man","","","","null","","","","","","","","",""
"null","<img src=""stim_listA/copy2.gif""style=""height:400px;""></stim_listA>","","html-keyboard-response","375","950063","0.0-19.0-1.7","50288","List1A","white","man","","","","null","","","","","","","","",""
"null","is being copied by","","html-keyboard-response","376","952070","0.0-19.0-2.7","50288","List1A","white","man","","","","null","","","","","","","","",""
"3608.7999999523163","","","survey-text","377","955683","0.0-19.0-3.7","50288","List1A","white","man","","","","","{""Q0"":""Fred is being copied by Kate""}","<img src=""stim_listA/copy2.gif""style=""height:400px;""></stim_listA>","is being copied by","","","","","",""
"null","<div style=""font-size:60px;"">+</div>","","html-keyboard-response","378","956185","0.0-19.0-0.8","50288","List1A","white","man","","","","null","","","","","","","","",""
"null","<img src=""stim_listA/kiss6.gif""style=""height:400px;""></stim_listA>","","html-keyboard-response","379","958191","0.0-19.0-1.8","50288","List1A","white","man","","","","null","","","","","","","","",""
"null","is being kissed by","","html-keyboard-response","380","960201","0.0-19.0-2.8","50288","List1A","white","man","","","","null","","","","","","","","",""
"2876.9000000953674","","","survey-text","381","963083","0.0-19.0-3.8","50288","List1A","white","man","","","","","{""Q0"":""Dave is being kissed by Mike""}","<img src=""stim_listA/kiss6.gif""style=""height:400px;""></stim_listA>","is being kissed by","","","","","",""
"null","<div style=""font-size:60px;"">+</div>","","html-keyboard-response","382","963585","0.0-19.0-0.9","50288","List1A","white","man","","","","null","","","","","","","","",""
"null","<img src=""stim_listA/hug3.gif""style=""height:400px;""></stim_listA>","","html-keyboard-response","383","965592","0.0-19.0-1.9","50288","List1A","white","man","","","","null","","","","","","","","",""
"null","is hugging","","html-keyboard-response","384","967599","0.0-19.0-2.9","50288","List1A","white","man","","","","null","","","","","","","","",""
"2781.100000143051","","","survey-text","385","970382","0.0-19.0-3.9","50288","List1A","white","man","","","","","{""Q0"":""Luke is hugging Ruth""}","<img src=""stim_listA/hug3.gif""style=""height:400px;""></stim_listA>","is hugging","","","","","",""
"null","<div style=""font-size:60px;"">+</div>","","html-keyboard-response","386","970889","0.0-19.0-0.10","50288","List1A","white","man","","","","null","","","","","","","","",""
"null","<img src=""stim_listA/challenge7.gif""style=""height:400px;""></stim_listA>","","html-keyboard-response","387","972900","0.0-19.0-1.10","50288","List1A","white","man","","","","null","","","","","","","","",""
"null","is challenging","","html-keyboard-response","388","974917","0.0-19.0-2.10","50288","List1A","white","man","","","","null","","","","","","","","",""
"2707.2000000476837","","","survey-text","389","977626","0.0-19.0-3.10","50288","List1A","white","man","","","","","{""Q0"":""Kate is challenging Ruth""}","<img src=""stim_listA/challenge7.gif""style=""height:400px;""></stim_listA>","is challenging","","","","","",""
"null","<div style=""font-size:60px;"">+</div>","","html-keyboard-response","390","978128","0.0-19.0-0.11","50288","List1A","white","man","","","","null","","","","","","","","",""
"null","<img src=""stim_listA/oppose2.gif""style=""height:400px;""></stim_listA>","","html-keyboard-response","391","980137","0.0-19.0-1.11","50288","List1A","white","man","","","","null","","","","","","","","",""
"null","is being opposed by","","html-keyboard-response","392","982140","0.0-19.0-2.11","50288","List1A","white","man","","","","null","","","","","","","","",""
"3086.4000000953674","","","survey-text","393","985230","0.0-19.0-3.11","50288","List1A","white","man","","","","","{""Q0"":""Fred is being opposed by Beth""}","<img src=""stim_listA/oppose2.gif""style=""height:400px;""></stim_listA>","is being opposed by","","","","","",""
"null","<div style=""font-size:60px;"">+</div>","","html-keyboard-response","394","985731","0.0-19.0-0.12","50288","List1A","white","man","","","","null","","","","","","","","",""
"null","<img src=""stim_listA/copy8.gif""style=""height:400px;""></stim_listA>","","html-keyboard-response","395","987739","0.0-19.0-1.12","50288","List1A","white","man","","","","null","","","","","","","","",""
"null","is being copied by","","html-keyboard-response","396","989747","0.0-19.0-2.12","50288","List1A","white","man","","","","null","","","","","","","","",""
"2967.9000000953674","","","survey-text","397","992716","0.0-19.0-3.12","50288","List1A","white","man","","","","","{""Q0"":""Jane is being copied by Beth""}","<img src=""stim_listA/copy8.gif""style=""height:400px;""></stim_listA>","is being copied by","","","","","",""
"null","<div style=""font-size:60px;"">+</div>","","html-keyboard-response","398","993217","0.0-19.0-0.13","50288","List1A","white","man","","","","null","","","","","","","","",""
"null","<img src=""stim_listA/hug1.gif""style=""height:400px;""></stim_listA>","","html-keyboard-response","399","995234","0.0-19.0-1.13","50288","List1A","white","man","","","","null","","","","","","","","",""
"null","is hugging","","html-keyboard-response","400","997246","0.0-19.0-2.13","50288","List1A","white","man","","","","null","","","","","","","","",""
"2250","","","survey-text","401","999498","0.0-19.0-3.13","50288","List1A","white","man","","","","","{""Q0"":""Fred is hugging Beth""}","<img src=""stim_listA/hug1.gif""style=""height:400px;""></stim_listA>","is hugging","","","","","",""
"null","<div style=""font-size:60px;"">+</div>","","html-keyboard-response","402","1000006","0.0-19.0-0.14","50288","List1A","white","man","","","","null","","","","","","","","",""
"null","<img src=""stim_listA/challenge4.gif""style=""height:400px;""></stim_listA>","","html-keyboard-response","403","1002010","0.0-19.0-1.14","50288","List1A","white","man","","","","null","","","","","","","","",""
"null","is being challenged by","","html-keyboard-response","404","1004021","0.0-19.0-2.14","50288","List1A","white","man","","","","null","","","","","","","","",""
"3682.7999999523163","","","survey-text","405","1007706","0.0-19.0-3.14","50288","List1A","white","man","","","","","{""Q0"":""Jane is being challeneged by Luke""}","<img src=""stim_listA/challenge4.gif""style=""height:400px;""></stim_listA>","is being challenged by","","","","","",""
"null","<div style=""font-size:60px;"">+</div>","","html-keyboard-response","406","1008207","0.0-19.0-0.15","50288","List1A","white","man","","","","null","","","","","","","","",""
"null","<img src=""stim_listA/hug5.gif""style=""height:400px;""></stim_listA>","","html-keyboard-response","407","1010219","0.0-19.0-1.15","50288","List1A","white","man","","","","null","","","","","","","","",""
"null","is hugging","","html-keyboard-response","408","1012231","0.0-19.0-2.15","50288","List1A","white","man","","","","null","","","","","","","","",""
"2135.2000000476837","","","survey-text","409","1014368","0.0-19.0-3.15","50288","List1A","white","man","","","","","{""Q0"":""Fred is hugging Luke""}","<img src=""stim_listA/hug5.gif""style=""height:400px;""></stim_listA>","is hugging","","","","","",""
"null","<div style=""font-size:60px;"">+</div>","","html-keyboard-response","410","1014876","0.0-19.0-0.16","50288","List1A","white","man","","","","null","","","","","","","","",""
"null","<img src=""stim_listA/oppose5.gif""style=""height:400px;""></stim_listA>","","html-keyboard-response","411","1016877","0.0-19.0-1.16","50288","List1A","white","man","","","","null","","","","","","","","",""
"null","is opposing","","html-keyboard-response","412","1018891","0.0-19.0-2.16","50288","List1A","white","man","","","","null","","","","","","","","",""
"2554.699999809265","","","survey-text","413","1021448","0.0-19.0-3.16","50288","List1A","white","man","","","","","{""Q0"":""Mike is opposing Dave""}","<img src=""stim_listA/oppose5.gif""style=""height:400px;""></stim_listA>","is opposing","","","","","",""
"null","<div style=""font-size:60px;"">+</div>","","html-keyboard-response","414","1021958","0.0-19.0-0.17","50288","List1A","white","man","","","","null","","","","","","","","",""
"null","<img src=""stim_listA/greet6.gif""style=""height:400px;""></stim_listA>","","html-keyboard-response","415","1023967","0.0-19.0-1.17","50288","List1A","white","man","","","","null","","","","","","","","",""
"null","is being greeted by","","html-keyboard-response","416","1025978","0.0-19.0-2.17","50288","List1A","white","man","","","","null","","","","","","","","",""
"3801.899999856949","","","survey-text","417","1029784","0.0-19.0-3.17","50288","List1A","white","man","","","","","{""Q0"":""Dave is being greeted by Fred""}","<img src=""stim_listA/greet6.gif""style=""height:400px;""></stim_listA>","is being greeted by","","","","","",""
"null","<div style=""font-size:60px;"">+</div>","","html-keyboard-response","418","1030286","0.0-19.0-0.18","50288","List1A","white","man","","","","null","","","","","","","","",""
"null","<img src=""stim_listA/look8.gif""style=""height:400px;""></stim_listA>","","html-keyboard-response","419","1032297","0.0-19.0-1.18","50288","List1A","white","man","","","","null","","","","","","","","",""
"null","is being looked at by","","html-keyboard-response","420","1034312","0.0-19.0-2.18","50288","List1A","white","man","","","","null","","","","","","","","",""
"4090.699999809265","","","survey-text","421","1038407","0.0-19.0-3.18","50288","List1A","white","man","","","","","{""Q0"":""Jane is being looked at by Kate""}","<img src=""stim_listA/look8.gif""style=""height:400px;""></stim_listA>","is being looked at by","","","","","",""
"null","<div style=""font-size:60px;"">+</div>","","html-keyboard-response","422","1038910","0.0-19.0-0.19","50288","List1A","white","man","","","","null","","","","","","","","",""
"null","<img src=""stim_listA/hug2.gif""style=""height:400px;""></stim_listA>","","html-keyboard-response","423","1040911","0.0-19.0-1.19","50288","List1A","white","man","","","","null","","","","","","","","",""
"null","is being hugged by","","html-keyboard-response","424","1042921","0.0-19.0-2.19","50288","List1A","white","man","","","","null","","","","","","","","",""
"2883.5999999046326","","","survey-text","425","1045809","0.0-19.0-3.19","50288","List1A","white","man","","","","","{""Q0"":""Kate is being hugged by Mike""}","<img src=""stim_listA/hug2.gif""style=""height:400px;""></stim_listA>","is being hugged by","","","","","",""
"1958.6000001430511","<p>Thank you for completing that task.</p><p>The final part of this session is a questionnaire that will take about 4 minutes.</p><p>Press Continue.</p>","0","html-button-response","426","1047770","0.0-20.0","50288","List1A","white","man","","","","","","","","","","","","",""
"13032.799999952316","","","survey-text","427","1061816","0.0-21.0","50288","List1A","white","man","","","","","{""Q0"":""33"",""Q1"":""English"",""Q2"":""English"",""Q3"":""USA"",""Q4"":""American"",""Q5"":""White"",""Q6"":""Male""}","","","demographics","","","","",""
"2016","<p>Have you lived in the USA for the last 5 years or more?</p>","0","html-button-response","428","1063837","0.0-22.0","50288","List1A","white","man","","","","","","","","fiveyears","","","","",""
"1525.9000000953674","<p>Move the slider to show the extent to which you agree with the following statements.</p>","0","html-button-response","429","1066365","0.0-23.0","50288","List1A","white","man","","","","","","","","","","","","",""
"2355.7999999523163","","","html-slider-response","430","1069741","0.0-24.0-0.0-0.0","50288","List1A","white","man","","","","","","","","survey_gender","100","","","I am glad to be my gender.","glad"
"1662.5","","","html-slider-response","431","1071404","0.0-24.0-0.0-0.1","50288","List1A","white","man","","","","","","","","survey_gender","100","","","I have a lot in common with my friends.","filler"
"1622.9000000953674","","","html-slider-response","432","1073027","0.0-24.0-0.0-0.2","50288","List1A","white","man","","","","","","","","survey_gender","85","","","I consider myself a highly empathetic person.","filler"
"2001.2999999523163","","","html-slider-response","433","1075029","0.0-24.0-0.0-0.3","50288","List1A","white","man","","","","","","","","survey_gender","95","","","People of my gender have a lot in common with each other.","common"
"1763.2999999523163","","","html-slider-response","434","1076793","0.0-24.0-0.0-0.4","50288","List1A","white","man","","","","","","","","survey_gender","57","","","Routine is not important to me.","filler"
"2242.2999999523163","","","html-slider-response","435","1079036","0.0-24.0-0.0-0.5","50288","List1A","white","man","","","","","","","","survey_gender","74","","","Family is not more important to me than friendship.","filler"
"2435.800000190735","","","html-slider-response","436","1081473","0.0-24.0-0.0-0.6","50288","List1A","white","man","","","","","","","","survey_gender","57","","","Being my gender is an important part of how I see myself.","important"
"1796.1000001430511","","","html-slider-response","437","1083269","0.0-24.0-0.0-0.7","50288","List1A","white","man","","","","","","","","survey_gender","97","","","My friends have a lot in common with each other.","filler"
"2206.7999999523163","","","html-slider-response","438","1085477","0.0-24.0-0.0-0.8","50288","List1A","white","man","","","","","","","","survey_gender","60","","","I think that my gender has a lot to be proud of.","proud"
"1980","","","html-slider-response","439","1087458","0.0-24.0-0.0-0.9","50288","List1A","white","man","","","","","","","","survey_gender","85","","","I am similar to the average person of my gender.","similar"
"1796.6000001430511","","","html-slider-response","440","1089255","0.0-24.0-0.0-0.10","50288","List1A","white","man","","","","","","","","survey_gender","90","","","I am glad to have the friends that I have.","filler"
"2198","","","html-slider-response","441","1091454","0.0-24.0-0.0-0.11","50288","List1A","white","man","","","","","","","","survey_gender","35","","","It is not always easy for people to know what I am thinking.","filler"
"1413.9000000953674","","","html-slider-response","442","1092868","0.0-24.0-0.0-0.12","50288","List1A","white","man","","","","","","","","survey_gender","66","","","People of my gender are very similar to each other.","verysimilar"
"1701.6000001430511","","","html-slider-response","443","1094571","0.0-24.0-0.0-0.13","50288","List1A","white","man","","","","","","","","survey_gender","56","","","I feel committed to my gender.","committed"
"1706.5","","","html-slider-response","444","1096278","0.0-24.0-0.0-0.14","50288","List1A","white","man","","","","","","","","survey_gender","36","","","I often think about the fact that I am my gender.","often"
"1813.5","","","html-slider-response","445","1098092","0.0-24.0-0.0-0.15","50288","List1A","white","man","","","","","","","","survey_gender","66","","","I have a lot in common with the average person of my gender.","average"
"2061.7999999523163","","","html-slider-response","446","1100155","0.0-24.0-0.0-0.16","50288","List1A","white","man","","","","","","","","survey_gender","78","","","Most of the friends in my life are very similar to me.","filler"
"2718.2999999523163","","","html-slider-response","447","1102874","0.0-24.0-0.0-0.17","50288","List1A","white","man","","","","","","","","survey_gender","93","","","I would say I am an animal person.","filler"
"2443.0999999046326","","","html-slider-response","448","1105318","0.0-24.0-0.0-0.18","50288","List1A","white","man","","","","","","","","survey_gender","43","","","The fact that I am my gender is an important part of my identity.","identity"
"2221","","","html-slider-response","449","1107540","0.0-24.0-0.0-0.19","50288","List1A","white","man","","","","","","","","survey_gender","83","","","Being around my friends gives me a good feeling.","filler"
"1524","","","html-slider-response","450","1109065","0.0-24.0-0.0-0.20","50288","List1A","white","man","","","","","","","","survey_gender","74","","","I feel solidarity with my friends.","filler"
"1481.2999999523163","","","html-slider-response","451","1110547","0.0-24.0-0.0-0.21","50288","List1A","white","man","","","","","","","","survey_gender","87","","","It is pleasant to be my gender.","pleasant"
"1404.4000000953674","","","html-slider-response","452","1111952","0.0-24.0-0.0-0.22","50288","List1A","white","man","","","","","","","","survey_gender","85","","","I feel solidarity with my gender.","solidarity"
"1568.4000000953674","","","html-slider-response","453","1113521","0.0-24.0-0.0-0.23","50288","List1A","white","man","","","","","","","","survey_gender","58","","","Being my gender gives me a good feeling.","feeling"
"1881","","","html-slider-response","454","1115403","0.0-24.0-0.0-0.24","50288","List1A","white","man","","","","","","","","survey_gender","44","","","I often think about my actions.","filler"
"1337.8000001907349","","","html-slider-response","455","1116742","0.0-24.0-0.0-0.25","50288","List1A","white","man","","","","","","","","survey_gender","90","","","My friends understand me.","filler"
"2830.399999856949","","","html-slider-response","456","1119573","0.0-24.0-0.0-0.26","50288","List1A","white","man","","","","","","","","survey_gender","97","","","I feel a bond with my friends.","filler"
"1687.9000000953674","","","html-slider-response","457","1121262","0.0-24.0-0.0-0.27","50288","List1A","white","man","","","","","","","","survey_gender","69","","","I feel a bond with my gender.","bond"
"1460.6000001430511","","","html-slider-response","458","1122723","0.0-24.0-1.0-0.0","50288","List1A","white","man","","","","","","","","survey_race","76","","","I enjoy being in large groups.","filler"
"1650.2999999523163","","","html-slider-response","459","1124374","0.0-24.0-1.0-0.1","50288","List1A","white","man","","","","","","","","survey_race","34","","","I consider myself an introvert.","filler"
"1687","","","html-slider-response","460","1126062","0.0-24.0-1.0-0.2","50288","List1A","white","man","","","","","","","","survey_race","74","","","Being my age gives me a good feeling.","filler"
"1570.7000000476837","","","html-slider-response","461","1127633","0.0-24.0-1.0-0.3","50288","List1A","white","man","","","","","","","","survey_race","87","","","I have a lot in common with people of a similar age to me.","filler"
"1840.1999998092651","","","html-slider-response","462","1129474","0.0-24.0-1.0-0.4","50288","List1A","white","man","","","","","","","","survey_race","71","","","I feel solidarity with my race.","solidarity"
"2669.5","","","html-slider-response","463","1132144","0.0-24.0-1.0-0.5","50288","List1A","white","man","","","","","","","","survey_race","37","","","My age is not an important part of who I am.","filler"
"1489.6999998092651","","","html-slider-response","464","1133634","0.0-24.0-1.0-0.6","50288","List1A","white","man","","","","","","","","survey_race","58","","","It is pleasant to be my race.","pleasant"
"1615.9000000953674","","","html-slider-response","465","1135251","0.0-24.0-1.0-0.7","50288","List1A","white","man","","","","","","","","survey_race","62","","","People of my race are very similar to each other.","verysimilar"
"1936.0999999046326","","","html-slider-response","466","1137188","0.0-24.0-1.0-0.8","50288","List1A","white","man","","","","","","","","survey_race","55","","","People my age have a lot in common with each other.","filler"
"1792.4000000953674","","","html-slider-response","467","1138981","0.0-24.0-1.0-0.9","50288","List1A","white","man","","","","","","","","survey_race","72","","","I am glad to be my age.","filler"
"2384.2999999523163","","","html-slider-response","468","1141366","0.0-24.0-1.0-0.10","50288","List1A","white","man","","","","","","","","survey_race","52","","","I feel committed to my race.","committed"
"1661.4000000953674","","","html-slider-response","469","1143028","0.0-24.0-1.0-0.11","50288","List1A","white","man","","","","","","","","survey_race","65","","","Getting older does not worry me.","filler"
"1894.9000000953674","","","html-slider-response","470","1144923","0.0-24.0-1.0-0.12","50288","List1A","white","man","","","","","","","","survey_race","41","","","I often think about the fact that I am my race.","often"
"1986.3999998569489","","","html-slider-response","471","1146910","0.0-24.0-1.0-0.13","50288","List1A","white","man","","","","","","","","survey_race","42","","","The fact that I am my race is an important part of my identity.","identity"
"2128.2999999523163","","","html-slider-response","472","1149039","0.0-24.0-1.0-0.14","50288","List1A","white","man","","","","","","","","survey_race","62","","","I feel a bond with people the same age as me.","filler"
"1259.2999999523163","","","html-slider-response","473","1150299","0.0-24.0-1.0-0.15","50288","List1A","white","man","","","","","","","","survey_race","59","","","I am glad to be my race.","glad"
"1785.9000000953674","","","html-slider-response","474","1152086","0.0-24.0-1.0-0.16","50288","List1A","white","man","","","","","","","","survey_race","73","","","I feel solidarity with people the same age as me.","filler"
"1835.3999998569489","","","html-slider-response","475","1153922","0.0-24.0-1.0-0.17","50288","List1A","white","man","","","","","","","","survey_race","55","","","I think that my race has a lot to be proud of.","proud"
"1347.4000000953674","","","html-slider-response","476","1155270","0.0-24.0-1.0-0.18","50288","List1A","white","man","","","","","","","","survey_race","71","","","The older I get, the wiser I feel.","filler"
"1770.5999999046326","","","html-slider-response","477","1157041","0.0-24.0-1.0-0.19","50288","List1A","white","man","","","","","","","","survey_race","46","","","Being my race is an important part of how I see myself.","important"
"1724.2999999523163","","","html-slider-response","478","1158766","0.0-24.0-1.0-0.20","50288","List1A","white","man","","","","","","","","survey_race","55","","","Being my race gives me a good feeling.","feeling"
"2085.7000000476837","","","html-slider-response","479","1160853","0.0-24.0-1.0-0.21","50288","List1A","white","man","","","","","","","","survey_race","72","","","I often think about the fact that I am my age.","filler"
"1712.9000000953674","","","html-slider-response","480","1162566","0.0-24.0-1.0-0.22","50288","List1A","white","man","","","","","","","","survey_race","68","","","I consider myself an extrovert.","filler"
