rt,stimulus,button_pressed,trial_type,trial_index,time_elapsed,internal_node_id,subject,list,ppt_race,ppt_gender,url,first_guess,correct,key_press,responses,image_type,phrase_type,test_part,response,stimulus1,stimulus2,question_type,survey_item
17667.9,Welcome to the experiment. Press Continue to begin.,0,html-button-response,0,17675,0.0-0.0,50680,List2B,black,man,,,,,,,,,,,,,
8899.8,,,external-html,1,29243,0.0-1.0,50680,List2B,black,man,consent.html,,,,,,,,,,,,
17027,"<p>On the next page, you will see portraits of 8 people and their names.</p><p>Your first task is to take a few minutes to memorise the names of these people.</p><p>You will have to recall their names during the rest of the experiment, so it is</p><p>essential that you try to memorise these people and their names as best as you can.</p><br><p><strong>You will then be tested on your memory of these names and portraits.</strong></p><br><p>The experiment will start after you have completed this memory test.</p><br><p>Ready?</p>",0,html-button-response,2,46272,0.0-2.0,50680,List2B,black,man,,,,,,,,,,,,,
15369.3,"<img src='img/portrait_matrix_list2.jpg' style='width:900px;height:500px;''></img><p>If you have memorised all the portraits and names and are ready to start, press Continue.</p><p><strong>Please note: Your memory of these faces will be tested 4 times during this experiment.</strong></p>",0,html-button-response,3,62654,0.0-3.0-0.0,50680,List2B,black,man,,,,,,,,,,,,,
13085.9,"<img src=""portrait/WM1.jpg""style=""height:400px;""></img>",6,html-button-response,4,76754,0.0-3.0-1.0,50680,List2B,black,man,,TRUE,6,,,,,,,,,,
null,CORRECT,,html-keyboard-response,5,78274,0.0-3.0-2.0-0.0,50680,List2B,black,man,,,,null,,,,,,,,,
6856,"<img src=""portrait/BM2.jpg""style=""height:400px;""></img>",5,html-button-response,6,85134,0.0-3.0-4.0,50680,List2B,black,man,,TRUE,5,,,,,,,,,,
null,CORRECT,,html-keyboard-response,7,86658,0.0-3.0-5.0-0.0,50680,List2B,black,man,,,,null,,,,,,,,,
7168.9,"<img src=""portrait/WM2.jpg""style=""height:400px;""></img>",7,html-button-response,8,93826,0.0-3.0-7.0,50680,List2B,black,man,,TRUE,7,,,,,,,,,,
null,CORRECT,,html-keyboard-response,9,95355,0.0-3.0-8.0-0.0,50680,List2B,black,man,,,,null,,,,,,,,,
5734.7,"<img src=""portrait/BW2.jpg""style=""height:400px;""></img>",2,html-button-response,10,101093,0.0-3.0-10.0,50680,List2B,black,man,,TRUE,2,,,,,,,,,,
null,CORRECT,,html-keyboard-response,11,102603,0.0-3.0-11.0-0.0,50680,List2B,black,man,,,,null,,,,,,,,,
6650.7,"<img src=""portrait/WW1.jpg""style=""height:400px;""></img>",1,html-button-response,12,109256,0.0-3.0-13.0,50680,List2B,black,man,,TRUE,1,,,,,,,,,,
null,CORRECT,,html-keyboard-response,13,110771,0.0-3.0-14.0-0.0,50680,List2B,black,man,,,,null,,,,,,,,,
5967.1,"<img src=""portrait/BM1.jpg""style=""height:400px;""></img>",4,html-button-response,14,116741,0.0-3.0-16.0,50680,List2B,black,man,,TRUE,4,,,,,,,,,,
null,CORRECT,,html-keyboard-response,15,118264,0.0-3.0-17.0-0.0,50680,List2B,black,man,,,,null,,,,,,,,,
9200.2,"<img src=""portrait/BW1.jpg""style=""height:400px;""></img>",0,html-button-response,16,127466,0.0-3.0-19.0,50680,List2B,black,man,,TRUE,0,,,,,,,,,,
null,CORRECT,,html-keyboard-response,17,128971,0.0-3.0-20.0-0.0,50680,List2B,black,man,,,,null,,,,,,,,,
5697.8,"<img src=""portrait/WW2.jpg""style=""height:400px;""></img>",3,html-button-response,18,134672,0.0-3.0-22.0,50680,List2B,black,man,,TRUE,3,,,,,,,,,,
null,CORRECT,,html-keyboard-response,19,136187,0.0-3.0-23.0-0.0,50680,List2B,black,man,,,,null,,,,,,,,,
5899.9,<p>You got 8 out of 8 right first time. Press Continue.</p>,0,html-button-response,20,142090,0.0-3.0-25.0,50680,List2B,black,man,,,,,,,,,,,,,
66875.5,"<p>In this experiment, you will view photographs of the people from the memory game interacting.</p><p>By using the <strong>exact</strong> phrase given <i>after</i> the photograph appears and recalling the correct names of the people in the photographs, form a sentence describing the interaction. You do not need to capitalise names.</p><p>Type your answer in the space provided. Please complete every sentence before moving onto the next trial.</p><p>You will only have a few seconds to memorise each given photograph and phrase before you can respond, so try your best to focus.</p><p>An example is given below. Press 'Continue' when you are ready.</p><img src='img/speaking_example.jpg' style='width:800px;height:460px;''></img>",0,html-button-response,21,210001,0.0-4.0,50680,List2B,black,man,,,,,,,,,,,,,
17697.6,"<p>Before the experiment starts, you will watch two example trials. Press 'Continue'.</p>",0,html-button-response,22,228715,0.0-5.0,50680,List2B,black,man,,,,,,,,,,,,,
null,<img src='img/play_eg.gif' style='height:400px;''></img>,,html-keyboard-response,23,231741,0.0-6.0,50680,List2B,black,man,,,,null,,,,,,,,,
null,<p>is playing with</p>,,html-keyboard-response,24,233748,0.0-7.0,50680,List2B,black,man,,,,null,,,,,,,,,
10951.3,<p><b>Answer:</b> jane is playing with ruth</p>,0,html-button-response,25,244701,0.0-8.0,50680,List2B,black,man,,,,,,,,,,,,,
null,<img src='img/dance_eg.gif' style='height:400px;''></img>,,html-keyboard-response,26,247722,0.0-9.0,50680,List2B,black,man,,,,null,,,,,,,,,
null,<p>is being entertained by</p>,,html-keyboard-response,27,249734,0.0-10.0,50680,List2B,black,man,,,,null,,,,,,,,,
4191.2,<p><b>Answer:</b> fred is being entertained by mike</p>,0,html-button-response,28,253927,0.0-11.0,50680,List2B,black,man,,,,,,,,,,,,,
12140.6,"<p>Ready to start the experiment?</p><br><p><strong>Remember to describe the picture using a full sentence,</strong></p><p><strong>that combines the names of the people with the <i>exact</i> phrase given.</strong></p><p><strong>To receive full payment you must do this correctly.</strong></p><p><strong> You do not need to capitalise names or use punctuation.</strong></p><br><p>Press 'Continue' to begin.</p>",0,html-button-response,29,267072,0.0-12.0,50680,List2B,black,man,,,,,,,,,,,,,
null,"<div style=""font-size:60px;"">+</div>",,html-keyboard-response,30,268593,0.0-13.0-0.0,50680,List2B,black,man,,,,null,,,,,,,,,
null,"<img src=""stim_listB/hug5.gif""style=""height:400px;""></stim_listB>",,html-keyboard-response,31,270602,0.0-13.0-1.0,50680,List2B,black,man,,,,null,,,,,,,,,
null,is hugging,,html-keyboard-response,32,272610,0.0-13.0-2.0,50680,List2B,black,man,,,,null,,,,,,,,,
13806.7,,,survey-text,33,286424,0.0-13.0-3.0,50680,List2B,black,man,,,,,"{""Q0"":""luke is hugging fred""}","<img src=""stim_listB/hug5.gif""style=""height:400px;""></stim_listB>",is hugging,,,,,,
null,"<div style=""font-size:60px;"">+</div>",,html-keyboard-response,34,286941,0.0-13.0-0.1,50680,List2B,black,man,,,,null,,,,,,,,,
null,"<img src=""stim_listB/copy7.gif""style=""height:400px;""></stim_listB>",,html-keyboard-response,35,288944,0.0-13.0-1.1,50680,List2B,black,man,,,,null,,,,,,,,,
null,is copying,,html-keyboard-response,36,290954,0.0-13.0-2.1,50680,List2B,black,man,,,,null,,,,,,,,,
16941.7,,,survey-text,37,307899,0.0-13.0-3.1,50680,List2B,black,man,,,,,"{""Q0"":""jane is hugging kate""}","<img src=""stim_listB/copy7.gif""style=""height:400px;""></stim_listB>",is copying,,,,,,
null,"<div style=""font-size:60px;"">+</div>",,html-keyboard-response,38,308403,0.0-13.0-0.2,50680,List2B,black,man,,,,null,,,,,,,,,
null,"<img src=""stim_listB/greet1.gif""style=""height:400px;""></stim_listB>",,html-keyboard-response,39,310414,0.0-13.0-1.2,50680,List2B,black,man,,,,null,,,,,,,,,
null,is greeting,,html-keyboard-response,40,312429,0.0-13.0-2.2,50680,List2B,black,man,,,,null,,,,,,,,,
14600,,,survey-text,41,327034,0.0-13.0-3.2,50680,List2B,black,man,,,,,"{""Q0"":""jane is greeng dave""}","<img src=""stim_listB/greet1.gif""style=""height:400px;""></stim_listB>",is greeting,,,,,,
null,"<div style=""font-size:60px;"">+</div>",,html-keyboard-response,42,327541,0.0-13.0-0.3,50680,List2B,black,man,,,,null,,,,,,,,,
null,"<img src=""stim_listB/look7.gif""style=""height:400px;""></stim_listB>",,html-keyboard-response,43,329552,0.0-13.0-1.3,50680,List2B,black,man,,,,null,,,,,,,,,
null,is looking at,,html-keyboard-response,44,331557,0.0-13.0-2.3,50680,List2B,black,man,,,,null,,,,,,,,,
18105.2,,,survey-text,45,349667,0.0-13.0-3.3,50680,List2B,black,man,,,,,"{""Q0"":""beth is greeting ruth""}","<img src=""stim_listB/look7.gif""style=""height:400px;""></stim_listB>",is looking at,,,,,,
null,"<div style=""font-size:60px;"">+</div>",,html-keyboard-response,46,350178,0.0-13.0-0.4,50680,List2B,black,man,,,,null,,,,,,,,,
null,"<img src=""stim_listB/oppose3.gif""style=""height:400px;""></stim_listB>",,html-keyboard-response,47,352190,0.0-13.0-1.4,50680,List2B,black,man,,,,null,,,,,,,,,
null,is opposing,,html-keyboard-response,48,354204,0.0-13.0-2.4,50680,List2B,black,man,,,,null,,,,,,,,,
16654.8,,,survey-text,49,370863,0.0-13.0-3.4,50680,List2B,black,man,,,,,"{""Q0"":""mike is opposing ruth""}","<img src=""stim_listB/oppose3.gif""style=""height:400px;""></stim_listB>",is opposing,,,,,,
null,"<div style=""font-size:60px;"">+</div>",,html-keyboard-response,50,371366,0.0-13.0-0.5,50680,List2B,black,man,,,,null,,,,,,,,,
null,"<img src=""stim_listB/touch6.gif""style=""height:400px;""></stim_listB>",,html-keyboard-response,51,373381,0.0-13.0-1.5,50680,List2B,black,man,,,,null,,,,,,,,,
null,is being touched by,,html-keyboard-response,52,375389,0.0-13.0-2.5,50680,List2B,black,man,,,,null,,,,,,,,,
17995.7,,,survey-text,53,393391,0.0-13.0-3.5,50680,List2B,black,man,,,,,"{""Q0"":""fred is being touched by dave""}","<img src=""stim_listB/touch6.gif""style=""height:400px;""></stim_listB>",is being touched by,,,,,,
null,"<div style=""font-size:60px;"">+</div>",,html-keyboard-response,54,393902,0.0-13.0-0.6,50680,List2B,black,man,,,,null,,,,,,,,,
null,"<img src=""stim_listB/kiss3.gif""style=""height:400px;""></stim_listB>",,html-keyboard-response,55,395907,0.0-13.0-1.6,50680,List2B,black,man,,,,null,,,,,,,,,
null,is kissing,,html-keyboard-response,56,397917,0.0-13.0-2.6,50680,List2B,black,man,,,,null,,,,,,,,,
11638.4,,,survey-text,57,409560,0.0-13.0-3.6,50680,List2B,black,man,,,,,"{""Q0"":""beth is kissing fred""}","<img src=""stim_listB/kiss3.gif""style=""height:400px;""></stim_listB>",is kissing,,,,,,
null,"<div style=""font-size:60px;"">+</div>",,html-keyboard-response,58,410075,0.0-13.0-0.7,50680,List2B,black,man,,,,null,,,,,,,,,
null,"<img src=""stim_listB/hug7.gif""style=""height:400px;""></stim_listB>",,html-keyboard-response,59,412085,0.0-13.0-1.7,50680,List2B,black,man,,,,null,,,,,,,,,
null,is hugging,,html-keyboard-response,60,414102,0.0-13.0-2.7,50680,List2B,black,man,,,,null,,,,,,,,,
23310.5,,,survey-text,61,437421,0.0-13.0-3.7,50680,List2B,black,man,,,,,"{""Q0"":""beth is hugging ruth""}","<img src=""stim_listB/hug7.gif""style=""height:400px;""></stim_listB>",is hugging,,,,,,
null,"<div style=""font-size:60px;"">+</div>",,html-keyboard-response,62,437934,0.0-13.0-0.8,50680,List2B,black,man,,,,null,,,,,,,,,
null,"<img src=""stim_listB/challenge8.gif""style=""height:400px;""></stim_listB>",,html-keyboard-response,63,439948,0.0-13.0-1.8,50680,List2B,black,man,,,,null,,,,,,,,,
null,is being challenged by,,html-keyboard-response,64,441958,0.0-13.0-2.8,50680,List2B,black,man,,,,null,,,,,,,,,
38688.7,,,survey-text,65,480652,0.0-13.0-3.8,50680,List2B,black,man,,,,,"{""Q0"":""kate is being opposed by ruth""}","<img src=""stim_listB/challenge8.gif""style=""height:400px;""></stim_listB>",is being challenged by,,,,,,
null,"<div style=""font-size:60px;"">+</div>",,html-keyboard-response,66,481169,0.0-13.0-0.9,50680,List2B,black,man,,,,null,,,,,,,,,
null,"<img src=""stim_listB/shout6.gif""style=""height:400px;""></stim_listB>",,html-keyboard-response,67,483182,0.0-13.0-1.9,50680,List2B,black,man,,,,null,,,,,,,,,
null,is being shouted at by,,html-keyboard-response,68,485203,0.0-13.0-2.9,50680,List2B,black,man,,,,null,,,,,,,,,
32718.7,,,survey-text,69,517925,0.0-13.0-3.9,50680,List2B,black,man,,,,,"{""Q0"":""dave is being shouted at by mike""}","<img src=""stim_listB/shout6.gif""style=""height:400px;""></stim_listB>",is being shouted at by,,,,,,
null,"<div style=""font-size:60px;"">+</div>",,html-keyboard-response,70,518431,0.0-13.0-0.10,50680,List2B,black,man,,,,null,,,,,,,,,
null,"<img src=""stim_listB/look6.gif""style=""height:400px;""></stim_listB>",,html-keyboard-response,71,520448,0.0-13.0-1.10,50680,List2B,black,man,,,,null,,,,,,,,,
null,is being looked at by,,html-keyboard-response,72,522451,0.0-13.0-2.10,50680,List2B,black,man,,,,null,,,,,,,,,
21190.5,,,survey-text,73,543646,0.0-13.0-3.10,50680,List2B,black,man,,,,,"{""Q0"":""dave is being looked at by mike""}","<img src=""stim_listB/look6.gif""style=""height:400px;""></stim_listB>",is being looked at by,,,,,,
null,"<div style=""font-size:60px;"">+</div>",,html-keyboard-response,74,544148,0.0-13.0-0.11,50680,List2B,black,man,,,,null,,,,,,,,,
null,"<img src=""stim_listB/touch4.gif""style=""height:400px;""></stim_listB>",,html-keyboard-response,75,546154,0.0-13.0-1.11,50680,List2B,black,man,,,,null,,,,,,,,,
null,is being touched by,,html-keyboard-response,76,548158,0.0-13.0-2.11,50680,List2B,black,man,,,,null,,,,,,,,,
11779.3,,,survey-text,77,559941,0.0-13.0-3.11,50680,List2B,black,man,,,,,"{""Q0"":""fred is being touched by beth""}","<img src=""stim_listB/touch4.gif""style=""height:400px;""></stim_listB>",is being touched by,,,,,,
null,"<div style=""font-size:60px;"">+</div>",,html-keyboard-response,78,560458,0.0-13.0-0.12,50680,List2B,black,man,,,,null,,,,,,,,,
null,"<img src=""stim_listB/greet2.gif""style=""height:400px;""></stim_listB>",,html-keyboard-response,79,562478,0.0-13.0-1.12,50680,List2B,black,man,,,,null,,,,,,,,,
null,is being greeted by,,html-keyboard-response,80,564485,0.0-13.0-2.12,50680,List2B,black,man,,,,null,,,,,,,,,
16215,,,survey-text,81,580705,0.0-13.0-3.12,50680,List2B,black,man,,,,,"{""Q0"":""luke is being greeted by jane""}","<img src=""stim_listB/greet2.gif""style=""height:400px;""></stim_listB>",is being greeted by,,,,,,
null,"<div style=""font-size:60px;"">+</div>",,html-keyboard-response,82,581212,0.0-13.0-0.13,50680,List2B,black,man,,,,null,,,,,,,,,
null,"<img src=""stim_listB/kiss7.gif""style=""height:400px;""></stim_listB>",,html-keyboard-response,83,583219,0.0-13.0-1.13,50680,List2B,black,man,,,,null,,,,,,,,,
null,is kissing,,html-keyboard-response,84,585235,0.0-13.0-2.13,50680,List2B,black,man,,,,null,,,,,,,,,
13997.1,,,survey-text,85,599237,0.0-13.0-3.13,50680,List2B,black,man,,,,,"{""Q0"":""beth is kissing ruth""}","<img src=""stim_listB/kiss7.gif""style=""height:400px;""></stim_listB>",is kissing,,,,,,
null,"<div style=""font-size:60px;"">+</div>",,html-keyboard-response,86,599747,0.0-13.0-0.14,50680,List2B,black,man,,,,null,,,,,,,,,
null,"<img src=""stim_listB/look1.gif""style=""height:400px;""></stim_listB>",,html-keyboard-response,87,601761,0.0-13.0-1.14,50680,List2B,black,man,,,,null,,,,,,,,,
null,is looking at,,html-keyboard-response,88,603765,0.0-13.0-2.14,50680,List2B,black,man,,,,null,,,,,,,,,
35090.9,,,survey-text,89,638860,0.0-13.0-3.14,50680,List2B,black,man,,,,,"{""Q0"":""luke is looking at ruth""}","<img src=""stim_listB/look1.gif""style=""height:400px;""></stim_listB>",is looking at,,,,,,
null,"<div style=""font-size:60px;"">+</div>",,html-keyboard-response,90,639366,0.0-13.0-0.15,50680,List2B,black,man,,,,null,,,,,,,,,
null,"<img src=""stim_listB/seduce5.gif""style=""height:400px;""></stim_listB>",,html-keyboard-response,91,641379,0.0-13.0-1.15,50680,List2B,black,man,,,,null,,,,,,,,,
null,is seducing,,html-keyboard-response,92,643391,0.0-13.0-2.15,50680,List2B,black,man,,,,null,,,,,,,,,
31760.6,,,survey-text,93,675156,0.0-13.0-3.15,50680,List2B,black,man,,,,,"{""Q0"":""luke is seducing mike""}","<img src=""stim_listB/seduce5.gif""style=""height:400px;""></stim_listB>",is seducing,,,,,,
null,"<div style=""font-size:60px;"">+</div>",,html-keyboard-response,94,675667,0.0-13.0-0.16,50680,List2B,black,man,,,,null,,,,,,,,,
null,"<img src=""stim_listB/shout3.gif""style=""height:400px;""></stim_listB>",,html-keyboard-response,95,677678,0.0-13.0-1.16,50680,List2B,black,man,,,,null,,,,,,,,,
null,is shouting at,,html-keyboard-response,96,679693,0.0-13.0-2.16,50680,List2B,black,man,,,,null,,,,,,,,,
23908.9,,,survey-text,97,703607,0.0-13.0-3.16,50680,List2B,black,man,,,,,"{""Q0"":""fred is shouting at beth""}","<img src=""stim_listB/shout3.gif""style=""height:400px;""></stim_listB>",is shouting at,,,,,,
null,"<div style=""font-size:60px;"">+</div>",,html-keyboard-response,98,704121,0.0-13.0-0.17,50680,List2B,black,man,,,,null,,,,,,,,,
null,"<img src=""stim_listB/shout8.gif""style=""height:400px;""></stim_listB>",,html-keyboard-response,99,706136,0.0-13.0-1.17,50680,List2B,black,man,,,,null,,,,,,,,,
null,is being shouted at by,,html-keyboard-response,100,708140,0.0-13.0-2.17,50680,List2B,black,man,,,,null,,,,,,,,,
60477.3,,,survey-text,101,768623,0.0-13.0-3.17,50680,List2B,black,man,,,,,"{""Q0"":""jane is being shouted at by kate""}","<img src=""stim_listB/shout8.gif""style=""height:400px;""></stim_listB>",is being shouted at by,,,,,,
null,"<div style=""font-size:60px;"">+</div>",,html-keyboard-response,102,769133,0.0-13.0-0.18,50680,List2B,black,man,,,,null,,,,,,,,,
null,"<img src=""stim_listB/look4.gif""style=""height:400px;""></stim_listB>",,html-keyboard-response,103,771153,0.0-13.0-1.18,50680,List2B,black,man,,,,null,,,,,,,,,
null,is being looked at by,,html-keyboard-response,104,773170,0.0-13.0-2.18,50680,List2B,black,man,,,,null,,,,,,,,,
32747.4,,,survey-text,105,805922,0.0-13.0-3.18,50680,List2B,black,man,,,,,"{""Q0"":""mike is being looked at by kate""}","<img src=""stim_listB/look4.gif""style=""height:400px;""></stim_listB>",is being looked at by,,,,,,
null,"<div style=""font-size:60px;"">+</div>",,html-keyboard-response,106,806428,0.0-13.0-0.19,50680,List2B,black,man,,,,null,,,,,,,,,
null,"<img src=""stim_listB/touch3.gif""style=""height:400px;""></stim_listB>",,html-keyboard-response,107,808440,0.0-13.0-1.19,50680,List2B,black,man,,,,null,,,,,,,,,
null,is touching,,html-keyboard-response,108,810451,0.0-13.0-2.19,50680,List2B,black,man,,,,null,,,,,,,,,
22161.7,,,survey-text,109,832617,0.0-13.0-3.19,50680,List2B,black,man,,,,,"{""Q0"":""mike is touching kate""}","<img src=""stim_listB/touch3.gif""style=""height:400px;""></stim_listB>",is touching,,,,,,
38657.4,"<img src='img/portrait_matrix_list2.jpg' style='width:900px;height:500px;''></img><p>If you have memorised all the portraits and names and are ready to start, press Continue.</p><p><strong>Please note: Your memory of these faces will be tested 4 times during this experiment.</strong></p>",0,html-button-response,110,871278,0.0-14.0-0.0,50680,List2B,black,man,,,,,,,,,,,,,
5191.9,"<img src=""portrait/WM2.jpg""style=""height:400px;""></img>",7,html-button-response,111,877480,0.0-14.0-1.0,50680,List2B,black,man,,TRUE,7,,,,,,,,,,
null,CORRECT,,html-keyboard-response,112,879007,0.0-14.0-2.0-0.0,50680,List2B,black,man,,,,null,,,,,,,,,
3605.5,"<img src=""portrait/BM1.jpg""style=""height:400px;""></img>",4,html-button-response,113,882616,0.0-14.0-4.0,50680,List2B,black,man,,TRUE,4,,,,,,,,,,
null,CORRECT,,html-keyboard-response,114,884142,0.0-14.0-5.0-0.0,50680,List2B,black,man,,,,null,,,,,,,,,
4884.4,"<img src=""portrait/WW2.jpg""style=""height:400px;""></img>",3,html-button-response,115,889030,0.0-14.0-7.0,50680,List2B,black,man,,TRUE,3,,,,,,,,,,
null,CORRECT,,html-keyboard-response,116,890548,0.0-14.0-8.0-0.0,50680,List2B,black,man,,,,null,,,,,,,,,
5118.9,"<img src=""portrait/WM1.jpg""style=""height:400px;""></img>",6,html-button-response,117,895670,0.0-14.0-10.0,50680,List2B,black,man,,TRUE,6,,,,,,,,,,
null,CORRECT,,html-keyboard-response,118,897194,0.0-14.0-11.0-0.0,50680,List2B,black,man,,,,null,,,,,,,,,
5869.6,"<img src=""portrait/WW1.jpg""style=""height:400px;""></img>",1,html-button-response,119,903066,0.0-14.0-13.0,50680,List2B,black,man,,TRUE,1,,,,,,,,,,
null,CORRECT,,html-keyboard-response,120,904584,0.0-14.0-14.0-0.0,50680,List2B,black,man,,,,null,,,,,,,,,
4222.1,"<img src=""portrait/BM2.jpg""style=""height:400px;""></img>",5,html-button-response,121,908809,0.0-14.0-16.0,50680,List2B,black,man,,TRUE,5,,,,,,,,,,
null,CORRECT,,html-keyboard-response,122,910330,0.0-14.0-17.0-0.0,50680,List2B,black,man,,,,null,,,,,,,,,
6515.5,"<img src=""portrait/BW1.jpg""style=""height:400px;""></img>",1,html-button-response,123,916848,0.0-14.0-19.0,50680,List2B,black,man,,TRUE,0,,,,,,,,,,
8061.5,"<img src=""portrait/BW1.jpg""style=""height:400px;""></img>",0,html-button-response,124,925931,0.0-14.0-21.0-0.0,50680,List2B,black,man,,FALSE,0,,,,,,,,,,
null,CORRECT,,html-keyboard-response,125,927443,0.0-14.0-21.0-1.0-0.0,50680,List2B,black,man,,,,null,,,,,,,,,
3604.4,"<img src=""portrait/BW2.jpg""style=""height:400px;""></img>",2,html-button-response,126,931050,0.0-14.0-22.0,50680,List2B,black,man,,TRUE,2,,,,,,,,,,
null,CORRECT,,html-keyboard-response,127,932576,0.0-14.0-23.0-0.0,50680,List2B,black,man,,,,null,,,,,,,,,
129613.1,<p>You got 7 out of 8 right first time. Press Continue.</p>,0,html-button-response,128,1062189,0.0-14.0-25.0,50680,List2B,black,man,,,,,,,,,,,,,
9506.2,"As you did not score 100%, the memory game will repeat. Press Continue.",0,html-button-response,129,1072710,0.0-14.0-26.0-0.0,50680,List2B,black,man,,,,,,,,,,,,,
3095.2,"<img src='img/portrait_matrix_list2.jpg' style='width:900px;height:500px;''></img><p>If you have memorised all the portraits and names and are ready to start, press Continue.</p><p><strong>Please note: Your memory of these faces will be tested 4 times during this experiment.</strong></p>",0,html-button-response,130,1076818,0.0-14.1-0.1,50680,List2B,black,man,,,,,,,,,,,,,
9160.2,"<img src=""portrait/WM2.jpg""style=""height:400px;""></img>",7,html-button-response,131,1086996,0.0-14.1-1.1,50680,List2B,black,man,,TRUE,7,,,,,,,,,,
null,CORRECT,,html-keyboard-response,132,1088503,0.0-14.1-2.1-0.1,50680,List2B,black,man,,,,null,,,,,,,,,
3579.4,"<img src=""portrait/BM1.jpg""style=""height:400px;""></img>",4,html-button-response,133,1092086,0.0-14.1-4.1,50680,List2B,black,man,,TRUE,4,,,,,,,,,,
null,CORRECT,,html-keyboard-response,134,1093608,0.0-14.1-5.1-0.1,50680,List2B,black,man,,,,null,,,,,,,,,
3251.9,"<img src=""portrait/WW2.jpg""style=""height:400px;""></img>",3,html-button-response,135,1096863,0.0-14.1-7.1,50680,List2B,black,man,,TRUE,3,,,,,,,,,,
null,CORRECT,,html-keyboard-response,136,1098385,0.0-14.1-8.1-0.1,50680,List2B,black,man,,,,null,,,,,,,,,
4613.1,"<img src=""portrait/WM1.jpg""style=""height:400px;""></img>",6,html-button-response,137,1103002,0.0-14.1-10.1,50680,List2B,black,man,,TRUE,6,,,,,,,,,,
null,CORRECT,,html-keyboard-response,138,1104511,0.0-14.1-11.1-0.1,50680,List2B,black,man,,,,null,,,,,,,,,
3878.7,"<img src=""portrait/WW1.jpg""style=""height:400px;""></img>",1,html-button-response,139,1108393,0.0-14.1-13.1,50680,List2B,black,man,,TRUE,1,,,,,,,,,,
null,CORRECT,,html-keyboard-response,140,1109907,0.0-14.1-14.1-0.1,50680,List2B,black,man,,,,null,,,,,,,,,
3693.4,"<img src=""portrait/BM2.jpg""style=""height:400px;""></img>",5,html-button-response,141,1113604,0.0-14.1-16.1,50680,List2B,black,man,,TRUE,5,,,,,,,,,,
null,CORRECT,,html-keyboard-response,142,1115120,0.0-14.1-17.1-0.1,50680,List2B,black,man,,,,null,,,,,,,,,
11326.8,"<img src=""portrait/BW1.jpg""style=""height:400px;""></img>",0,html-button-response,143,1126454,0.0-14.1-19.1,50680,List2B,black,man,,TRUE,0,,,,,,,,,,
null,CORRECT,,html-keyboard-response,144,1127977,0.0-14.1-20.1-0.1,50680,List2B,black,man,,,,null,,,,,,,,,
3675.4,"<img src=""portrait/BW2.jpg""style=""height:400px;""></img>",2,html-button-response,145,1131655,0.0-14.1-22.1,50680,List2B,black,man,,TRUE,2,,,,,,,,,,
null,CORRECT,,html-keyboard-response,146,1133178,0.0-14.1-23.1-0.1,50680,List2B,black,man,,,,null,,,,,,,,,
4392.8,<p>You got 8 out of 8 right first time. Press Continue.</p>,0,html-button-response,147,1137574,0.0-14.1-25.1,50680,List2B,black,man,,,,,,,,,,,,,
null,"<div style=""font-size:60px;"">+</div>",,html-keyboard-response,148,1139096,0.0-15.0-0.0,50680,List2B,black,man,,,,null,,,,,,,,,
null,"<img src=""stim_listB/greet7.gif""style=""height:400px;""></stim_listB>",,html-keyboard-response,149,1141103,0.0-15.0-1.0,50680,List2B,black,man,,,,null,,,,,,,,,
null,is greeting,,html-keyboard-response,150,1143117,0.0-15.0-2.0,50680,List2B,black,man,,,,null,,,,,,,,,
55369.2,,,survey-text,151,1198490,0.0-15.0-3.0,50680,List2B,black,man,,,,,"{""Q0"":""beth is greeting jane""}","<img src=""stim_listB/greet7.gif""style=""height:400px;""></stim_listB>",is greeting,,,,,,
null,"<div style=""font-size:60px;"">+</div>",,html-keyboard-response,152,1199005,0.0-15.0-0.1,50680,List2B,black,man,,,,null,,,,,,,,,
null,"<img src=""stim_listB/look3.gif""style=""height:400px;""></stim_listB>",,html-keyboard-response,153,1201012,0.0-15.0-1.1,50680,List2B,black,man,,,,null,,,,,,,,,
null,is looking at,,html-keyboard-response,154,1203028,0.0-15.0-2.1,50680,List2B,black,man,,,,null,,,,,,,,,
78927.7,,,survey-text,155,1281961,0.0-15.0-3.1,50680,List2B,black,man,,,,,"{""Q0"":""beth is looking at jane""}","<img src=""stim_listB/look3.gif""style=""height:400px;""></stim_listB>",is looking at,,,,,,
null,"<div style=""font-size:60px;"">+</div>",,html-keyboard-response,156,1282474,0.0-15.0-0.2,50680,List2B,black,man,,,,null,,,,,,,,,
null,"<img src=""stim_listB/touch1.gif""style=""height:400px;""></stim_listB>",,html-keyboard-response,157,1284494,0.0-15.0-1.2,50680,List2B,black,man,,,,null,,,,,,,,,
null,is touching,,html-keyboard-response,158,1286509,0.0-15.0-2.2,50680,List2B,black,man,,,,null,,,,,,,,,
9577.4,,,survey-text,159,1296092,0.0-15.0-3.2,50680,List2B,black,man,,,,,"{""Q0"":""dave is touching jane""}","<img src=""stim_listB/touch1.gif""style=""height:400px;""></stim_listB>",is touching,,,,,,
null,"<div style=""font-size:60px;"">+</div>",,html-keyboard-response,160,1296608,0.0-15.0-0.3,50680,List2B,black,man,,,,null,,,,,,,,,
null,"<img src=""stim_listB/challenge6.gif""style=""height:400px;""></stim_listB>",,html-keyboard-response,161,1298620,0.0-15.0-1.3,50680,List2B,black,man,,,,null,,,,,,,,,
null,is being challenged by,,html-keyboard-response,162,1300623,0.0-15.0-2.3,50680,List2B,black,man,,,,null,,,,,,,,,
16799.1,,,survey-text,163,1317426,0.0-15.0-3.3,50680,List2B,black,man,,,,,"{""Q0"":""luke is challenging mike""}","<img src=""stim_listB/challenge6.gif""style=""height:400px;""></stim_listB>",is being challenged by,,,,,,
null,"<div style=""font-size:60px;"">+</div>",,html-keyboard-response,164,1317935,0.0-15.0-0.4,50680,List2B,black,man,,,,null,,,,,,,,,
null,"<img src=""stim_listB/copy6.gif""style=""height:400px;""></stim_listB>",,html-keyboard-response,165,1319950,0.0-15.0-1.4,50680,List2B,black,man,,,,null,,,,,,,,,
null,is being copied by,,html-keyboard-response,166,1321957,0.0-15.0-2.4,50680,List2B,black,man,,,,null,,,,,,,,,
16202,,,survey-text,167,1338164,0.0-15.0-3.4,50680,List2B,black,man,,,,,"{""Q0"":""luke is being copied by mike""}","<img src=""stim_listB/copy6.gif""style=""height:400px;""></stim_listB>",is being copied by,,,,,,
null,"<div style=""font-size:60px;"">+</div>",,html-keyboard-response,168,1338668,0.0-15.0-0.5,50680,List2B,black,man,,,,null,,,,,,,,,
null,"<img src=""stim_listB/shout4.gif""style=""height:400px;""></stim_listB>",,html-keyboard-response,169,1340678,0.0-15.0-1.5,50680,List2B,black,man,,,,null,,,,,,,,,
null,is being shouted at by,,html-keyboard-response,170,1342689,0.0-15.0-2.5,50680,List2B,black,man,,,,null,,,,,,,,,
26278.1,,,survey-text,171,1368971,0.0-15.0-3.5,50680,List2B,black,man,,,,,"{""Q0"":""mike is being shouted at by kate""}","<img src=""stim_listB/shout4.gif""style=""height:400px;""></stim_listB>",is being shouted at by,,,,,,
null,"<div style=""font-size:60px;"">+</div>",,html-keyboard-response,172,1369488,0.0-15.0-0.6,50680,List2B,black,man,,,,null,,,,,,,,,
null,"<img src=""stim_listB/challenge5.gif""style=""height:400px;""></stim_listB>",,html-keyboard-response,173,1371500,0.0-15.0-1.6,50680,List2B,black,man,,,,null,,,,,,,,,
null,is challenging,,html-keyboard-response,174,1373518,0.0-15.0-2.6,50680,List2B,black,man,,,,null,,,,,,,,,
14267.8,,,survey-text,175,1387792,0.0-15.0-3.6,50680,List2B,black,man,,,,,"{""Q0"":""fred is greeting dave""}","<img src=""stim_listB/challenge5.gif""style=""height:400px;""></stim_listB>",is challenging,,,,,,
null,"<div style=""font-size:60px;"">+</div>",,html-keyboard-response,176,1388295,0.0-15.0-0.7,50680,List2B,black,man,,,,null,,,,,,,,,
null,"<img src=""stim_listB/challenge3.gif""style=""height:400px;""></stim_listB>",,html-keyboard-response,177,1390304,0.0-15.0-1.7,50680,List2B,black,man,,,,null,,,,,,,,,
null,is challenging,,html-keyboard-response,178,1392308,0.0-15.0-2.7,50680,List2B,black,man,,,,null,,,,,,,,,
19805.5,,,survey-text,179,1412118,0.0-15.0-3.7,50680,List2B,black,man,,,,,"{""Q0"":""beth is looking at mike""}","<img src=""stim_listB/challenge3.gif""style=""height:400px;""></stim_listB>",is challenging,,,,,,
null,"<div style=""font-size:60px;"">+</div>",,html-keyboard-response,180,1412626,0.0-15.0-0.8,50680,List2B,black,man,,,,null,,,,,,,,,
null,"<img src=""stim_listB/hug1.gif""style=""height:400px;""></stim_listB>",,html-keyboard-response,181,1414641,0.0-15.0-1.8,50680,List2B,black,man,,,,null,,,,,,,,,
null,is hugging,,html-keyboard-response,182,1416646,0.0-15.0-2.8,50680,List2B,black,man,,,,null,,,,,,,,,
13786.6,,,survey-text,183,1430440,0.0-15.0-3.8,50680,List2B,black,man,,,,,"{""Q0"":""luke is hugging ruth""}","<img src=""stim_listB/hug1.gif""style=""height:400px;""></stim_listB>",is hugging,,,,,,
null,"<div style=""font-size:60px;"">+</div>",,html-keyboard-response,184,1430943,0.0-15.0-0.9,50680,List2B,black,man,,,,null,,,,,,,,,
null,"<img src=""stim_listB/copy4.gif""style=""height:400px;""></stim_listB>",,html-keyboard-response,185,1432963,0.0-15.0-1.9,50680,List2B,black,man,,,,null,,,,,,,,,
null,is being copied by,,html-keyboard-response,186,1434978,0.0-15.0-2.9,50680,List2B,black,man,,,,null,,,,,,,,,
9210.4,,,survey-text,187,1444193,0.0-15.0-3.9,50680,List2B,black,man,,,,,"{""Q0"":""fred is being copied by kate""}","<img src=""stim_listB/copy4.gif""style=""height:400px;""></stim_listB>",is being copied by,,,,,,
null,"<div style=""font-size:60px;"">+</div>",,html-keyboard-response,188,1444695,0.0-15.0-0.10,50680,List2B,black,man,,,,null,,,,,,,,,
null,"<img src=""stim_listB/seduce6.gif""style=""height:400px;""></stim_listB>",,html-keyboard-response,189,1446709,0.0-15.0-1.10,50680,List2B,black,man,,,,null,,,,,,,,,
null,is being seduced by,,html-keyboard-response,190,1448724,0.0-15.0-2.10,50680,List2B,black,man,,,,null,,,,,,,,,
22214.7,,,survey-text,191,1470943,0.0-15.0-3.10,50680,List2B,black,man,,,,,"{""Q0"":""dave is being seduced by fred""}","<img src=""stim_listB/seduce6.gif""style=""height:400px;""></stim_listB>",is being seduced by,,,,,,
null,"<div style=""font-size:60px;"">+</div>",,html-keyboard-response,192,1471448,0.0-15.0-0.11,50680,List2B,black,man,,,,null,,,,,,,,,
null,"<img src=""stim_listB/oppose4.gif""style=""height:400px;""></stim_listB>",,html-keyboard-response,193,1473460,0.0-15.0-1.11,50680,List2B,black,man,,,,null,,,,,,,,,
null,is being opposed by,,html-keyboard-response,194,1475474,0.0-15.0-2.11,50680,List2B,black,man,,,,null,,,,,,,,,
18503.8,,,survey-text,195,1493979,0.0-15.0-3.11,50680,List2B,black,man,,,,,"{""Q0"":""fred is being opposed by beth""}","<img src=""stim_listB/oppose4.gif""style=""height:400px;""></stim_listB>",is being opposed by,,,,,,
null,"<div style=""font-size:60px;"">+</div>",,html-keyboard-response,196,1494496,0.0-15.0-0.12,50680,List2B,black,man,,,,null,,,,,,,,,
null,"<img src=""stim_listB/hug2.gif""style=""height:400px;""></stim_listB>",,html-keyboard-response,197,1496502,0.0-15.0-1.12,50680,List2B,black,man,,,,null,,,,,,,,,
null,is being hugged by,,html-keyboard-response,198,1498514,0.0-15.0-2.12,50680,List2B,black,man,,,,null,,,,,,,,,
12052.9,,,survey-text,199,1510571,0.0-15.0-3.12,50680,List2B,black,man,,,,,"{""Q0"":""jane is being hugged by dave""}","<img src=""stim_listB/hug2.gif""style=""height:400px;""></stim_listB>",is being hugged by,,,,,,
null,"<div style=""font-size:60px;"">+</div>",,html-keyboard-response,200,1511073,0.0-15.0-0.13,50680,List2B,black,man,,,,null,,,,,,,,,
null,"<img src=""stim_listB/kiss8.gif""style=""height:400px;""></stim_listB>",,html-keyboard-response,201,1513083,0.0-15.0-1.13,50680,List2B,black,man,,,,null,,,,,,,,,
null,is being kissed by,,html-keyboard-response,202,1515089,0.0-15.0-2.13,50680,List2B,black,man,,,,null,,,,,,,,,
20887.2,,,survey-text,203,1535981,0.0-15.0-3.13,50680,List2B,black,man,,,,,"{""Q0"":""jane is being kissed by kate""}","<img src=""stim_listB/kiss8.gif""style=""height:400px;""></stim_listB>",is being kissed by,,,,,,
null,"<div style=""font-size:60px;"">+</div>",,html-keyboard-response,204,1536493,0.0-15.0-0.14,50680,List2B,black,man,,,,null,,,,,,,,,
null,"<img src=""stim_listB/shout5.gif""style=""height:400px;""></stim_listB>",,html-keyboard-response,205,1538506,0.0-15.0-1.14,50680,List2B,black,man,,,,null,,,,,,,,,
null,is shouting at,,html-keyboard-response,206,1540514,0.0-15.0-2.14,50680,List2B,black,man,,,,null,,,,,,,,,
17230,,,survey-text,207,1557751,0.0-15.0-3.14,50680,List2B,black,man,,,,,"{""Q0"":""fred is shoutng at luke""}","<img src=""stim_listB/shout5.gif""style=""height:400px;""></stim_listB>",is shouting at,,,,,,
null,"<div style=""font-size:60px;"">+</div>",,html-keyboard-response,208,1558268,0.0-15.0-0.15,50680,List2B,black,man,,,,null,,,,,,,,,
null,"<img src=""stim_listB/kiss2.gif""style=""height:400px;""></stim_listB>",,html-keyboard-response,209,1560274,0.0-15.0-1.15,50680,List2B,black,man,,,,null,,,,,,,,,
null,is being kissed by,,html-keyboard-response,210,1562280,0.0-15.0-2.15,50680,List2B,black,man,,,,null,,,,,,,,,
13082.8,,,survey-text,211,1575367,0.0-15.0-3.15,50680,List2B,black,man,,,,,"{""Q0"":""dave is being kissed by jane""}","<img src=""stim_listB/kiss2.gif""style=""height:400px;""></stim_listB>",is being kissed by,,,,,,
null,"<div style=""font-size:60px;"">+</div>",,html-keyboard-response,212,1575870,0.0-15.0-0.16,50680,List2B,black,man,,,,null,,,,,,,,,
null,"<img src=""stim_listB/challenge1.gif""style=""height:400px;""></stim_listB>",,html-keyboard-response,213,1577882,0.0-15.0-1.16,50680,List2B,black,man,,,,null,,,,,,,,,
null,is challenging,,html-keyboard-response,214,1579892,0.0-15.0-2.16,50680,List2B,black,man,,,,null,,,,,,,,,
9244.9,,,survey-text,215,1589143,0.0-15.0-3.16,50680,List2B,black,man,,,,,"{""Q0"":""ruth is challenging dave""}","<img src=""stim_listB/challenge1.gif""style=""height:400px;""></stim_listB>",is challenging,,,,,,
null,"<div style=""font-size:60px;"">+</div>",,html-keyboard-response,216,1589648,0.0-15.0-0.17,50680,List2B,black,man,,,,null,,,,,,,,,
null,"<img src=""stim_listB/touch5.gif""style=""height:400px;""></stim_listB>",,html-keyboard-response,217,1591668,0.0-15.0-1.17,50680,List2B,black,man,,,,null,,,,,,,,,
null,is touching,,html-keyboard-response,218,1593674,0.0-15.0-2.17,50680,List2B,black,man,,,,null,,,,,,,,,
14363,,,survey-text,219,1608041,0.0-15.0-3.17,50680,List2B,black,man,,,,,"{""Q0"":""mike is touching dave""}","<img src=""stim_listB/touch5.gif""style=""height:400px;""></stim_listB>",is touching,,,,,,
null,"<div style=""font-size:60px;"">+</div>",,html-keyboard-response,220,1608553,0.0-15.0-0.18,50680,List2B,black,man,,,,null,,,,,,,,,
null,"<img src=""stim_listB/look8.gif""style=""height:400px;""></stim_listB>",,html-keyboard-response,221,1610562,0.0-15.0-1.18,50680,List2B,black,man,,,,null,,,,,,,,,
null,is being looked at by,,html-keyboard-response,222,1612565,0.0-15.0-2.18,50680,List2B,black,man,,,,null,,,,,,,,,
29786.2,,,survey-text,223,1642356,0.0-15.0-3.18,50680,List2B,black,man,,,,,"{""Q0"":""jane is being looked at by kate""}","<img src=""stim_listB/look8.gif""style=""height:400px;""></stim_listB>",is being looked at by,,,,,,
null,"<div style=""font-size:60px;"">+</div>",,html-keyboard-response,224,1642871,0.0-15.0-0.19,50680,List2B,black,man,,,,null,,,,,,,,,
null,"<img src=""stim_listB/oppose5.gif""style=""height:400px;""></stim_listB>",,html-keyboard-response,225,1644885,0.0-15.0-1.19,50680,List2B,black,man,,,,null,,,,,,,,,
null,is opposing,,html-keyboard-response,226,1646903,0.0-15.0-2.19,50680,List2B,black,man,,,,null,,,,,,,,,
10688.6,,,survey-text,227,1657599,0.0-15.0-3.19,50680,List2B,black,man,,,,,"{""Q0"":""dave is opposing mike""}","<img src=""stim_listB/oppose5.gif""style=""height:400px;""></stim_listB>",is opposing,,,,,,
6168.1,"<img src='img/portrait_matrix_list2.jpg' style='width:900px;height:500px;''></img><p>If you have memorised all the portraits and names and are ready to start, press Continue.</p><p><strong>Please note: Your memory of these faces will be tested 4 times during this experiment.</strong></p>",0,html-button-response,228,1663769,0.0-16.0-0.0,50680,List2B,black,man,,,,,,,,,,,,,
3718.8,"<img src=""portrait/WW2.jpg""style=""height:400px;""></img>",3,html-button-response,229,1668511,0.0-16.0-1.0,50680,List2B,black,man,,TRUE,3,,,,,,,,,,
null,CORRECT,,html-keyboard-response,230,1670028,0.0-16.0-2.0-0.0,50680,List2B,black,man,,,,null,,,,,,,,,
3867.8,"<img src=""portrait/WW1.jpg""style=""height:400px;""></img>",1,html-button-response,231,1673899,0.0-16.0-4.0,50680,List2B,black,man,,TRUE,1,,,,,,,,,,
null,CORRECT,,html-keyboard-response,232,1675424,0.0-16.0-5.0-0.0,50680,List2B,black,man,,,,null,,,,,,,,,
3601.8,"<img src=""portrait/BM2.jpg""style=""height:400px;""></img>",5,html-button-response,233,1679029,0.0-16.0-7.0,50680,List2B,black,man,,TRUE,5,,,,,,,,,,
null,CORRECT,,html-keyboard-response,234,1680546,0.0-16.0-8.0-0.0,50680,List2B,black,man,,,,null,,,,,,,,,
4582.2,"<img src=""portrait/BW2.jpg""style=""height:400px;""></img>",2,html-button-response,235,1685132,0.0-16.0-10.0,50680,List2B,black,man,,TRUE,2,,,,,,,,,,
null,CORRECT,,html-keyboard-response,236,1686652,0.0-16.0-11.0-0.0,50680,List2B,black,man,,,,null,,,,,,,,,
3875.8,"<img src=""portrait/BM1.jpg""style=""height:400px;""></img>",4,html-button-response,237,1690531,0.0-16.0-13.0,50680,List2B,black,man,,TRUE,4,,,,,,,,,,
null,CORRECT,,html-keyboard-response,238,1692040,0.0-16.0-14.0-0.0,50680,List2B,black,man,,,,null,,,,,,,,,
4624.9,"<img src=""portrait/WM2.jpg""style=""height:400px;""></img>",7,html-button-response,239,1696670,0.0-16.0-16.0,50680,List2B,black,man,,TRUE,7,,,,,,,,,,
null,CORRECT,,html-keyboard-response,240,1698201,0.0-16.0-17.0-0.0,50680,List2B,black,man,,,,null,,,,,,,,,
5728.5,"<img src=""portrait/BW1.jpg""style=""height:400px;""></img>",0,html-button-response,241,1703933,0.0-16.0-19.0,50680,List2B,black,man,,TRUE,0,,,,,,,,,,
null,CORRECT,,html-keyboard-response,242,1705440,0.0-16.0-20.0-0.0,50680,List2B,black,man,,,,null,,,,,,,,,
4985.4,"<img src=""portrait/WM1.jpg""style=""height:400px;""></img>",6,html-button-response,243,1710429,0.0-16.0-22.0,50680,List2B,black,man,,TRUE,6,,,,,,,,,,
null,CORRECT,,html-keyboard-response,244,1711948,0.0-16.0-23.0-0.0,50680,List2B,black,man,,,,null,,,,,,,,,
7989.5,<p>You got 8 out of 8 right first time. Press Continue.</p>,0,html-button-response,245,1719941,0.0-16.0-25.0,50680,List2B,black,man,,,,,,,,,,,,,
null,"<div style=""font-size:60px;"">+</div>",,html-keyboard-response,246,1721457,0.0-17.0-0.0,50680,List2B,black,man,,,,null,,,,,,,,,
null,"<img src=""stim_listB/copy3.gif""style=""height:400px;""></stim_listB>",,html-keyboard-response,247,1723464,0.0-17.0-1.0,50680,List2B,black,man,,,,null,,,,,,,,,
null,is copying,,html-keyboard-response,248,1725480,0.0-17.0-2.0,50680,List2B,black,man,,,,null,,,,,,,,,
13205,,,survey-text,249,1738690,0.0-17.0-3.0,50680,List2B,black,man,,,,,"{""Q0"":""beth is copying mike""}","<img src=""stim_listB/copy3.gif""style=""height:400px;""></stim_listB>",is copying,,,,,,
null,"<div style=""font-size:60px;"">+</div>",,html-keyboard-response,250,1739195,0.0-17.0-0.1,50680,List2B,black,man,,,,null,,,,,,,,,
null,"<img src=""stim_listB/seduce2.gif""style=""height:400px;""></stim_listB>",,html-keyboard-response,251,1741214,0.0-17.0-1.1,50680,List2B,black,man,,,,null,,,,,,,,,
null,is being seduced by,,html-keyboard-response,252,1743229,0.0-17.0-2.1,50680,List2B,black,man,,,,null,,,,,,,,,
15033.9,,,survey-text,253,1758267,0.0-17.0-3.1,50680,List2B,black,man,,,,,"{""Q0"":""dave is being seduced by ruth""}","<img src=""stim_listB/seduce2.gif""style=""height:400px;""></stim_listB>",is being seduced by,,,,,,
null,"<div style=""font-size:60px;"">+</div>",,html-keyboard-response,254,1758776,0.0-17.0-0.2,50680,List2B,black,man,,,,null,,,,,,,,,
null,"<img src=""stim_listB/hug6.gif""style=""height:400px;""></stim_listB>",,html-keyboard-response,255,1760795,0.0-17.0-1.2,50680,List2B,black,man,,,,null,,,,,,,,,
null,is being hugged by,,html-keyboard-response,256,1762812,0.0-17.0-2.2,50680,List2B,black,man,,,,null,,,,,,,,,
16381.1,,,survey-text,257,1779197,0.0-17.0-3.2,50680,List2B,black,man,,,,,"{""Q0"":""dave is being hugged by mike""}","<img src=""stim_listB/hug6.gif""style=""height:400px;""></stim_listB>",is being hugged by,,,,,,
null,"<div style=""font-size:60px;"">+</div>",,html-keyboard-response,258,1779699,0.0-17.0-0.3,50680,List2B,black,man,,,,null,,,,,,,,,
null,"<img src=""stim_listB/touch7.gif""style=""height:400px;""></stim_listB>",,html-keyboard-response,259,1781712,0.0-17.0-1.3,50680,List2B,black,man,,,,null,,,,,,,,,
null,is touching,,html-keyboard-response,260,1783726,0.0-17.0-2.3,50680,List2B,black,man,,,,null,,,,,,,,,
10072,,,survey-text,261,1793801,0.0-17.0-3.3,50680,List2B,black,man,,,,,"{""Q0"":""kate is touching jane""}","<img src=""stim_listB/touch7.gif""style=""height:400px;""></stim_listB>",is touching,,,,,,
null,"<div style=""font-size:60px;"">+</div>",,html-keyboard-response,262,1794305,0.0-17.0-0.4,50680,List2B,black,man,,,,null,,,,,,,,,
null,"<img src=""stim_listB/look5.gif""style=""height:400px;""></stim_listB>",,html-keyboard-response,263,1796324,0.0-17.0-1.4,50680,List2B,black,man,,,,null,,,,,,,,,
null,is looking at,,html-keyboard-response,264,1798328,0.0-17.0-2.4,50680,List2B,black,man,,,,null,,,,,,,,,
9857.8,,,survey-text,265,1808191,0.0-17.0-3.4,50680,List2B,black,man,,,,,"{""Q0"":""fred is looking at luke""}","<img src=""stim_listB/look5.gif""style=""height:400px;""></stim_listB>",is looking at,,,,,,
null,"<div style=""font-size:60px;"">+</div>",,html-keyboard-response,266,1808701,0.0-17.0-0.5,50680,List2B,black,man,,,,null,,,,,,,,,
null,"<img src=""stim_listB/kiss5.gif""style=""height:400px;""></stim_listB>",,html-keyboard-response,267,1810711,0.0-17.0-1.5,50680,List2B,black,man,,,,null,,,,,,,,,
null,is kissing,,html-keyboard-response,268,1812721,0.0-17.0-2.5,50680,List2B,black,man,,,,null,,,,,,,,,
7202.5,,,survey-text,269,1819929,0.0-17.0-3.5,50680,List2B,black,man,,,,,"{""Q0"":""fred is kissing luke""}","<img src=""stim_listB/kiss5.gif""style=""height:400px;""></stim_listB>",is kissing,,,,,,
null,"<div style=""font-size:60px;"">+</div>",,html-keyboard-response,270,1820435,0.0-17.0-0.6,50680,List2B,black,man,,,,null,,,,,,,,,
null,"<img src=""stim_listB/shout7.gif""style=""height:400px;""></stim_listB>",,html-keyboard-response,271,1822452,0.0-17.0-1.6,50680,List2B,black,man,,,,null,,,,,,,,,
null,is shouting at,,html-keyboard-response,272,1824455,0.0-17.0-2.6,50680,List2B,black,man,,,,null,,,,,,,,,
46420.5,,,survey-text,273,1870882,0.0-17.0-3.6,50680,List2B,black,man,,,,,"{""Q0"":""ruth is shouting at beth""}","<img src=""stim_listB/shout7.gif""style=""height:400px;""></stim_listB>",is shouting at,,,,,,
null,"<div style=""font-size:60px;"">+</div>",,html-keyboard-response,274,1871385,0.0-17.0-0.7,50680,List2B,black,man,,,,null,,,,,,,,,
null,"<img src=""stim_listB/seduce1.gif""style=""height:400px;""></stim_listB>",,html-keyboard-response,275,1873395,0.0-17.0-1.7,50680,List2B,black,man,,,,null,,,,,,,,,
null,is seducing,,html-keyboard-response,276,1875397,0.0-17.0-2.7,50680,List2B,black,man,,,,null,,,,,,,,,
13498.2,,,survey-text,277,1888900,0.0-17.0-3.7,50680,List2B,black,man,,,,,"{""Q0"":""jane is seducing luke""}","<img src=""stim_listB/seduce1.gif""style=""height:400px;""></stim_listB>",is seducing,,,,,,
null,"<div style=""font-size:60px;"">+</div>",,html-keyboard-response,278,1889416,0.0-17.0-0.8,50680,List2B,black,man,,,,null,,,,,,,,,
null,"<img src=""stim_listB/seduce7.gif""style=""height:400px;""></stim_listB>",,html-keyboard-response,279,1891435,0.0-17.0-1.8,50680,List2B,black,man,,,,null,,,,,,,,,
null,is seducing,,html-keyboard-response,280,1893447,0.0-17.0-2.8,50680,List2B,black,man,,,,null,,,,,,,,,
16696.8,,,survey-text,281,1910148,0.0-17.0-3.8,50680,List2B,black,man,,,,,"{""Q0"":""ruth is seducing kate""}","<img src=""stim_listB/seduce7.gif""style=""height:400px;""></stim_listB>",is seducing,,,,,,
null,"<div style=""font-size:60px;"">+</div>",,html-keyboard-response,282,1910659,0.0-17.0-0.9,50680,List2B,black,man,,,,null,,,,,,,,,
null,"<img src=""stim_listB/oppose7.gif""style=""height:400px;""></stim_listB>",,html-keyboard-response,283,1912670,0.0-17.0-1.9,50680,List2B,black,man,,,,null,,,,,,,,,
null,is opposing,,html-keyboard-response,284,1914683,0.0-17.0-2.9,50680,List2B,black,man,,,,null,,,,,,,,,
12779.2,,,survey-text,285,1927467,0.0-17.0-3.9,50680,List2B,black,man,,,,,"{""Q0"":""jane is opposing kate""}","<img src=""stim_listB/oppose7.gif""style=""height:400px;""></stim_listB>",is opposing,,,,,,
null,"<div style=""font-size:60px;"">+</div>",,html-keyboard-response,286,1927979,0.0-17.0-0.10,50680,List2B,black,man,,,,null,,,,,,,,,
null,"<img src=""stim_listB/touch2.gif""style=""height:400px;""></stim_listB>",,html-keyboard-response,287,1929997,0.0-17.0-1.10,50680,List2B,black,man,,,,null,,,,,,,,,
null,is being touched by,,html-keyboard-response,288,1932001,0.0-17.0-2.10,50680,List2B,black,man,,,,null,,,,,,,,,
16185.8,,,survey-text,289,1948192,0.0-17.0-3.10,50680,List2B,black,man,,,,,"{""Q0"":""luke is being touched by ruth""}","<img src=""stim_listB/touch2.gif""style=""height:400px;""></stim_listB>",is being touched by,,,,,,
null,"<div style=""font-size:60px;"">+</div>",,html-keyboard-response,290,1948705,0.0-17.0-0.11,50680,List2B,black,man,,,,null,,,,,,,,,
null,"<img src=""stim_listB/greet5.gif""style=""height:400px;""></stim_listB>",,html-keyboard-response,291,1950713,0.0-17.0-1.11,50680,List2B,black,man,,,,null,,,,,,,,,
null,is greeting,,html-keyboard-response,292,1952730,0.0-17.0-2.11,50680,List2B,black,man,,,,null,,,,,,,,,
9865.1,,,survey-text,293,1962600,0.0-17.0-3.11,50680,List2B,black,man,,,,,"{""Q0"":""fred is greeting dave""}","<img src=""stim_listB/greet5.gif""style=""height:400px;""></stim_listB>",is greeting,,,,,,
null,"<div style=""font-size:60px;"">+</div>",,html-keyboard-response,294,1963109,0.0-17.0-0.12,50680,List2B,black,man,,,,null,,,,,,,,,
null,"<img src=""stim_listB/seduce4.gif""style=""height:400px;""></stim_listB>",,html-keyboard-response,295,1965121,0.0-17.0-1.12,50680,List2B,black,man,,,,null,,,,,,,,,
null,is being seduced by,,html-keyboard-response,296,1967131,0.0-17.0-2.12,50680,List2B,black,man,,,,null,,,,,,,,,
23667.2,,,survey-text,297,1990804,0.0-17.0-3.12,50680,List2B,black,man,,,,,"{""Q0"":""mike is being seduced by beth""}","<img src=""stim_listB/seduce4.gif""style=""height:400px;""></stim_listB>",is being seduced by,,,,,,
null,"<div style=""font-size:60px;"">+</div>",,html-keyboard-response,298,1991321,0.0-17.0-0.13,50680,List2B,black,man,,,,null,,,,,,,,,
null,"<img src=""stim_listB/challenge7.gif""style=""height:400px;""></stim_listB>",,html-keyboard-response,299,1993333,0.0-17.0-1.13,50680,List2B,black,man,,,,null,,,,,,,,,
null,is challenging,,html-keyboard-response,300,1995336,0.0-17.0-2.13,50680,List2B,black,man,,,,null,,,,,,,,,
36531.6,,,survey-text,301,2031871,0.0-17.0-3.13,50680,List2B,black,man,,,,,"{""Q0"":""beth is challenging jane""}","<img src=""stim_listB/challenge7.gif""style=""height:400px;""></stim_listB>",is challenging,,,,,,
null,"<div style=""font-size:60px;"">+</div>",,html-keyboard-response,302,2032384,0.0-17.0-0.14,50680,List2B,black,man,,,,null,,,,,,,,,
null,"<img src=""stim_listB/look2.gif""style=""height:400px;""></stim_listB>",,html-keyboard-response,303,2034393,0.0-17.0-1.14,50680,List2B,black,man,,,,null,,,,,,,,,
null,is being looked at by,,html-keyboard-response,304,2036403,0.0-17.0-2.14,50680,List2B,black,man,,,,null,,,,,,,,,
12841.1,,,survey-text,305,2049249,0.0-17.0-3.14,50680,List2B,black,man,,,,,"{""Q0"":""jane is being looked at by dave""}","<img src=""stim_listB/look2.gif""style=""height:400px;""></stim_listB>",is being looked at by,,,,,,
null,"<div style=""font-size:60px;"">+</div>",,html-keyboard-response,306,2049763,0.0-17.0-0.15,50680,List2B,black,man,,,,null,,,,,,,,,
null,"<img src=""stim_listB/greet4.gif""style=""height:400px;""></stim_listB>",,html-keyboard-response,307,2051768,0.0-17.0-1.15,50680,List2B,black,man,,,,null,,,,,,,,,
null,is being greeted by,,html-keyboard-response,308,2053772,0.0-17.0-2.15,50680,List2B,black,man,,,,null,,,,,,,,,
13341.5,,,survey-text,309,2067118,0.0-17.0-3.15,50680,List2B,black,man,,,,,"{""Q0"":""kate is being greeted by fred""}","<img src=""stim_listB/greet4.gif""style=""height:400px;""></stim_listB>",is being greeted by,,,,,,
null,"<div style=""font-size:60px;"">+</div>",,html-keyboard-response,310,2067629,0.0-17.0-0.16,50680,List2B,black,man,,,,null,,,,,,,,,
null,"<img src=""stim_listB/seduce8.gif""style=""height:400px;""></stim_listB>",,html-keyboard-response,311,2069641,0.0-17.0-1.16,50680,List2B,black,man,,,,null,,,,,,,,,
null,is being seduced by,,html-keyboard-response,312,2071644,0.0-17.0-2.16,50680,List2B,black,man,,,,null,,,,,,,,,
21882.9,,,survey-text,313,2093529,0.0-17.0-3.16,50680,List2B,black,man,,,,,"{""Q0"":""beth is being seduced by jane""}","<img src=""stim_listB/seduce8.gif""style=""height:400px;""></stim_listB>",is being seduced by,,,,,,
null,"<div style=""font-size:60px;"">+</div>",,html-keyboard-response,314,2094047,0.0-17.0-0.17,50680,List2B,black,man,,,,null,,,,,,,,,
null,"<img src=""stim_listB/challenge4.gif""style=""height:400px;""></stim_listB>",,html-keyboard-response,315,2096065,0.0-17.0-1.17,50680,List2B,black,man,,,,null,,,,,,,,,
null,is being challenged by,,html-keyboard-response,316,2098071,0.0-17.0-2.17,50680,List2B,black,man,,,,null,,,,,,,,,
12718.5,,,survey-text,317,2110794,0.0-17.0-3.17,50680,List2B,black,man,,,,,"{""Q0"":""fred is being challenged by kate""}","<img src=""stim_listB/challenge4.gif""style=""height:400px;""></stim_listB>",is being challenged by,,,,,,
null,"<div style=""font-size:60px;"">+</div>",,html-keyboard-response,318,2111301,0.0-17.0-0.18,50680,List2B,black,man,,,,null,,,,,,,,,
null,"<img src=""stim_listB/greet3.gif""style=""height:400px;""></stim_listB>",,html-keyboard-response,319,2113321,0.0-17.0-1.18,50680,List2B,black,man,,,,null,,,,,,,,,
null,is greeting,,html-keyboard-response,320,2115338,0.0-17.0-2.18,50680,List2B,black,man,,,,null,,,,,,,,,
6197.4,,,survey-text,321,2121543,0.0-17.0-3.18,50680,List2B,black,man,,,,,"{""Q0"":""beth is greeting mike""}","<img src=""stim_listB/greet3.gif""style=""height:400px;""></stim_listB>",is greeting,,,,,,
null,"<div style=""font-size:60px;"">+</div>",,html-keyboard-response,322,2122050,0.0-17.0-0.19,50680,List2B,black,man,,,,null,,,,,,,,,
null,"<img src=""stim_listB/copy1.gif""style=""height:400px;""></stim_listB>",,html-keyboard-response,323,2124059,0.0-17.0-1.19,50680,List2B,black,man,,,,null,,,,,,,,,
null,is copying,,html-keyboard-response,324,2126076,0.0-17.0-2.19,50680,List2B,black,man,,,,null,,,,,,,,,
9534.8,,,survey-text,325,2135616,0.0-17.0-3.19,50680,List2B,black,man,,,,,"{""Q0"":""dave is copying ruth""}","<img src=""stim_listB/copy1.gif""style=""height:400px;""></stim_listB>",is copying,,,,,,
27683.9,"<img src='img/portrait_matrix_list2.jpg' style='width:900px;height:500px;''></img><p>If you have memorised all the portraits and names and are ready to start, press Continue.</p><p><strong>Please note: Your memory of these faces will be tested 4 times during this experiment.</strong></p>",0,html-button-response,326,2163304,0.0-18.0-0.0,50680,List2B,black,man,,,,,,,,,,,,,
5875.7,"<img src=""portrait/WM2.jpg""style=""height:400px;""></img>",7,html-button-response,327,2170190,0.0-18.0-1.0,50680,List2B,black,man,,TRUE,7,,,,,,,,,,
null,CORRECT,,html-keyboard-response,328,2171717,0.0-18.0-2.0-0.0,50680,List2B,black,man,,,,null,,,,,,,,,
3834.8,"<img src=""portrait/WM1.jpg""style=""height:400px;""></img>",6,html-button-response,329,2175556,0.0-18.0-4.0,50680,List2B,black,man,,TRUE,6,,,,,,,,,,
null,CORRECT,,html-keyboard-response,330,2177074,0.0-18.0-5.0-0.0,50680,List2B,black,man,,,,null,,,,,,,,,
2514,"<img src=""portrait/BM2.jpg""style=""height:400px;""></img>",5,html-button-response,331,2179591,0.0-18.0-7.0,50680,List2B,black,man,,TRUE,5,,,,,,,,,,
null,CORRECT,,html-keyboard-response,332,2181103,0.0-18.0-8.0-0.0,50680,List2B,black,man,,,,null,,,,,,,,,
4797.9,"<img src=""portrait/BM1.jpg""style=""height:400px;""></img>",4,html-button-response,333,2185904,0.0-18.0-10.0,50680,List2B,black,man,,TRUE,4,,,,,,,,,,
null,CORRECT,,html-keyboard-response,334,2187423,0.0-18.0-11.0-0.0,50680,List2B,black,man,,,,null,,,,,,,,,
5924.3,"<img src=""portrait/WW1.jpg""style=""height:400px;""></img>",1,html-button-response,335,2193350,0.0-18.0-13.0,50680,List2B,black,man,,TRUE,1,,,,,,,,,,
null,CORRECT,,html-keyboard-response,336,2194863,0.0-18.0-14.0-0.0,50680,List2B,black,man,,,,null,,,,,,,,,
3814.7,"<img src=""portrait/BW2.jpg""style=""height:400px;""></img>",2,html-button-response,337,2198680,0.0-18.0-16.0,50680,List2B,black,man,,TRUE,2,,,,,,,,,,
null,CORRECT,,html-keyboard-response,338,2200215,0.0-18.0-17.0-0.0,50680,List2B,black,man,,,,null,,,,,,,,,
4004.3,"<img src=""portrait/WW2.jpg""style=""height:400px;""></img>",3,html-button-response,339,2204222,0.0-18.0-19.0,50680,List2B,black,man,,TRUE,3,,,,,,,,,,
null,CORRECT,,html-keyboard-response,340,2205747,0.0-18.0-20.0-0.0,50680,List2B,black,man,,,,null,,,,,,,,,
6241.8,"<img src=""portrait/BW1.jpg""style=""height:400px;""></img>",0,html-button-response,341,2211991,0.0-18.0-22.0,50680,List2B,black,man,,TRUE,0,,,,,,,,,,
null,CORRECT,,html-keyboard-response,342,2213503,0.0-18.0-23.0-0.0,50680,List2B,black,man,,,,null,,,,,,,,,
31858.2,<p>You got 8 out of 8 right first time. Press Continue.</p>,0,html-button-response,343,2245365,0.0-18.0-25.0,50680,List2B,black,man,,,,,,,,,,,,,
null,"<div style=""font-size:60px;"">+</div>",,html-keyboard-response,344,2246894,0.0-19.0-0.0,50680,List2B,black,man,,,,null,,,,,,,,,
null,"<img src=""stim_listB/oppose2.gif""style=""height:400px;""></stim_listB>",,html-keyboard-response,345,2248906,0.0-19.0-1.0,50680,List2B,black,man,,,,null,,,,,,,,,
null,is being opposed by,,html-keyboard-response,346,2250909,0.0-19.0-2.0,50680,List2B,black,man,,,,null,,,,,,,,,
27097.4,,,survey-text,347,2278012,0.0-19.0-3.0,50680,List2B,black,man,,,,,"{""Q0"":""ruth is being opposed by luke""}","<img src=""stim_listB/oppose2.gif""style=""height:400px;""></stim_listB>",is being opposed by,,,,,,
null,"<div style=""font-size:60px;"">+</div>",,html-keyboard-response,348,2278514,0.0-19.0-0.1,50680,List2B,black,man,,,,null,,,,,,,,,
null,"<img src=""stim_listB/hug8.gif""style=""height:400px;""></stim_listB>",,html-keyboard-response,349,2280523,0.0-19.0-1.1,50680,List2B,black,man,,,,null,,,,,,,,,
null,is being hugged by,,html-keyboard-response,350,2282525,0.0-19.0-2.1,50680,List2B,black,man,,,,null,,,,,,,,,
13443.4,,,survey-text,351,2295973,0.0-19.0-3.1,50680,List2B,black,man,,,,,"{""Q0"":""jane is being hugged by kate""}","<img src=""stim_listB/hug8.gif""style=""height:400px;""></stim_listB>",is being hugged by,,,,,,
null,"<div style=""font-size:60px;"">+</div>",,html-keyboard-response,352,2296478,0.0-19.0-0.2,50680,List2B,black,man,,,,null,,,,,,,,,
null,"<img src=""stim_listB/seduce3.gif""style=""height:400px;""></stim_listB>",,html-keyboard-response,353,2298491,0.0-19.0-1.2,50680,List2B,black,man,,,,null,,,,,,,,,
null,is seducing,,html-keyboard-response,354,2300495,0.0-19.0-2.2,50680,List2B,black,man,,,,null,,,,,,,,,
10436.6,,,survey-text,355,2310937,0.0-19.0-3.2,50680,List2B,black,man,,,,,"{""Q0"":""kate is seducing fred""}","<img src=""stim_listB/seduce3.gif""style=""height:400px;""></stim_listB>",is seducing,,,,,,
null,"<div style=""font-size:60px;"">+</div>",,html-keyboard-response,356,2311450,0.0-19.0-0.3,50680,List2B,black,man,,,,null,,,,,,,,,
null,"<img src=""stim_listB/greet8.gif""style=""height:400px;""></stim_listB>",,html-keyboard-response,357,2313455,0.0-19.0-1.3,50680,List2B,black,man,,,,null,,,,,,,,,
null,is being greeted by,,html-keyboard-response,358,2315467,0.0-19.0-2.3,50680,List2B,black,man,,,,null,,,,,,,,,
11860.5,,,survey-text,359,2327332,0.0-19.0-3.3,50680,List2B,black,man,,,,,"{""Q0"":""ruth is being greeted by kate""}","<img src=""stim_listB/greet8.gif""style=""height:400px;""></stim_listB>",is being greeted by,,,,,,
null,"<div style=""font-size:60px;"">+</div>",,html-keyboard-response,360,2327849,0.0-19.0-0.4,50680,List2B,black,man,,,,null,,,,,,,,,
null,"<img src=""stim_listB/oppose8.gif""style=""height:400px;""></stim_listB>",,html-keyboard-response,361,2329869,0.0-19.0-1.4,50680,List2B,black,man,,,,null,,,,,,,,,
null,is being opposed by,,html-keyboard-response,362,2331876,0.0-19.0-2.4,50680,List2B,black,man,,,,null,,,,,,,,,
16103.1,,,survey-text,363,2347984,0.0-19.0-3.4,50680,List2B,black,man,,,,,"{""Q0"":""ruth is being opposed by beth""}","<img src=""stim_listB/oppose8.gif""style=""height:400px;""></stim_listB>",is being opposed by,,,,,,
null,"<div style=""font-size:60px;"">+</div>",,html-keyboard-response,364,2348499,0.0-19.0-0.5,50680,List2B,black,man,,,,null,,,,,,,,,
null,"<img src=""stim_listB/copy5.gif""style=""height:400px;""></stim_listB>",,html-keyboard-response,365,2350512,0.0-19.0-1.5,50680,List2B,black,man,,,,null,,,,,,,,,
null,is copying,,html-keyboard-response,366,2352527,0.0-19.0-2.5,50680,List2B,black,man,,,,null,,,,,,,,,
7811.1,,,survey-text,367,2360345,0.0-19.0-3.5,50680,List2B,black,man,,,,,"{""Q0"":""fred is copying dave""}","<img src=""stim_listB/copy5.gif""style=""height:400px;""></stim_listB>",is copying,,,,,,
null,"<div style=""font-size:60px;"">+</div>",,html-keyboard-response,368,2360853,0.0-19.0-0.6,50680,List2B,black,man,,,,null,,,,,,,,,
null,"<img src=""stim_listB/shout2.gif""style=""height:400px;""></stim_listB>",,html-keyboard-response,369,2362858,0.0-19.0-1.6,50680,List2B,black,man,,,,null,,,,,,,,,
null,is being shouted at by,,html-keyboard-response,370,2364867,0.0-19.0-2.6,50680,List2B,black,man,,,,null,,,,,,,,,
18205.8,,,survey-text,371,2383079,0.0-19.0-3.6,50680,List2B,black,man,,,,,"{""Q0"":""dave is being shouted at by jane""}","<img src=""stim_listB/shout2.gif""style=""height:400px;""></stim_listB>",is being shouted at by,,,,,,
null,"<div style=""font-size:60px;"">+</div>",,html-keyboard-response,372,2383593,0.0-19.0-0.7,50680,List2B,black,man,,,,null,,,,,,,,,
null,"<img src=""stim_listB/shout1.gif""style=""height:400px;""></stim_listB>",,html-keyboard-response,373,2385610,0.0-19.0-1.7,50680,List2B,black,man,,,,null,,,,,,,,,
null,is shouting at,,html-keyboard-response,374,2387621,0.0-19.0-2.7,50680,List2B,black,man,,,,null,,,,,,,,,
11052.4,,,survey-text,375,2398675,0.0-19.0-3.7,50680,List2B,black,man,,,,,"{""Q0"":""luke is shouting at ruth""}","<img src=""stim_listB/shout1.gif""style=""height:400px;""></stim_listB>",is shouting at,,,,,,
null,"<div style=""font-size:60px;"">+</div>",,html-keyboard-response,376,2399179,0.0-19.0-0.8,50680,List2B,black,man,,,,null,,,,,,,,,
null,"<img src=""stim_listB/kiss1.gif""style=""height:400px;""></stim_listB>",,html-keyboard-response,377,2401185,0.0-19.0-1.8,50680,List2B,black,man,,,,null,,,,,,,,,
null,is kissing,,html-keyboard-response,378,2403192,0.0-19.0-2.8,50680,List2B,black,man,,,,null,,,,,,,,,
11655.4,,,survey-text,379,2414853,0.0-19.0-3.8,50680,List2B,black,man,,,,,"{""Q0"":""luke is kissing ruth""}","<img src=""stim_listB/kiss1.gif""style=""height:400px;""></stim_listB>",is kissing,,,,,,
null,"<div style=""font-size:60px;"">+</div>",,html-keyboard-response,380,2415357,0.0-19.0-0.9,50680,List2B,black,man,,,,null,,,,,,,,,
null,"<img src=""stim_listB/touch8.gif""style=""height:400px;""></stim_listB>",,html-keyboard-response,381,2417366,0.0-19.0-1.9,50680,List2B,black,man,,,,null,,,,,,,,,
null,is being touched by,,html-keyboard-response,382,2419382,0.0-19.0-2.9,50680,List2B,black,man,,,,null,,,,,,,,,
15923.2,,,survey-text,383,2435310,0.0-19.0-3.9,50680,List2B,black,man,,,,,"{""Q0"":""ruth is being touched by kate""}","<img src=""stim_listB/touch8.gif""style=""height:400px;""></stim_listB>",is being touched by,,,,,,
null,"<div style=""font-size:60px;"">+</div>",,html-keyboard-response,384,2435828,0.0-19.0-0.10,50680,List2B,black,man,,,,null,,,,,,,,,
null,"<img src=""stim_listB/challenge2.gif""style=""height:400px;""></stim_listB>",,html-keyboard-response,385,2437833,0.0-19.0-1.10,50680,List2B,black,man,,,,null,,,,,,,,,
null,is being challenged by,,html-keyboard-response,386,2439851,0.0-19.0-2.10,50680,List2B,black,man,,,,null,,,,,,,,,
13383.4,,,survey-text,387,2453245,0.0-19.0-3.10,50680,List2B,black,man,,,,,"{""Q0"":""luke is being challenged by kate""}","<img src=""stim_listB/challenge2.gif""style=""height:400px;""></stim_listB>",is being challenged by,,,,,,
null,"<div style=""font-size:60px;"">+</div>",,html-keyboard-response,388,2453751,0.0-19.0-0.11,50680,List2B,black,man,,,,null,,,,,,,,,
null,"<img src=""stim_listB/hug4.gif""style=""height:400px;""></stim_listB>",,html-keyboard-response,389,2455770,0.0-19.0-1.11,50680,List2B,black,man,,,,null,,,,,,,,,
null,is being hugged by,,html-keyboard-response,390,2457772,0.0-19.0-2.11,50680,List2B,black,man,,,,null,,,,,,,,,
8863.6,,,survey-text,391,2466641,0.0-19.0-3.11,50680,List2B,black,man,,,,,"{""Q0"":""kate is being hugged by mike""}","<img src=""stim_listB/hug4.gif""style=""height:400px;""></stim_listB>",is being hugged by,,,,,,
null,"<div style=""font-size:60px;"">+</div>",,html-keyboard-response,392,2467143,0.0-19.0-0.12,50680,List2B,black,man,,,,null,,,,,,,,,
null,"<img src=""stim_listB/greet6.gif""style=""height:400px;""></stim_listB>",,html-keyboard-response,393,2469154,0.0-19.0-1.12,50680,List2B,black,man,,,,null,,,,,,,,,
null,is being greeted by,,html-keyboard-response,394,2471167,0.0-19.0-2.12,50680,List2B,black,man,,,,null,,,,,,,,,
10338.6,,,survey-text,395,2481511,0.0-19.0-3.12,50680,List2B,black,man,,,,,"{""Q0"":""luke is being greeted by mike""}","<img src=""stim_listB/greet6.gif""style=""height:400px;""></stim_listB>",is being greeted by,,,,,,
null,"<div style=""font-size:60px;"">+</div>",,html-keyboard-response,396,2482025,0.0-19.0-0.13,50680,List2B,black,man,,,,null,,,,,,,,,
null,"<img src=""stim_listB/copy8.gif""style=""height:400px;""></stim_listB>",,html-keyboard-response,397,2484044,0.0-19.0-1.13,50680,List2B,black,man,,,,null,,,,,,,,,
null,is being copied by,,html-keyboard-response,398,2486048,0.0-19.0-2.13,50680,List2B,black,man,,,,null,,,,,,,,,
14241.8,,,survey-text,399,2500297,0.0-19.0-3.13,50680,List2B,black,man,,,,,"{""Q0"":""ruth is being copied by kate""}","<img src=""stim_listB/copy8.gif""style=""height:400px;""></stim_listB>",is being copied by,,,,,,
null,"<div style=""font-size:60px;"">+</div>",,html-keyboard-response,400,2500813,0.0-19.0-0.14,50680,List2B,black,man,,,,null,,,,,,,,,
null,"<img src=""stim_listB/hug3.gif""style=""height:400px;""></stim_listB>",,html-keyboard-response,401,2502822,0.0-19.0-1.14,50680,List2B,black,man,,,,null,,,,,,,,,
null,is hugging,,html-keyboard-response,402,2504833,0.0-19.0-2.14,50680,List2B,black,man,,,,null,,,,,,,,,
7618.6,,,survey-text,403,2512456,0.0-19.0-3.14,50680,List2B,black,man,,,,,"{""Q0"":""beth is hugging fred""}","<img src=""stim_listB/hug3.gif""style=""height:400px;""></stim_listB>",is hugging,,,,,,
null,"<div style=""font-size:60px;"">+</div>",,html-keyboard-response,404,2512973,0.0-19.0-0.15,50680,List2B,black,man,,,,null,,,,,,,,,
null,"<img src=""stim_listB/oppose1.gif""style=""height:400px;""></stim_listB>",,html-keyboard-response,405,2514986,0.0-19.0-1.15,50680,List2B,black,man,,,,null,,,,,,,,,
null,is opposing,,html-keyboard-response,406,2516993,0.0-19.0-2.15,50680,List2B,black,man,,,,null,,,,,,,,,
8517.2,,,survey-text,407,2525516,0.0-19.0-3.15,50680,List2B,black,man,,,,,"{""Q0"":""jane is opposing dave""}","<img src=""stim_listB/oppose1.gif""style=""height:400px;""></stim_listB>",is opposing,,,,,,
null,"<div style=""font-size:60px;"">+</div>",,html-keyboard-response,408,2526026,0.0-19.0-0.16,50680,List2B,black,man,,,,null,,,,,,,,,
null,"<img src=""stim_listB/oppose6.gif""style=""height:400px;""></stim_listB>",,html-keyboard-response,409,2528044,0.0-19.0-1.16,50680,List2B,black,man,,,,null,,,,,,,,,
null,is being opposed by,,html-keyboard-response,410,2530057,0.0-19.0-2.16,50680,List2B,black,man,,,,null,,,,,,,,,
10628.8,,,survey-text,411,2540690,0.0-19.0-3.16,50680,List2B,black,man,,,,,"{""Q0"":""fred is being opposed by luke""}","<img src=""stim_listB/oppose6.gif""style=""height:400px;""></stim_listB>",is being opposed by,,,,,,
null,"<div style=""font-size:60px;"">+</div>",,html-keyboard-response,412,2541201,0.0-19.0-0.17,50680,List2B,black,man,,,,null,,,,,,,,,
null,"<img src=""stim_listB/kiss4.gif""style=""height:400px;""></stim_listB>",,html-keyboard-response,413,2543215,0.0-19.0-1.17,50680,List2B,black,man,,,,null,,,,,,,,,
null,is being kissed by,,html-keyboard-response,414,2545225,0.0-19.0-2.17,50680,List2B,black,man,,,,null,,,,,,,,,
11723.2,,,survey-text,415,2556955,0.0-19.0-3.17,50680,List2B,black,man,,,,,"{""Q0"":""kate is being kissed by mike""}","<img src=""stim_listB/kiss4.gif""style=""height:400px;""></stim_listB>",is being kissed by,,,,,,
null,"<div style=""font-size:60px;"">+</div>",,html-keyboard-response,416,2557458,0.0-19.0-0.18,50680,List2B,black,man,,,,null,,,,,,,,,
null,"<img src=""stim_listB/kiss6.gif""style=""height:400px;""></stim_listB>",,html-keyboard-response,417,2559467,0.0-19.0-1.18,50680,List2B,black,man,,,,null,,,,,,,,,
null,is being kissed by,,html-keyboard-response,418,2561475,0.0-19.0-2.18,50680,List2B,black,man,,,,null,,,,,,,,,
13687.4,,,survey-text,419,2575165,0.0-19.0-3.18,50680,List2B,black,man,,,,,"{""Q0"":""dave is being kissed by mike""}","<img src=""stim_listB/kiss6.gif""style=""height:400px;""></stim_listB>",is being kissed by,,,,,,
null,"<div style=""font-size:60px;"">+</div>",,html-keyboard-response,420,2575682,0.0-19.0-0.19,50680,List2B,black,man,,,,null,,,,,,,,,
null,"<img src=""stim_listB/copy2.gif""style=""height:400px;""></stim_listB>",,html-keyboard-response,421,2577697,0.0-19.0-1.19,50680,List2B,black,man,,,,null,,,,,,,,,
null,is being copied by,,html-keyboard-response,422,2579700,0.0-19.0-2.19,50680,List2B,black,man,,,,null,,,,,,,,,
9968.4,,,survey-text,423,2589673,0.0-19.0-3.19,50680,List2B,black,man,,,,,"{""Q0"":""jane is being copied by luke""}","<img src=""stim_listB/copy2.gif""style=""height:400px;""></stim_listB>",is being copied by,,,,,,
2606.5,<p>Thank you for completing that task.</p><p>The final part of this session is a questionnaire that will take about 4 minutes.</p><p>Press Continue.</p>,0,html-button-response,424,2592281,0.0-20.0,50680,List2B,black,man,,,,,,,,,,,,,
34953.5,,,survey-text,425,2628254,0.0-21.0,50680,List2B,black,man,,,,,"{""Q0"":""45"",""Q1"":""ENGLISH"",""Q2"":""ENGLISH"",""Q3"":""UNITED STATES"",""Q4"":""AMERICAN"",""Q5"":""BLACK"",""Q6"":""MALE""}",,,demographics,,,,,
2631.5,<p>Have you lived in the USA for the last 5 years or more?</p>,0,html-button-response,426,2630889,0.0-22.0,50680,List2B,black,man,,,,,,,,fiveyears,,,,,
3662.4,<p>Move the slider to show the extent to which you agree with the following statements.</p>,0,html-button-response,427,2635572,0.0-23.0,50680,List2B,black,man,,,,,,,,,,,,,
4885.9,,,html-slider-response,428,2641465,0.0-24.0-0.0-0.0,50680,List2B,black,man,,,,,,,,survey_gender,100,,,People of my gender are very similar to each other.,verysimilar
3339.5,,,html-slider-response,429,2644808,0.0-24.0-0.0-0.1,50680,List2B,black,man,,,,,,,,survey_gender,100,,,My friends understand me.,filler
3293,,,html-slider-response,430,2648105,0.0-24.0-0.0-0.2,50680,List2B,black,man,,,,,,,,survey_gender,100,,,I am glad to be my gender.,glad
3575.4,,,html-slider-response,431,2651683,0.0-24.0-0.0-0.3,50680,List2B,black,man,,,,,,,,survey_gender,100,,,My friends have a lot in common with each other.,filler
4206.2,,,html-slider-response,432,2655892,0.0-24.0-0.0-0.4,50680,List2B,black,man,,,,,,,,survey_gender,100,,,I consider myself a highly empathetic person.,filler
3551.1,,,html-slider-response,433,2659446,0.0-24.0-0.0-0.5,50680,List2B,black,man,,,,,,,,survey_gender,0,,,Routine is not important to me.,filler
3657.3,,,html-slider-response,434,2663106,0.0-24.0-0.0-0.6,50680,List2B,black,man,,,,,,,,survey_gender,100,,,I have a lot in common with the average person of my gender.,average
3648.3,,,html-slider-response,435,2666758,0.0-24.0-0.0-0.7,50680,List2B,black,man,,,,,,,,survey_gender,100,,,I often think about my actions.,filler
3277.1,,,html-slider-response,436,2670038,0.0-24.0-0.0-0.8,50680,List2B,black,man,,,,,,,,survey_gender,100,,,Being my gender gives me a good feeling.,feeling
4334.8,,,html-slider-response,437,2674376,0.0-24.0-0.0-0.9,50680,List2B,black,man,,,,,,,,survey_gender,100,,,Being my gender is an important part of how I see myself.,important
3653.8,,,html-slider-response,438,2678033,0.0-24.0-0.0-0.10,50680,List2B,black,man,,,,,,,,survey_gender,100,,,I often think about the fact that I am my gender.,often
3975.1,,,html-slider-response,439,2682010,0.0-24.0-0.0-0.11,50680,List2B,black,man,,,,,,,,survey_gender,100,,,I have a lot in common with my friends.,filler
5714.9,,,html-slider-response,440,2687728,0.0-24.0-0.0-0.12,50680,List2B,black,man,,,,,,,,survey_gender,100,,,I am similar to the average person of my gender.,similar
3965.3,,,html-slider-response,441,2691695,0.0-24.0-0.0-0.13,50680,List2B,black,man,,,,,,,,survey_gender,100,,,I think that my gender has a lot to be proud of.,proud
3858.8,,,html-slider-response,442,2695554,0.0-24.0-0.0-0.14,50680,List2B,black,man,,,,,,,,survey_gender,100,,,I feel a bond with my friends.,filler
7335.9,,,html-slider-response,443,2702893,0.0-24.0-0.0-0.15,50680,List2B,black,man,,,,,,,,survey_gender,100,,,The fact that I am my gender is an important part of my identity.,identity
4447.6,,,html-slider-response,444,2707343,0.0-24.0-0.0-0.16,50680,List2B,black,man,,,,,,,,survey_gender,100,,,Most of the friends in my life are very similar to me.,filler
7414.6,,,html-slider-response,445,2714761,0.0-24.0-0.0-0.17,50680,List2B,black,man,,,,,,,,survey_gender,59,,,It is not always easy for people to know what I am thinking.,filler
6098.9,,,html-slider-response,446,2720862,0.0-24.0-0.0-0.18,50680,List2B,black,man,,,,,,,,survey_gender,0,,,Family is not more important to me than friendship.,filler
4869.3,,,html-slider-response,447,2725735,0.0-24.0-0.0-0.19,50680,List2B,black,man,,,,,,,,survey_gender,100,,,I am glad to have the friends that I have.,filler
3375.2,,,html-slider-response,448,2729113,0.0-24.0-0.0-0.20,50680,List2B,black,man,,,,,,,,survey_gender,100,,,I feel solidarity with my gender.,solidarity
3792.4,,,html-slider-response,449,2732909,0.0-24.0-0.0-0.21,50680,List2B,black,man,,,,,,,,survey_gender,100,,,Being around my friends gives me a good feeling.,filler
3442.4,,,html-slider-response,450,2736353,0.0-24.0-0.0-0.22,50680,List2B,black,man,,,,,,,,survey_gender,100,,,It is pleasant to be my gender.,pleasant
3289,,,html-slider-response,451,2739645,0.0-24.0-0.0-0.23,50680,List2B,black,man,,,,,,,,survey_gender,100,,,I feel committed to my gender.,committed
2992.1,,,html-slider-response,452,2742640,0.0-24.0-0.0-0.24,50680,List2B,black,man,,,,,,,,survey_gender,100,,,I feel a bond with my gender.,bond
5357.3,,,html-slider-response,453,2747999,0.0-24.0-0.0-0.25,50680,List2B,black,man,,,,,,,,survey_gender,74,,,I would say I am an animal person.,filler
3620.2,,,html-slider-response,454,2751622,0.0-24.0-0.0-0.26,50680,List2B,black,man,,,,,,,,survey_gender,97,,,People of my gender have a lot in common with each other.,common
3687.9,,,html-slider-response,455,2755313,0.0-24.0-0.0-0.27,50680,List2B,black,man,,,,,,,,survey_gender,96,,,I feel solidarity with my friends.,filler
3512.6,,,html-slider-response,456,2758829,0.0-24.0-1.0-0.0,50680,List2B,black,man,,,,,,,,survey_race,100,,,Getting older does not worry me.,filler
3402.5,,,html-slider-response,457,2762233,0.0-24.0-1.0-0.1,50680,List2B,black,man,,,,,,,,survey_race,100,,,I often think about the fact that I am my race.,often
3408,,,html-slider-response,458,2765643,0.0-24.0-1.0-0.2,50680,List2B,black,man,,,,,,,,survey_race,100,,,Being my age gives me a good feeling.,filler
3182.6,,,html-slider-response,459,2768829,0.0-24.0-1.0-0.3,50680,List2B,black,man,,,,,,,,survey_race,100,,,I enjoy being in large groups.,filler
3436.3,,,html-slider-response,460,2772267,0.0-24.0-1.0-0.4,50680,List2B,black,man,,,,,,,,survey_race,100,,,Being my race is an important part of how I see myself.,important
3566.4,,,html-slider-response,461,2775837,0.0-24.0-1.0-0.5,50680,List2B,black,man,,,,,,,,survey_race,100,,,It is pleasant to be my race.,pleasant
2970,,,html-slider-response,462,2778809,0.0-24.0-1.0-0.6,50680,List2B,black,man,,,,,,,,survey_race,100,,,I feel a bond with people the same age as me.,filler
3375.7,,,html-slider-response,463,2782188,0.0-24.0-1.0-0.7,50680,List2B,black,man,,,,,,,,survey_race,100,,,I feel solidarity with my race.,solidarity
3100.8,,,html-slider-response,464,2785291,0.0-24.0-1.0-0.8,50680,List2B,black,man,,,,,,,,survey_race,100,,,Being my race gives me a good feeling.,feeling
2952.6,,,html-slider-response,465,2788247,0.0-24.0-1.0-0.9,50680,List2B,black,man,,,,,,,,survey_race,100,,,I feel solidarity with people the same age as me.,filler
3274.4,,,html-slider-response,466,2791523,0.0-24.0-1.0-0.10,50680,List2B,black,man,,,,,,,,survey_race,100,,,I have a lot in common with people of a similar age to me.,filler
2685.8,,,html-slider-response,467,2794213,0.0-24.0-1.0-0.11,50680,List2B,black,man,,,,,,,,survey_race,100,,,I am glad to be my race.,glad
2823.2,,,html-slider-response,468,2797038,0.0-24.0-1.0-0.12,50680,List2B,black,man,,,,,,,,survey_race,100,,,The fact that I am my race is an important part of my identity.,identity
4375.8,,,html-slider-response,469,2801416,0.0-24.0-1.0-0.13,50680,List2B,black,man,,,,,,,,survey_race,100,,,People of my race have a lot in common with each other.,common
3372.7,,,html-slider-response,470,2804792,0.0-24.0-1.0-0.14,50680,List2B,black,man,,,,,,,,survey_race,100,,,I consider myself an extrovert.,filler
3064.6,,,html-slider-response,471,2807859,0.0-24.0-1.0-0.15,50680,List2B,black,man,,,,,,,,survey_race,97,,,I feel a bond with my race.,bond
2703.8,,,html-slider-response,472,2810566,0.0-24.0-1.0-0.16,50680,List2B,black,man,,,,,,,,survey_race,100,,,I am glad to be my age.,filler
3552.6,,,html-slider-response,473,2814122,0.0-24.0-1.0-0.17,50680,List2B,black,man,,,,,,,,survey_race,100,,,I think that my race has a lot to be proud of.,proud
3220.3,,,html-slider-response,474,2817345,0.0-24.0-1.0-0.18,50680,List2B,black,man,,,,,,,,survey_race,100,,,People of my race are very similar to each other.,verysimilar
2943.2,,,html-slider-response,475,2820291,0.0-24.0-1.0-0.19,50680,List2B,black,man,,,,,,,,survey_race,100,,,I feel committed to my race.,committed
5870,,,html-slider-response,476,2826162,0.0-24.0-1.0-0.20,50680,List2B,black,man,,,,,,,,survey_race,65,,,My age is not an important part of who I am.,filler
3203.1,,,html-slider-response,477,2829368,0.0-24.0-1.0-0.21,50680,List2B,black,man,,,,,,,,survey_race,100,,,I am similar to the average person of my race.,similar
3482.4,,,html-slider-response,478,2832853,0.0-24.0-1.0-0.22,50680,List2B,black,man,,,,,,,,survey_race,13,,,I consider myself an introvert.,filler
3538.3,,,html-slider-response,479,2836394,0.0-24.0-1.0-0.23,50680,List2B,black,man,,,,,,,,survey_race,100,,,I have a lot in common with the average person of my race.,average
2755.4,,,html-slider-response,480,2839152,0.0-24.0-1.0-0.24,50680,List2B,black,man,,,,,,,,survey_race,100,,,"The older I get, the wiser I feel.",filler
2703,,,html-slider-response,481,2841857,0.0-24.0-1.0-0.25,50680,List2B,black,man,,,,,,,,survey_race,100,,,I often think about the fact that I am my age.,filler
2693,,,html-slider-response,482,2844553,0.0-24.0-1.0-0.26,50680,List2B,black,man,,,,,,,,survey_race,100,,,I am glad to be the age I am.,filler
3851,,,html-slider-response,483,2848406,0.0-24.0-1.0-0.27,50680,List2B,black,man,,,,,,,,survey_race,100,,,People my age have a lot in common with each other.,filler
9249.5,,,survey-text,484,2857660,0.0-25.0,50680,List2B,black,man,,,,,"{""Q0"":""ccc""}",,,worker_id,,,,,
4025,,,external-html,485,2863345,0.0-26.0,50680,List2B,black,man,debrief.html,,,,,,,,,,,,
