"rt","stimulus","button_pressed","trial_type","trial_index","time_elapsed","internal_node_id","subject","list","ppt_race","ppt_gender","url","first_guess","correct","key_press","responses","image_type","phrase_type","test_part","response","stimulus1","stimulus2","question_type","survey_item"
"1433.5","Welcome to the experiment. Press Continue to begin.","0","html-button-response","0","1435","0.0-0.0","51007","List1B","black","man","","","","","","","","","","","","",""
"9944.899999976158","","","external-html","1","12807","0.0-1.0","51007","List1B","black","man","consent.html","","","","","","","","","","","",""
"11702.899999976158","<p>On the next page, you will see portraits of 8 people and their names.</p><p>Your first task is to take a few minutes to memorise the names of these people.</p><p>You will have to recall their names during the rest of the experiment, so it is</p><p>essential that you try to memorise these people and their names as best as you can.</p><br><p><strong>You will then be tested on your memory of these names and portraits.</strong></p><br><p>The experiment will start after you have completed this memory test.</p><br><p>Ready?</p>","0","html-button-response","2","24511","0.0-2.0","51007","List1B","black","man","","","","","","","","","","","","",""
"41787.89999997616","<img src='img/portrait_matrix_list1.jpg' style='width:900px;height:500px;''></img><p>If you have memorised all the portraits and names and are ready to start, press Continue.</p><p><strong>Please note: Your memory of these faces will be tested 4 times during this experiment.</strong></p>","0","html-button-response","3","67300","0.0-3.0-0.0","51007","List1B","black","man","","","","","","","","","","","","",""
"3902.599999964237","<img src=""portrait/WW2.jpg""style=""height:400px;""></img>","3","html-button-response","4","72205","0.0-3.0-1.0","51007","List1B","black","man","","true","3","","","","","","","","","",""
"null","CORRECT","","html-keyboard-response","5","73707","0.0-3.0-2.0-0.0","51007","List1B","black","man","","","","null","","","","","","","","",""
"4199.100000023842","<img src=""portrait/BW2.jpg""style=""height:400px;""></img>","2","html-button-response","6","77907","0.0-3.0-4.0","51007","List1B","black","man","","true","2","","","","","","","","","",""
"null","CORRECT","","html-keyboard-response","7","79408","0.0-3.0-5.0-0.0","51007","List1B","black","man","","","","null","","","","","","","","",""
"4223.399999976158","<img src=""portrait/BW1.jpg""style=""height:400px;""></img>","0","html-button-response","8","83632","0.0-3.0-7.0","51007","List1B","black","man","","true","0","","","","","","","","","",""
"null","CORRECT","","html-keyboard-response","9","85135","0.0-3.0-8.0-0.0","51007","List1B","black","man","","","","null","","","","","","","","",""
"2626.900000035763","<img src=""portrait/WM2.jpg""style=""height:400px;""></img>","7","html-button-response","10","87763","0.0-3.0-10.0","51007","List1B","black","man","","true","7","","","","","","","","","",""
"null","CORRECT","","html-keyboard-response","11","89266","0.0-3.0-11.0-0.0","51007","List1B","black","man","","","","null","","","","","","","","",""
"2534.2999999523163","<img src=""portrait/BM2.jpg""style=""height:400px;""></img>","5","html-button-response","12","91801","0.0-3.0-13.0","51007","List1B","black","man","","true","5","","","","","","","","","",""
"null","CORRECT","","html-keyboard-response","13","93302","0.0-3.0-14.0-0.0","51007","List1B","black","man","","","","null","","","","","","","","",""
"3452.399999976158","<img src=""portrait/WW1.jpg""style=""height:400px;""></img>","1","html-button-response","14","96755","0.0-3.0-16.0","51007","List1B","black","man","","true","1","","","","","","","","","",""
"null","CORRECT","","html-keyboard-response","15","98257","0.0-3.0-17.0-0.0","51007","List1B","black","man","","","","null","","","","","","","","",""
"2374.899999976158","<img src=""portrait/BM1.jpg""style=""height:400px;""></img>","4","html-button-response","16","100633","0.0-3.0-19.0","51007","List1B","black","man","","true","4","","","","","","","","","",""
"null","CORRECT","","html-keyboard-response","17","102134","0.0-3.0-20.0-0.0","51007","List1B","black","man","","","","null","","","","","","","","",""
"3123.800000011921","<img src=""portrait/WM1.jpg""style=""height:400px;""></img>","6","html-button-response","18","105259","0.0-3.0-22.0","51007","List1B","black","man","","true","6","","","","","","","","","",""
"null","CORRECT","","html-keyboard-response","19","106761","0.0-3.0-23.0-0.0","51007","List1B","black","man","","","","null","","","","","","","","",""
"1870.800000011921","<p>You got 8 out of 8 right first time. Press Continue.</p>","0","html-button-response","20","108632","0.0-3.0-25.0","51007","List1B","black","man","","","","","","","","","","","","",""
"22555.69999998808","<p>In this experiment, you will view photographs of the people from the memory game interacting.</p><p>By using the <strong>exact</strong> phrase given <i>after</i> the photograph appears and recalling the correct names of the people in the photographs, form a sentence describing the interaction. You do not need to capitalise names.</p><p>Type your answer in the space provided. Please complete every sentence before moving onto the next trial.</p><p>You will only have a few seconds to memorise each given photograph and phrase before you can respond, so try your best to focus.</p><p>An example is given below. Press 'Continue' when you are ready.</p><img src='img/speaking_example.jpg' style='width:800px;height:460px;''></img>","0","html-button-response","21","132190","0.0-4.0","51007","List1B","black","man","","","","","","","","","","","","",""
"2143.899999976158","<p>Before the experiment starts, you will watch two example trials. Press 'Continue'.</p>","0","html-button-response","22","135336","0.0-5.0","51007","List1B","black","man","","","","","","","","","","","","",""
"null","<img src='img/play_eg.gif' style='height:400px;''></img>","","html-keyboard-response","23","138339","0.0-6.0","51007","List1B","black","man","","","","null","","","","","","","","",""
"null","<p>is playing with</p>","","html-keyboard-response","24","140340","0.0-7.0","51007","List1B","black","man","","","","null","","","","","","","","",""
"2314.300000011921","<p><b>Answer:</b> kate is playing with beth</p>","0","html-button-response","25","142654","0.0-8.0","51007","List1B","black","man","","","","","","","","","","","","",""
"null","<img src='img/dance_eg.gif' style='height:400px;''></img>","","html-keyboard-response","26","145657","0.0-9.0","51007","List1B","black","man","","","","null","","","","","","","","",""
"null","<p>is being entertained by</p>","","html-keyboard-response","27","147658","0.0-10.0","51007","List1B","black","man","","","","null","","","","","","","","",""
"2511.300000011921","<p><b>Answer:</b> luke is being entertained by dave</p>","0","html-button-response","28","150170","0.0-11.0","51007","List1B","black","man","","","","","","","","","","","","",""
"9433.5","<p>Ready to start the experiment?</p><br><p><strong>Remember to describe the picture using a full sentence,</strong></p><p><strong>that combines the names of the people with the <i>exact</i> phrase given.</strong></p><p><strong>To receive full payment you must do this correctly.</strong></p><p><strong> You do not need to capitalise names or use punctuation.</strong></p><br><p>Press 'Continue' to begin.</p>","0","html-button-response","29","160605","0.0-12.0","51007","List1B","black","man","","","","","","","","","","","","",""
"null","<div style=""font-size:60px;"">+</div>","","html-keyboard-response","30","162108","0.0-13.0-0.0","51007","List1B","black","man","","","","null","","","","","","","","",""
"null","<img src=""stim_listB/look6.gif""style=""height:400px;""></stim_listB>","","html-keyboard-response","31","164109","0.0-13.0-1.0","51007","List1B","black","man","","","","null","","","","","","","","",""
"null","is being looked at by","","html-keyboard-response","32","166110","0.0-13.0-2.0","51007","List1B","black","man","","","","null","","","","","","","","",""
"6572.399999976158","","","survey-text","33","172684","0.0-13.0-3.0","51007","List1B","black","man","","","","","{""Q0"":""Dave""}","<img src=""stim_listB/look6.gif""style=""height:400px;""></stim_listB>","is being looked at by","","","","","",""
"null","<div style=""font-size:60px;"">+</div>","","html-keyboard-response","34","173186","0.0-13.0-0.1","51007","List1B","black","man","","","","null","","","","","","","","",""
"null","<img src=""stim_listB/kiss2.gif""style=""height:400px;""></stim_listB>","","html-keyboard-response","35","175187","0.0-13.0-1.1","51007","List1B","black","man","","","","null","","","","","","","","",""
"null","is being kissed by","","html-keyboard-response","36","177189","0.0-13.0-2.1","51007","List1B","black","man","","","","null","","","","","","","","",""
"13079.800000011921","","","survey-text","37","190270","0.0-13.0-3.1","51007","List1B","black","man","","","","","{""Q0"":""beth mike""}","<img src=""stim_listB/kiss2.gif""style=""height:400px;""></stim_listB>","is being kissed by","","","","","",""
"null","<div style=""font-size:60px;"">+</div>","","html-keyboard-response","38","190771","0.0-13.0-0.2","51007","List1B","black","man","","","","null","","","","","","","","",""
"null","<img src=""stim_listB/hug2.gif""style=""height:400px;""></stim_listB>","","html-keyboard-response","39","192773","0.0-13.0-1.2","51007","List1B","black","man","","","","null","","","","","","","","",""
"null","is being hugged by","","html-keyboard-response","40","194775","0.0-13.0-2.2","51007","List1B","black","man","","","","null","","","","","","","","",""
"4418.399999976158","","","survey-text","41","199194","0.0-13.0-3.2","51007","List1B","black","man","","","","","{""Q0"":""Mike Kate""}","<img src=""stim_listB/hug2.gif""style=""height:400px;""></stim_listB>","is being hugged by","","","","","",""
"null","<div style=""font-size:60px;"">+</div>","","html-keyboard-response","42","199696","0.0-13.0-0.3","51007","List1B","black","man","","","","null","","","","","","","","",""
"null","<img src=""stim_listB/seduce3.gif""style=""height:400px;""></stim_listB>","","html-keyboard-response","43","201698","0.0-13.0-1.3","51007","List1B","black","man","","","","null","","","","","","","","",""
"null","is seducing","","html-keyboard-response","44","203699","0.0-13.0-2.3","51007","List1B","black","man","","","","null","","","","","","","","",""
"12138.200000047684","","","survey-text","45","215839","0.0-13.0-3.3","51007","List1B","black","man","","","","","{""Q0"":""Luke is seducing Jane""}","<img src=""stim_listB/seduce3.gif""style=""height:400px;""></stim_listB>","is seducing","","","","","",""
"null","<div style=""font-size:60px;"">+</div>","","html-keyboard-response","46","216340","0.0-13.0-0.4","51007","List1B","black","man","","","","null","","","","","","","","",""
"null","<img src=""stim_listB/copy5.gif""style=""height:400px;""></stim_listB>","","html-keyboard-response","47","218342","0.0-13.0-1.4","51007","List1B","black","man","","","","null","","","","","","","","",""
"null","is copying","","html-keyboard-response","48","220343","0.0-13.0-2.4","51007","List1B","black","man","","","","null","","","","","","","","",""
"6063.300000011921","","","survey-text","49","226407","0.0-13.0-3.4","51007","List1B","black","man","","","","","{""Q0"":""Luke is copying Mike""}","<img src=""stim_listB/copy5.gif""style=""height:400px;""></stim_listB>","is copying","","","","","",""
"null","<div style=""font-size:60px;"">+</div>","","html-keyboard-response","50","226907","0.0-13.0-0.5","51007","List1B","black","man","","","","null","","","","","","","","",""
"null","<img src=""stim_listB/kiss1.gif""style=""height:400px;""></stim_listB>","","html-keyboard-response","51","228908","0.0-13.0-1.5","51007","List1B","black","man","","","","null","","","","","","","","",""
"null","is kissing","","html-keyboard-response","52","230910","0.0-13.0-2.5","51007","List1B","black","man","","","","null","","","","","","","","",""
"6953.099999964237","","","survey-text","53","237864","0.0-13.0-3.5","51007","List1B","black","man","","","","","{""Q0"":""Fred is kissing Beth""}","<img src=""stim_listB/kiss1.gif""style=""height:400px;""></stim_listB>","is kissing","","","","","",""
"null","<div style=""font-size:60px;"">+</div>","","html-keyboard-response","54","238365","0.0-13.0-0.6","51007","List1B","black","man","","","","null","","","","","","","","",""
"null","<img src=""stim_listB/shout5.gif""style=""height:400px;""></stim_listB>","","html-keyboard-response","55","240367","0.0-13.0-1.6","51007","List1B","black","man","","","","null","","","","","","","","",""
"null","is shouting at","","html-keyboard-response","56","242369","0.0-13.0-2.6","51007","List1B","black","man","","","","null","","","","","","","","",""
"5364.399999976158","","","survey-text","57","247734","0.0-13.0-3.6","51007","List1B","black","man","","","","","{""Q0"":""Luke is shouting at Fred""}","<img src=""stim_listB/shout5.gif""style=""height:400px;""></stim_listB>","is shouting at","","","","","",""
"null","<div style=""font-size:60px;"">+</div>","","html-keyboard-response","58","248235","0.0-13.0-0.7","51007","List1B","black","man","","","","null","","","","","","","","",""
"null","<img src=""stim_listB/shout6.gif""style=""height:400px;""></stim_listB>","","html-keyboard-response","59","250237","0.0-13.0-1.7","51007","List1B","black","man","","","","null","","","","","","","","",""
"null","is being shouted at by","","html-keyboard-response","60","252237","0.0-13.0-2.7","51007","List1B","black","man","","","","null","","","","","","","","",""
"8477.5","","","survey-text","61","260716","0.0-13.0-3.7","51007","List1B","black","man","","","","","{""Q0"":""Mike is being shouted at by Dave""}","<img src=""stim_listB/shout6.gif""style=""height:400px;""></stim_listB>","is being shouted at by","","","","","",""
"null","<div style=""font-size:60px;"">+</div>","","html-keyboard-response","62","261217","0.0-13.0-0.8","51007","List1B","black","man","","","","null","","","","","","","","",""
"null","<img src=""stim_listB/copy7.gif""style=""height:400px;""></stim_listB>","","html-keyboard-response","63","263218","0.0-13.0-1.8","51007","List1B","black","man","","","","null","","","","","","","","",""
"null","is copying","","html-keyboard-response","64","265219","0.0-13.0-2.8","51007","List1B","black","man","","","","null","","","","","","","","",""
"34224","","","survey-text","65","299444","0.0-13.0-3.8","51007","List1B","black","man","","","","","{""Q0"":""Ruth is pleading to Kate""}","<img src=""stim_listB/copy7.gif""style=""height:400px;""></stim_listB>","is copying","","","","","",""
"null","<div style=""font-size:60px;"">+</div>","","html-keyboard-response","66","299946","0.0-13.0-0.9","51007","List1B","black","man","","","","null","","","","","","","","",""
"null","<img src=""stim_listB/shout3.gif""style=""height:400px;""></stim_listB>","","html-keyboard-response","67","301947","0.0-13.0-1.9","51007","List1B","black","man","","","","null","","","","","","","","",""
"null","is shouting at","","html-keyboard-response","68","303950","0.0-13.0-2.9","51007","List1B","black","man","","","","null","","","","","","","","",""
"9196.899999976158","","","survey-text","69","313149","0.0-13.0-3.9","51007","List1B","black","man","","","","","{""Q0"":""Luke is shouting at Ruth""}","<img src=""stim_listB/shout3.gif""style=""height:400px;""></stim_listB>","is shouting at","","","","","",""
"null","<div style=""font-size:60px;"">+</div>","","html-keyboard-response","70","313649","0.0-13.0-0.10","51007","List1B","black","man","","","","null","","","","","","","","",""
"null","<img src=""stim_listB/touch7.gif""style=""height:400px;""></stim_listB>","","html-keyboard-response","71","315652","0.0-13.0-1.10","51007","List1B","black","man","","","","null","","","","","","","","",""
"null","is touching","","html-keyboard-response","72","318150","0.0-13.0-2.10","51007","List1B","black","man","","","","null","","","","","","","","",""
"6852.899999976158","","","survey-text","73","325004","0.0-13.0-3.10","51007","List1B","black","man","","","","","{""Q0"":""Jane is touching Kate""}","<img src=""stim_listB/touch7.gif""style=""height:400px;""></stim_listB>","is touching","","","","","",""
"null","<div style=""font-size:60px;"">+</div>","","html-keyboard-response","74","325505","0.0-13.0-0.11","51007","List1B","black","man","","","","null","","","","","","","","",""
"null","<img src=""stim_listB/greet2.gif""style=""height:400px;""></stim_listB>","","html-keyboard-response","75","327507","0.0-13.0-1.11","51007","List1B","black","man","","","","null","","","","","","","","",""
"null","is being greeted by","","html-keyboard-response","76","329508","0.0-13.0-2.11","51007","List1B","black","man","","","","null","","","","","","","","",""
"20271","","","survey-text","77","349780","0.0-13.0-3.11","51007","List1B","black","man","","","","","{""Q0"":""Fred is being greeted by Jane""}","<img src=""stim_listB/greet2.gif""style=""height:400px;""></stim_listB>","is being greeted by","","","","","",""
"null","<div style=""font-size:60px;"">+</div>","","html-keyboard-response","78","350282","0.0-13.0-0.12","51007","List1B","black","man","","","","null","","","","","","","","",""
"null","<img src=""stim_listB/challenge3.gif""style=""height:400px;""></stim_listB>","","html-keyboard-response","79","352284","0.0-13.0-1.12","51007","List1B","black","man","","","","null","","","","","","","","",""
"null","is challenging","","html-keyboard-response","80","354284","0.0-13.0-2.12","51007","List1B","black","man","","","","null","","","","","","","","",""
"11765.100000023842","","","survey-text","81","366050","0.0-13.0-3.12","51007","List1B","black","man","","","","","{""Q0"":""Dave is challenging Ruth""}","<img src=""stim_listB/challenge3.gif""style=""height:400px;""></stim_listB>","is challenging","","","","","",""
"null","<div style=""font-size:60px;"">+</div>","","html-keyboard-response","82","366553","0.0-13.0-0.13","51007","List1B","black","man","","","","null","","","","","","","","",""
"null","<img src=""stim_listB/look1.gif""style=""height:400px;""></stim_listB>","","html-keyboard-response","83","368554","0.0-13.0-1.13","51007","List1B","black","man","","","","null","","","","","","","","",""
"null","is looking at","","html-keyboard-response","84","370555","0.0-13.0-2.13","51007","List1B","black","man","","","","null","","","","","","","","",""
"9532","","","survey-text","85","380088","0.0-13.0-3.13","51007","List1B","black","man","","","","","{""Q0"":""Fred is looking at Beth""}","<img src=""stim_listB/look1.gif""style=""height:400px;""></stim_listB>","is looking at","","","","","",""
"null","<div style=""font-size:60px;"">+</div>","","html-keyboard-response","86","380590","0.0-13.0-0.14","51007","List1B","black","man","","","","null","","","","","","","","",""
"null","<img src=""stim_listB/look8.gif""style=""height:400px;""></stim_listB>","","html-keyboard-response","87","382591","0.0-13.0-1.14","51007","List1B","black","man","","","","null","","","","","","","","",""
"null","is being looked at by","","html-keyboard-response","88","384592","0.0-13.0-2.14","51007","List1B","black","man","","","","null","","","","","","","","",""
"12762.900000035763","","","survey-text","89","397356","0.0-13.0-3.14","51007","List1B","black","man","","","","","{""Q0"":""Jane is being looked at by Kate""}","<img src=""stim_listB/look8.gif""style=""height:400px;""></stim_listB>","is being looked at by","","","","","",""
"null","<div style=""font-size:60px;"">+</div>","","html-keyboard-response","90","397857","0.0-13.0-0.15","51007","List1B","black","man","","","","null","","","","","","","","",""
"null","<img src=""stim_listB/touch2.gif""style=""height:400px;""></stim_listB>","","html-keyboard-response","91","399859","0.0-13.0-1.15","51007","List1B","black","man","","","","null","","","","","","","","",""
"null","is being touched by","","html-keyboard-response","92","401861","0.0-13.0-2.15","51007","List1B","black","man","","","","null","","","","","","","","",""
"10168.199999988079","","","survey-text","93","412030","0.0-13.0-3.15","51007","List1B","black","man","","","","","{""Q0"":""Beth is being touched by Fred""}","<img src=""stim_listB/touch2.gif""style=""height:400px;""></stim_listB>","is being touched by","","","","","",""
"null","<div style=""font-size:60px;"">+</div>","","html-keyboard-response","94","412531","0.0-13.0-0.16","51007","List1B","black","man","","","","null","","","","","","","","",""
"null","<img src=""stim_listB/touch4.gif""style=""height:400px;""></stim_listB>","","html-keyboard-response","95","414533","0.0-13.0-1.16","51007","List1B","black","man","","","","null","","","","","","","","",""
"null","is being touched by","","html-keyboard-response","96","416535","0.0-13.0-2.16","51007","List1B","black","man","","","","null","","","","","","","","",""
"17116.30000001192","","","survey-text","97","433652","0.0-13.0-3.16","51007","List1B","black","man","","","","","{""Q0"":""Luke is being touched by Ruth""}","<img src=""stim_listB/touch4.gif""style=""height:400px;""></stim_listB>","is being touched by","","","","","",""
"null","<div style=""font-size:60px;"">+</div>","","html-keyboard-response","98","434154","0.0-13.0-0.17","51007","List1B","black","man","","","","null","","","","","","","","",""
"null","<img src=""stim_listB/hug1.gif""style=""height:400px;""></stim_listB>","","html-keyboard-response","99","436156","0.0-13.0-1.17","51007","List1B","black","man","","","","null","","","","","","","","",""
"null","is hugging","","html-keyboard-response","100","438157","0.0-13.0-2.17","51007","List1B","black","man","","","","null","","","","","","","","",""
"7917.800000011921","","","survey-text","101","446076","0.0-13.0-3.17","51007","List1B","black","man","","","","","{""Q0"":""Fred is hugging Beth""}","<img src=""stim_listB/hug1.gif""style=""height:400px;""></stim_listB>","is hugging","","","","","",""
"null","<div style=""font-size:60px;"">+</div>","","html-keyboard-response","102","446577","0.0-13.0-0.18","51007","List1B","black","man","","","","null","","","","","","","","",""
"null","<img src=""stim_listB/hug8.gif""style=""height:400px;""></stim_listB>","","html-keyboard-response","103","448580","0.0-13.0-1.18","51007","List1B","black","man","","","","null","","","","","","","","",""
"null","is being hugged by","","html-keyboard-response","104","450582","0.0-13.0-2.18","51007","List1B","black","man","","","","null","","","","","","","","",""
"11743.199999988079","","","survey-text","105","462326","0.0-13.0-3.18","51007","List1B","black","man","","","","","{""Q0"":""Kate is being hugged by Jane""}","<img src=""stim_listB/hug8.gif""style=""height:400px;""></stim_listB>","is being hugged by","","","","","",""
"null","<div style=""font-size:60px;"">+</div>","","html-keyboard-response","106","462828","0.0-13.0-0.19","51007","List1B","black","man","","","","null","","","","","","","","",""
"null","<img src=""stim_listB/hug6.gif""style=""height:400px;""></stim_listB>","","html-keyboard-response","107","464829","0.0-13.0-1.19","51007","List1B","black","man","","","","null","","","","","","","","",""
"null","is being hugged by","","html-keyboard-response","108","466831","0.0-13.0-2.19","51007","List1B","black","man","","","","null","","","","","","","","",""
"14516","","","survey-text","109","481348","0.0-13.0-3.19","51007","List1B","black","man","","","","","{""Q0"":""Mike is being hugged by Dave""}","<img src=""stim_listB/hug6.gif""style=""height:400px;""></stim_listB>","is being hugged by","","","","","",""
"9310.899999976158","<img src='img/portrait_matrix_list1.jpg' style='width:900px;height:500px;''></img><p>If you have memorised all the portraits and names and are ready to start, press Continue.</p><p><strong>Please note: Your memory of these faces will be tested 4 times during this experiment.</strong></p>","0","html-button-response","110","490660","0.0-14.0-0.0","51007","List1B","black","man","","","","","","","","","","","","",""
"4778.800000011921","<img src=""portrait/BM2.jpg""style=""height:400px;""></img>","5","html-button-response","111","496440","0.0-14.0-1.0","51007","List1B","black","man","","true","5","","","","","","","","","",""
"null","CORRECT","","html-keyboard-response","112","497944","0.0-14.0-2.0-0.0","51007","List1B","black","man","","","","null","","","","","","","","",""
"3227.2999999523163","<img src=""portrait/BW2.jpg""style=""height:400px;""></img>","2","html-button-response","113","501172","0.0-14.0-4.0","51007","List1B","black","man","","true","2","","","","","","","","","",""
"null","CORRECT","","html-keyboard-response","114","502674","0.0-14.0-5.0-0.0","51007","List1B","black","man","","","","null","","","","","","","","",""
"3263.399999976158","<img src=""portrait/WW2.jpg""style=""height:400px;""></img>","3","html-button-response","115","505938","0.0-14.0-7.0","51007","List1B","black","man","","true","3","","","","","","","","","",""
"null","CORRECT","","html-keyboard-response","116","507440","0.0-14.0-8.0-0.0","51007","List1B","black","man","","","","null","","","","","","","","",""
"1882.7999999523163","<img src=""portrait/WM1.jpg""style=""height:400px;""></img>","6","html-button-response","117","509324","0.0-14.0-10.0","51007","List1B","black","man","","true","6","","","","","","","","","",""
"null","CORRECT","","html-keyboard-response","118","510825","0.0-14.0-11.0-0.0","51007","List1B","black","man","","","","null","","","","","","","","",""
"1509.5","<img src=""portrait/WM2.jpg""style=""height:400px;""></img>","7","html-button-response","119","512336","0.0-14.0-13.0","51007","List1B","black","man","","true","7","","","","","","","","","",""
"null","CORRECT","","html-keyboard-response","120","513837","0.0-14.0-14.0-0.0","51007","List1B","black","man","","","","null","","","","","","","","",""
"2317.599999964237","<img src=""portrait/WW1.jpg""style=""height:400px;""></img>","1","html-button-response","121","516156","0.0-14.0-16.0","51007","List1B","black","man","","true","1","","","","","","","","","",""
"null","CORRECT","","html-keyboard-response","122","517659","0.0-14.0-17.0-0.0","51007","List1B","black","man","","","","null","","","","","","","","",""
"1849.9000000357628","<img src=""portrait/BM1.jpg""style=""height:400px;""></img>","4","html-button-response","123","519510","0.0-14.0-19.0","51007","List1B","black","man","","true","4","","","","","","","","","",""
"null","CORRECT","","html-keyboard-response","124","521012","0.0-14.0-20.0-0.0","51007","List1B","black","man","","","","null","","","","","","","","",""
"2144.800000011921","<img src=""portrait/BW1.jpg""style=""height:400px;""></img>","0","html-button-response","125","523158","0.0-14.0-22.0","51007","List1B","black","man","","true","0","","","","","","","","","",""
"null","CORRECT","","html-keyboard-response","126","524660","0.0-14.0-23.0-0.0","51007","List1B","black","man","","","","null","","","","","","","","",""
"1140.0999999642372","<p>You got 8 out of 8 right first time. Press Continue.</p>","0","html-button-response","127","525801","0.0-14.0-25.0","51007","List1B","black","man","","","","","","","","","","","","",""
"null","<div style=""font-size:60px;"">+</div>","","html-keyboard-response","128","527304","0.0-15.0-0.0","51007","List1B","black","man","","","","null","","","","","","","","",""
"null","<img src=""stim_listB/challenge7.gif""style=""height:400px;""></stim_listB>","","html-keyboard-response","129","529305","0.0-15.0-1.0","51007","List1B","black","man","","","","null","","","","","","","","",""
"null","is challenging","","html-keyboard-response","130","531306","0.0-15.0-2.0","51007","List1B","black","man","","","","null","","","","","","","","",""
"11412.100000023842","","","survey-text","131","542720","0.0-15.0-3.0","51007","List1B","black","man","","","","","{""Q0"":""Ruth is challenging Kate""}","<img src=""stim_listB/challenge7.gif""style=""height:400px;""></stim_listB>","is challenging","","","","","",""
"null","<div style=""font-size:60px;"">+</div>","","html-keyboard-response","132","543222","0.0-15.0-0.1","51007","List1B","black","man","","","","null","","","","","","","","",""
"null","<img src=""stim_listB/shout1.gif""style=""height:400px;""></stim_listB>","","html-keyboard-response","133","545225","0.0-15.0-1.1","51007","List1B","black","man","","","","null","","","","","","","","",""
"null","is shouting at","","html-keyboard-response","134","547226","0.0-15.0-2.1","51007","List1B","black","man","","","","null","","","","","","","","",""
"11287.100000023842","","","survey-text","135","558514","0.0-15.0-3.1","51007","List1B","black","man","","","","","{""Q0"":""beth is shouting at fred""}","<img src=""stim_listB/shout1.gif""style=""height:400px;""></stim_listB>","is shouting at","","","","","",""
"null","<div style=""font-size:60px;"">+</div>","","html-keyboard-response","136","559015","0.0-15.0-0.2","51007","List1B","black","man","","","","null","","","","","","","","",""
"null","<img src=""stim_listB/copy2.gif""style=""height:400px;""></stim_listB>","","html-keyboard-response","137","561016","0.0-15.0-1.2","51007","List1B","black","man","","","","null","","","","","","","","",""
"null","is being copied by","","html-keyboard-response","138","563017","0.0-15.0-2.2","51007","List1B","black","man","","","","null","","","","","","","","",""
"10966","","","survey-text","139","573984","0.0-15.0-3.2","51007","List1B","black","man","","","","","{""Q0"":""fred is being copied by kate""}","<img src=""stim_listB/copy2.gif""style=""height:400px;""></stim_listB>","is being copied by","","","","","",""
"null","<div style=""font-size:60px;"">+</div>","","html-keyboard-response","140","574485","0.0-15.0-0.3","51007","List1B","black","man","","","","null","","","","","","","","",""
"null","<img src=""stim_listB/shout7.gif""style=""height:400px;""></stim_listB>","","html-keyboard-response","141","576487","0.0-15.0-1.3","51007","List1B","black","man","","","","null","","","","","","","","",""
"null","is shouting at","","html-keyboard-response","142","578488","0.0-15.0-2.3","51007","List1B","black","man","","","","null","","","","","","","","",""
"10660.900000035763","","","survey-text","143","589150","0.0-15.0-3.3","51007","List1B","black","man","","","","","{""Q0"":""beth is shouting at ruth""}","<img src=""stim_listB/shout7.gif""style=""height:400px;""></stim_listB>","is shouting at","","","","","",""
"null","<div style=""font-size:60px;"">+</div>","","html-keyboard-response","144","589652","0.0-15.0-0.4","51007","List1B","black","man","","","","null","","","","","","","","",""
"null","<img src=""stim_listB/seduce2.gif""style=""height:400px;""></stim_listB>","","html-keyboard-response","145","591653","0.0-15.0-1.4","51007","List1B","black","man","","","","null","","","","","","","","",""
"null","is being seduced by","","html-keyboard-response","146","593654","0.0-15.0-2.4","51007","List1B","black","man","","","","null","","","","","","","","",""
"13696.899999976158","","","survey-text","147","607352","0.0-15.0-3.4","51007","List1B","black","man","","","","","{""Q0"":""mike is being seduced by beth""}","<img src=""stim_listB/seduce2.gif""style=""height:400px;""></stim_listB>","is being seduced by","","","","","",""
"null","<div style=""font-size:60px;"">+</div>","","html-keyboard-response","148","607853","0.0-15.0-0.5","51007","List1B","black","man","","","","null","","","","","","","","",""
"null","<img src=""stim_listB/touch5.gif""style=""height:400px;""></stim_listB>","","html-keyboard-response","149","609854","0.0-15.0-1.5","51007","List1B","black","man","","","","null","","","","","","","","",""
"null","is touching","","html-keyboard-response","150","611854","0.0-15.0-2.5","51007","List1B","black","man","","","","null","","","","","","","","",""
"5379.100000023842","","","survey-text","151","617234","0.0-15.0-3.5","51007","List1B","black","man","","","","","{""Q0"":""Dave is touching Mike""}","<img src=""stim_listB/touch5.gif""style=""height:400px;""></stim_listB>","is touching","","","","","",""
"null","<div style=""font-size:60px;"">+</div>","","html-keyboard-response","152","617735","0.0-15.0-0.6","51007","List1B","black","man","","","","null","","","","","","","","",""
"null","<img src=""stim_listB/hug4.gif""style=""height:400px;""></stim_listB>","","html-keyboard-response","153","619736","0.0-15.0-1.6","51007","List1B","black","man","","","","null","","","","","","","","",""
"null","is being hugged by","","html-keyboard-response","154","621737","0.0-15.0-2.6","51007","List1B","black","man","","","","null","","","","","","","","",""
"9499.699999988079","","","survey-text","155","631238","0.0-15.0-3.6","51007","List1B","black","man","","","","","{""Q0"":""Dave is being hugged by jane""}","<img src=""stim_listB/hug4.gif""style=""height:400px;""></stim_listB>","is being hugged by","","","","","",""
"null","<div style=""font-size:60px;"">+</div>","","html-keyboard-response","156","631738","0.0-15.0-0.7","51007","List1B","black","man","","","","null","","","","","","","","",""
"null","<img src=""stim_listB/touch1.gif""style=""height:400px;""></stim_listB>","","html-keyboard-response","157","633740","0.0-15.0-1.7","51007","List1B","black","man","","","","null","","","","","","","","",""
"null","is touching","","html-keyboard-response","158","635742","0.0-15.0-2.7","51007","List1B","black","man","","","","null","","","","","","","","",""
"7215.899999976158","","","survey-text","159","642959","0.0-15.0-3.7","51007","List1B","black","man","","","","","{""Q0"":""Kate is touching mike""}","<img src=""stim_listB/touch1.gif""style=""height:400px;""></stim_listB>","is touching","","","","","",""
"null","<div style=""font-size:60px;"">+</div>","","html-keyboard-response","160","643461","0.0-15.0-0.8","51007","List1B","black","man","","","","null","","","","","","","","",""
"null","<img src=""stim_listB/oppose8.gif""style=""height:400px;""></stim_listB>","","html-keyboard-response","161","645463","0.0-15.0-1.8","51007","List1B","black","man","","","","null","","","","","","","","",""
"null","is being opposed by","","html-keyboard-response","162","647464","0.0-15.0-2.8","51007","List1B","black","man","","","","null","","","","","","","","",""
"17983.899999976158","","","survey-text","163","665449","0.0-15.0-3.8","51007","List1B","black","man","","","","","{""Q0"":""Ruth is being opposed by Kate""}","<img src=""stim_listB/oppose8.gif""style=""height:400px;""></stim_listB>","is being opposed by","","","","","",""
"null","<div style=""font-size:60px;"">+</div>","","html-keyboard-response","164","665951","0.0-15.0-0.9","51007","List1B","black","man","","","","null","","","","","","","","",""
"null","<img src=""stim_listB/greet6.gif""style=""height:400px;""></stim_listB>","","html-keyboard-response","165","667952","0.0-15.0-1.9","51007","List1B","black","man","","","","null","","","","","","","","",""
"null","is being greeted by","","html-keyboard-response","166","669953","0.0-15.0-2.9","51007","List1B","black","man","","","","null","","","","","","","","",""
"7808.299999952316","","","survey-text","167","677762","0.0-15.0-3.9","51007","List1B","black","man","","","","","{""Q0"":""Fred is being greeted by Dave""}","<img src=""stim_listB/greet6.gif""style=""height:400px;""></stim_listB>","is being greeted by","","","","","",""
"null","<div style=""font-size:60px;"">+</div>","","html-keyboard-response","168","678263","0.0-15.0-0.10","51007","List1B","black","man","","","","null","","","","","","","","",""
"null","<img src=""stim_listB/oppose7.gif""style=""height:400px;""></stim_listB>","","html-keyboard-response","169","680264","0.0-15.0-1.10","51007","List1B","black","man","","","","null","","","","","","","","",""
"null","is opposing","","html-keyboard-response","170","682265","0.0-15.0-2.10","51007","List1B","black","man","","","","null","","","","","","","","",""
"10561.5","","","survey-text","171","692828","0.0-15.0-3.10","51007","List1B","black","man","","","","","{""Q0"":""Jane is opposing kate""}","<img src=""stim_listB/oppose7.gif""style=""height:400px;""></stim_listB>","is opposing","","","","","",""
"null","<div style=""font-size:60px;"">+</div>","","html-keyboard-response","172","693329","0.0-15.0-0.11","51007","List1B","black","man","","","","null","","","","","","","","",""
"null","<img src=""stim_listB/seduce4.gif""style=""height:400px;""></stim_listB>","","html-keyboard-response","173","695330","0.0-15.0-1.11","51007","List1B","black","man","","","","null","","","","","","","","",""
"null","is being seduced by","","html-keyboard-response","174","697331","0.0-15.0-2.11","51007","List1B","black","man","","","","null","","","","","","","","",""
"10216.699999988079","","","survey-text","175","707549","0.0-15.0-3.11","51007","List1B","black","man","","","","","{""Q0"":""Ruth is being seduced by dave""}","<img src=""stim_listB/seduce4.gif""style=""height:400px;""></stim_listB>","is being seduced by","","","","","",""
"null","<div style=""font-size:60px;"">+</div>","","html-keyboard-response","176","708050","0.0-15.0-0.12","51007","List1B","black","man","","","","null","","","","","","","","",""
"null","<img src=""stim_listB/challenge4.gif""style=""height:400px;""></stim_listB>","","html-keyboard-response","177","710052","0.0-15.0-1.12","51007","List1B","black","man","","","","null","","","","","","","","",""
"null","is being challenged by","","html-keyboard-response","178","712053","0.0-15.0-2.12","51007","List1B","black","man","","","","null","","","","","","","","",""
"7505.800000011921","","","survey-text","179","719560","0.0-15.0-3.12","51007","List1B","black","man","","","","","{""Q0"":""Luke is being challenged by Jane""}","<img src=""stim_listB/challenge4.gif""style=""height:400px;""></stim_listB>","is being challenged by","","","","","",""
"null","<div style=""font-size:60px;"">+</div>","","html-keyboard-response","180","720061","0.0-15.0-0.13","51007","List1B","black","man","","","","null","","","","","","","","",""
"null","<img src=""stim_listB/oppose6.gif""style=""height:400px;""></stim_listB>","","html-keyboard-response","181","722063","0.0-15.0-1.13","51007","List1B","black","man","","","","null","","","","","","","","",""
"null","is being opposed by","","html-keyboard-response","182","724064","0.0-15.0-2.13","51007","List1B","black","man","","","","null","","","","","","","","",""
"4371.900000035763","","","survey-text","183","728437","0.0-15.0-3.13","51007","List1B","black","man","","","","","{""Q0"":""Fred is being opposed by luke""}","<img src=""stim_listB/oppose6.gif""style=""height:400px;""></stim_listB>","is being opposed by","","","","","",""
"null","<div style=""font-size:60px;"">+</div>","","html-keyboard-response","184","728937","0.0-15.0-0.14","51007","List1B","black","man","","","","null","","","","","","","","",""
"null","<img src=""stim_listB/touch8.gif""style=""height:400px;""></stim_listB>","","html-keyboard-response","185","730939","0.0-15.0-1.14","51007","List1B","black","man","","","","null","","","","","","","","",""
"null","is being touched by","","html-keyboard-response","186","732941","0.0-15.0-2.14","51007","List1B","black","man","","","","null","","","","","","","","",""
"4760","","","survey-text","187","737702","0.0-15.0-3.14","51007","List1B","black","man","","","","","{""Q0"":""Ruth is being touched by Beth""}","<img src=""stim_listB/touch8.gif""style=""height:400px;""></stim_listB>","is being touched by","","","","","",""
"null","<div style=""font-size:60px;"">+</div>","","html-keyboard-response","188","738204","0.0-15.0-0.15","51007","List1B","black","man","","","","null","","","","","","","","",""
"null","<img src=""stim_listB/shout4.gif""style=""height:400px;""></stim_listB>","","html-keyboard-response","189","740206","0.0-15.0-1.15","51007","List1B","black","man","","","","null","","","","","","","","",""
"null","is being shouted at by","","html-keyboard-response","190","742206","0.0-15.0-2.15","51007","List1B","black","man","","","","null","","","","","","","","",""
"3394","","","survey-text","191","745601","0.0-15.0-3.15","51007","List1B","black","man","","","","","{""Q0"":""Jane is being shouted at by dave""}","<img src=""stim_listB/shout4.gif""style=""height:400px;""></stim_listB>","is being shouted at by","","","","","",""
"null","<div style=""font-size:60px;"">+</div>","","html-keyboard-response","192","746102","0.0-15.0-0.16","51007","List1B","black","man","","","","null","","","","","","","","",""
"null","<img src=""stim_listB/kiss3.gif""style=""height:400px;""></stim_listB>","","html-keyboard-response","193","748104","0.0-15.0-1.16","51007","List1B","black","man","","","","null","","","","","","","","",""
"null","is kissing","","html-keyboard-response","194","750104","0.0-15.0-2.16","51007","List1B","black","man","","","","null","","","","","","","","",""
"5556.600000023842","","","survey-text","195","755662","0.0-15.0-3.16","51007","List1B","black","man","","","","","{""Q0"":""Luke is kissing ruth""}","<img src=""stim_listB/kiss3.gif""style=""height:400px;""></stim_listB>","is kissing","","","","","",""
"null","<div style=""font-size:60px;"">+</div>","","html-keyboard-response","196","756163","0.0-15.0-0.17","51007","List1B","black","man","","","","null","","","","","","","","",""
"null","<img src=""stim_listB/copy8.gif""style=""height:400px;""></stim_listB>","","html-keyboard-response","197","758165","0.0-15.0-1.17","51007","List1B","black","man","","","","null","","","","","","","","",""
"null","is being copied by","","html-keyboard-response","198","760166","0.0-15.0-2.17","51007","List1B","black","man","","","","null","","","","","","","","",""
"5215.100000023842","","","survey-text","199","765382","0.0-15.0-3.17","51007","List1B","black","man","","","","","{""Q0"":""Beth is being copied by Jane""}","<img src=""stim_listB/copy8.gif""style=""height:400px;""></stim_listB>","is being copied by","","","","","",""
"null","<div style=""font-size:60px;"">+</div>","","html-keyboard-response","200","765884","0.0-15.0-0.18","51007","List1B","black","man","","","","null","","","","","","","","",""
"null","<img src=""stim_listB/seduce8.gif""style=""height:400px;""></stim_listB>","","html-keyboard-response","201","767885","0.0-15.0-1.18","51007","List1B","black","man","","","","null","","","","","","","","",""
"null","is being seduced by","","html-keyboard-response","202","769886","0.0-15.0-2.18","51007","List1B","black","man","","","","null","","","","","","","","",""
"14346.100000023842","","","survey-text","203","784233","0.0-15.0-3.18","51007","List1B","black","man","","","","","{""Q0"":""Kate is being seduced by ruth""}","<img src=""stim_listB/seduce8.gif""style=""height:400px;""></stim_listB>","is being seduced by","","","","","",""
"null","<div style=""font-size:60px;"">+</div>","","html-keyboard-response","204","784734","0.0-15.0-0.19","51007","List1B","black","man","","","","null","","","","","","","","",""
"null","<img src=""stim_listB/hug3.gif""style=""height:400px;""></stim_listB>","","html-keyboard-response","205","786736","0.0-15.0-1.19","51007","List1B","black","man","","","","null","","","","","","","","",""
"null","is hugging","","html-keyboard-response","206","788737","0.0-15.0-2.19","51007","List1B","black","man","","","","null","","","","","","","","",""
"5779","","","survey-text","207","794517","0.0-15.0-3.19","51007","List1B","black","man","","","","","{""Q0"":""Ruth is hugging Luke""}","<img src=""stim_listB/hug3.gif""style=""height:400px;""></stim_listB>","is hugging","","","","","",""
"2184.099999964237","<img src='img/portrait_matrix_list1.jpg' style='width:900px;height:500px;''></img><p>If you have memorised all the portraits and names and are ready to start, press Continue.</p><p><strong>Please note: Your memory of these faces will be tested 4 times during this experiment.</strong></p>","0","html-button-response","208","796702","0.0-16.0-0.0","51007","List1B","black","man","","","","","","","","","","","","",""
"3430.300000011921","<img src=""portrait/WW1.jpg""style=""height:400px;""></img>","1","html-button-response","209","801134","0.0-16.0-1.0","51007","List1B","black","man","","true","1","","","","","","","","","",""
"null","CORRECT","","html-keyboard-response","210","802636","0.0-16.0-2.0-0.0","51007","List1B","black","man","","","","null","","","","","","","","",""
"1735","<img src=""portrait/BM2.jpg""style=""height:400px;""></img>","5","html-button-response","211","804372","0.0-16.0-4.0","51007","List1B","black","man","","true","5","","","","","","","","","",""
"null","CORRECT","","html-keyboard-response","212","805874","0.0-16.0-5.0-0.0","51007","List1B","black","man","","","","null","","","","","","","","",""
"3180.099999964237","<img src=""portrait/BW1.jpg""style=""height:400px;""></img>","0","html-button-response","213","809054","0.0-16.0-7.0","51007","List1B","black","man","","true","0","","","","","","","","","",""
"null","CORRECT","","html-keyboard-response","214","810557","0.0-16.0-8.0-0.0","51007","List1B","black","man","","","","null","","","","","","","","",""
"1489","<img src=""portrait/WM1.jpg""style=""height:400px;""></img>","6","html-button-response","215","812046","0.0-16.0-10.0","51007","List1B","black","man","","true","6","","","","","","","","","",""
"null","CORRECT","","html-keyboard-response","216","813547","0.0-16.0-11.0-0.0","51007","List1B","black","man","","","","null","","","","","","","","",""
"1420.3999999761581","<img src=""portrait/BM1.jpg""style=""height:400px;""></img>","4","html-button-response","217","814968","0.0-16.0-13.0","51007","List1B","black","man","","true","4","","","","","","","","","",""
"null","CORRECT","","html-keyboard-response","218","816470","0.0-16.0-14.0-0.0","51007","List1B","black","man","","","","null","","","","","","","","",""
"2728.899999976158","<img src=""portrait/WW2.jpg""style=""height:400px;""></img>","3","html-button-response","219","819200","0.0-16.0-16.0","51007","List1B","black","man","","true","3","","","","","","","","","",""
"null","CORRECT","","html-keyboard-response","220","820701","0.0-16.0-17.0-0.0","51007","List1B","black","man","","","","null","","","","","","","","",""
"1055.9000000357628","<img src=""portrait/BW2.jpg""style=""height:400px;""></img>","2","html-button-response","221","821758","0.0-16.0-19.0","51007","List1B","black","man","","true","2","","","","","","","","","",""
"null","CORRECT","","html-keyboard-response","222","823261","0.0-16.0-20.0-0.0","51007","List1B","black","man","","","","null","","","","","","","","",""
"1650.7999999523163","<img src=""portrait/WM2.jpg""style=""height:400px;""></img>","7","html-button-response","223","824912","0.0-16.0-22.0","51007","List1B","black","man","","true","7","","","","","","","","","",""
"null","CORRECT","","html-keyboard-response","224","826415","0.0-16.0-23.0-0.0","51007","List1B","black","man","","","","null","","","","","","","","",""
"820.8999999761581","<p>You got 8 out of 8 right first time. Press Continue.</p>","0","html-button-response","225","827236","0.0-16.0-25.0","51007","List1B","black","man","","","","","","","","","","","","",""
"null","<div style=""font-size:60px;"">+</div>","","html-keyboard-response","226","828739","0.0-17.0-0.0","51007","List1B","black","man","","","","null","","","","","","","","",""
"null","<img src=""stim_listB/challenge1.gif""style=""height:400px;""></stim_listB>","","html-keyboard-response","227","830741","0.0-17.0-1.0","51007","List1B","black","man","","","","null","","","","","","","","",""
"null","is challenging","","html-keyboard-response","228","832742","0.0-17.0-2.0","51007","List1B","black","man","","","","null","","","","","","","","",""
"4121.800000011921","","","survey-text","229","836865","0.0-17.0-3.0","51007","List1B","black","man","","","","","{""Q0"":""Mike is challenging beth""}","<img src=""stim_listB/challenge1.gif""style=""height:400px;""></stim_listB>","is challenging","","","","","",""
"null","<div style=""font-size:60px;"">+</div>","","html-keyboard-response","230","837366","0.0-17.0-0.1","51007","List1B","black","man","","","","null","","","","","","","","",""
"null","<img src=""stim_listB/touch6.gif""style=""height:400px;""></stim_listB>","","html-keyboard-response","231","839368","0.0-17.0-1.1","51007","List1B","black","man","","","","null","","","","","","","","",""
"null","is being touched by","","html-keyboard-response","232","841370","0.0-17.0-2.1","51007","List1B","black","man","","","","null","","","","","","","","",""
"3322.400000035763","","","survey-text","233","844693","0.0-17.0-3.1","51007","List1B","black","man","","","","","{""Q0"":""Fred is being touched by luke""}","<img src=""stim_listB/touch6.gif""style=""height:400px;""></stim_listB>","is being touched by","","","","","",""
"null","<div style=""font-size:60px;"">+</div>","","html-keyboard-response","234","845195","0.0-17.0-0.2","51007","List1B","black","man","","","","null","","","","","","","","",""
"null","<img src=""stim_listB/seduce7.gif""style=""height:400px;""></stim_listB>","","html-keyboard-response","235","847197","0.0-17.0-1.2","51007","List1B","black","man","","","","null","","","","","","","","",""
"null","is seducing","","html-keyboard-response","236","849197","0.0-17.0-2.2","51007","List1B","black","man","","","","null","","","","","","","","",""
"3049.899999976158","","","survey-text","237","852248","0.0-17.0-3.2","51007","List1B","black","man","","","","","{""Q0"":""Beth is seducing jane""}","<img src=""stim_listB/seduce7.gif""style=""height:400px;""></stim_listB>","is seducing","","","","","",""
"null","<div style=""font-size:60px;"">+</div>","","html-keyboard-response","238","852749","0.0-17.0-0.3","51007","List1B","black","man","","","","null","","","","","","","","",""
"null","<img src=""stim_listB/touch3.gif""style=""height:400px;""></stim_listB>","","html-keyboard-response","239","854751","0.0-17.0-1.3","51007","List1B","black","man","","","","null","","","","","","","","",""
"null","is touching","","html-keyboard-response","240","856753","0.0-17.0-2.3","51007","List1B","black","man","","","","null","","","","","","","","",""
"3110.300000011921","","","survey-text","241","859864","0.0-17.0-3.3","51007","List1B","black","man","","","","","{""Q0"":""Jane is touching dave""}","<img src=""stim_listB/touch3.gif""style=""height:400px;""></stim_listB>","is touching","","","","","",""
"null","<div style=""font-size:60px;"">+</div>","","html-keyboard-response","242","860366","0.0-17.0-0.4","51007","List1B","black","man","","","","null","","","","","","","","",""
"null","<img src=""stim_listB/greet4.gif""style=""height:400px;""></stim_listB>","","html-keyboard-response","243","862368","0.0-17.0-1.4","51007","List1B","black","man","","","","null","","","","","","","","",""
"null","is being greeted by","","html-keyboard-response","244","864369","0.0-17.0-2.4","51007","List1B","black","man","","","","null","","","","","","","","",""
"3566.199999988079","","","survey-text","245","867936","0.0-17.0-3.4","51007","List1B","black","man","","","","","{""Q0"":""Luke is being greeted by jane""}","<img src=""stim_listB/greet4.gif""style=""height:400px;""></stim_listB>","is being greeted by","","","","","",""
"null","<div style=""font-size:60px;"">+</div>","","html-keyboard-response","246","868438","0.0-17.0-0.5","51007","List1B","black","man","","","","null","","","","","","","","",""
"null","<img src=""stim_listB/greet8.gif""style=""height:400px;""></stim_listB>","","html-keyboard-response","247","870440","0.0-17.0-1.5","51007","List1B","black","man","","","","null","","","","","","","","",""
"null","is being greeted by","","html-keyboard-response","248","872442","0.0-17.0-2.5","51007","List1B","black","man","","","","null","","","","","","","","",""
"5336.599999964237","","","survey-text","249","877780","0.0-17.0-3.5","51007","List1B","black","man","","","","","{""Q0"":""Jane is being greeted by beth""}","<img src=""stim_listB/greet8.gif""style=""height:400px;""></stim_listB>","is being greeted by","","","","","",""
"null","<div style=""font-size:60px;"">+</div>","","html-keyboard-response","250","878281","0.0-17.0-0.6","51007","List1B","black","man","","","","null","","","","","","","","",""
"null","<img src=""stim_listB/copy6.gif""style=""height:400px;""></stim_listB>","","html-keyboard-response","251","880282","0.0-17.0-1.6","51007","List1B","black","man","","","","null","","","","","","","","",""
"null","is being copied by","","html-keyboard-response","252","882283","0.0-17.0-2.6","51007","List1B","black","man","","","","null","","","","","","","","",""
"3488.899999976158","","","survey-text","253","885773","0.0-17.0-3.6","51007","List1B","black","man","","","","","{""Q0"":""Fred is being copied by dave""}","<img src=""stim_listB/copy6.gif""style=""height:400px;""></stim_listB>","is being copied by","","","","","",""
"null","<div style=""font-size:60px;"">+</div>","","html-keyboard-response","254","886274","0.0-17.0-0.7","51007","List1B","black","man","","","","null","","","","","","","","",""
"null","<img src=""stim_listB/oppose4.gif""style=""height:400px;""></stim_listB>","","html-keyboard-response","255","888276","0.0-17.0-1.7","51007","List1B","black","man","","","","null","","","","","","","","",""
"null","is being opposed by","","html-keyboard-response","256","890277","0.0-17.0-2.7","51007","List1B","black","man","","","","null","","","","","","","","",""
"3397.7000000476837","","","survey-text","257","893676","0.0-17.0-3.7","51007","List1B","black","man","","","","","{""Q0"":""Ruth is being opposed by luke""}","<img src=""stim_listB/oppose4.gif""style=""height:400px;""></stim_listB>","is being opposed by","","","","","",""
"null","<div style=""font-size:60px;"">+</div>","","html-keyboard-response","258","894177","0.0-17.0-0.8","51007","List1B","black","man","","","","null","","","","","","","","",""
"null","<img src=""stim_listB/oppose3.gif""style=""height:400px;""></stim_listB>","","html-keyboard-response","259","896179","0.0-17.0-1.8","51007","List1B","black","man","","","","null","","","","","","","","",""
"null","is opposing","","html-keyboard-response","260","898180","0.0-17.0-2.8","51007","List1B","black","man","","","","null","","","","","","","","",""
"3138.300000011921","","","survey-text","261","901319","0.0-17.0-3.8","51007","List1B","black","man","","","","","{""Q0"":""Dave is opposing jane""}","<img src=""stim_listB/oppose3.gif""style=""height:400px;""></stim_listB>","is opposing","","","","","",""
"null","<div style=""font-size:60px;"">+</div>","","html-keyboard-response","262","901821","0.0-17.0-0.9","51007","List1B","black","man","","","","null","","","","","","","","",""
"null","<img src=""stim_listB/kiss4.gif""style=""height:400px;""></stim_listB>","","html-keyboard-response","263","903822","0.0-17.0-1.9","51007","List1B","black","man","","","","null","","","","","","","","",""
"null","is being kissed by","","html-keyboard-response","264","905823","0.0-17.0-2.9","51007","List1B","black","man","","","","null","","","","","","","","",""
"3055.699999988079","","","survey-text","265","908879","0.0-17.0-3.9","51007","List1B","black","man","","","","","{""Q0"":""Dave is being kissed by jane""}","<img src=""stim_listB/kiss4.gif""style=""height:400px;""></stim_listB>","is being kissed by","","","","","",""
"null","<div style=""font-size:60px;"">+</div>","","html-keyboard-response","266","909381","0.0-17.0-0.10","51007","List1B","black","man","","","","null","","","","","","","","",""
"null","<img src=""stim_listB/greet5.gif""style=""height:400px;""></stim_listB>","","html-keyboard-response","267","911383","0.0-17.0-1.10","51007","List1B","black","man","","","","null","","","","","","","","",""
"null","is greeting","","html-keyboard-response","268","913385","0.0-17.0-2.10","51007","List1B","black","man","","","","null","","","","","","","","",""
"2910.600000023842","","","survey-text","269","916296","0.0-17.0-3.10","51007","List1B","black","man","","","","","{""Q0"":""Mike is greeting luke""}","<img src=""stim_listB/greet5.gif""style=""height:400px;""></stim_listB>","is greeting","","","","","",""
"null","<div style=""font-size:60px;"">+</div>","","html-keyboard-response","270","916798","0.0-17.0-0.11","51007","List1B","black","man","","","","null","","","","","","","","",""
"null","<img src=""stim_listB/seduce6.gif""style=""height:400px;""></stim_listB>","","html-keyboard-response","271","918800","0.0-17.0-1.11","51007","List1B","black","man","","","","null","","","","","","","","",""
"null","is being seduced by","","html-keyboard-response","272","920802","0.0-17.0-2.11","51007","List1B","black","man","","","","null","","","","","","","","",""
"3577.199999988079","","","survey-text","273","924380","0.0-17.0-3.11","51007","List1B","black","man","","","","","{""Q0"":""Mike is being seduced by luke""}","<img src=""stim_listB/seduce6.gif""style=""height:400px;""></stim_listB>","is being seduced by","","","","","",""
"null","<div style=""font-size:60px;"">+</div>","","html-keyboard-response","274","924882","0.0-17.0-0.12","51007","List1B","black","man","","","","null","","","","","","","","",""
"null","<img src=""stim_listB/look4.gif""style=""height:400px;""></stim_listB>","","html-keyboard-response","275","926883","0.0-17.0-1.12","51007","List1B","black","man","","","","null","","","","","","","","",""
"null","is being looked at by","","html-keyboard-response","276","928884","0.0-17.0-2.12","51007","List1B","black","man","","","","null","","","","","","","","",""
"3291.899999976158","","","survey-text","277","932177","0.0-17.0-3.12","51007","List1B","black","man","","","","","{""Q0"":""Jane is being looked at by dave""}","<img src=""stim_listB/look4.gif""style=""height:400px;""></stim_listB>","is being looked at by","","","","","",""
"null","<div style=""font-size:60px;"">+</div>","","html-keyboard-response","278","932679","0.0-17.0-0.13","51007","List1B","black","man","","","","null","","","","","","","","",""
"null","<img src=""stim_listB/seduce1.gif""style=""height:400px;""></stim_listB>","","html-keyboard-response","279","934681","0.0-17.0-1.13","51007","List1B","black","man","","","","null","","","","","","","","",""
"null","is seducing","","html-keyboard-response","280","936682","0.0-17.0-2.13","51007","List1B","black","man","","","","null","","","","","","","","",""
"5283.100000023842","","","survey-text","281","941966","0.0-17.0-3.13","51007","List1B","black","man","","","","","{""Q0"":""Fred is seducing Kate""}","<img src=""stim_listB/seduce1.gif""style=""height:400px;""></stim_listB>","is seducing","","","","","",""
"null","<div style=""font-size:60px;"">+</div>","","html-keyboard-response","282","942467","0.0-17.0-0.14","51007","List1B","black","man","","","","null","","","","","","","","",""
"null","<img src=""stim_listB/copy4.gif""style=""height:400px;""></stim_listB>","","html-keyboard-response","283","944468","0.0-17.0-1.14","51007","List1B","black","man","","","","null","","","","","","","","",""
"null","is being copied by","","html-keyboard-response","284","946469","0.0-17.0-2.14","51007","List1B","black","man","","","","null","","","","","","","","",""
"3770.399999976158","","","survey-text","285","950241","0.0-17.0-3.14","51007","List1B","black","man","","","","","{""Q0"":""Luke is being copied by jane""}","<img src=""stim_listB/copy4.gif""style=""height:400px;""></stim_listB>","is being copied by","","","","","",""
"null","<div style=""font-size:60px;"">+</div>","","html-keyboard-response","286","950742","0.0-17.0-0.15","51007","List1B","black","man","","","","null","","","","","","","","",""
"null","<img src=""stim_listB/oppose5.gif""style=""height:400px;""></stim_listB>","","html-keyboard-response","287","952743","0.0-17.0-1.15","51007","List1B","black","man","","","","null","","","","","","","","",""
"null","is opposing","","html-keyboard-response","288","954745","0.0-17.0-2.15","51007","List1B","black","man","","","","null","","","","","","","","",""
"7491","","","survey-text","289","962237","0.0-17.0-3.15","51007","List1B","black","man","","","","","{""Q0"":""Dave is opposing mike""}","<img src=""stim_listB/oppose5.gif""style=""height:400px;""></stim_listB>","is opposing","","","","","",""
"null","<div style=""font-size:60px;"">+</div>","","html-keyboard-response","290","962738","0.0-17.0-0.16","51007","List1B","black","man","","","","null","","","","","","","","",""
"null","<img src=""stim_listB/copy1.gif""style=""height:400px;""></stim_listB>","","html-keyboard-response","291","964739","0.0-17.0-1.16","51007","List1B","black","man","","","","null","","","","","","","","",""
"null","is copying","","html-keyboard-response","292","966741","0.0-17.0-2.16","51007","List1B","black","man","","","","null","","","","","","","","",""
"3954.699999988079","","","survey-text","293","970696","0.0-17.0-3.16","51007","List1B","black","man","","","","","{""Q0"":""Beth is copying mike""}","<img src=""stim_listB/copy1.gif""style=""height:400px;""></stim_listB>","is copying","","","","","",""
"null","<div style=""font-size:60px;"">+</div>","","html-keyboard-response","294","971198","0.0-17.0-0.17","51007","List1B","black","man","","","","null","","","","","","","","",""
"null","<img src=""stim_listB/kiss7.gif""style=""height:400px;""></stim_listB>","","html-keyboard-response","295","973199","0.0-17.0-1.17","51007","List1B","black","man","","","","null","","","","","","","","",""
"null","is kissing","","html-keyboard-response","296","975200","0.0-17.0-2.17","51007","List1B","black","man","","","","null","","","","","","","","",""
"4607.300000011921","","","survey-text","297","979809","0.0-17.0-3.17","51007","List1B","black","man","","","","","{""Q0"":""Beth is kissing Ruth""}","<img src=""stim_listB/kiss7.gif""style=""height:400px;""></stim_listB>","is kissing","","","","","",""
"null","<div style=""font-size:60px;"">+</div>","","html-keyboard-response","298","980310","0.0-17.0-0.18","51007","List1B","black","man","","","","null","","","","","","","","",""
"null","<img src=""stim_listB/challenge5.gif""style=""height:400px;""></stim_listB>","","html-keyboard-response","299","982311","0.0-17.0-1.18","51007","List1B","black","man","","","","null","","","","","","","","",""
"null","is challenging","","html-keyboard-response","300","984312","0.0-17.0-2.18","51007","List1B","black","man","","","","null","","","","","","","","",""
"3654.300000011921","","","survey-text","301","987968","0.0-17.0-3.18","51007","List1B","black","man","","","","","{""Q0"":""Luke is challenging mike""}","<img src=""stim_listB/challenge5.gif""style=""height:400px;""></stim_listB>","is challenging","","","","","",""
"null","<div style=""font-size:60px;"">+</div>","","html-keyboard-response","302","988469","0.0-17.0-0.19","51007","List1B","black","man","","","","null","","","","","","","","",""
"null","<img src=""stim_listB/challenge2.gif""style=""height:400px;""></stim_listB>","","html-keyboard-response","303","990470","0.0-17.0-1.19","51007","List1B","black","man","","","","null","","","","","","","","",""
"null","is being challenged by","","html-keyboard-response","304","992471","0.0-17.0-2.19","51007","List1B","black","man","","","","null","","","","","","","","",""
"4312.199999988079","","","survey-text","305","996784","0.0-17.0-3.19","51007","List1B","black","man","","","","","{""Q0"":""Fred is being challenged by Kate""}","<img src=""stim_listB/challenge2.gif""style=""height:400px;""></stim_listB>","is being challenged by","","","","","",""
"1588","<img src='img/portrait_matrix_list1.jpg' style='width:900px;height:500px;''></img><p>If you have memorised all the portraits and names and are ready to start, press Continue.</p><p><strong>Please note: Your memory of these faces will be tested 4 times during this experiment.</strong></p>","0","html-button-response","306","998373","0.0-18.0-0.0","51007","List1B","black","man","","","","","","","","","","","","",""
"1666.8999999761581","<img src=""portrait/BM1.jpg""style=""height:400px;""></img>","4","html-button-response","307","1001041","0.0-18.0-1.0","51007","List1B","black","man","","true","4","","","","","","","","","",""
"null","CORRECT","","html-keyboard-response","308","1002543","0.0-18.0-2.0-0.0","51007","List1B","black","man","","","","null","","","","","","","","",""
"1880.9000000357628","<img src=""portrait/WM1.jpg""style=""height:400px;""></img>","6","html-button-response","309","1004425","0.0-18.0-4.0","51007","List1B","black","man","","true","6","","","","","","","","","",""
"null","CORRECT","","html-keyboard-response","310","1005928","0.0-18.0-5.0-0.0","51007","List1B","black","man","","","","null","","","","","","","","",""
"4640.5","<img src=""portrait/WW1.jpg""style=""height:400px;""></img>","1","html-button-response","311","1010569","0.0-18.0-7.0","51007","List1B","black","man","","true","1","","","","","","","","","",""
"null","CORRECT","","html-keyboard-response","312","1012071","0.0-18.0-8.0-0.0","51007","List1B","black","man","","","","null","","","","","","","","",""
"4005","<img src=""portrait/WW2.jpg""style=""height:400px;""></img>","3","html-button-response","313","1016077","0.0-18.0-10.0","51007","List1B","black","man","","true","3","","","","","","","","","",""
"null","CORRECT","","html-keyboard-response","314","1017579","0.0-18.0-11.0-0.0","51007","List1B","black","man","","","","null","","","","","","","","",""
"1603.4000000357628","<img src=""portrait/BW1.jpg""style=""height:400px;""></img>","0","html-button-response","315","1019183","0.0-18.0-13.0","51007","List1B","black","man","","true","0","","","","","","","","","",""
"null","CORRECT","","html-keyboard-response","316","1020685","0.0-18.0-14.0-0.0","51007","List1B","black","man","","","","null","","","","","","","","",""
"1585.8999999761581","<img src=""portrait/BM2.jpg""style=""height:400px;""></img>","5","html-button-response","317","1022272","0.0-18.0-16.0","51007","List1B","black","man","","true","5","","","","","","","","","",""
"null","CORRECT","","html-keyboard-response","318","1023774","0.0-18.0-17.0-0.0","51007","List1B","black","man","","","","null","","","","","","","","",""
"1208","<img src=""portrait/BW2.jpg""style=""height:400px;""></img>","2","html-button-response","319","1024983","0.0-18.0-19.0","51007","List1B","black","man","","true","2","","","","","","","","","",""
"null","CORRECT","","html-keyboard-response","320","1026486","0.0-18.0-20.0-0.0","51007","List1B","black","man","","","","null","","","","","","","","",""
"1744.6000000238419","<img src=""portrait/WM2.jpg""style=""height:400px;""></img>","7","html-button-response","321","1028231","0.0-18.0-22.0","51007","List1B","black","man","","true","7","","","","","","","","","",""
"null","CORRECT","","html-keyboard-response","322","1029733","0.0-18.0-23.0-0.0","51007","List1B","black","man","","","","null","","","","","","","","",""
"1197.1000000238419","<p>You got 8 out of 8 right first time. Press Continue.</p>","0","html-button-response","323","1030932","0.0-18.0-25.0","51007","List1B","black","man","","","","","","","","","","","","",""
"null","<div style=""font-size:60px;"">+</div>","","html-keyboard-response","324","1032434","0.0-19.0-0.0","51007","List1B","black","man","","","","null","","","","","","","","",""
"null","<img src=""stim_listB/shout2.gif""style=""height:400px;""></stim_listB>","","html-keyboard-response","325","1034435","0.0-19.0-1.0","51007","List1B","black","man","","","","null","","","","","","","","",""
"null","is being shouted at by","","html-keyboard-response","326","1036437","0.0-19.0-2.0","51007","List1B","black","man","","","","null","","","","","","","","",""
"11827.199999988079","","","survey-text","327","1048265","0.0-19.0-3.0","51007","List1B","black","man","","","","","{""Q0"":""Beth is being shouted at by mike""}","<img src=""stim_listB/shout2.gif""style=""height:400px;""></stim_listB>","is being shouted at by","","","","","",""
"null","<div style=""font-size:60px;"">+</div>","","html-keyboard-response","328","1048767","0.0-19.0-0.1","51007","List1B","black","man","","","","null","","","","","","","","",""
"null","<img src=""stim_listB/greet1.gif""style=""height:400px;""></stim_listB>","","html-keyboard-response","329","1050768","0.0-19.0-1.1","51007","List1B","black","man","","","","null","","","","","","","","",""
"null","is greeting","","html-keyboard-response","330","1052770","0.0-19.0-2.1","51007","List1B","black","man","","","","null","","","","","","","","",""
"2858","","","survey-text","331","1055629","0.0-19.0-3.1","51007","List1B","black","man","","","","","{""Q0"":""Beth is greeting mike""}","<img src=""stim_listB/greet1.gif""style=""height:400px;""></stim_listB>","is greeting","","","","","",""
"null","<div style=""font-size:60px;"">+</div>","","html-keyboard-response","332","1056130","0.0-19.0-0.2","51007","List1B","black","man","","","","null","","","","","","","","",""
"null","<img src=""stim_listB/kiss5.gif""style=""height:400px;""></stim_listB>","","html-keyboard-response","333","1058131","0.0-19.0-1.2","51007","List1B","black","man","","","","null","","","","","","","","",""
"null","is kissing","","html-keyboard-response","334","1060132","0.0-19.0-2.2","51007","List1B","black","man","","","","null","","","","","","","","",""
"4315.599999964237","","","survey-text","335","1064449","0.0-19.0-3.2","51007","List1B","black","man","","","","","{""Q0"":""luke is kissing fred""}","<img src=""stim_listB/kiss5.gif""style=""height:400px;""></stim_listB>","is kissing","","","","","",""
"null","<div style=""font-size:60px;"">+</div>","","html-keyboard-response","336","1064950","0.0-19.0-0.3","51007","List1B","black","man","","","","null","","","","","","","","",""
"null","<img src=""stim_listB/seduce5.gif""style=""height:400px;""></stim_listB>","","html-keyboard-response","337","1066952","0.0-19.0-1.3","51007","List1B","black","man","","","","null","","","","","","","","",""
"null","is seducing","","html-keyboard-response","338","1068953","0.0-19.0-2.3","51007","List1B","black","man","","","","null","","","","","","","","",""
"2799.199999988079","","","survey-text","339","1071753","0.0-19.0-3.3","51007","List1B","black","man","","","","","{""Q0"":""Dave is seducing fred""}","<img src=""stim_listB/seduce5.gif""style=""height:400px;""></stim_listB>","is seducing","","","","","",""
"null","<div style=""font-size:60px;"">+</div>","","html-keyboard-response","340","1072255","0.0-19.0-0.4","51007","List1B","black","man","","","","null","","","","","","","","",""
"null","<img src=""stim_listB/copy3.gif""style=""height:400px;""></stim_listB>","","html-keyboard-response","341","1074256","0.0-19.0-1.4","51007","List1B","black","man","","","","null","","","","","","","","",""
"null","is copying","","html-keyboard-response","342","1076258","0.0-19.0-2.4","51007","List1B","black","man","","","","null","","","","","","","","",""
"3050.199999988079","","","survey-text","343","1079309","0.0-19.0-3.4","51007","List1B","black","man","","","","","{""Q0"":""Ruth is copying dave""}","<img src=""stim_listB/copy3.gif""style=""height:400px;""></stim_listB>","is copying","","","","","",""
"null","<div style=""font-size:60px;"">+</div>","","html-keyboard-response","344","1079811","0.0-19.0-0.5","51007","List1B","black","man","","","","null","","","","","","","","",""
"null","<img src=""stim_listB/oppose1.gif""style=""height:400px;""></stim_listB>","","html-keyboard-response","345","1081811","0.0-19.0-1.5","51007","List1B","black","man","","","","null","","","","","","","","",""
"null","is opposing","","html-keyboard-response","346","1083813","0.0-19.0-2.5","51007","List1B","black","man","","","","null","","","","","","","","",""
"5100.100000023842","","","survey-text","347","1088914","0.0-19.0-3.5","51007","List1B","black","man","","","","","{""Q0"":""Kate is opposing mike""}","<img src=""stim_listB/oppose1.gif""style=""height:400px;""></stim_listB>","is opposing","","","","","",""
"null","<div style=""font-size:60px;"">+</div>","","html-keyboard-response","348","1089414","0.0-19.0-0.6","51007","List1B","black","man","","","","null","","","","","","","","",""
"null","<img src=""stim_listB/hug7.gif""style=""height:400px;""></stim_listB>","","html-keyboard-response","349","1091415","0.0-19.0-1.6","51007","List1B","black","man","","","","null","","","","","","","","",""
"null","is hugging","","html-keyboard-response","350","1093417","0.0-19.0-2.6","51007","List1B","black","man","","","","null","","","","","","","","",""
"3426.399999976158","","","survey-text","351","1096844","0.0-19.0-3.6","51007","List1B","black","man","","","","","{""Q0"":""Ruth is hugging beth""}","<img src=""stim_listB/hug7.gif""style=""height:400px;""></stim_listB>","is hugging","","","","","",""
"null","<div style=""font-size:60px;"">+</div>","","html-keyboard-response","352","1097345","0.0-19.0-0.7","51007","List1B","black","man","","","","null","","","","","","","","",""
"null","<img src=""stim_listB/look5.gif""style=""height:400px;""></stim_listB>","","html-keyboard-response","353","1099346","0.0-19.0-1.7","51007","List1B","black","man","","","","null","","","","","","","","",""
"null","is looking at","","html-keyboard-response","354","1101348","0.0-19.0-2.7","51007","List1B","black","man","","","","null","","","","","","","","",""
"6534.699999988079","","","survey-text","355","1107884","0.0-19.0-3.7","51007","List1B","black","man","","","","","{""Q0"":""luke is looking at fred""}","<img src=""stim_listB/look5.gif""style=""height:400px;""></stim_listB>","is looking at","","","","","",""
"null","<div style=""font-size:60px;"">+</div>","","html-keyboard-response","356","1108385","0.0-19.0-0.8","51007","List1B","black","man","","","","null","","","","","","","","",""
"null","<img src=""stim_listB/greet3.gif""style=""height:400px;""></stim_listB>","","html-keyboard-response","357","1110387","0.0-19.0-1.8","51007","List1B","black","man","","","","null","","","","","","","","",""
"null","is greeting","","html-keyboard-response","358","1112388","0.0-19.0-2.8","51007","List1B","black","man","","","","null","","","","","","","","",""
"3290.600000023842","","","survey-text","359","1115680","0.0-19.0-3.8","51007","List1B","black","man","","","","","{""Q0"":""Ruth is greeting dave""}","<img src=""stim_listB/greet3.gif""style=""height:400px;""></stim_listB>","is greeting","","","","","",""
"null","<div style=""font-size:60px;"">+</div>","","html-keyboard-response","360","1116181","0.0-19.0-0.9","51007","List1B","black","man","","","","null","","","","","","","","",""
"null","<img src=""stim_listB/look3.gif""style=""height:400px;""></stim_listB>","","html-keyboard-response","361","1118183","0.0-19.0-1.9","51007","List1B","black","man","","","","null","","","","","","","","",""
"null","is looking at","","html-keyboard-response","362","1120184","0.0-19.0-2.9","51007","List1B","black","man","","","","null","","","","","","","","",""
"4574.899999976158","","","survey-text","363","1124760","0.0-19.0-3.9","51007","List1B","black","man","","","","","{""Q0"":""ruth is looking at luke""}","<img src=""stim_listB/look3.gif""style=""height:400px;""></stim_listB>","is looking at","","","","","",""
"null","<div style=""font-size:60px;"">+</div>","","html-keyboard-response","364","1125261","0.0-19.0-0.10","51007","List1B","black","man","","","","null","","","","","","","","",""
"null","<img src=""stim_listB/shout8.gif""style=""height:400px;""></stim_listB>","","html-keyboard-response","365","1127262","0.0-19.0-1.10","51007","List1B","black","man","","","","null","","","","","","","","",""
"null","is being shouted at by","","html-keyboard-response","366","1129264","0.0-19.0-2.10","51007","List1B","black","man","","","","null","","","","","","","","",""
"3902.199999988079","","","survey-text","367","1133167","0.0-19.0-3.10","51007","List1B","black","man","","","","","{""Q0"":""Kate is being shouted at by jane""}","<img src=""stim_listB/shout8.gif""style=""height:400px;""></stim_listB>","is being shouted at by","","","","","",""
"null","<div style=""font-size:60px;"">+</div>","","html-keyboard-response","368","1133669","0.0-19.0-0.11","51007","List1B","black","man","","","","null","","","","","","","","",""
"null","<img src=""stim_listB/look2.gif""style=""height:400px;""></stim_listB>","","html-keyboard-response","369","1135671","0.0-19.0-1.11","51007","List1B","black","man","","","","null","","","","","","","","",""
"null","is being looked at by","","html-keyboard-response","370","1137672","0.0-19.0-2.11","51007","List1B","black","man","","","","null","","","","","","","","",""
"4101.899999976158","","","survey-text","371","1141775","0.0-19.0-3.11","51007","List1B","black","man","","","","","{""Q0"":""mike is being looked at by kate""}","<img src=""stim_listB/look2.gif""style=""height:400px;""></stim_listB>","is being looked at by","","","","","",""
"null","<div style=""font-size:60px;"">+</div>","","html-keyboard-response","372","1142276","0.0-19.0-0.12","51007","List1B","black","man","","","","null","","","","","","","","",""
"null","<img src=""stim_listB/challenge6.gif""style=""height:400px;""></stim_listB>","","html-keyboard-response","373","1144279","0.0-19.0-1.12","51007","List1B","black","man","","","","null","","","","","","","","",""
"null","is being challenged by","","html-keyboard-response","374","1146281","0.0-19.0-2.12","51007","List1B","black","man","","","","null","","","","","","","","",""
"3362.5","","","survey-text","375","1149645","0.0-19.0-3.12","51007","List1B","black","man","","","","","{""Q0"":""fred is being challenged by dave""}","<img src=""stim_listB/challenge6.gif""style=""height:400px;""></stim_listB>","is being challenged by","","","","","",""
"null","<div style=""font-size:60px;"">+</div>","","html-keyboard-response","376","1150146","0.0-19.0-0.13","51007","List1B","black","man","","","","null","","","","","","","","",""
"null","<img src=""stim_listB/challenge8.gif""style=""height:400px;""></stim_listB>","","html-keyboard-response","377","1152147","0.0-19.0-1.13","51007","List1B","black","man","","","","null","","","","","","","","",""
"null","is being challenged by","","html-keyboard-response","378","1154148","0.0-19.0-2.13","51007","List1B","black","man","","","","null","","","","","","","","",""
"3382.899999976158","","","survey-text","379","1157532","0.0-19.0-3.13","51007","List1B","black","man","","","","","{""Q0"":""Beth is being challenged by jane""}","<img src=""stim_listB/challenge8.gif""style=""height:400px;""></stim_listB>","is being challenged by","","","","","",""
"null","<div style=""font-size:60px;"">+</div>","","html-keyboard-response","380","1158034","0.0-19.0-0.14","51007","List1B","black","man","","","","null","","","","","","","","",""
"null","<img src=""stim_listB/look7.gif""style=""height:400px;""></stim_listB>","","html-keyboard-response","381","1160036","0.0-19.0-1.14","51007","List1B","black","man","","","","null","","","","","","","","",""
"null","is looking at","","html-keyboard-response","382","1162038","0.0-19.0-2.14","51007","List1B","black","man","","","","null","","","","","","","","",""
"5428.300000011921","","","survey-text","383","1167467","0.0-19.0-3.14","51007","List1B","black","man","","","","","{""Q0"":""Ruth is looking at Beth""}","<img src=""stim_listB/look7.gif""style=""height:400px;""></stim_listB>","is looking at","","","","","",""
"null","<div style=""font-size:60px;"">+</div>","","html-keyboard-response","384","1167968","0.0-19.0-0.15","51007","List1B","black","man","","","","null","","","","","","","","",""
"null","<img src=""stim_listB/kiss6.gif""style=""height:400px;""></stim_listB>","","html-keyboard-response","385","1169969","0.0-19.0-1.15","51007","List1B","black","man","","","","null","","","","","","","","",""
"null","is being kissed by","","html-keyboard-response","386","1171970","0.0-19.0-2.15","51007","List1B","black","man","","","","null","","","","","","","","",""
"2908.600000023842","","","survey-text","387","1174880","0.0-19.0-3.15","51007","List1B","black","man","","","","","{""Q0"":""Mike is being kissed by dave""}","<img src=""stim_listB/kiss6.gif""style=""height:400px;""></stim_listB>","is being kissed by","","","","","",""
"null","<div style=""font-size:60px;"">+</div>","","html-keyboard-response","388","1175381","0.0-19.0-0.16","51007","List1B","black","man","","","","null","","","","","","","","",""
"null","<img src=""stim_listB/oppose2.gif""style=""height:400px;""></stim_listB>","","html-keyboard-response","389","1177383","0.0-19.0-1.16","51007","List1B","black","man","","","","null","","","","","","","","",""
"null","is being opposed by","","html-keyboard-response","390","1179385","0.0-19.0-2.16","51007","List1B","black","man","","","","null","","","","","","","","",""
"2669.7000000476837","","","survey-text","391","1182056","0.0-19.0-3.16","51007","List1B","black","man","","","","","{""Q0"":""Fred is being opposed by beth""}","<img src=""stim_listB/oppose2.gif""style=""height:400px;""></stim_listB>","is being opposed by","","","","","",""
"null","<div style=""font-size:60px;"">+</div>","","html-keyboard-response","392","1182557","0.0-19.0-0.17","51007","List1B","black","man","","","","null","","","","","","","","",""
"null","<img src=""stim_listB/hug5.gif""style=""height:400px;""></stim_listB>","","html-keyboard-response","393","1184558","0.0-19.0-1.17","51007","List1B","black","man","","","","null","","","","","","","","",""
"null","is hugging","","html-keyboard-response","394","1186560","0.0-19.0-2.17","51007","List1B","black","man","","","","null","","","","","","","","",""
"3440.099999964237","","","survey-text","395","1190001","0.0-19.0-3.17","51007","List1B","black","man","","","","","{""Q0"":""luke is hugging fred""}","<img src=""stim_listB/hug5.gif""style=""height:400px;""></stim_listB>","is hugging","","","","","",""
"null","<div style=""font-size:60px;"">+</div>","","html-keyboard-response","396","1190502","0.0-19.0-0.18","51007","List1B","black","man","","","","null","","","","","","","","",""
"null","<img src=""stim_listB/greet7.gif""style=""height:400px;""></stim_listB>","","html-keyboard-response","397","1192503","0.0-19.0-1.18","51007","List1B","black","man","","","","null","","","","","","","","",""
"null","is greeting","","html-keyboard-response","398","1194504","0.0-19.0-2.18","51007","List1B","black","man","","","","null","","","","","","","","",""
"3102.199999988079","","","survey-text","399","1197607","0.0-19.0-3.18","51007","List1B","black","man","","","","","{""Q0"":""ruth is greeting kate""}","<img src=""stim_listB/greet7.gif""style=""height:400px;""></stim_listB>","is greeting","","","","","",""
"null","<div style=""font-size:60px;"">+</div>","","html-keyboard-response","400","1198108","0.0-19.0-0.19","51007","List1B","black","man","","","","null","","","","","","","","",""
"null","<img src=""stim_listB/kiss8.gif""style=""height:400px;""></stim_listB>","","html-keyboard-response","401","1200110","0.0-19.0-1.19","51007","List1B","black","man","","","","null","","","","","","","","",""
"null","is being kissed by","","html-keyboard-response","402","1202111","0.0-19.0-2.19","51007","List1B","black","man","","","","null","","","","","","","","",""
"3839.199999988079","","","survey-text","403","1205952","0.0-19.0-3.19","51007","List1B","black","man","","","","","{""Q0"":""Kate is being kissed by jane""}","<img src=""stim_listB/kiss8.gif""style=""height:400px;""></stim_listB>","is being kissed by","","","","","",""
"2574.800000011921","<p>Thank you for completing that task.</p><p>The final part of this session is a questionnaire that will take about 4 minutes.</p><p>Press Continue.</p>","0","html-button-response","404","1208527","0.0-20.0","51007","List1B","black","man","","","","","","","","","","","","",""
"34035.10000002384","","","survey-text","405","1243565","0.0-21.0","51007","List1B","black","man","","","","","{""Q0"":""19"",""Q1"":""English"",""Q2"":""English"",""Q3"":""United States"",""Q4"":""American"",""Q5"":""African American"",""Q6"":""Male""}","","","demographics","","","","",""
"1960.4000000357628","<p>Have you lived in the USA for the last 5 years or more?</p>","0","html-button-response","406","1245527","0.0-22.0","51007","List1B","black","man","","","","","","","","fiveyears","","","","",""
"2478","<p>Move the slider to show the extent to which you agree with the following statements.</p>","0","html-button-response","407","1249007","0.0-23.0","51007","List1B","black","man","","","","","","","","","","","","",""
"4198.599999964237","","","html-slider-response","408","1254207","0.0-24.0-0.0-0.0","51007","List1B","black","man","","","","","","","","survey_race","100","","","I feel a bond with people the same age as me.","filler"
"4079","","","html-slider-response","409","1258287","0.0-24.0-0.0-0.1","51007","List1B","black","man","","","","","","","","survey_race","74","","","Being my race gives me a good feeling.","feeling"
"2299.100000023842","","","html-slider-response","410","1260587","0.0-24.0-0.0-0.2","51007","List1B","black","man","","","","","","","","survey_race","80","","","I am glad to be my age.","filler"
"4589.5","","","html-slider-response","411","1265177","0.0-24.0-0.0-0.3","51007","List1B","black","man","","","","","","","","survey_race","49","","","People of my race have a lot in common with each other.","common"
"3521.100000023842","","","html-slider-response","412","1268699","0.0-24.0-0.0-0.4","51007","List1B","black","man","","","","","","","","survey_race","50","","","The older I get, the wiser I feel.","filler"
"3221.199999988079","","","html-slider-response","413","1271921","0.0-24.0-0.0-0.5","51007","List1B","black","man","","","","","","","","survey_race","26","","","I consider myself an extrovert.","filler"
"1945.1000000238419","","","html-slider-response","414","1273867","0.0-24.0-0.0-0.6","51007","List1B","black","man","","","","","","","","survey_race","77","","","I am glad to be the age I am.","filler"
"5028.800000011921","","","html-slider-response","415","1278897","0.0-24.0-0.0-0.7","51007","List1B","black","man","","","","","","","","survey_race","49","","","I have a lot in common with the average person of my race.","average"
"7225.199999988079","","","html-slider-response","416","1286123","0.0-24.0-0.0-0.8","51007","List1B","black","man","","","","","","","","survey_race","51","","","I often think about the fact that I am my age.","filler"
"4233.400000035763","","","html-slider-response","417","1290357","0.0-24.0-0.0-0.9","51007","List1B","black","man","","","","","","","","survey_race","80","","","I feel solidarity with my race.","solidarity"
"3595.2000000476837","","","html-slider-response","418","1293953","0.0-24.0-0.0-0.10","51007","List1B","black","man","","","","","","","","survey_race","47","","","Being my race is an important part of how I see myself.","important"
"3181.2000000476837","","","html-slider-response","419","1297135","0.0-24.0-0.0-0.11","51007","List1B","black","man","","","","","","","","survey_race","86","","","People my age have a lot in common with each other.","filler"
"5099.5","","","html-slider-response","420","1302235","0.0-24.0-0.0-0.12","51007","List1B","black","man","","","","","","","","survey_race","76","","","My age is not an important part of who I am.","filler"
"2534.699999988079","","","html-slider-response","421","1304771","0.0-24.0-0.0-0.13","51007","List1B","black","man","","","","","","","","survey_race","49","","","I feel a bond with my race.","bond"
"6329.299999952316","","","html-slider-response","422","1311101","0.0-24.0-0.0-0.14","51007","List1B","black","man","","","","","","","","survey_race","51","","","The fact that I am my race is an important part of my identity.","identity"
"2789.399999976158","","","html-slider-response","423","1313891","0.0-24.0-0.0-0.15","51007","List1B","black","man","","","","","","","","survey_race","100","","","Getting older does not worry me.","filler"
"2975","","","html-slider-response","424","1316867","0.0-24.0-0.0-0.16","51007","List1B","black","man","","","","","","","","survey_race","98","","","I feel solidarity with people the same age as me.","filler"
"4560","","","html-slider-response","425","1321427","0.0-24.0-0.0-0.17","51007","List1B","black","man","","","","","","","","survey_race","50","","","It is pleasant to be my race.","pleasant"
"2676.800000011921","","","html-slider-response","426","1324105","0.0-24.0-0.0-0.18","51007","List1B","black","man","","","","","","","","survey_race","51","","","I often think about the fact that I am my race.","often"
"2303","","","html-slider-response","427","1326409","0.0-24.0-0.0-0.19","51007","List1B","black","man","","","","","","","","survey_race","86","","","I have a lot in common with people of a similar age to me.","filler"
"9252.899999976158","","","html-slider-response","428","1335662","0.0-24.0-0.0-0.20","51007","List1B","black","man","","","","","","","","survey_race","29","","","I consider myself an introvert.","filler"
"12351.599999964237","","","html-slider-response","429","1348015","0.0-24.0-0.0-0.21","51007","List1B","black","man","","","","","","","","survey_race","81","","","I am similar to the average person of my race.","similar"
"2979.2000000476837","","","html-slider-response","430","1350995","0.0-24.0-0.0-0.22","51007","List1B","black","man","","","","","","","","survey_race","47","","","People of my race are very similar to each other.","verysimilar"
"2870.800000011921","","","html-slider-response","431","1353867","0.0-24.0-0.0-0.23","51007","List1B","black","man","","","","","","","","survey_race","90","","","I think that my race has a lot to be proud of.","proud"
"1987.5","","","html-slider-response","432","1355855","0.0-24.0-0.0-0.24","51007","List1B","black","man","","","","","","","","survey_race","93","","","Being my age gives me a good feeling.","filler"
"2053.5","","","html-slider-response","433","1357909","0.0-24.0-0.0-0.25","51007","List1B","black","man","","","","","","","","survey_race","96","","","I am glad to be my race.","glad"
"2313.5","","","html-slider-response","434","1360223","0.0-24.0-0.0-0.26","51007","List1B","black","man","","","","","","","","survey_race","100","","","I enjoy being in large groups.","filler"
"2521.300000011921","","","html-slider-response","435","1362745","0.0-24.0-0.0-0.27","51007","List1B","black","man","","","","","","","","survey_race","72","","","I feel committed to my race.","committed"
"3373.2999999523163","","","html-slider-response","436","1366119","0.0-24.0-1.0-0.0","51007","List1B","black","man","","","","","","","","survey_gender","90","","","People of my gender are very similar to each other.","verysimilar"
"2379.199999988079","","","html-slider-response","437","1368499","0.0-24.0-1.0-0.1","51007","List1B","black","man","","","","","","","","survey_gender","98","","","I have a lot in common with the average person of my gender.","average"
"4476.799999952316","","","html-slider-response","438","1372976","0.0-24.0-1.0-0.2","51007","List1B","black","man","","","","","","","","survey_gender","86","","","Being my gender is an important part of how I see myself.","important"
"2385.5","","","html-slider-response","439","1375363","0.0-24.0-1.0-0.3","51007","List1B","black","man","","","","","","","","survey_gender","93","","","I feel committed to my gender.","committed"
"2607.600000023842","","","html-slider-response","440","1377971","0.0-24.0-1.0-0.4","51007","List1B","black","man","","","","","","","","survey_gender","95","","","I am glad to have the friends that I have.","filler"
"4214.899999976158","","","html-slider-response","441","1382187","0.0-24.0-1.0-0.5","51007","List1B","black","man","","","","","","","","survey_gender","91","","","My friends understand me.","filler"
"2100.300000011921","","","html-slider-response","442","1384288","0.0-24.0-1.0-0.6","51007","List1B","black","man","","","","","","","","survey_gender","100","","","I feel a bond with my friends.","filler"
"1702.3999999761581","","","html-slider-response","443","1385991","0.0-24.0-1.0-0.7","51007","List1B","black","man","","","","","","","","survey_gender","100","","","I feel solidarity with my friends.","filler"
"3803.5","","","html-slider-response","444","1389795","0.0-24.0-1.0-0.8","51007","List1B","black","man","","","","","","","","survey_gender","35","","","Routine is not important to me.","filler"
"2674.800000011921","","","html-slider-response","445","1392471","0.0-24.0-1.0-0.9","51007","List1B","black","man","","","","","","","","survey_gender","87","","","People of my gender have a lot in common with each other.","common"
"1845.6000000238419","","","html-slider-response","446","1394317","0.0-24.0-1.0-0.10","51007","List1B","black","man","","","","","","","","survey_gender","88","","","I am similar to the average person of my gender.","similar"
"2137","","","html-slider-response","447","1396455","0.0-24.0-1.0-0.11","51007","List1B","black","man","","","","","","","","survey_gender","97","","","I have a lot in common with my friends.","filler"
"1805.6000000238419","","","html-slider-response","448","1398261","0.0-24.0-1.0-0.12","51007","List1B","black","man","","","","","","","","survey_gender","100","","","I feel a bond with my gender.","bond"
"2331","","","html-slider-response","449","1400593","0.0-24.0-1.0-0.13","51007","List1B","black","man","","","","","","","","survey_gender","100","","","I consider myself a highly empathetic person.","filler"
"7035.600000023842","","","html-slider-response","450","1407629","0.0-24.0-1.0-0.14","51007","List1B","black","man","","","","","","","","survey_gender","51","","","Family is not more important to me than friendship.","filler"
"2509.300000011921","","","html-slider-response","451","1410139","0.0-24.0-1.0-0.15","51007","List1B","black","man","","","","","","","","survey_gender","87","","","The fact that I am my gender is an important part of my identity.","identity"
"2008.800000011921","","","html-slider-response","452","1412149","0.0-24.0-1.0-0.16","51007","List1B","black","man","","","","","","","","survey_gender","98","","","I am glad to be my gender.","glad"
"2029.5999999642372","","","html-slider-response","453","1414179","0.0-24.0-1.0-0.17","51007","List1B","black","man","","","","","","","","survey_gender","100","","","It is pleasant to be my gender.","pleasant"
"2237.100000023842","","","html-slider-response","454","1416417","0.0-24.0-1.0-0.18","51007","List1B","black","man","","","","","","","","survey_gender","100","","","My friends have a lot in common with each other.","filler"
"1857.699999988079","","","html-slider-response","455","1418275","0.0-24.0-1.0-0.19","51007","List1B","black","man","","","","","","","","survey_gender","100","","","Being my gender gives me a good feeling.","feeling"
"2769.5","","","html-slider-response","456","1421045","0.0-24.0-1.0-0.20","51007","List1B","black","man","","","","","","","","survey_gender","100","","","It is not always easy for people to know what I am thinking.","filler"
"2673.099999964237","","","html-slider-response","457","1423719","0.0-24.0-1.0-0.21","51007","List1B","black","man","","","","","","","","survey_gender","100","","","Most of the friends in my life are very similar to me.","filler"
"2421.199999988079","","","html-slider-response","458","1426141","0.0-24.0-1.0-0.22","51007","List1B","black","man","","","","","","","","survey_gender","93","","","I would say I am an animal person.","filler"
"1948.8999999761581","","","html-slider-response","459","1428091","0.0-24.0-1.0-0.23","51007","List1B","black","man","","","","","","","","survey_gender","100","","","I feel solidarity with my gender.","solidarity"
"3173.300000011921","","","html-slider-response","460","1431265","0.0-24.0-1.0-0.24","51007","List1B","black","man","","","","","","","","survey_gender","26","","","I often think about the fact that I am my gender.","often"
"3081.5","","","html-slider-response","461","1434347","0.0-24.0-1.0-0.25","51007","List1B","black","man","","","","","","","","survey_gender","83","","","I think that my gender has a lot to be proud of.","proud"
"2319.100000023842","","","html-slider-response","462","1436667","0.0-24.0-1.0-0.26","51007","List1B","black","man","","","","","","","","survey_gender","100","","","I often think about my actions.","filler"
"2241.100000023842","","","html-slider-response","463","1438909","0.0-24.0-1.0-0.27","51007","List1B","black","man","","","","","","","","survey_gender","100","","","Being around my friends gives me a good feeling.","filler"
"6748.699999988079","","","survey-text","464","1445659","0.0-25.0","51007","List1B","black","man","","","","","{""Q0"":""611869f9306a8deb75864d71""}","","","worker_id","","","","",""
"8923.200000047684","","","external-html","465","1455015","0.0-26.0","51007","List1B","black","man","debrief.html","","","","","","","","","","","",""
