rt,stimulus,button_pressed,trial_type,trial_index,time_elapsed,internal_node_id,subject,list,ppt_race,ppt_gender,url,first_guess,correct,key_press,responses,image_type,phrase_type,test_part,response,stimulus1,stimulus2,question_type,survey_item
2664.3,Welcome to the experiment. Press Continue to begin.,0,html-button-response,0,2671,0.0-0.0,51059,List1B,white,man,,,,,,,,,,,,,
47481.6,,,external-html,1,51440,0.0-1.0,51059,List1B,white,man,consent.html,,,,,,,,,,,,
16554.2,"<p>On the next page, you will see portraits of 8 people and their names.</p><p>Your first task is to take a few minutes to memorise the names of these people.</p><p>You will have to recall their names during the rest of the experiment, so it is</p><p>essential that you try to memorise these people and their names as best as you can.</p><br><p><strong>You will then be tested on your memory of these names and portraits.</strong></p><br><p>The experiment will start after you have completed this memory test.</p><br><p>Ready?</p>",0,html-button-response,2,67995,0.0-2.0,51059,List1B,white,man,,,,,,,,,,,,,
76849.8,"<img src='img/portrait_matrix_list1.jpg' style='width:900px;height:500px;''></img><p>If you have memorised all the portraits and names and are ready to start, press Continue.</p><p><strong>Please note: Your memory of these faces will be tested 4 times during this experiment.</strong></p>",0,html-button-response,3,145856,0.0-3.0-0.0,51059,List1B,white,man,,,,,,,,,,,,,
7756.4,"<img src=""portrait/WW1.jpg""style=""height:400px;""></img>",1,html-button-response,4,154622,0.0-3.0-1.0,51059,List1B,white,man,,TRUE,1,,,,,,,,,,
null,CORRECT,,html-keyboard-response,5,156139,0.0-3.0-2.0-0.0,51059,List1B,white,man,,,,null,,,,,,,,,
3426.8,"<img src=""portrait/WM1.jpg""style=""height:400px;""></img>",6,html-button-response,6,159567,0.0-3.0-4.0,51059,List1B,white,man,,TRUE,6,,,,,,,,,,
null,CORRECT,,html-keyboard-response,7,161086,0.0-3.0-5.0-0.0,51059,List1B,white,man,,,,null,,,,,,,,,
3088.3,"<img src=""portrait/BW1.jpg""style=""height:400px;""></img>",0,html-button-response,8,164175,0.0-3.0-7.0,51059,List1B,white,man,,TRUE,0,,,,,,,,,,
null,CORRECT,,html-keyboard-response,9,165695,0.0-3.0-8.0-0.0,51059,List1B,white,man,,,,null,,,,,,,,,
4674.3,"<img src=""portrait/WW2.jpg""style=""height:400px;""></img>",3,html-button-response,10,170370,0.0-3.0-10.0,51059,List1B,white,man,,TRUE,3,,,,,,,,,,
null,CORRECT,,html-keyboard-response,11,171895,0.0-3.0-11.0-0.0,51059,List1B,white,man,,,,null,,,,,,,,,
4043.9,"<img src=""portrait/BM1.jpg""style=""height:400px;""></img>",4,html-button-response,12,175940,0.0-3.0-13.0,51059,List1B,white,man,,TRUE,4,,,,,,,,,,
null,CORRECT,,html-keyboard-response,13,177453,0.0-3.0-14.0-0.0,51059,List1B,white,man,,,,null,,,,,,,,,
3372.9,"<img src=""portrait/BM2.jpg""style=""height:400px;""></img>",7,html-button-response,14,180827,0.0-3.0-16.0,51059,List1B,white,man,,TRUE,5,,,,,,,,,,
3745.5,"<img src=""portrait/BM2.jpg""style=""height:400px;""></img>",5,html-button-response,15,185581,0.0-3.0-18.0-0.0,51059,List1B,white,man,,FALSE,5,,,,,,,,,,
null,CORRECT,,html-keyboard-response,16,187114,0.0-3.0-18.0-1.0-0.0,51059,List1B,white,man,,,,null,,,,,,,,,
5120.2,"<img src=""portrait/BW2.jpg""style=""height:400px;""></img>",2,html-button-response,17,192236,0.0-3.0-19.0,51059,List1B,white,man,,TRUE,2,,,,,,,,,,
null,CORRECT,,html-keyboard-response,18,193753,0.0-3.0-20.0-0.0,51059,List1B,white,man,,,,null,,,,,,,,,
9778.7,"<img src=""portrait/WM2.jpg""style=""height:400px;""></img>",4,html-button-response,19,203533,0.0-3.0-22.0,51059,List1B,white,man,,TRUE,7,,,,,,,,,,
2206.8,"<img src=""portrait/WM2.jpg""style=""height:400px;""></img>",7,html-button-response,20,206756,0.0-3.0-24.0-0.0,51059,List1B,white,man,,FALSE,7,,,,,,,,,,
null,CORRECT,,html-keyboard-response,21,208272,0.0-3.0-24.0-1.0-0.0,51059,List1B,white,man,,,,null,,,,,,,,,
2281.1,<p>You got 6 out of 8 right first time. Press Continue.</p>,0,html-button-response,22,210555,0.0-3.0-25.0,51059,List1B,white,man,,,,,,,,,,,,,
3351,"As you did not score 100%, the memory game will repeat. Press Continue.",0,html-button-response,23,214916,0.0-3.0-26.0-0.0,51059,List1B,white,man,,,,,,,,,,,,,
18570.2,"<img src='img/portrait_matrix_list1.jpg' style='width:900px;height:500px;''></img><p>If you have memorised all the portraits and names and are ready to start, press Continue.</p><p><strong>Please note: Your memory of these faces will be tested 4 times during this experiment.</strong></p>",0,html-button-response,24,234502,0.0-3.1-0.1,51059,List1B,white,man,,,,,,,,,,,,,
6248.9,"<img src=""portrait/WW1.jpg""style=""height:400px;""></img>",1,html-button-response,25,241761,0.0-3.1-1.1,51059,List1B,white,man,,TRUE,1,,,,,,,,,,
null,CORRECT,,html-keyboard-response,26,243274,0.0-3.1-2.1-0.1,51059,List1B,white,man,,,,null,,,,,,,,,
2756.2,"<img src=""portrait/WM1.jpg""style=""height:400px;""></img>",6,html-button-response,27,246031,0.0-3.1-4.1,51059,List1B,white,man,,TRUE,6,,,,,,,,,,
null,CORRECT,,html-keyboard-response,28,247538,0.0-3.1-5.1-0.1,51059,List1B,white,man,,,,null,,,,,,,,,
2237,"<img src=""portrait/BW1.jpg""style=""height:400px;""></img>",0,html-button-response,29,249776,0.0-3.1-7.1,51059,List1B,white,man,,TRUE,0,,,,,,,,,,
null,CORRECT,,html-keyboard-response,30,251288,0.0-3.1-8.1-0.1,51059,List1B,white,man,,,,null,,,,,,,,,
2044.4,"<img src=""portrait/WW2.jpg""style=""height:400px;""></img>",3,html-button-response,31,253334,0.0-3.1-10.1,51059,List1B,white,man,,TRUE,3,,,,,,,,,,
null,CORRECT,,html-keyboard-response,32,254857,0.0-3.1-11.1-0.1,51059,List1B,white,man,,,,null,,,,,,,,,
4744.1,"<img src=""portrait/BM1.jpg""style=""height:400px;""></img>",5,html-button-response,33,259602,0.0-3.1-13.1,51059,List1B,white,man,,TRUE,4,,,,,,,,,,
2161.9,"<img src=""portrait/BM1.jpg""style=""height:400px;""></img>",4,html-button-response,34,262776,0.0-3.1-15.1-0.1,51059,List1B,white,man,,FALSE,4,,,,,,,,,,
null,CORRECT,,html-keyboard-response,35,264292,0.0-3.1-15.1-1.1-0.1,51059,List1B,white,man,,,,null,,,,,,,,,
1672.5,"<img src=""portrait/BM2.jpg""style=""height:400px;""></img>",7,html-button-response,36,265966,0.0-3.1-16.1,51059,List1B,white,man,,TRUE,5,,,,,,,,,,
2192.8,"<img src=""portrait/BM2.jpg""style=""height:400px;""></img>",5,html-button-response,37,269164,0.0-3.1-18.1-0.1,51059,List1B,white,man,,FALSE,5,,,,,,,,,,
null,CORRECT,,html-keyboard-response,38,270680,0.0-3.1-18.1-1.1-0.1,51059,List1B,white,man,,,,null,,,,,,,,,
1936.3,"<img src=""portrait/BW2.jpg""style=""height:400px;""></img>",2,html-button-response,39,272617,0.0-3.1-19.1,51059,List1B,white,man,,TRUE,2,,,,,,,,,,
null,CORRECT,,html-keyboard-response,40,274127,0.0-3.1-20.1-0.1,51059,List1B,white,man,,,,null,,,,,,,,,
7074.1,"<img src=""portrait/WM2.jpg""style=""height:400px;""></img>",5,html-button-response,41,281202,0.0-3.1-22.1,51059,List1B,white,man,,TRUE,7,,,,,,,,,,
1475.8,"<img src=""portrait/WM2.jpg""style=""height:400px;""></img>",7,html-button-response,42,283694,0.0-3.1-24.1-0.1,51059,List1B,white,man,,FALSE,7,,,,,,,,,,
null,CORRECT,,html-keyboard-response,43,285221,0.0-3.1-24.1-1.1-0.1,51059,List1B,white,man,,,,null,,,,,,,,,
1404.5,<p>You got 5 out of 8 right first time. Press Continue.</p>,0,html-button-response,44,286627,0.0-3.1-25.1,51059,List1B,white,man,,,,,,,,,,,,,
2389.6,"As you did not score 100%, the memory game will repeat. Press Continue.",0,html-button-response,45,290025,0.0-3.1-26.1-0.1,51059,List1B,white,man,,,,,,,,,,,,,
17514.3,"<img src='img/portrait_matrix_list1.jpg' style='width:900px;height:500px;''></img><p>If you have memorised all the portraits and names and are ready to start, press Continue.</p><p><strong>Please note: Your memory of these faces will be tested 4 times during this experiment.</strong></p>",0,html-button-response,46,308551,0.0-3.2-0.2,51059,List1B,white,man,,,,,,,,,,,,,
2674.3,"<img src=""portrait/WW1.jpg""style=""height:400px;""></img>",1,html-button-response,47,312238,0.0-3.2-1.2,51059,List1B,white,man,,TRUE,1,,,,,,,,,,
null,CORRECT,,html-keyboard-response,48,313746,0.0-3.2-2.2-0.2,51059,List1B,white,man,,,,null,,,,,,,,,
3858.3,"<img src=""portrait/WM1.jpg""style=""height:400px;""></img>",6,html-button-response,49,317606,0.0-3.2-4.2,51059,List1B,white,man,,TRUE,6,,,,,,,,,,
null,CORRECT,,html-keyboard-response,50,319124,0.0-3.2-5.2-0.2,51059,List1B,white,man,,,,null,,,,,,,,,
2094.8,"<img src=""portrait/BW1.jpg""style=""height:400px;""></img>",0,html-button-response,51,321220,0.0-3.2-7.2,51059,List1B,white,man,,TRUE,0,,,,,,,,,,
null,CORRECT,,html-keyboard-response,52,322725,0.0-3.2-8.2-0.2,51059,List1B,white,man,,,,null,,,,,,,,,
1440.8,"<img src=""portrait/WW2.jpg""style=""height:400px;""></img>",3,html-button-response,53,324169,0.0-3.2-10.2,51059,List1B,white,man,,TRUE,3,,,,,,,,,,
null,CORRECT,,html-keyboard-response,54,325691,0.0-3.2-11.2-0.2,51059,List1B,white,man,,,,null,,,,,,,,,
1475.8,"<img src=""portrait/BM1.jpg""style=""height:400px;""></img>",4,html-button-response,55,327168,0.0-3.2-13.2,51059,List1B,white,man,,TRUE,4,,,,,,,,,,
null,CORRECT,,html-keyboard-response,56,328682,0.0-3.2-14.2-0.2,51059,List1B,white,man,,,,null,,,,,,,,,
4022,"<img src=""portrait/BM2.jpg""style=""height:400px;""></img>",7,html-button-response,57,332706,0.0-3.2-16.2,51059,List1B,white,man,,TRUE,5,,,,,,,,,,
1409.6,"<img src=""portrait/BM2.jpg""style=""height:400px;""></img>",5,html-button-response,58,335126,0.0-3.2-18.2-0.2,51059,List1B,white,man,,FALSE,5,,,,,,,,,,
null,CORRECT,,html-keyboard-response,59,336632,0.0-3.2-18.2-1.2-0.2,51059,List1B,white,man,,,,null,,,,,,,,,
2338.8,"<img src=""portrait/BW2.jpg""style=""height:400px;""></img>",2,html-button-response,60,338972,0.0-3.2-19.2,51059,List1B,white,man,,TRUE,2,,,,,,,,,,
null,CORRECT,,html-keyboard-response,61,340483,0.0-3.2-20.2-0.2,51059,List1B,white,man,,,,null,,,,,,,,,
4103.7,"<img src=""portrait/WM2.jpg""style=""height:400px;""></img>",7,html-button-response,62,344588,0.0-3.2-22.2,51059,List1B,white,man,,TRUE,7,,,,,,,,,,
null,CORRECT,,html-keyboard-response,63,346109,0.0-3.2-23.2-0.2,51059,List1B,white,man,,,,null,,,,,,,,,
1291.5,<p>You got 7 out of 8 right first time. Press Continue.</p>,0,html-button-response,64,347402,0.0-3.2-25.2,51059,List1B,white,man,,,,,,,,,,,,,
1465.1,"As you did not score 100%, the memory game will repeat. Press Continue.",0,html-button-response,65,349877,0.0-3.2-26.2-0.2,51059,List1B,white,man,,,,,,,,,,,,,
9470.5,"<img src='img/portrait_matrix_list1.jpg' style='width:900px;height:500px;''></img><p>If you have memorised all the portraits and names and are ready to start, press Continue.</p><p><strong>Please note: Your memory of these faces will be tested 4 times during this experiment.</strong></p>",0,html-button-response,66,360354,0.0-3.3-0.3,51059,List1B,white,man,,,,,,,,,,,,,
2338.9,"<img src=""portrait/WW1.jpg""style=""height:400px;""></img>",1,html-button-response,67,363710,0.0-3.3-1.3,51059,List1B,white,man,,TRUE,1,,,,,,,,,,
null,CORRECT,,html-keyboard-response,68,365236,0.0-3.3-2.3-0.3,51059,List1B,white,man,,,,null,,,,,,,,,
2681.1,"<img src=""portrait/WM1.jpg""style=""height:400px;""></img>",6,html-button-response,69,367918,0.0-3.3-4.3,51059,List1B,white,man,,TRUE,6,,,,,,,,,,
null,CORRECT,,html-keyboard-response,70,369438,0.0-3.3-5.3-0.3,51059,List1B,white,man,,,,null,,,,,,,,,
2532.9,"<img src=""portrait/BW1.jpg""style=""height:400px;""></img>",0,html-button-response,71,371972,0.0-3.3-7.3,51059,List1B,white,man,,TRUE,0,,,,,,,,,,
null,CORRECT,,html-keyboard-response,72,373485,0.0-3.3-8.3-0.3,51059,List1B,white,man,,,,null,,,,,,,,,
1812.1,"<img src=""portrait/WW2.jpg""style=""height:400px;""></img>",3,html-button-response,73,375298,0.0-3.3-10.3,51059,List1B,white,man,,TRUE,3,,,,,,,,,,
null,CORRECT,,html-keyboard-response,74,376809,0.0-3.3-11.3-0.3,51059,List1B,white,man,,,,null,,,,,,,,,
1261.1,"<img src=""portrait/BM1.jpg""style=""height:400px;""></img>",4,html-button-response,75,378072,0.0-3.3-13.3,51059,List1B,white,man,,TRUE,4,,,,,,,,,,
null,CORRECT,,html-keyboard-response,76,379585,0.0-3.3-14.3-0.3,51059,List1B,white,man,,,,null,,,,,,,,,
2221.6,"<img src=""portrait/BM2.jpg""style=""height:400px;""></img>",5,html-button-response,77,381808,0.0-3.3-16.3,51059,List1B,white,man,,TRUE,5,,,,,,,,,,
null,CORRECT,,html-keyboard-response,78,383323,0.0-3.3-17.3-0.3,51059,List1B,white,man,,,,null,,,,,,,,,
4189.3,"<img src=""portrait/BW2.jpg""style=""height:400px;""></img>",2,html-button-response,79,387514,0.0-3.3-19.3,51059,List1B,white,man,,TRUE,2,,,,,,,,,,
null,CORRECT,,html-keyboard-response,80,389031,0.0-3.3-20.3-0.3,51059,List1B,white,man,,,,null,,,,,,,,,
5317.2,"<img src=""portrait/WM2.jpg""style=""height:400px;""></img>",7,html-button-response,81,394350,0.0-3.3-22.3,51059,List1B,white,man,,TRUE,7,,,,,,,,,,
null,CORRECT,,html-keyboard-response,82,395875,0.0-3.3-23.3-0.3,51059,List1B,white,man,,,,null,,,,,,,,,
1351.7,<p>You got 8 out of 8 right first time. Press Continue.</p>,0,html-button-response,83,397228,0.0-3.3-25.3,51059,List1B,white,man,,,,,,,,,,,,,
44645.3,"<p>In this experiment, you will view photographs of the people from the memory game interacting.</p><p>By using the <strong>exact</strong> phrase given <i>after</i> the photograph appears and recalling the correct names of the people in the photographs, form a sentence describing the interaction. You do not need to capitalise names.</p><p>Type your answer in the space provided. Please complete every sentence before moving onto the next trial.</p><p>You will only have a few seconds to memorise each given photograph and phrase before you can respond, so try your best to focus.</p><p>An example is given below. Press 'Continue' when you are ready.</p><img src='img/speaking_example.jpg' style='width:800px;height:460px;''></img>",0,html-button-response,84,442886,0.0-4.0,51059,List1B,white,man,,,,,,,,,,,,,
2489,"<p>Before the experiment starts, you will watch two example trials. Press 'Continue'.</p>",0,html-button-response,85,446379,0.0-5.0,51059,List1B,white,man,,,,,,,,,,,,,
null,<img src='img/play_eg.gif' style='height:400px;''></img>,,html-keyboard-response,86,449382,0.0-6.0,51059,List1B,white,man,,,,null,,,,,,,,,
null,<p>is playing with</p>,,html-keyboard-response,87,451387,0.0-7.0,51059,List1B,white,man,,,,null,,,,,,,,,
4078.3,<p><b>Answer:</b> kate is playing with beth</p>,0,html-button-response,88,455467,0.0-8.0,51059,List1B,white,man,,,,,,,,,,,,,
null,<img src='img/dance_eg.gif' style='height:400px;''></img>,,html-keyboard-response,89,458475,0.0-9.0,51059,List1B,white,man,,,,null,,,,,,,,,
null,<p>is being entertained by</p>,,html-keyboard-response,90,460478,0.0-10.0,51059,List1B,white,man,,,,null,,,,,,,,,
6639.6,<p><b>Answer:</b> luke is being entertained by dave</p>,0,html-button-response,91,467119,0.0-11.0,51059,List1B,white,man,,,,,,,,,,,,,
14002.1,"<p>Ready to start the experiment?</p><br><p><strong>Remember to describe the picture using a full sentence,</strong></p><p><strong>that combines the names of the people with the <i>exact</i> phrase given.</strong></p><p><strong>To receive full payment you must do this correctly.</strong></p><p><strong> You do not need to capitalise names or use punctuation.</strong></p><br><p>Press 'Continue' to begin.</p>",0,html-button-response,92,482135,0.0-12.0,51059,List1B,white,man,,,,,,,,,,,,,
null,"<div style=""font-size:60px;"">+</div>",,html-keyboard-response,93,483643,0.0-13.0-0.0,51059,List1B,white,man,,,,null,,,,,,,,,
null,"<img src=""stim_listB/copy5.gif""style=""height:400px;""></stim_listB>",,html-keyboard-response,94,485652,0.0-13.0-1.0,51059,List1B,white,man,,,,null,,,,,,,,,
null,is copying,,html-keyboard-response,95,487663,0.0-13.0-2.0,51059,List1B,white,man,,,,null,,,,,,,,,
8348.5,,,survey-text,96,496015,0.0-13.0-3.0,51059,List1B,white,man,,,,,"{""Q0"":""luke is copying mike""}","<img src=""stim_listB/copy5.gif""style=""height:400px;""></stim_listB>",is copying,,,,,,
null,"<div style=""font-size:60px;"">+</div>",,html-keyboard-response,97,496522,0.0-13.0-0.1,51059,List1B,white,man,,,,null,,,,,,,,,
null,"<img src=""stim_listB/seduce3.gif""style=""height:400px;""></stim_listB>",,html-keyboard-response,98,498530,0.0-13.0-1.1,51059,List1B,white,man,,,,null,,,,,,,,,
null,is seducing,,html-keyboard-response,99,500535,0.0-13.0-2.1,51059,List1B,white,man,,,,null,,,,,,,,,
12285.6,,,survey-text,100,512830,0.0-13.0-3.1,51059,List1B,white,man,,,,,"{""Q0"":""luke is seducing jane""}","<img src=""stim_listB/seduce3.gif""style=""height:400px;""></stim_listB>",is seducing,,,,,,
null,"<div style=""font-size:60px;"">+</div>",,html-keyboard-response,101,513334,0.0-13.0-0.2,51059,List1B,white,man,,,,null,,,,,,,,,
null,"<img src=""stim_listB/look7.gif""style=""height:400px;""></stim_listB>",,html-keyboard-response,102,515340,0.0-13.0-1.2,51059,List1B,white,man,,,,null,,,,,,,,,
null,is looking at,,html-keyboard-response,103,517343,0.0-13.0-2.2,51059,List1B,white,man,,,,null,,,,,,,,,
10905.9,,,survey-text,104,528251,0.0-13.0-3.2,51059,List1B,white,man,,,,,"{""Q0"":""beth is looking at ruth""}","<img src=""stim_listB/look7.gif""style=""height:400px;""></stim_listB>",is looking at,,,,,,
null,"<div style=""font-size:60px;"">+</div>",,html-keyboard-response,105,528756,0.0-13.0-0.3,51059,List1B,white,man,,,,null,,,,,,,,,
null,"<img src=""stim_listB/shout7.gif""style=""height:400px;""></stim_listB>",,html-keyboard-response,106,530762,0.0-13.0-1.3,51059,List1B,white,man,,,,null,,,,,,,,,
null,is shouting at,,html-keyboard-response,107,532769,0.0-13.0-2.3,51059,List1B,white,man,,,,null,,,,,,,,,
7300,,,survey-text,108,540072,0.0-13.0-3.3,51059,List1B,white,man,,,,,"{""Q0"":""beth is shouting at ruth""}","<img src=""stim_listB/shout7.gif""style=""height:400px;""></stim_listB>",is shouting at,,,,,,
null,"<div style=""font-size:60px;"">+</div>",,html-keyboard-response,109,540581,0.0-13.0-0.4,51059,List1B,white,man,,,,null,,,,,,,,,
null,"<img src=""stim_listB/shout1.gif""style=""height:400px;""></stim_listB>",,html-keyboard-response,110,542588,0.0-13.0-1.4,51059,List1B,white,man,,,,null,,,,,,,,,
null,is shouting at,,html-keyboard-response,111,544590,0.0-13.0-2.4,51059,List1B,white,man,,,,null,,,,,,,,,
8351,,,survey-text,112,552944,0.0-13.0-3.4,51059,List1B,white,man,,,,,"{""Q0"":""beth is shouting at fred""}","<img src=""stim_listB/shout1.gif""style=""height:400px;""></stim_listB>",is shouting at,,,,,,
null,"<div style=""font-size:60px;"">+</div>",,html-keyboard-response,113,553447,0.0-13.0-0.5,51059,List1B,white,man,,,,null,,,,,,,,,
null,"<img src=""stim_listB/copy6.gif""style=""height:400px;""></stim_listB>",,html-keyboard-response,114,555460,0.0-13.0-1.5,51059,List1B,white,man,,,,null,,,,,,,,,
null,is being copied by,,html-keyboard-response,115,557462,0.0-13.0-2.5,51059,List1B,white,man,,,,null,,,,,,,,,
9438,,,survey-text,116,566903,0.0-13.0-3.5,51059,List1B,white,man,,,,,"{""Q0"":""fred is copying dave""}","<img src=""stim_listB/copy6.gif""style=""height:400px;""></stim_listB>",is being copied by,,,,,,
null,"<div style=""font-size:60px;"">+</div>",,html-keyboard-response,117,567405,0.0-13.0-0.6,51059,List1B,white,man,,,,null,,,,,,,,,
null,"<img src=""stim_listB/hug6.gif""style=""height:400px;""></stim_listB>",,html-keyboard-response,118,569402,0.0-13.0-1.6,51059,List1B,white,man,,,,null,,,,,,,,,
null,is being hugged by,,html-keyboard-response,119,571415,0.0-13.0-2.6,51059,List1B,white,man,,,,null,,,,,,,,,
9082.7,,,survey-text,120,580500,0.0-13.0-3.6,51059,List1B,white,man,,,,,"{""Q0"":""dave is being hugged by mike""}","<img src=""stim_listB/hug6.gif""style=""height:400px;""></stim_listB>",is being hugged by,,,,,,
null,"<div style=""font-size:60px;"">+</div>",,html-keyboard-response,121,581011,0.0-13.0-0.7,51059,List1B,white,man,,,,null,,,,,,,,,
null,"<img src=""stim_listB/hug1.gif""style=""height:400px;""></stim_listB>",,html-keyboard-response,122,583027,0.0-13.0-1.7,51059,List1B,white,man,,,,null,,,,,,,,,
null,is hugging,,html-keyboard-response,123,585043,0.0-13.0-2.7,51059,List1B,white,man,,,,null,,,,,,,,,
5398.3,,,survey-text,124,590444,0.0-13.0-3.7,51059,List1B,white,man,,,,,"{""Q0"":""beth is hugging fred""}","<img src=""stim_listB/hug1.gif""style=""height:400px;""></stim_listB>",is hugging,,,,,,
null,"<div style=""font-size:60px;"">+</div>",,html-keyboard-response,125,590955,0.0-13.0-0.8,51059,List1B,white,man,,,,null,,,,,,,,,
null,"<img src=""stim_listB/greet3.gif""style=""height:400px;""></stim_listB>",,html-keyboard-response,126,592958,0.0-13.0-1.8,51059,List1B,white,man,,,,null,,,,,,,,,
null,is greeting,,html-keyboard-response,127,594963,0.0-13.0-2.8,51059,List1B,white,man,,,,null,,,,,,,,,
7858.9,,,survey-text,128,602824,0.0-13.0-3.8,51059,List1B,white,man,,,,,"{""Q0"":""ruth is greeting dave""}","<img src=""stim_listB/greet3.gif""style=""height:400px;""></stim_listB>",is greeting,,,,,,
null,"<div style=""font-size:60px;"">+</div>",,html-keyboard-response,129,603333,0.0-13.0-0.9,51059,List1B,white,man,,,,null,,,,,,,,,
null,"<img src=""stim_listB/touch3.gif""style=""height:400px;""></stim_listB>",,html-keyboard-response,130,605339,0.0-13.0-1.9,51059,List1B,white,man,,,,null,,,,,,,,,
null,is touching,,html-keyboard-response,131,607353,0.0-13.0-2.9,51059,List1B,white,man,,,,null,,,,,,,,,
14796.3,,,survey-text,132,622152,0.0-13.0-3.9,51059,List1B,white,man,,,,,"{""Q0"":""dave is touching jane""}","<img src=""stim_listB/touch3.gif""style=""height:400px;""></stim_listB>",is touching,,,,,,
null,"<div style=""font-size:60px;"">+</div>",,html-keyboard-response,133,622656,0.0-13.0-0.10,51059,List1B,white,man,,,,null,,,,,,,,,
null,"<img src=""stim_listB/oppose1.gif""style=""height:400px;""></stim_listB>",,html-keyboard-response,134,624662,0.0-13.0-1.10,51059,List1B,white,man,,,,null,,,,,,,,,
null,is opposing,,html-keyboard-response,135,626668,0.0-13.0-2.10,51059,List1B,white,man,,,,null,,,,,,,,,
39727.8,,,survey-text,136,666404,0.0-13.0-3.10,51059,List1B,white,man,,,,,"{""Q0"":""mike is opposing beth""}","<img src=""stim_listB/oppose1.gif""style=""height:400px;""></stim_listB>",is opposing,,,,,,
null,"<div style=""font-size:60px;"">+</div>",,html-keyboard-response,137,666917,0.0-13.0-0.11,51059,List1B,white,man,,,,null,,,,,,,,,
null,"<img src=""stim_listB/look6.gif""style=""height:400px;""></stim_listB>",,html-keyboard-response,138,668921,0.0-13.0-1.11,51059,List1B,white,man,,,,null,,,,,,,,,
null,is being looked at by,,html-keyboard-response,139,670932,0.0-13.0-2.11,51059,List1B,white,man,,,,null,,,,,,,,,
9323.9,,,survey-text,140,680259,0.0-13.0-3.11,51059,List1B,white,man,,,,,"{""Q0"":""dave is being looked at by mike""}","<img src=""stim_listB/look6.gif""style=""height:400px;""></stim_listB>",is being looked at by,,,,,,
null,"<div style=""font-size:60px;"">+</div>",,html-keyboard-response,141,680764,0.0-13.0-0.12,51059,List1B,white,man,,,,null,,,,,,,,,
null,"<img src=""stim_listB/challenge6.gif""style=""height:400px;""></stim_listB>",,html-keyboard-response,142,682767,0.0-13.0-1.12,51059,List1B,white,man,,,,null,,,,,,,,,
null,is being challenged by,,html-keyboard-response,143,684783,0.0-13.0-2.12,51059,List1B,white,man,,,,null,,,,,,,,,
11690.3,,,survey-text,144,696476,0.0-13.0-3.12,51059,List1B,white,man,,,,,"{""Q0"":""fred is being challenged by dave""}","<img src=""stim_listB/challenge6.gif""style=""height:400px;""></stim_listB>",is being challenged by,,,,,,
null,"<div style=""font-size:60px;"">+</div>",,html-keyboard-response,145,696987,0.0-13.0-0.13,51059,List1B,white,man,,,,null,,,,,,,,,
null,"<img src=""stim_listB/hug2.gif""style=""height:400px;""></stim_listB>",,html-keyboard-response,146,698992,0.0-13.0-1.13,51059,List1B,white,man,,,,null,,,,,,,,,
null,is being hugged by,,html-keyboard-response,147,701003,0.0-13.0-2.13,51059,List1B,white,man,,,,null,,,,,,,,,
16642.6,,,survey-text,148,717649,0.0-13.0-3.13,51059,List1B,white,man,,,,,"{""Q0"":""mike is being hugged by beth""}","<img src=""stim_listB/hug2.gif""style=""height:400px;""></stim_listB>",is being hugged by,,,,,,
null,"<div style=""font-size:60px;"">+</div>",,html-keyboard-response,149,718158,0.0-13.0-0.14,51059,List1B,white,man,,,,null,,,,,,,,,
null,"<img src=""stim_listB/look5.gif""style=""height:400px;""></stim_listB>",,html-keyboard-response,150,720175,0.0-13.0-1.14,51059,List1B,white,man,,,,null,,,,,,,,,
null,is looking at,,html-keyboard-response,151,722182,0.0-13.0-2.14,51059,List1B,white,man,,,,null,,,,,,,,,
4973.1,,,survey-text,152,727158,0.0-13.0-3.14,51059,List1B,white,man,,,,,"{""Q0"":""fred is looking at luke""}","<img src=""stim_listB/look5.gif""style=""height:400px;""></stim_listB>",is looking at,,,,,,
null,"<div style=""font-size:60px;"">+</div>",,html-keyboard-response,153,727667,0.0-13.0-0.15,51059,List1B,white,man,,,,null,,,,,,,,,
null,"<img src=""stim_listB/kiss6.gif""style=""height:400px;""></stim_listB>",,html-keyboard-response,154,729675,0.0-13.0-1.15,51059,List1B,white,man,,,,null,,,,,,,,,
null,is being kissed by,,html-keyboard-response,155,731682,0.0-13.0-2.15,51059,List1B,white,man,,,,null,,,,,,,,,
8816.4,,,survey-text,156,740501,0.0-13.0-3.15,51059,List1B,white,man,,,,,"{""Q0"":""dave is being kissed by mike""}","<img src=""stim_listB/kiss6.gif""style=""height:400px;""></stim_listB>",is being kissed by,,,,,,
null,"<div style=""font-size:60px;"">+</div>",,html-keyboard-response,157,741013,0.0-13.0-0.16,51059,List1B,white,man,,,,null,,,,,,,,,
null,"<img src=""stim_listB/kiss3.gif""style=""height:400px;""></stim_listB>",,html-keyboard-response,158,743027,0.0-13.0-1.16,51059,List1B,white,man,,,,null,,,,,,,,,
null,is kissing,,html-keyboard-response,159,745042,0.0-13.0-2.16,51059,List1B,white,man,,,,null,,,,,,,,,
9806.7,,,survey-text,160,754850,0.0-13.0-3.16,51059,List1B,white,man,,,,,"{""Q0"":""luke is being kissed by ruth""}","<img src=""stim_listB/kiss3.gif""style=""height:400px;""></stim_listB>",is kissing,,,,,,
null,"<div style=""font-size:60px;"">+</div>",,html-keyboard-response,161,755354,0.0-13.0-0.17,51059,List1B,white,man,,,,null,,,,,,,,,
null,"<img src=""stim_listB/oppose4.gif""style=""height:400px;""></stim_listB>",,html-keyboard-response,162,757370,0.0-13.0-1.17,51059,List1B,white,man,,,,null,,,,,,,,,
null,is being opposed by,,html-keyboard-response,163,759381,0.0-13.0-2.17,51059,List1B,white,man,,,,null,,,,,,,,,
9911.9,,,survey-text,164,769295,0.0-13.0-3.17,51059,List1B,white,man,,,,,"{""Q0"":""luke is being opposed by ruth""}","<img src=""stim_listB/oppose4.gif""style=""height:400px;""></stim_listB>",is being opposed by,,,,,,
null,"<div style=""font-size:60px;"">+</div>",,html-keyboard-response,165,769798,0.0-13.0-0.18,51059,List1B,white,man,,,,null,,,,,,,,,
null,"<img src=""stim_listB/hug7.gif""style=""height:400px;""></stim_listB>",,html-keyboard-response,166,771807,0.0-13.0-1.18,51059,List1B,white,man,,,,null,,,,,,,,,
null,is hugging,,html-keyboard-response,167,773809,0.0-13.0-2.18,51059,List1B,white,man,,,,null,,,,,,,,,
6413.3,,,survey-text,168,780225,0.0-13.0-3.18,51059,List1B,white,man,,,,,"{""Q0"":""ruth is hugging beth""}","<img src=""stim_listB/hug7.gif""style=""height:400px;""></stim_listB>",is hugging,,,,,,
null,"<div style=""font-size:60px;"">+</div>",,html-keyboard-response,169,780731,0.0-13.0-0.19,51059,List1B,white,man,,,,null,,,,,,,,,
null,"<img src=""stim_listB/challenge7.gif""style=""height:400px;""></stim_listB>",,html-keyboard-response,170,782741,0.0-13.0-1.19,51059,List1B,white,man,,,,null,,,,,,,,,
null,is challenging,,html-keyboard-response,171,784748,0.0-13.0-2.19,51059,List1B,white,man,,,,null,,,,,,,,,
11175.6,,,survey-text,172,795927,0.0-13.0-3.19,51059,List1B,white,man,,,,,"{""Q0"":""ruth is challenging beth""}","<img src=""stim_listB/challenge7.gif""style=""height:400px;""></stim_listB>",is challenging,,,,,,
23273,"<img src='img/portrait_matrix_list1.jpg' style='width:900px;height:500px;''></img><p>If you have memorised all the portraits and names and are ready to start, press Continue.</p><p><strong>Please note: Your memory of these faces will be tested 4 times during this experiment.</strong></p>",0,html-button-response,173,819202,0.0-14.0-0.0,51059,List1B,white,man,,,,,,,,,,,,,
2922.5,"<img src=""portrait/WW2.jpg""style=""height:400px;""></img>",3,html-button-response,174,823130,0.0-14.0-1.0,51059,List1B,white,man,,TRUE,3,,,,,,,,,,
null,CORRECT,,html-keyboard-response,175,824651,0.0-14.0-2.0-0.0,51059,List1B,white,man,,,,null,,,,,,,,,
1499.6,"<img src=""portrait/BM1.jpg""style=""height:400px;""></img>",4,html-button-response,176,826152,0.0-14.0-4.0,51059,List1B,white,man,,TRUE,4,,,,,,,,,,
null,CORRECT,,html-keyboard-response,177,827666,0.0-14.0-5.0-0.0,51059,List1B,white,man,,,,null,,,,,,,,,
4701.9,"<img src=""portrait/BW1.jpg""style=""height:400px;""></img>",0,html-button-response,178,832370,0.0-14.0-7.0,51059,List1B,white,man,,TRUE,0,,,,,,,,,,
null,CORRECT,,html-keyboard-response,179,833882,0.0-14.0-8.0-0.0,51059,List1B,white,man,,,,null,,,,,,,,,
1868.8,"<img src=""portrait/BW2.jpg""style=""height:400px;""></img>",2,html-button-response,180,835752,0.0-14.0-10.0,51059,List1B,white,man,,TRUE,2,,,,,,,,,,
null,CORRECT,,html-keyboard-response,181,837268,0.0-14.0-11.0-0.0,51059,List1B,white,man,,,,null,,,,,,,,,
1666.5,"<img src=""portrait/WW1.jpg""style=""height:400px;""></img>",1,html-button-response,182,838935,0.0-14.0-13.0,51059,List1B,white,man,,TRUE,1,,,,,,,,,,
null,CORRECT,,html-keyboard-response,183,840463,0.0-14.0-14.0-0.0,51059,List1B,white,man,,,,null,,,,,,,,,
2846.9,"<img src=""portrait/WM2.jpg""style=""height:400px;""></img>",7,html-button-response,184,843312,0.0-14.0-16.0,51059,List1B,white,man,,TRUE,7,,,,,,,,,,
null,CORRECT,,html-keyboard-response,185,844837,0.0-14.0-17.0-0.0,51059,List1B,white,man,,,,null,,,,,,,,,
3432.9,"<img src=""portrait/BM2.jpg""style=""height:400px;""></img>",5,html-button-response,186,848272,0.0-14.0-19.0,51059,List1B,white,man,,TRUE,5,,,,,,,,,,
null,CORRECT,,html-keyboard-response,187,849794,0.0-14.0-20.0-0.0,51059,List1B,white,man,,,,null,,,,,,,,,
2115.7,"<img src=""portrait/WM1.jpg""style=""height:400px;""></img>",6,html-button-response,188,851912,0.0-14.0-22.0,51059,List1B,white,man,,TRUE,6,,,,,,,,,,
null,CORRECT,,html-keyboard-response,189,853426,0.0-14.0-23.0-0.0,51059,List1B,white,man,,,,null,,,,,,,,,
1338.5,<p>You got 8 out of 8 right first time. Press Continue.</p>,0,html-button-response,190,854766,0.0-14.0-25.0,51059,List1B,white,man,,,,,,,,,,,,,
null,"<div style=""font-size:60px;"">+</div>",,html-keyboard-response,191,856285,0.0-15.0-0.0,51059,List1B,white,man,,,,null,,,,,,,,,
null,"<img src=""stim_listB/seduce1.gif""style=""height:400px;""></stim_listB>",,html-keyboard-response,192,858289,0.0-15.0-1.0,51059,List1B,white,man,,,,null,,,,,,,,,
null,is seducing,,html-keyboard-response,193,860300,0.0-15.0-2.0,51059,List1B,white,man,,,,null,,,,,,,,,
13051.6,,,survey-text,194,873355,0.0-15.0-3.0,51059,List1B,white,man,,,,,"{""Q0"":""kate is seducing fred""}","<img src=""stim_listB/seduce1.gif""style=""height:400px;""></stim_listB>",is seducing,,,,,,
null,"<div style=""font-size:60px;"">+</div>",,html-keyboard-response,195,873865,0.0-15.0-0.1,51059,List1B,white,man,,,,null,,,,,,,,,
null,"<img src=""stim_listB/kiss2.gif""style=""height:400px;""></stim_listB>",,html-keyboard-response,196,875874,0.0-15.0-1.1,51059,List1B,white,man,,,,null,,,,,,,,,
null,is being kissed by,,html-keyboard-response,197,877879,0.0-15.0-2.1,51059,List1B,white,man,,,,null,,,,,,,,,
9122,,,survey-text,198,887004,0.0-15.0-3.1,51059,List1B,white,man,,,,,"{""Q0"":""mike is kissing mike""}","<img src=""stim_listB/kiss2.gif""style=""height:400px;""></stim_listB>",is being kissed by,,,,,,
null,"<div style=""font-size:60px;"">+</div>",,html-keyboard-response,199,887510,0.0-15.0-0.2,51059,List1B,white,man,,,,null,,,,,,,,,
null,"<img src=""stim_listB/seduce2.gif""style=""height:400px;""></stim_listB>",,html-keyboard-response,200,889514,0.0-15.0-1.2,51059,List1B,white,man,,,,null,,,,,,,,,
null,is being seduced by,,html-keyboard-response,201,891525,0.0-15.0-2.2,51059,List1B,white,man,,,,null,,,,,,,,,
7461.7,,,survey-text,202,898990,0.0-15.0-3.2,51059,List1B,white,man,,,,,"{""Q0"":""beth is being seduced by mike""}","<img src=""stim_listB/seduce2.gif""style=""height:400px;""></stim_listB>",is being seduced by,,,,,,
null,"<div style=""font-size:60px;"">+</div>",,html-keyboard-response,203,899493,0.0-15.0-0.3,51059,List1B,white,man,,,,null,,,,,,,,,
null,"<img src=""stim_listB/seduce6.gif""style=""height:400px;""></stim_listB>",,html-keyboard-response,204,901504,0.0-15.0-1.3,51059,List1B,white,man,,,,null,,,,,,,,,
null,is being seduced by,,html-keyboard-response,205,903518,0.0-15.0-2.3,51059,List1B,white,man,,,,null,,,,,,,,,
9532.3,,,survey-text,206,913053,0.0-15.0-3.3,51059,List1B,white,man,,,,,"{""Q0"":""mike is being seduced by luke""}","<img src=""stim_listB/seduce6.gif""style=""height:400px;""></stim_listB>",is being seduced by,,,,,,
null,"<div style=""font-size:60px;"">+</div>",,html-keyboard-response,207,913558,0.0-15.0-0.4,51059,List1B,white,man,,,,null,,,,,,,,,
null,"<img src=""stim_listB/oppose6.gif""style=""height:400px;""></stim_listB>",,html-keyboard-response,208,915570,0.0-15.0-1.4,51059,List1B,white,man,,,,null,,,,,,,,,
null,is being opposed by,,html-keyboard-response,209,917573,0.0-15.0-2.4,51059,List1B,white,man,,,,null,,,,,,,,,
14759.9,,,survey-text,210,932335,0.0-15.0-3.4,51059,List1B,white,man,,,,,"{""Q0"":""luke is being opposed by fred""}","<img src=""stim_listB/oppose6.gif""style=""height:400px;""></stim_listB>",is being opposed by,,,,,,
null,"<div style=""font-size:60px;"">+</div>",,html-keyboard-response,211,932838,0.0-15.0-0.5,51059,List1B,white,man,,,,null,,,,,,,,,
null,"<img src=""stim_listB/hug4.gif""style=""height:400px;""></stim_listB>",,html-keyboard-response,212,934846,0.0-15.0-1.5,51059,List1B,white,man,,,,null,,,,,,,,,
null,is being hugged by,,html-keyboard-response,213,936847,0.0-15.0-2.5,51059,List1B,white,man,,,,null,,,,,,,,,
8756,,,survey-text,214,945605,0.0-15.0-3.5,51059,List1B,white,man,,,,,"{""Q0"":""mike is being hugged by jane""}","<img src=""stim_listB/hug4.gif""style=""height:400px;""></stim_listB>",is being hugged by,,,,,,
null,"<div style=""font-size:60px;"">+</div>",,html-keyboard-response,215,946107,0.0-15.0-0.6,51059,List1B,white,man,,,,null,,,,,,,,,
null,"<img src=""stim_listB/look8.gif""style=""height:400px;""></stim_listB>",,html-keyboard-response,216,948118,0.0-15.0-1.6,51059,List1B,white,man,,,,null,,,,,,,,,
null,is being looked at by,,html-keyboard-response,217,950124,0.0-15.0-2.6,51059,List1B,white,man,,,,null,,,,,,,,,
9411.5,,,survey-text,218,959539,0.0-15.0-3.6,51059,List1B,white,man,,,,,"{""Q0"":""kate is being looked at by jane""}","<img src=""stim_listB/look8.gif""style=""height:400px;""></stim_listB>",is being looked at by,,,,,,
null,"<div style=""font-size:60px;"">+</div>",,html-keyboard-response,219,960048,0.0-15.0-0.7,51059,List1B,white,man,,,,null,,,,,,,,,
null,"<img src=""stim_listB/kiss8.gif""style=""height:400px;""></stim_listB>",,html-keyboard-response,220,962059,0.0-15.0-1.7,51059,List1B,white,man,,,,null,,,,,,,,,
null,is being kissed by,,html-keyboard-response,221,964064,0.0-15.0-2.7,51059,List1B,white,man,,,,null,,,,,,,,,
7322.2,,,survey-text,222,971389,0.0-15.0-3.7,51059,List1B,white,man,,,,,"{""Q0"":""kate is being kissed by jane""}","<img src=""stim_listB/kiss8.gif""style=""height:400px;""></stim_listB>",is being kissed by,,,,,,
null,"<div style=""font-size:60px;"">+</div>",,html-keyboard-response,223,971897,0.0-15.0-0.8,51059,List1B,white,man,,,,null,,,,,,,,,
null,"<img src=""stim_listB/greet5.gif""style=""height:400px;""></stim_listB>",,html-keyboard-response,224,973914,0.0-15.0-1.8,51059,List1B,white,man,,,,null,,,,,,,,,
null,is greeting,,html-keyboard-response,225,975917,0.0-15.0-2.8,51059,List1B,white,man,,,,null,,,,,,,,,
8882.3,,,survey-text,226,984803,0.0-15.0-3.8,51059,List1B,white,man,,,,,"{""Q0"":""mike is greeting luke""}","<img src=""stim_listB/greet5.gif""style=""height:400px;""></stim_listB>",is greeting,,,,,,
null,"<div style=""font-size:60px;"">+</div>",,html-keyboard-response,227,985314,0.0-15.0-0.9,51059,List1B,white,man,,,,null,,,,,,,,,
null,"<img src=""stim_listB/seduce4.gif""style=""height:400px;""></stim_listB>",,html-keyboard-response,228,987322,0.0-15.0-1.9,51059,List1B,white,man,,,,null,,,,,,,,,
null,is being seduced by,,html-keyboard-response,229,989334,0.0-15.0-2.9,51059,List1B,white,man,,,,null,,,,,,,,,
9680.1,,,survey-text,230,999013,0.0-15.0-3.9,51059,List1B,white,man,,,,,"{""Q0"":""dave is being seduced by ruth""}","<img src=""stim_listB/seduce4.gif""style=""height:400px;""></stim_listB>",is being seduced by,,,,,,
null,"<div style=""font-size:60px;"">+</div>",,html-keyboard-response,231,999517,0.0-15.0-0.10,51059,List1B,white,man,,,,null,,,,,,,,,
null,"<img src=""stim_listB/oppose5.gif""style=""height:400px;""></stim_listB>",,html-keyboard-response,232,1001533,0.0-15.0-1.10,51059,List1B,white,man,,,,null,,,,,,,,,
null,is opposing,,html-keyboard-response,233,1003535,0.0-15.0-2.10,51059,List1B,white,man,,,,null,,,,,,,,,
12438.2,,,survey-text,234,1015976,0.0-15.0-3.10,51059,List1B,white,man,,,,,"{""Q0"":""mike is being opposed by dave""}","<img src=""stim_listB/oppose5.gif""style=""height:400px;""></stim_listB>",is opposing,,,,,,
null,"<div style=""font-size:60px;"">+</div>",,html-keyboard-response,235,1016487,0.0-15.0-0.11,51059,List1B,white,man,,,,null,,,,,,,,,
null,"<img src=""stim_listB/touch1.gif""style=""height:400px;""></stim_listB>",,html-keyboard-response,236,1018495,0.0-15.0-1.11,51059,List1B,white,man,,,,null,,,,,,,,,
null,is touching,,html-keyboard-response,237,1020501,0.0-15.0-2.11,51059,List1B,white,man,,,,null,,,,,,,,,
4268.5,,,survey-text,238,1024772,0.0-15.0-3.11,51059,List1B,white,man,,,,,"{""Q0"":""mike is touching kate""}","<img src=""stim_listB/touch1.gif""style=""height:400px;""></stim_listB>",is touching,,,,,,
null,"<div style=""font-size:60px;"">+</div>",,html-keyboard-response,239,1025288,0.0-15.0-0.12,51059,List1B,white,man,,,,null,,,,,,,,,
null,"<img src=""stim_listB/kiss4.gif""style=""height:400px;""></stim_listB>",,html-keyboard-response,240,1027301,0.0-15.0-1.12,51059,List1B,white,man,,,,null,,,,,,,,,
null,is being kissed by,,html-keyboard-response,241,1029306,0.0-15.0-2.12,51059,List1B,white,man,,,,null,,,,,,,,,
6027.6,,,survey-text,242,1035337,0.0-15.0-3.12,51059,List1B,white,man,,,,,"{""Q0"":""dave is being kissed by jane""}","<img src=""stim_listB/kiss4.gif""style=""height:400px;""></stim_listB>",is being kissed by,,,,,,
null,"<div style=""font-size:60px;"">+</div>",,html-keyboard-response,243,1035850,0.0-15.0-0.13,51059,List1B,white,man,,,,null,,,,,,,,,
null,"<img src=""stim_listB/challenge2.gif""style=""height:400px;""></stim_listB>",,html-keyboard-response,244,1037862,0.0-15.0-1.13,51059,List1B,white,man,,,,null,,,,,,,,,
null,is being challenged by,,html-keyboard-response,245,1039865,0.0-15.0-2.13,51059,List1B,white,man,,,,null,,,,,,,,,
7530.9,,,survey-text,246,1047398,0.0-15.0-3.13,51059,List1B,white,man,,,,,"{""Q0"":""fred is being challenged by kate""}","<img src=""stim_listB/challenge2.gif""style=""height:400px;""></stim_listB>",is being challenged by,,,,,,
null,"<div style=""font-size:60px;"">+</div>",,html-keyboard-response,247,1047908,0.0-15.0-0.14,51059,List1B,white,man,,,,null,,,,,,,,,
null,"<img src=""stim_listB/shout5.gif""style=""height:400px;""></stim_listB>",,html-keyboard-response,248,1049917,0.0-15.0-1.14,51059,List1B,white,man,,,,null,,,,,,,,,
null,is shouting at,,html-keyboard-response,249,1051925,0.0-15.0-2.14,51059,List1B,white,man,,,,null,,,,,,,,,
6255.5,,,survey-text,250,1058187,0.0-15.0-3.14,51059,List1B,white,man,,,,,"{""Q0"":""fred is shouting at luke""}","<img src=""stim_listB/shout5.gif""style=""height:400px;""></stim_listB>",is shouting at,,,,,,
null,"<div style=""font-size:60px;"">+</div>",,html-keyboard-response,251,1058697,0.0-15.0-0.15,51059,List1B,white,man,,,,null,,,,,,,,,
null,"<img src=""stim_listB/seduce7.gif""style=""height:400px;""></stim_listB>",,html-keyboard-response,252,1060713,0.0-15.0-1.15,51059,List1B,white,man,,,,null,,,,,,,,,
null,is seducing,,html-keyboard-response,253,1062723,0.0-15.0-2.15,51059,List1B,white,man,,,,null,,,,,,,,,
4392.4,,,survey-text,254,1067119,0.0-15.0-3.15,51059,List1B,white,man,,,,,"{""Q0"":""beth is seducing jane""}","<img src=""stim_listB/seduce7.gif""style=""height:400px;""></stim_listB>",is seducing,,,,,,
null,"<div style=""font-size:60px;"">+</div>",,html-keyboard-response,255,1067623,0.0-15.0-0.16,51059,List1B,white,man,,,,null,,,,,,,,,
null,"<img src=""stim_listB/oppose2.gif""style=""height:400px;""></stim_listB>",,html-keyboard-response,256,1069636,0.0-15.0-1.16,51059,List1B,white,man,,,,null,,,,,,,,,
null,is being opposed by,,html-keyboard-response,257,1071640,0.0-15.0-2.16,51059,List1B,white,man,,,,null,,,,,,,,,
8974.6,,,survey-text,258,1080617,0.0-15.0-3.16,51059,List1B,white,man,,,,,"{""Q0"":""fred is being opposed by beth""}","<img src=""stim_listB/oppose2.gif""style=""height:400px;""></stim_listB>",is being opposed by,,,,,,
null,"<div style=""font-size:60px;"">+</div>",,html-keyboard-response,259,1081129,0.0-15.0-0.17,51059,List1B,white,man,,,,null,,,,,,,,,
null,"<img src=""stim_listB/touch5.gif""style=""height:400px;""></stim_listB>",,html-keyboard-response,260,1083135,0.0-15.0-1.17,51059,List1B,white,man,,,,null,,,,,,,,,
null,is touching,,html-keyboard-response,261,1085141,0.0-15.0-2.17,51059,List1B,white,man,,,,null,,,,,,,,,
6204.5,,,survey-text,262,1091348,0.0-15.0-3.17,51059,List1B,white,man,,,,,"{""Q0"":""mike is touching dave""}","<img src=""stim_listB/touch5.gif""style=""height:400px;""></stim_listB>",is touching,,,,,,
null,"<div style=""font-size:60px;"">+</div>",,html-keyboard-response,263,1091856,0.0-15.0-0.18,51059,List1B,white,man,,,,null,,,,,,,,,
null,"<img src=""stim_listB/shout2.gif""style=""height:400px;""></stim_listB>",,html-keyboard-response,264,1093860,0.0-15.0-1.18,51059,List1B,white,man,,,,null,,,,,,,,,
null,is being shouted at by,,html-keyboard-response,265,1095867,0.0-15.0-2.18,51059,List1B,white,man,,,,null,,,,,,,,,
8638.4,,,survey-text,266,1104508,0.0-15.0-3.18,51059,List1B,white,man,,,,,"{""Q0"":""mike is shouting at kate""}","<img src=""stim_listB/shout2.gif""style=""height:400px;""></stim_listB>",is being shouted at by,,,,,,
null,"<div style=""font-size:60px;"">+</div>",,html-keyboard-response,267,1105020,0.0-15.0-0.19,51059,List1B,white,man,,,,null,,,,,,,,,
null,"<img src=""stim_listB/shout8.gif""style=""height:400px;""></stim_listB>",,html-keyboard-response,268,1107028,0.0-15.0-1.19,51059,List1B,white,man,,,,null,,,,,,,,,
null,is being shouted at by,,html-keyboard-response,269,1109038,0.0-15.0-2.19,51059,List1B,white,man,,,,null,,,,,,,,,
8951.3,,,survey-text,270,1117992,0.0-15.0-3.19,51059,List1B,white,man,,,,,"{""Q0"":""kate is being shouted at by jane""}","<img src=""stim_listB/shout8.gif""style=""height:400px;""></stim_listB>",is being shouted at by,,,,,,
3655.7,"<img src='img/portrait_matrix_list1.jpg' style='width:900px;height:500px;''></img><p>If you have memorised all the portraits and names and are ready to start, press Continue.</p><p><strong>Please note: Your memory of these faces will be tested 4 times during this experiment.</strong></p>",0,html-button-response,271,1121649,0.0-16.0-0.0,51059,List1B,white,man,,,,,,,,,,,,,
1842.4,"<img src=""portrait/BM1.jpg""style=""height:400px;""></img>",4,html-button-response,272,1124494,0.0-16.0-1.0,51059,List1B,white,man,,TRUE,4,,,,,,,,,,
null,CORRECT,,html-keyboard-response,273,1126002,0.0-16.0-2.0-0.0,51059,List1B,white,man,,,,null,,,,,,,,,
1898.1,"<img src=""portrait/BW2.jpg""style=""height:400px;""></img>",2,html-button-response,274,1127902,0.0-16.0-4.0,51059,List1B,white,man,,TRUE,2,,,,,,,,,,
null,CORRECT,,html-keyboard-response,275,1129418,0.0-16.0-5.0-0.0,51059,List1B,white,man,,,,null,,,,,,,,,
2618.2,"<img src=""portrait/WM1.jpg""style=""height:400px;""></img>",6,html-button-response,276,1132037,0.0-16.0-7.0,51059,List1B,white,man,,TRUE,6,,,,,,,,,,
null,CORRECT,,html-keyboard-response,277,1133561,0.0-16.0-8.0-0.0,51059,List1B,white,man,,,,null,,,,,,,,,
1990.8,"<img src=""portrait/BW1.jpg""style=""height:400px;""></img>",0,html-button-response,278,1135553,0.0-16.0-10.0,51059,List1B,white,man,,TRUE,0,,,,,,,,,,
null,CORRECT,,html-keyboard-response,279,1137066,0.0-16.0-11.0-0.0,51059,List1B,white,man,,,,null,,,,,,,,,
1508.1,"<img src=""portrait/WW2.jpg""style=""height:400px;""></img>",3,html-button-response,280,1138575,0.0-16.0-13.0,51059,List1B,white,man,,TRUE,3,,,,,,,,,,
null,CORRECT,,html-keyboard-response,281,1140091,0.0-16.0-14.0-0.0,51059,List1B,white,man,,,,null,,,,,,,,,
1873.3,"<img src=""portrait/WW1.jpg""style=""height:400px;""></img>",1,html-button-response,282,1141966,0.0-16.0-16.0,51059,List1B,white,man,,TRUE,1,,,,,,,,,,
null,CORRECT,,html-keyboard-response,283,1143477,0.0-16.0-17.0-0.0,51059,List1B,white,man,,,,null,,,,,,,,,
2431.2,"<img src=""portrait/WM2.jpg""style=""height:400px;""></img>",7,html-button-response,284,1145910,0.0-16.0-19.0,51059,List1B,white,man,,TRUE,7,,,,,,,,,,
null,CORRECT,,html-keyboard-response,285,1147424,0.0-16.0-20.0-0.0,51059,List1B,white,man,,,,null,,,,,,,,,
2057.6,"<img src=""portrait/BM2.jpg""style=""height:400px;""></img>",5,html-button-response,286,1149483,0.0-16.0-22.0,51059,List1B,white,man,,TRUE,5,,,,,,,,,,
null,CORRECT,,html-keyboard-response,287,1150993,0.0-16.0-23.0-0.0,51059,List1B,white,man,,,,null,,,,,,,,,
1750.2,<p>You got 8 out of 8 right first time. Press Continue.</p>,0,html-button-response,288,1152745,0.0-16.0-25.0,51059,List1B,white,man,,,,,,,,,,,,,
null,"<div style=""font-size:60px;"">+</div>",,html-keyboard-response,289,1154271,0.0-17.0-0.0,51059,List1B,white,man,,,,null,,,,,,,,,
null,"<img src=""stim_listB/shout3.gif""style=""height:400px;""></stim_listB>",,html-keyboard-response,290,1156273,0.0-17.0-1.0,51059,List1B,white,man,,,,null,,,,,,,,,
null,is shouting at,,html-keyboard-response,291,1158280,0.0-17.0-2.0,51059,List1B,white,man,,,,null,,,,,,,,,
20186.5,,,survey-text,292,1178470,0.0-17.0-3.0,51059,List1B,white,man,,,,,"{""Q0"":""ruth is shouting at luke""}","<img src=""stim_listB/shout3.gif""style=""height:400px;""></stim_listB>",is shouting at,,,,,,
null,"<div style=""font-size:60px;"">+</div>",,html-keyboard-response,293,1178981,0.0-17.0-0.1,51059,List1B,white,man,,,,null,,,,,,,,,
null,"<img src=""stim_listB/touch6.gif""style=""height:400px;""></stim_listB>",,html-keyboard-response,294,1180987,0.0-17.0-1.1,51059,List1B,white,man,,,,null,,,,,,,,,
null,is being touched by,,html-keyboard-response,295,1182993,0.0-17.0-2.1,51059,List1B,white,man,,,,null,,,,,,,,,
7847.8,,,survey-text,296,1190843,0.0-17.0-3.1,51059,List1B,white,man,,,,,"{""Q0"":""fred is being touched by luke""}","<img src=""stim_listB/touch6.gif""style=""height:400px;""></stim_listB>",is being touched by,,,,,,
null,"<div style=""font-size:60px;"">+</div>",,html-keyboard-response,297,1191353,0.0-17.0-0.2,51059,List1B,white,man,,,,null,,,,,,,,,
null,"<img src=""stim_listB/touch2.gif""style=""height:400px;""></stim_listB>",,html-keyboard-response,298,1193359,0.0-17.0-1.2,51059,List1B,white,man,,,,null,,,,,,,,,
null,is being touched by,,html-keyboard-response,299,1195373,0.0-17.0-2.2,51059,List1B,white,man,,,,null,,,,,,,,,
10215.9,,,survey-text,300,1205592,0.0-17.0-3.2,51059,List1B,white,man,,,,,"{""Q0"":""fred is being touched by beth""}","<img src=""stim_listB/touch2.gif""style=""height:400px;""></stim_listB>",is being touched by,,,,,,
null,"<div style=""font-size:60px;"">+</div>",,html-keyboard-response,301,1206103,0.0-17.0-0.3,51059,List1B,white,man,,,,null,,,,,,,,,
null,"<img src=""stim_listB/copy4.gif""style=""height:400px;""></stim_listB>",,html-keyboard-response,302,1208117,0.0-17.0-1.3,51059,List1B,white,man,,,,null,,,,,,,,,
null,is being copied by,,html-keyboard-response,303,1210126,0.0-17.0-2.3,51059,List1B,white,man,,,,null,,,,,,,,,
7916.5,,,survey-text,304,1218046,0.0-17.0-3.3,51059,List1B,white,man,,,,,"{""Q0"":""luke is being copied by jane""}","<img src=""stim_listB/copy4.gif""style=""height:400px;""></stim_listB>",is being copied by,,,,,,
null,"<div style=""font-size:60px;"">+</div>",,html-keyboard-response,305,1218551,0.0-17.0-0.4,51059,List1B,white,man,,,,null,,,,,,,,,
null,"<img src=""stim_listB/hug5.gif""style=""height:400px;""></stim_listB>",,html-keyboard-response,306,1220561,0.0-17.0-1.4,51059,List1B,white,man,,,,null,,,,,,,,,
null,is hugging,,html-keyboard-response,307,1222566,0.0-17.0-2.4,51059,List1B,white,man,,,,null,,,,,,,,,
4612.3,,,survey-text,308,1227181,0.0-17.0-3.4,51059,List1B,white,man,,,,,"{""Q0"":""luke is hugging fred""}","<img src=""stim_listB/hug5.gif""style=""height:400px;""></stim_listB>",is hugging,,,,,,
null,"<div style=""font-size:60px;"">+</div>",,html-keyboard-response,309,1227695,0.0-17.0-0.5,51059,List1B,white,man,,,,null,,,,,,,,,
null,"<img src=""stim_listB/greet8.gif""style=""height:400px;""></stim_listB>",,html-keyboard-response,310,1229710,0.0-17.0-1.5,51059,List1B,white,man,,,,null,,,,,,,,,
null,is being greeted by,,html-keyboard-response,311,1231713,0.0-17.0-2.5,51059,List1B,white,man,,,,null,,,,,,,,,
8690.3,,,survey-text,312,1240406,0.0-17.0-3.5,51059,List1B,white,man,,,,,"{""Q0"":""beth is being greeted by jane""}","<img src=""stim_listB/greet8.gif""style=""height:400px;""></stim_listB>",is being greeted by,,,,,,
null,"<div style=""font-size:60px;"">+</div>",,html-keyboard-response,313,1240915,0.0-17.0-0.6,51059,List1B,white,man,,,,null,,,,,,,,,
null,"<img src=""stim_listB/kiss1.gif""style=""height:400px;""></stim_listB>",,html-keyboard-response,314,1242916,0.0-17.0-1.6,51059,List1B,white,man,,,,null,,,,,,,,,
null,is kissing,,html-keyboard-response,315,1244924,0.0-17.0-2.6,51059,List1B,white,man,,,,null,,,,,,,,,
4679.5,,,survey-text,316,1249607,0.0-17.0-3.6,51059,List1B,white,man,,,,,"{""Q0"":""beth is kissing fred""}","<img src=""stim_listB/kiss1.gif""style=""height:400px;""></stim_listB>",is kissing,,,,,,
null,"<div style=""font-size:60px;"">+</div>",,html-keyboard-response,317,1250116,0.0-17.0-0.7,51059,List1B,white,man,,,,null,,,,,,,,,
null,"<img src=""stim_listB/seduce5.gif""style=""height:400px;""></stim_listB>",,html-keyboard-response,318,1252126,0.0-17.0-1.7,51059,List1B,white,man,,,,null,,,,,,,,,
null,is seducing,,html-keyboard-response,319,1254131,0.0-17.0-2.7,51059,List1B,white,man,,,,null,,,,,,,,,
6343.7,,,survey-text,320,1260477,0.0-17.0-3.7,51059,List1B,white,man,,,,,"{""Q0"":""mike is seducing fred""}","<img src=""stim_listB/seduce5.gif""style=""height:400px;""></stim_listB>",is seducing,,,,,,
null,"<div style=""font-size:60px;"">+</div>",,html-keyboard-response,321,1260986,0.0-17.0-0.8,51059,List1B,white,man,,,,null,,,,,,,,,
null,"<img src=""stim_listB/seduce8.gif""style=""height:400px;""></stim_listB>",,html-keyboard-response,322,1262992,0.0-17.0-1.8,51059,List1B,white,man,,,,null,,,,,,,,,
null,is being seduced by,,html-keyboard-response,323,1265009,0.0-17.0-2.8,51059,List1B,white,man,,,,null,,,,,,,,,
8015,,,survey-text,324,1273027,0.0-17.0-3.8,51059,List1B,white,man,,,,,"{""Q0"":""ruth is being seduced by kate""}","<img src=""stim_listB/seduce8.gif""style=""height:400px;""></stim_listB>",is being seduced by,,,,,,
null,"<div style=""font-size:60px;"">+</div>",,html-keyboard-response,325,1273541,0.0-17.0-0.9,51059,List1B,white,man,,,,null,,,,,,,,,
null,"<img src=""stim_listB/copy7.gif""style=""height:400px;""></stim_listB>",,html-keyboard-response,326,1275549,0.0-17.0-1.9,51059,List1B,white,man,,,,null,,,,,,,,,
null,is copying,,html-keyboard-response,327,1277552,0.0-17.0-2.9,51059,List1B,white,man,,,,null,,,,,,,,,
4287.5,,,survey-text,328,1281842,0.0-17.0-3.9,51059,List1B,white,man,,,,,"{""Q0"":""ruth is copying kate""}","<img src=""stim_listB/copy7.gif""style=""height:400px;""></stim_listB>",is copying,,,,,,
null,"<div style=""font-size:60px;"">+</div>",,html-keyboard-response,329,1282352,0.0-17.0-0.10,51059,List1B,white,man,,,,null,,,,,,,,,
null,"<img src=""stim_listB/hug3.gif""style=""height:400px;""></stim_listB>",,html-keyboard-response,330,1284357,0.0-17.0-1.10,51059,List1B,white,man,,,,null,,,,,,,,,
null,is hugging,,html-keyboard-response,331,1286372,0.0-17.0-2.10,51059,List1B,white,man,,,,null,,,,,,,,,
4359.3,,,survey-text,332,1290733,0.0-17.0-3.10,51059,List1B,white,man,,,,,"{""Q0"":""luke is hugging ruth""}","<img src=""stim_listB/hug3.gif""style=""height:400px;""></stim_listB>",is hugging,,,,,,
null,"<div style=""font-size:60px;"">+</div>",,html-keyboard-response,333,1291246,0.0-17.0-0.11,51059,List1B,white,man,,,,null,,,,,,,,,
null,"<img src=""stim_listB/oppose3.gif""style=""height:400px;""></stim_listB>",,html-keyboard-response,334,1293261,0.0-17.0-1.11,51059,List1B,white,man,,,,null,,,,,,,,,
null,is opposing,,html-keyboard-response,335,1295273,0.0-17.0-2.11,51059,List1B,white,man,,,,null,,,,,,,,,
4339.3,,,survey-text,336,1299615,0.0-17.0-3.11,51059,List1B,white,man,,,,,"{""Q0"":""mike is opposing jane""}","<img src=""stim_listB/oppose3.gif""style=""height:400px;""></stim_listB>",is opposing,,,,,,
null,"<div style=""font-size:60px;"">+</div>",,html-keyboard-response,337,1300125,0.0-17.0-0.12,51059,List1B,white,man,,,,null,,,,,,,,,
null,"<img src=""stim_listB/touch7.gif""style=""height:400px;""></stim_listB>",,html-keyboard-response,338,1302147,0.0-17.0-1.12,51059,List1B,white,man,,,,null,,,,,,,,,
null,is touching,,html-keyboard-response,339,1304154,0.0-17.0-2.12,51059,List1B,white,man,,,,null,,,,,,,,,
5337.4,,,survey-text,340,1309494,0.0-17.0-3.12,51059,List1B,white,man,,,,,"{""Q0"":""kate is touching jane""}","<img src=""stim_listB/touch7.gif""style=""height:400px;""></stim_listB>",is touching,,,,,,
null,"<div style=""font-size:60px;"">+</div>",,html-keyboard-response,341,1310002,0.0-17.0-0.13,51059,List1B,white,man,,,,null,,,,,,,,,
null,"<img src=""stim_listB/copy3.gif""style=""height:400px;""></stim_listB>",,html-keyboard-response,342,1312007,0.0-17.0-1.13,51059,List1B,white,man,,,,null,,,,,,,,,
null,is copying,,html-keyboard-response,343,1314011,0.0-17.0-2.13,51059,List1B,white,man,,,,null,,,,,,,,,
4556,,,survey-text,344,1318570,0.0-17.0-3.13,51059,List1B,white,man,,,,,"{""Q0"":""ruth is copying mike""}","<img src=""stim_listB/copy3.gif""style=""height:400px;""></stim_listB>",is copying,,,,,,
null,"<div style=""font-size:60px;"">+</div>",,html-keyboard-response,345,1319085,0.0-17.0-0.14,51059,List1B,white,man,,,,null,,,,,,,,,
null,"<img src=""stim_listB/challenge4.gif""style=""height:400px;""></stim_listB>",,html-keyboard-response,346,1321094,0.0-17.0-1.14,51059,List1B,white,man,,,,null,,,,,,,,,
null,is being challenged by,,html-keyboard-response,347,1323107,0.0-17.0-2.14,51059,List1B,white,man,,,,null,,,,,,,,,
7899,,,survey-text,348,1331009,0.0-17.0-3.14,51059,List1B,white,man,,,,,"{""Q0"":""luke is being challenged by jane""}","<img src=""stim_listB/challenge4.gif""style=""height:400px;""></stim_listB>",is being challenged by,,,,,,
null,"<div style=""font-size:60px;"">+</div>",,html-keyboard-response,349,1331513,0.0-17.0-0.15,51059,List1B,white,man,,,,null,,,,,,,,,
null,"<img src=""stim_listB/oppose7.gif""style=""height:400px;""></stim_listB>",,html-keyboard-response,350,1333516,0.0-17.0-1.15,51059,List1B,white,man,,,,null,,,,,,,,,
null,is opposing,,html-keyboard-response,351,1335522,0.0-17.0-2.15,51059,List1B,white,man,,,,null,,,,,,,,,
5600.4,,,survey-text,352,1341125,0.0-17.0-3.15,51059,List1B,white,man,,,,,"{""Q0"":""kate is opposing jane""}","<img src=""stim_listB/oppose7.gif""style=""height:400px;""></stim_listB>",is opposing,,,,,,
null,"<div style=""font-size:60px;"">+</div>",,html-keyboard-response,353,1341631,0.0-17.0-0.16,51059,List1B,white,man,,,,null,,,,,,,,,
null,"<img src=""stim_listB/kiss5.gif""style=""height:400px;""></stim_listB>",,html-keyboard-response,354,1343639,0.0-17.0-1.16,51059,List1B,white,man,,,,null,,,,,,,,,
null,is kissing,,html-keyboard-response,355,1345654,0.0-17.0-2.16,51059,List1B,white,man,,,,null,,,,,,,,,
4524,,,survey-text,356,1350181,0.0-17.0-3.16,51059,List1B,white,man,,,,,"{""Q0"":""luke is kissing fred""}","<img src=""stim_listB/kiss5.gif""style=""height:400px;""></stim_listB>",is kissing,,,,,,
null,"<div style=""font-size:60px;"">+</div>",,html-keyboard-response,357,1350690,0.0-17.0-0.17,51059,List1B,white,man,,,,null,,,,,,,,,
null,"<img src=""stim_listB/touch4.gif""style=""height:400px;""></stim_listB>",,html-keyboard-response,358,1352693,0.0-17.0-1.17,51059,List1B,white,man,,,,null,,,,,,,,,
null,is being touched by,,html-keyboard-response,359,1354701,0.0-17.0-2.17,51059,List1B,white,man,,,,null,,,,,,,,,
8466,,,survey-text,360,1363170,0.0-17.0-3.17,51059,List1B,white,man,,,,,"{""Q0"":""ruth is being touched by luke""}","<img src=""stim_listB/touch4.gif""style=""height:400px;""></stim_listB>",is being touched by,,,,,,
null,"<div style=""font-size:60px;"">+</div>",,html-keyboard-response,361,1363683,0.0-17.0-0.18,51059,List1B,white,man,,,,null,,,,,,,,,
null,"<img src=""stim_listB/copy8.gif""style=""height:400px;""></stim_listB>",,html-keyboard-response,362,1365692,0.0-17.0-1.18,51059,List1B,white,man,,,,null,,,,,,,,,
null,is being copied by,,html-keyboard-response,363,1367701,0.0-17.0-2.18,51059,List1B,white,man,,,,null,,,,,,,,,
10158.6,,,survey-text,364,1377862,0.0-17.0-3.18,51059,List1B,white,man,,,,,"{""Q0"":""jane is being copied by beth""}","<img src=""stim_listB/copy8.gif""style=""height:400px;""></stim_listB>",is being copied by,,,,,,
null,"<div style=""font-size:60px;"">+</div>",,html-keyboard-response,365,1378371,0.0-17.0-0.19,51059,List1B,white,man,,,,null,,,,,,,,,
null,"<img src=""stim_listB/copy1.gif""style=""height:400px;""></stim_listB>",,html-keyboard-response,366,1380380,0.0-17.0-1.19,51059,List1B,white,man,,,,null,,,,,,,,,
null,is copying,,html-keyboard-response,367,1382388,0.0-17.0-2.19,51059,List1B,white,man,,,,null,,,,,,,,,
4477.9,,,survey-text,368,1386868,0.0-17.0-3.19,51059,List1B,white,man,,,,,"{""Q0"":""mike is copying beth""}","<img src=""stim_listB/copy1.gif""style=""height:400px;""></stim_listB>",is copying,,,,,,
4621.1,"<img src='img/portrait_matrix_list1.jpg' style='width:900px;height:500px;''></img><p>If you have memorised all the portraits and names and are ready to start, press Continue.</p><p><strong>Please note: Your memory of these faces will be tested 4 times during this experiment.</strong></p>",0,html-button-response,369,1391491,0.0-18.0-0.0,51059,List1B,white,man,,,,,,,,,,,,,
1894.4,"<img src=""portrait/WM2.jpg""style=""height:400px;""></img>",7,html-button-response,370,1394391,0.0-18.0-1.0,51059,List1B,white,man,,TRUE,7,,,,,,,,,,
null,CORRECT,,html-keyboard-response,371,1395907,0.0-18.0-2.0-0.0,51059,List1B,white,man,,,,null,,,,,,,,,
1542.5,"<img src=""portrait/BM1.jpg""style=""height:400px;""></img>",4,html-button-response,372,1397451,0.0-18.0-4.0,51059,List1B,white,man,,TRUE,4,,,,,,,,,,
null,CORRECT,,html-keyboard-response,373,1398969,0.0-18.0-5.0-0.0,51059,List1B,white,man,,,,null,,,,,,,,,
2481.1,"<img src=""portrait/BW1.jpg""style=""height:400px;""></img>",0,html-button-response,374,1401451,0.0-18.0-7.0,51059,List1B,white,man,,TRUE,0,,,,,,,,,,
null,CORRECT,,html-keyboard-response,375,1402970,0.0-18.0-8.0-0.0,51059,List1B,white,man,,,,null,,,,,,,,,
1253.4,"<img src=""portrait/BW2.jpg""style=""height:400px;""></img>",2,html-button-response,376,1404225,0.0-18.0-10.0,51059,List1B,white,man,,TRUE,2,,,,,,,,,,
null,CORRECT,,html-keyboard-response,377,1405743,0.0-18.0-11.0-0.0,51059,List1B,white,man,,,,null,,,,,,,,,
3391.9,"<img src=""portrait/BM2.jpg""style=""height:400px;""></img>",5,html-button-response,378,1409137,0.0-18.0-13.0,51059,List1B,white,man,,TRUE,5,,,,,,,,,,
null,CORRECT,,html-keyboard-response,379,1410645,0.0-18.0-14.0-0.0,51059,List1B,white,man,,,,null,,,,,,,,,
2159.9,"<img src=""portrait/WW1.jpg""style=""height:400px;""></img>",1,html-button-response,380,1412809,0.0-18.0-16.0,51059,List1B,white,man,,TRUE,1,,,,,,,,,,
null,CORRECT,,html-keyboard-response,381,1414317,0.0-18.0-17.0-0.0,51059,List1B,white,man,,,,null,,,,,,,,,
3146.1,"<img src=""portrait/WW2.jpg""style=""height:400px;""></img>",3,html-button-response,382,1417464,0.0-18.0-19.0,51059,List1B,white,man,,TRUE,3,,,,,,,,,,
null,CORRECT,,html-keyboard-response,383,1418971,0.0-18.0-20.0-0.0,51059,List1B,white,man,,,,null,,,,,,,,,
1849.3,"<img src=""portrait/WM1.jpg""style=""height:400px;""></img>",6,html-button-response,384,1420822,0.0-18.0-22.0,51059,List1B,white,man,,TRUE,6,,,,,,,,,,
null,CORRECT,,html-keyboard-response,385,1422346,0.0-18.0-23.0-0.0,51059,List1B,white,man,,,,null,,,,,,,,,
19396.9,<p>You got 8 out of 8 right first time. Press Continue.</p>,0,html-button-response,386,1441744,0.0-18.0-25.0,51059,List1B,white,man,,,,,,,,,,,,,
null,"<div style=""font-size:60px;"">+</div>",,html-keyboard-response,387,1443270,0.0-19.0-0.0,51059,List1B,white,man,,,,null,,,,,,,,,
null,"<img src=""stim_listB/look4.gif""style=""height:400px;""></stim_listB>",,html-keyboard-response,388,1445287,0.0-19.0-1.0,51059,List1B,white,man,,,,null,,,,,,,,,
null,is being looked at by,,html-keyboard-response,389,1447298,0.0-19.0-2.0,51059,List1B,white,man,,,,null,,,,,,,,,
6797.1,,,survey-text,390,1454098,0.0-19.0-3.0,51059,List1B,white,man,,,,,"{""Q0"":""dave is being looked at by jane""}","<img src=""stim_listB/look4.gif""style=""height:400px;""></stim_listB>",is being looked at by,,,,,,
null,"<div style=""font-size:60px;"">+</div>",,html-keyboard-response,391,1454607,0.0-19.0-0.1,51059,List1B,white,man,,,,null,,,,,,,,,
null,"<img src=""stim_listB/look1.gif""style=""height:400px;""></stim_listB>",,html-keyboard-response,392,1456622,0.0-19.0-1.1,51059,List1B,white,man,,,,null,,,,,,,,,
null,is looking at,,html-keyboard-response,393,1458630,0.0-19.0-2.1,51059,List1B,white,man,,,,null,,,,,,,,,
4626.5,,,survey-text,394,1463259,0.0-19.0-3.1,51059,List1B,white,man,,,,,"{""Q0"":""fred is looking at beth""}","<img src=""stim_listB/look1.gif""style=""height:400px;""></stim_listB>",is looking at,,,,,,
null,"<div style=""font-size:60px;"">+</div>",,html-keyboard-response,395,1463763,0.0-19.0-0.2,51059,List1B,white,man,,,,null,,,,,,,,,
null,"<img src=""stim_listB/hug8.gif""style=""height:400px;""></stim_listB>",,html-keyboard-response,396,1465779,0.0-19.0-1.2,51059,List1B,white,man,,,,null,,,,,,,,,
null,is being hugged by,,html-keyboard-response,397,1467786,0.0-19.0-2.2,51059,List1B,white,man,,,,null,,,,,,,,,
6690.9,,,survey-text,398,1474479,0.0-19.0-3.2,51059,List1B,white,man,,,,,"{""Q0"":""jane is being hugged by kate""}","<img src=""stim_listB/hug8.gif""style=""height:400px;""></stim_listB>",is being hugged by,,,,,,
null,"<div style=""font-size:60px;"">+</div>",,html-keyboard-response,399,1474987,0.0-19.0-0.3,51059,List1B,white,man,,,,null,,,,,,,,,
null,"<img src=""stim_listB/greet1.gif""style=""height:400px;""></stim_listB>",,html-keyboard-response,400,1476994,0.0-19.0-1.3,51059,List1B,white,man,,,,null,,,,,,,,,
null,is greeting,,html-keyboard-response,401,1479010,0.0-19.0-2.3,51059,List1B,white,man,,,,null,,,,,,,,,
6440.9,,,survey-text,402,1485454,0.0-19.0-3.3,51059,List1B,white,man,,,,,"{""Q0"":""mike is greeting beth""}","<img src=""stim_listB/greet1.gif""style=""height:400px;""></stim_listB>",is greeting,,,,,,
null,"<div style=""font-size:60px;"">+</div>",,html-keyboard-response,403,1485955,0.0-19.0-0.4,51059,List1B,white,man,,,,null,,,,,,,,,
null,"<img src=""stim_listB/greet7.gif""style=""height:400px;""></stim_listB>",,html-keyboard-response,404,1487965,0.0-19.0-1.4,51059,List1B,white,man,,,,null,,,,,,,,,
null,is greeting,,html-keyboard-response,405,1489976,0.0-19.0-2.4,51059,List1B,white,man,,,,null,,,,,,,,,
8029.1,,,survey-text,406,1498008,0.0-19.0-3.4,51059,List1B,white,man,,,,,"{""Q0"":""ruth is greeting kate""}","<img src=""stim_listB/greet7.gif""style=""height:400px;""></stim_listB>",is greeting,,,,,,
null,"<div style=""font-size:60px;"">+</div>",,html-keyboard-response,407,1498510,0.0-19.0-0.5,51059,List1B,white,man,,,,null,,,,,,,,,
null,"<img src=""stim_listB/greet4.gif""style=""height:400px;""></stim_listB>",,html-keyboard-response,408,1500519,0.0-19.0-1.5,51059,List1B,white,man,,,,null,,,,,,,,,
null,is being greeted by,,html-keyboard-response,409,1502531,0.0-19.0-2.5,51059,List1B,white,man,,,,null,,,,,,,,,
11312.3,,,survey-text,410,1513846,0.0-19.0-3.5,51059,List1B,white,man,,,,,"{""Q0"":""jane is being greeted by luke""}","<img src=""stim_listB/greet4.gif""style=""height:400px;""></stim_listB>",is being greeted by,,,,,,
null,"<div style=""font-size:60px;"">+</div>",,html-keyboard-response,411,1514351,0.0-19.0-0.6,51059,List1B,white,man,,,,null,,,,,,,,,
null,"<img src=""stim_listB/greet2.gif""style=""height:400px;""></stim_listB>",,html-keyboard-response,412,1516359,0.0-19.0-1.6,51059,List1B,white,man,,,,null,,,,,,,,,
null,is being greeted by,,html-keyboard-response,413,1518365,0.0-19.0-2.6,51059,List1B,white,man,,,,null,,,,,,,,,
9911.6,,,survey-text,414,1528279,0.0-19.0-3.6,51059,List1B,white,man,,,,,"{""Q0"":""kate is being greeted by fred""}","<img src=""stim_listB/greet2.gif""style=""height:400px;""></stim_listB>",is being greeted by,,,,,,
null,"<div style=""font-size:60px;"">+</div>",,html-keyboard-response,415,1528785,0.0-19.0-0.7,51059,List1B,white,man,,,,null,,,,,,,,,
null,"<img src=""stim_listB/challenge5.gif""style=""height:400px;""></stim_listB>",,html-keyboard-response,416,1530794,0.0-19.0-1.7,51059,List1B,white,man,,,,null,,,,,,,,,
null,is challenging,,html-keyboard-response,417,1532805,0.0-19.0-2.7,51059,List1B,white,man,,,,null,,,,,,,,,
6556.9,,,survey-text,418,1539365,0.0-19.0-3.7,51059,List1B,white,man,,,,,"{""Q0"":""mike is challenging luke""}","<img src=""stim_listB/challenge5.gif""style=""height:400px;""></stim_listB>",is challenging,,,,,,
null,"<div style=""font-size:60px;"">+</div>",,html-keyboard-response,419,1539872,0.0-19.0-0.8,51059,List1B,white,man,,,,null,,,,,,,,,
null,"<img src=""stim_listB/copy2.gif""style=""height:400px;""></stim_listB>",,html-keyboard-response,420,1541876,0.0-19.0-1.8,51059,List1B,white,man,,,,null,,,,,,,,,
null,is being copied by,,html-keyboard-response,421,1543889,0.0-19.0-2.8,51059,List1B,white,man,,,,null,,,,,,,,,
23274.1,,,survey-text,422,1567166,0.0-19.0-3.8,51059,List1B,white,man,,,,,"{""Q0"":""fred is being copied by kate""}","<img src=""stim_listB/copy2.gif""style=""height:400px;""></stim_listB>",is being copied by,,,,,,
null,"<div style=""font-size:60px;"">+</div>",,html-keyboard-response,423,1567681,0.0-19.0-0.9,51059,List1B,white,man,,,,null,,,,,,,,,
null,"<img src=""stim_listB/shout6.gif""style=""height:400px;""></stim_listB>",,html-keyboard-response,424,1569696,0.0-19.0-1.9,51059,List1B,white,man,,,,null,,,,,,,,,
null,is being shouted at by,,html-keyboard-response,425,1571703,0.0-19.0-2.9,51059,List1B,white,man,,,,null,,,,,,,,,
9208.4,,,survey-text,426,1580914,0.0-19.0-3.9,51059,List1B,white,man,,,,,"{""Q0"":""dave is being shouted at by dave""}","<img src=""stim_listB/shout6.gif""style=""height:400px;""></stim_listB>",is being shouted at by,,,,,,
null,"<div style=""font-size:60px;"">+</div>",,html-keyboard-response,427,1581429,0.0-19.0-0.10,51059,List1B,white,man,,,,null,,,,,,,,,
null,"<img src=""stim_listB/look2.gif""style=""height:400px;""></stim_listB>",,html-keyboard-response,428,1583444,0.0-19.0-1.10,51059,List1B,white,man,,,,null,,,,,,,,,
null,is being looked at by,,html-keyboard-response,429,1585449,0.0-19.0-2.10,51059,List1B,white,man,,,,null,,,,,,,,,
6049,,,survey-text,430,1591500,0.0-19.0-3.10,51059,List1B,white,man,,,,,"{""Q0"":""mike is being looked at by kate""}","<img src=""stim_listB/look2.gif""style=""height:400px;""></stim_listB>",is being looked at by,,,,,,
null,"<div style=""font-size:60px;"">+</div>",,html-keyboard-response,431,1592010,0.0-19.0-0.11,51059,List1B,white,man,,,,null,,,,,,,,,
null,"<img src=""stim_listB/touch8.gif""style=""height:400px;""></stim_listB>",,html-keyboard-response,432,1594013,0.0-19.0-1.11,51059,List1B,white,man,,,,null,,,,,,,,,
null,is being touched by,,html-keyboard-response,433,1596015,0.0-19.0-2.11,51059,List1B,white,man,,,,null,,,,,,,,,
8885.6,,,survey-text,434,1604904,0.0-19.0-3.11,51059,List1B,white,man,,,,,"{""Q0"":""beth is being touched by ruth""}","<img src=""stim_listB/touch8.gif""style=""height:400px;""></stim_listB>",is being touched by,,,,,,
null,"<div style=""font-size:60px;"">+</div>",,html-keyboard-response,435,1605409,0.0-19.0-0.12,51059,List1B,white,man,,,,null,,,,,,,,,
null,"<img src=""stim_listB/challenge8.gif""style=""height:400px;""></stim_listB>",,html-keyboard-response,436,1607426,0.0-19.0-1.12,51059,List1B,white,man,,,,null,,,,,,,,,
null,is being challenged by,,html-keyboard-response,437,1609428,0.0-19.0-2.12,51059,List1B,white,man,,,,null,,,,,,,,,
6977.4,,,survey-text,438,1616409,0.0-19.0-3.12,51059,List1B,white,man,,,,,"{""Q0"":""beth is being challenged by jane""}","<img src=""stim_listB/challenge8.gif""style=""height:400px;""></stim_listB>",is being challenged by,,,,,,
null,"<div style=""font-size:60px;"">+</div>",,html-keyboard-response,439,1616913,0.0-19.0-0.13,51059,List1B,white,man,,,,null,,,,,,,,,
null,"<img src=""stim_listB/look3.gif""style=""height:400px;""></stim_listB>",,html-keyboard-response,440,1618920,0.0-19.0-1.13,51059,List1B,white,man,,,,null,,,,,,,,,
null,is looking at,,html-keyboard-response,441,1620925,0.0-19.0-2.13,51059,List1B,white,man,,,,null,,,,,,,,,
6905.6,,,survey-text,442,1627834,0.0-19.0-3.13,51059,List1B,white,man,,,,,"{""Q0"":""ruth is looking at luke""}","<img src=""stim_listB/look3.gif""style=""height:400px;""></stim_listB>",is looking at,,,,,,
null,"<div style=""font-size:60px;"">+</div>",,html-keyboard-response,443,1628343,0.0-19.0-0.14,51059,List1B,white,man,,,,null,,,,,,,,,
null,"<img src=""stim_listB/challenge3.gif""style=""height:400px;""></stim_listB>",,html-keyboard-response,444,1630354,0.0-19.0-1.14,51059,List1B,white,man,,,,null,,,,,,,,,
null,is challenging,,html-keyboard-response,445,1632363,0.0-19.0-2.14,51059,List1B,white,man,,,,null,,,,,,,,,
8023,,,survey-text,446,1640388,0.0-19.0-3.14,51059,List1B,white,man,,,,,"{""Q0"":""dave is challenging ruth""}","<img src=""stim_listB/challenge3.gif""style=""height:400px;""></stim_listB>",is challenging,,,,,,
null,"<div style=""font-size:60px;"">+</div>",,html-keyboard-response,447,1640901,0.0-19.0-0.15,51059,List1B,white,man,,,,null,,,,,,,,,
null,"<img src=""stim_listB/challenge1.gif""style=""height:400px;""></stim_listB>",,html-keyboard-response,448,1642907,0.0-19.0-1.15,51059,List1B,white,man,,,,null,,,,,,,,,
null,is challenging,,html-keyboard-response,449,1644915,0.0-19.0-2.15,51059,List1B,white,man,,,,null,,,,,,,,,
7374.9,,,survey-text,450,1652293,0.0-19.0-3.15,51059,List1B,white,man,,,,,"{""Q0"":""mike is challenging beth""}","<img src=""stim_listB/challenge1.gif""style=""height:400px;""></stim_listB>",is challenging,,,,,,
null,"<div style=""font-size:60px;"">+</div>",,html-keyboard-response,451,1652797,0.0-19.0-0.16,51059,List1B,white,man,,,,null,,,,,,,,,
null,"<img src=""stim_listB/greet6.gif""style=""height:400px;""></stim_listB>",,html-keyboard-response,452,1654808,0.0-19.0-1.16,51059,List1B,white,man,,,,null,,,,,,,,,
null,is being greeted by,,html-keyboard-response,453,1656815,0.0-19.0-2.16,51059,List1B,white,man,,,,null,,,,,,,,,
7190.1,,,survey-text,454,1664008,0.0-19.0-3.16,51059,List1B,white,man,,,,,"{""Q0"":""dave is being greeted by fred""}","<img src=""stim_listB/greet6.gif""style=""height:400px;""></stim_listB>",is being greeted by,,,,,,
null,"<div style=""font-size:60px;"">+</div>",,html-keyboard-response,455,1664513,0.0-19.0-0.17,51059,List1B,white,man,,,,null,,,,,,,,,
null,"<img src=""stim_listB/shout4.gif""style=""height:400px;""></stim_listB>",,html-keyboard-response,456,1666525,0.0-19.0-1.17,51059,List1B,white,man,,,,null,,,,,,,,,
null,is being shouted at by,,html-keyboard-response,457,1668528,0.0-19.0-2.17,51059,List1B,white,man,,,,null,,,,,,,,,
7366.3,,,survey-text,458,1675897,0.0-19.0-3.17,51059,List1B,white,man,,,,,"{""Q0"":""dave is being shouted at by jane""}","<img src=""stim_listB/shout4.gif""style=""height:400px;""></stim_listB>",is being shouted at by,,,,,,
null,"<div style=""font-size:60px;"">+</div>",,html-keyboard-response,459,1676407,0.0-19.0-0.18,51059,List1B,white,man,,,,null,,,,,,,,,
null,"<img src=""stim_listB/oppose8.gif""style=""height:400px;""></stim_listB>",,html-keyboard-response,460,1678417,0.0-19.0-1.18,51059,List1B,white,man,,,,null,,,,,,,,,
null,is being opposed by,,html-keyboard-response,461,1680425,0.0-19.0-2.18,51059,List1B,white,man,,,,null,,,,,,,,,
7123.9,,,survey-text,462,1687551,0.0-19.0-3.18,51059,List1B,white,man,,,,,"{""Q0"":""beth is being opposed by ruth""}","<img src=""stim_listB/oppose8.gif""style=""height:400px;""></stim_listB>",is being opposed by,,,,,,
null,"<div style=""font-size:60px;"">+</div>",,html-keyboard-response,463,1688056,0.0-19.0-0.19,51059,List1B,white,man,,,,null,,,,,,,,,
null,"<img src=""stim_listB/kiss7.gif""style=""height:400px;""></stim_listB>",,html-keyboard-response,464,1690059,0.0-19.0-1.19,51059,List1B,white,man,,,,null,,,,,,,,,
null,is kissing,,html-keyboard-response,465,1692063,0.0-19.0-2.19,51059,List1B,white,man,,,,null,,,,,,,,,
5466,,,survey-text,466,1697532,0.0-19.0-3.19,51059,List1B,white,man,,,,,"{""Q0"":""beth is kissing ruth""}","<img src=""stim_listB/kiss7.gif""style=""height:400px;""></stim_listB>",is kissing,,,,,,
3583.6,<p>Thank you for completing that task.</p><p>The final part of this session is a questionnaire that will take about 4 minutes.</p><p>Press Continue.</p>,0,html-button-response,467,1701117,0.0-20.0,51059,List1B,white,man,,,,,,,,,,,,,
61374.3,,,survey-text,468,1763506,0.0-21.0,51059,List1B,white,man,,,,,"{""Q0"":""36"",""Q1"":""english"",""Q2"":""english"",""Q3"":""united states of america"",""Q4"":""american"",""Q5"":""white/caucasian"",""Q6"":""male""}",,,demographics,,,,,
3065.7,<p>Have you lived in the USA for the last 5 years or more?</p>,0,html-button-response,469,1766573,0.0-22.0,51059,List1B,white,man,,,,,,,,fiveyears,,,,,
3530,<p>Move the slider to show the extent to which you agree with the following statements.</p>,0,html-button-response,470,1771115,0.0-23.0,51059,List1B,white,man,,,,,,,,,,,,,
16839,,,html-slider-response,471,1788971,0.0-24.0-0.0-0.0,51059,List1B,white,man,,,,,,,,survey_race,44,,,People my age have a lot in common with each other.,filler
9974.4,,,html-slider-response,472,1798947,0.0-24.0-0.0-0.1,51059,List1B,white,man,,,,,,,,survey_race,43,,,I have a lot in common with the average person of my race.,average
7979.1,,,html-slider-response,473,1806928,0.0-24.0-0.0-0.2,51059,List1B,white,man,,,,,,,,survey_race,92,,,"The older I get, the wiser I feel.",filler
4427.9,,,html-slider-response,474,1811357,0.0-24.0-0.0-0.3,51059,List1B,white,man,,,,,,,,survey_race,22,,,I enjoy being in large groups.,filler
6534.6,,,html-slider-response,475,1817893,0.0-24.0-0.0-0.4,51059,List1B,white,man,,,,,,,,survey_race,9,,,I feel committed to my race.,committed
13616.7,,,html-slider-response,476,1831512,0.0-24.0-0.0-0.5,51059,List1B,white,man,,,,,,,,survey_race,41,,,I often think about the fact that I am my age.,filler
15801.8,,,html-slider-response,477,1847315,0.0-24.0-0.0-0.6,51059,List1B,white,man,,,,,,,,survey_race,20,,,People of my race have a lot in common with each other.,common
8468.3,,,html-slider-response,478,1855785,0.0-24.0-0.0-0.7,51059,List1B,white,man,,,,,,,,survey_race,41,,,I have a lot in common with people of a similar age to me.,filler
7136.5,,,html-slider-response,479,1862924,0.0-24.0-0.0-0.8,51059,List1B,white,man,,,,,,,,survey_race,36,,,I feel a bond with people the same age as me.,filler
8228.2,,,html-slider-response,480,1871153,0.0-24.0-0.0-0.9,51059,List1B,white,man,,,,,,,,survey_race,15,,,People of my race are very similar to each other.,verysimilar
12114.5,,,html-slider-response,481,1883269,0.0-24.0-0.0-0.10,51059,List1B,white,man,,,,,,,,survey_race,62,,,I am glad to be the age I am.,filler
5808.7,,,html-slider-response,482,1889079,0.0-24.0-0.0-0.11,51059,List1B,white,man,,,,,,,,survey_race,56,,,Being my age gives me a good feeling.,filler
6430.5,,,html-slider-response,483,1895511,0.0-24.0-0.0-0.12,51059,List1B,white,man,,,,,,,,survey_race,85,,,I consider myself an introvert.,filler
5598.6,,,html-slider-response,484,1901112,0.0-24.0-0.0-0.13,51059,List1B,white,man,,,,,,,,survey_race,63,,,Getting older does not worry me.,filler
14034.3,,,html-slider-response,485,1915147,0.0-24.0-0.0-0.14,51059,List1B,white,man,,,,,,,,survey_race,51,,,Being my race gives me a good feeling.,feeling
5214.4,,,html-slider-response,486,1920363,0.0-24.0-0.0-0.15,51059,List1B,white,man,,,,,,,,survey_race,57,,,I am glad to be my age.,filler
10856.9,,,html-slider-response,487,1931221,0.0-24.0-0.0-0.16,51059,List1B,white,man,,,,,,,,survey_race,46,,,I am similar to the average person of my race.,similar
4138.4,,,html-slider-response,488,1935361,0.0-24.0-0.0-0.17,51059,List1B,white,man,,,,,,,,survey_race,10,,,I consider myself an extrovert.,filler
11286.5,,,html-slider-response,489,1946649,0.0-24.0-0.0-0.18,51059,List1B,white,man,,,,,,,,survey_race,23,,,I think that my race has a lot to be proud of.,proud
8418.4,,,html-slider-response,490,1955069,0.0-24.0-0.0-0.19,51059,List1B,white,man,,,,,,,,survey_race,15,,,The fact that I am my race is an important part of my identity.,identity
11680.4,,,html-slider-response,491,1966751,0.0-24.0-0.0-0.20,51059,List1B,white,man,,,,,,,,survey_race,88,,,My age is not an important part of who I am.,filler
5118.3,,,html-slider-response,492,1971871,0.0-24.0-0.0-0.21,51059,List1B,white,man,,,,,,,,survey_race,24,,,I feel solidarity with my race.,solidarity
7400.9,,,html-slider-response,493,1979273,0.0-24.0-0.0-0.22,51059,List1B,white,man,,,,,,,,survey_race,2,,,Being my race is an important part of how I see myself.,important
8678.3,,,html-slider-response,494,1987953,0.0-24.0-0.0-0.23,51059,List1B,white,man,,,,,,,,survey_race,52,,,I am glad to be my race.,glad
6392.4,,,html-slider-response,495,1994347,0.0-24.0-0.0-0.24,51059,List1B,white,man,,,,,,,,survey_race,52,,,It is pleasant to be my race.,pleasant
5076.5,,,html-slider-response,496,1999425,0.0-24.0-0.0-0.25,51059,List1B,white,man,,,,,,,,survey_race,9,,,I often think about the fact that I am my race.,often
7456.6,,,html-slider-response,497,2006883,0.0-24.0-0.0-0.26,51059,List1B,white,man,,,,,,,,survey_race,20,,,I feel solidarity with people the same age as me.,filler
4748.6,,,html-slider-response,498,2011633,0.0-24.0-0.0-0.27,51059,List1B,white,man,,,,,,,,survey_race,10,,,I feel a bond with my race.,bond
8258.4,,,html-slider-response,499,2019893,0.0-24.0-1.0-0.0,51059,List1B,white,man,,,,,,,,survey_gender,91,,,It is not always easy for people to know what I am thinking.,filler
6536.3,,,html-slider-response,500,2026431,0.0-24.0-1.0-0.1,51059,List1B,white,man,,,,,,,,survey_gender,49,,,I feel a bond with my gender.,bond
9533.3,,,html-slider-response,501,2035965,0.0-24.0-1.0-0.2,51059,List1B,white,man,,,,,,,,survey_gender,27,,,Most of the friends in my life are very similar to me.,filler
11566.3,,,html-slider-response,502,2047533,0.0-24.0-1.0-0.3,51059,List1B,white,man,,,,,,,,survey_gender,63,,,It is pleasant to be my gender.,pleasant
5814.2,,,html-slider-response,503,2053349,0.0-24.0-1.0-0.4,51059,List1B,white,man,,,,,,,,survey_gender,62,,,I am glad to be my gender.,glad
9379.9,,,html-slider-response,504,2062731,0.0-24.0-1.0-0.5,51059,List1B,white,man,,,,,,,,survey_gender,74,,,Being around my friends gives me a good feeling.,filler
7304.2,,,html-slider-response,505,2070037,0.0-24.0-1.0-0.6,51059,List1B,white,man,,,,,,,,survey_gender,40,,,I am similar to the average person of my gender.,similar
6086.4,,,html-slider-response,506,2076125,0.0-24.0-1.0-0.7,51059,List1B,white,man,,,,,,,,survey_gender,49,,,I feel committed to my gender.,committed
8064.5,,,html-slider-response,507,2084191,0.0-24.0-1.0-0.8,51059,List1B,white,man,,,,,,,,survey_gender,55,,,I consider myself a highly empathetic person.,filler
6217.6,,,html-slider-response,508,2090410,0.0-24.0-1.0-0.9,51059,List1B,white,man,,,,,,,,survey_gender,41,,,Routine is not important to me.,filler
6712.5,,,html-slider-response,509,2097124,0.0-24.0-1.0-0.10,51059,List1B,white,man,,,,,,,,survey_gender,11,,,People of my gender are very similar to each other.,verysimilar
5821.6,,,html-slider-response,510,2102947,0.0-24.0-1.0-0.11,51059,List1B,white,man,,,,,,,,survey_gender,7,,,Being my gender is an important part of how I see myself.,important
7368.4,,,html-slider-response,511,2110317,0.0-24.0-1.0-0.12,51059,List1B,white,man,,,,,,,,survey_gender,62,,,Being my gender gives me a good feeling.,feeling
7008.7,,,html-slider-response,512,2117327,0.0-24.0-1.0-0.13,51059,List1B,white,man,,,,,,,,survey_gender,67,,,My friends understand me.,filler
5132.5,,,html-slider-response,513,2122461,0.0-24.0-1.0-0.14,51059,List1B,white,man,,,,,,,,survey_gender,56,,,My friends have a lot in common with each other.,filler
4549.9,,,html-slider-response,514,2127013,0.0-24.0-1.0-0.15,51059,List1B,white,man,,,,,,,,survey_gender,47,,,I feel solidarity with my gender.,solidarity
5085.1,,,html-slider-response,515,2132099,0.0-24.0-1.0-0.16,51059,List1B,white,man,,,,,,,,survey_gender,21,,,The fact that I am my gender is an important part of my identity.,identity
7680.7,,,html-slider-response,516,2139781,0.0-24.0-1.0-0.17,51059,List1B,white,man,,,,,,,,survey_gender,48,,,I often think about the fact that I am my gender.,often
4508.4,,,html-slider-response,517,2144291,0.0-24.0-1.0-0.18,51059,List1B,white,man,,,,,,,,survey_gender,92,,,I often think about my actions.,filler
7578.8,,,html-slider-response,518,2151871,0.0-24.0-1.0-0.19,51059,List1B,white,man,,,,,,,,survey_gender,47,,,People of my gender have a lot in common with each other.,common
16170.5,,,html-slider-response,519,2168043,0.0-24.0-1.0-0.20,51059,List1B,white,man,,,,,,,,survey_gender,55,,,Family is not more important to me than friendship.,filler
9647.1,,,html-slider-response,520,2177692,0.0-24.0-1.0-0.21,51059,List1B,white,man,,,,,,,,survey_gender,15,,,I have a lot in common with the average person of my gender.,average
8263.2,,,html-slider-response,521,2185956,0.0-24.0-1.0-0.22,51059,List1B,white,man,,,,,,,,survey_gender,100,,,I would say I am an animal person.,filler
3973,,,html-slider-response,522,2189931,0.0-24.0-1.0-0.23,51059,List1B,white,man,,,,,,,,survey_gender,63,,,I have a lot in common with my friends.,filler
5622.8,,,html-slider-response,523,2195555,0.0-24.0-1.0-0.24,51059,List1B,white,man,,,,,,,,survey_gender,86,,,I am glad to have the friends that I have.,filler
3762.7,,,html-slider-response,524,2199319,0.0-24.0-1.0-0.25,51059,List1B,white,man,,,,,,,,survey_gender,85,,,I feel solidarity with my friends.,filler
3346.7,,,html-slider-response,525,2202667,0.0-24.0-1.0-0.26,51059,List1B,white,man,,,,,,,,survey_gender,89,,,I feel a bond with my friends.,filler
6496.4,,,html-slider-response,526,2209165,0.0-24.0-1.0-0.27,51059,List1B,white,man,,,,,,,,survey_gender,49,,,I think that my gender has a lot to be proud of.,proud
6559.6,,,survey-text,527,2215727,0.0-25.0,51059,List1B,white,man,,,,,"{""Q0"":""ccc""}",,,worker_id,,,,,
23335.4,,,external-html,528,2239964,0.0-26.0,51059,List1B,white,man,debrief.html,,,,,,,,,,,,
