rt,stimulus,button_pressed,trial_type,trial_index,time_elapsed,internal_node_id,subject,list,ppt_race,ppt_gender,url,first_guess,correct,key_press,responses,image_type,phrase_type,test_part,response,stimulus1,stimulus2,question_type,survey_item
2599.4,Welcome to the experiment. Press Continue to begin.,0,html-button-response,0,2618,0.0-0.0,51197,List2B,black,man,,,,,,,,,,,,,
19050.8,,,external-html,1,23379,0.0-1.0,51197,List2B,black,man,consent.html,,,,,,,,,,,,
14964.1,"<p>On the next page, you will see portraits of 8 people and their names.</p><p>Your first task is to take a few minutes to memorise the names of these people.</p><p>You will have to recall their names during the rest of the experiment, so it is</p><p>essential that you try to memorise these people and their names as best as you can.</p><br><p><strong>You will then be tested on your memory of these names and portraits.</strong></p><br><p>The experiment will start after you have completed this memory test.</p><br><p>Ready?</p>",0,html-button-response,2,38354,0.0-2.0,51197,List2B,black,man,,,,,,,,,,,,,
25788.4,"<img src='img/portrait_matrix_list2.jpg' style='width:900px;height:500px;''></img><p>If you have memorised all the portraits and names and are ready to start, press Continue.</p><p><strong>Please note: Your memory of these faces will be tested 4 times during this experiment.</strong></p>",0,html-button-response,3,65161,0.0-3.0-0.0,51197,List2B,black,man,,,,,,,,,,,,,
10612.6,"<img src=""portrait/WM1.jpg""style=""height:400px;""></img>",6,html-button-response,4,76794,0.0-3.0-1.0,51197,List2B,black,man,,TRUE,6,,,,,,,,,,
null,CORRECT,,html-keyboard-response,5,78323,0.0-3.0-2.0-0.0,51197,List2B,black,man,,,,null,,,,,,,,,
6272.9,"<img src=""portrait/WM2.jpg""style=""height:400px;""></img>",7,html-button-response,6,84610,0.0-3.0-4.0,51197,List2B,black,man,,TRUE,7,,,,,,,,,,
null,CORRECT,,html-keyboard-response,7,86134,0.0-3.0-5.0-0.0,51197,List2B,black,man,,,,null,,,,,,,,,
5266.5,"<img src=""portrait/WW2.jpg""style=""height:400px;""></img>",3,html-button-response,8,91483,0.0-3.0-7.0,51197,List2B,black,man,,TRUE,3,,,,,,,,,,
null,CORRECT,,html-keyboard-response,9,92994,0.0-3.0-8.0-0.0,51197,List2B,black,man,,,,null,,,,,,,,,
5663.6,"<img src=""portrait/WW1.jpg""style=""height:400px;""></img>",1,html-button-response,10,98672,0.0-3.0-10.0,51197,List2B,black,man,,TRUE,1,,,,,,,,,,
null,CORRECT,,html-keyboard-response,11,100179,0.0-3.0-11.0-0.0,51197,List2B,black,man,,,,null,,,,,,,,,
5505.7,"<img src=""portrait/BM2.jpg""style=""height:400px;""></img>",5,html-button-response,12,105698,0.0-3.0-13.0,51197,List2B,black,man,,TRUE,5,,,,,,,,,,
null,CORRECT,,html-keyboard-response,13,107211,0.0-3.0-14.0-0.0,51197,List2B,black,man,,,,null,,,,,,,,,
6953.7,"<img src=""portrait/BM1.jpg""style=""height:400px;""></img>",4,html-button-response,14,114177,0.0-3.0-16.0,51197,List2B,black,man,,TRUE,4,,,,,,,,,,
null,CORRECT,,html-keyboard-response,15,115683,0.0-3.0-17.0-0.0,51197,List2B,black,man,,,,null,,,,,,,,,
17109.5,"<img src=""portrait/BW1.jpg""style=""height:400px;""></img>",0,html-button-response,16,132809,0.0-3.0-19.0,51197,List2B,black,man,,TRUE,0,,,,,,,,,,
null,CORRECT,,html-keyboard-response,17,134322,0.0-3.0-20.0-0.0,51197,List2B,black,man,,,,null,,,,,,,,,
6972.3,"<img src=""portrait/BW2.jpg""style=""height:400px;""></img>",2,html-button-response,18,141304,0.0-3.0-22.0,51197,List2B,black,man,,TRUE,2,,,,,,,,,,
null,CORRECT,,html-keyboard-response,19,142818,0.0-3.0-23.0-0.0,51197,List2B,black,man,,,,null,,,,,,,,,
3682.9,<p>You got 8 out of 8 right first time. Press Continue.</p>,0,html-button-response,20,146514,0.0-3.0-25.0,51197,List2B,black,man,,,,,,,,,,,,,
63397.4,"<p>In this experiment, you will view photographs of the people from the memory game interacting.</p><p>By using the <strong>exact</strong> phrase given <i>after</i> the photograph appears and recalling the correct names of the people in the photographs, form a sentence describing the interaction. You do not need to capitalise names.</p><p>Type your answer in the space provided. Please complete every sentence before moving onto the next trial.</p><p>You will only have a few seconds to memorise each given photograph and phrase before you can respond, so try your best to focus.</p><p>An example is given below. Press 'Continue' when you are ready.</p><img src='img/speaking_example.jpg' style='width:800px;height:460px;''></img>",0,html-button-response,21,210936,0.0-4.0,51197,List2B,black,man,,,,,,,,,,,,,
3703.4,"<p>Before the experiment starts, you will watch two example trials. Press 'Continue'.</p>",0,html-button-response,22,215649,0.0-5.0,51197,List2B,black,man,,,,,,,,,,,,,
null,<img src='img/play_eg.gif' style='height:400px;''></img>,,html-keyboard-response,23,218667,0.0-6.0,51197,List2B,black,man,,,,null,,,,,,,,,
null,<p>is playing with</p>,,html-keyboard-response,24,220677,0.0-7.0,51197,List2B,black,man,,,,null,,,,,,,,,
2970.9,<p><b>Answer:</b> jane is playing with ruth</p>,0,html-button-response,25,223653,0.0-8.0,51197,List2B,black,man,,,,,,,,,,,,,
null,<img src='img/dance_eg.gif' style='height:400px;''></img>,,html-keyboard-response,26,226667,0.0-9.0,51197,List2B,black,man,,,,null,,,,,,,,,
null,<p>is being entertained by</p>,,html-keyboard-response,27,228672,0.0-10.0,51197,List2B,black,man,,,,null,,,,,,,,,
4200.2,<p><b>Answer:</b> fred is being entertained by mike</p>,0,html-button-response,28,232878,0.0-11.0,51197,List2B,black,man,,,,,,,,,,,,,
20530.7,"<p>Ready to start the experiment?</p><br><p><strong>Remember to describe the picture using a full sentence,</strong></p><p><strong>that combines the names of the people with the <i>exact</i> phrase given.</strong></p><p><strong>To receive full payment you must do this correctly.</strong></p><p><strong> You do not need to capitalise names or use punctuation.</strong></p><br><p>Press 'Continue' to begin.</p>",0,html-button-response,29,254424,0.0-12.0,51197,List2B,black,man,,,,,,,,,,,,,
null,"<div style=""font-size:60px;"">+</div>",,html-keyboard-response,30,255937,0.0-13.0-0.0,51197,List2B,black,man,,,,null,,,,,,,,,
null,"<img src=""stim_listB/touch3.gif""style=""height:400px;""></stim_listB>",,html-keyboard-response,31,257950,0.0-13.0-1.0,51197,List2B,black,man,,,,null,,,,,,,,,
null,is touching,,html-keyboard-response,32,259964,0.0-13.0-2.0,51197,List2B,black,man,,,,null,,,,,,,,,
16092.8,,,survey-text,33,276087,0.0-13.0-3.0,51197,List2B,black,man,,,,,"{""Q0"":""Kate is touching mike""}","<img src=""stim_listB/touch3.gif""style=""height:400px;""></stim_listB>",is touching,,,,,,
null,"<div style=""font-size:60px;"">+</div>",,html-keyboard-response,34,276598,0.0-13.0-0.1,51197,List2B,black,man,,,,null,,,,,,,,,
null,"<img src=""stim_listB/shout3.gif""style=""height:400px;""></stim_listB>",,html-keyboard-response,35,278606,0.0-13.0-1.1,51197,List2B,black,man,,,,null,,,,,,,,,
null,is shouting at,,html-keyboard-response,36,280614,0.0-13.0-2.1,51197,List2B,black,man,,,,null,,,,,,,,,
20689.3,,,survey-text,37,301349,0.0-13.0-3.1,51197,List2B,black,man,,,,,"{""Q0"":""James is shouting at kate""}","<img src=""stim_listB/shout3.gif""style=""height:400px;""></stim_listB>",is shouting at,,,,,,
null,"<div style=""font-size:60px;"">+</div>",,html-keyboard-response,38,301854,0.0-13.0-0.2,51197,List2B,black,man,,,,null,,,,,,,,,
null,"<img src=""stim_listB/shout4.gif""style=""height:400px;""></stim_listB>",,html-keyboard-response,39,303866,0.0-13.0-1.2,51197,List2B,black,man,,,,null,,,,,,,,,
null,is being shouted at by,,html-keyboard-response,40,305876,0.0-13.0-2.2,51197,List2B,black,man,,,,null,,,,,,,,,
30269.1,,,survey-text,41,336172,0.0-13.0-3.2,51197,List2B,black,man,,,,,"{""Q0"":""Paul is being shouted at by faith""}","<img src=""stim_listB/shout4.gif""style=""height:400px;""></stim_listB>",is being shouted at by,,,,,,
null,"<div style=""font-size:60px;"">+</div>",,html-keyboard-response,42,336677,0.0-13.0-0.3,51197,List2B,black,man,,,,null,,,,,,,,,
null,"<img src=""stim_listB/shout8.gif""style=""height:400px;""></stim_listB>",,html-keyboard-response,43,338687,0.0-13.0-1.3,51197,List2B,black,man,,,,null,,,,,,,,,
null,is being shouted at by,,html-keyboard-response,44,340698,0.0-13.0-2.3,51197,List2B,black,man,,,,null,,,,,,,,,
40232.4,,,survey-text,45,380968,0.0-13.0-3.3,51197,List2B,black,man,,,,,"{""Q0"":""bella is being shouted at by jane""}","<img src=""stim_listB/shout8.gif""style=""height:400px;""></stim_listB>",is being shouted at by,,,,,,
null,"<div style=""font-size:60px;"">+</div>",,html-keyboard-response,46,381474,0.0-13.0-0.4,51197,List2B,black,man,,,,null,,,,,,,,,
null,"<img src=""stim_listB/greet7.gif""style=""height:400px;""></stim_listB>",,html-keyboard-response,47,383484,0.0-13.0-1.4,51197,List2B,black,man,,,,null,,,,,,,,,
null,is greeting,,html-keyboard-response,48,385492,0.0-13.0-2.4,51197,List2B,black,man,,,,null,,,,,,,,,
12657.6,,,survey-text,49,398197,0.0-13.0-3.4,51197,List2B,black,man,,,,,"{""Q0"":""Jane is greeting kate""}","<img src=""stim_listB/greet7.gif""style=""height:400px;""></stim_listB>",is greeting,,,,,,
null,"<div style=""font-size:60px;"">+</div>",,html-keyboard-response,50,398702,0.0-13.0-0.5,51197,List2B,black,man,,,,null,,,,,,,,,
null,"<img src=""stim_listB/kiss1.gif""style=""height:400px;""></stim_listB>",,html-keyboard-response,51,400713,0.0-13.0-1.5,51197,List2B,black,man,,,,null,,,,,,,,,
null,is kissing,,html-keyboard-response,52,402722,0.0-13.0-2.5,51197,List2B,black,man,,,,null,,,,,,,,,
13422.5,,,survey-text,53,416172,0.0-13.0-3.5,51197,List2B,black,man,,,,,"{""Q0"":""fred is kissing jane""}","<img src=""stim_listB/kiss1.gif""style=""height:400px;""></stim_listB>",is kissing,,,,,,
null,"<div style=""font-size:60px;"">+</div>",,html-keyboard-response,54,416677,0.0-13.0-0.6,51197,List2B,black,man,,,,null,,,,,,,,,
null,"<img src=""stim_listB/seduce7.gif""style=""height:400px;""></stim_listB>",,html-keyboard-response,55,418695,0.0-13.0-1.6,51197,List2B,black,man,,,,null,,,,,,,,,
null,is seducing,,html-keyboard-response,56,420700,0.0-13.0-2.6,51197,List2B,black,man,,,,null,,,,,,,,,
19224.3,,,survey-text,57,439992,0.0-13.0-3.6,51197,List2B,black,man,,,,,"{""Q0"":""Jane is seducing ruth""}","<img src=""stim_listB/seduce7.gif""style=""height:400px;""></stim_listB>",is seducing,,,,,,
null,"<div style=""font-size:60px;"">+</div>",,html-keyboard-response,58,440498,0.0-13.0-0.7,51197,List2B,black,man,,,,null,,,,,,,,,
null,"<img src=""stim_listB/copy1.gif""style=""height:400px;""></stim_listB>",,html-keyboard-response,59,442510,0.0-13.0-1.7,51197,List2B,black,man,,,,null,,,,,,,,,
null,is copying,,html-keyboard-response,60,444516,0.0-13.0-2.7,51197,List2B,black,man,,,,null,,,,,,,,,
12143.2,,,survey-text,61,456704,0.0-13.0-3.7,51197,List2B,black,man,,,,,"{""Q0"":""Mike is copying ruth""}","<img src=""stim_listB/copy1.gif""style=""height:400px;""></stim_listB>",is copying,,,,,,
null,"<div style=""font-size:60px;"">+</div>",,html-keyboard-response,62,457209,0.0-13.0-0.8,51197,List2B,black,man,,,,null,,,,,,,,,
null,"<img src=""stim_listB/oppose8.gif""style=""height:400px;""></stim_listB>",,html-keyboard-response,63,459218,0.0-13.0-1.8,51197,List2B,black,man,,,,null,,,,,,,,,
null,is being opposed by,,html-keyboard-response,64,461222,0.0-13.0-2.8,51197,List2B,black,man,,,,null,,,,,,,,,
24632,,,survey-text,65,485881,0.0-13.0-3.8,51197,List2B,black,man,,,,,"{""Q0"":""ruth is being opposed by kate""}","<img src=""stim_listB/oppose8.gif""style=""height:400px;""></stim_listB>",is being opposed by,,,,,,
null,"<div style=""font-size:60px;"">+</div>",,html-keyboard-response,66,486386,0.0-13.0-0.9,51197,List2B,black,man,,,,null,,,,,,,,,
null,"<img src=""stim_listB/challenge1.gif""style=""height:400px;""></stim_listB>",,html-keyboard-response,67,488401,0.0-13.0-1.9,51197,List2B,black,man,,,,null,,,,,,,,,
null,is challenging,,html-keyboard-response,68,490440,0.0-13.0-2.9,51197,List2B,black,man,,,,null,,,,,,,,,
21907.9,,,survey-text,69,512381,0.0-13.0-3.9,51197,List2B,black,man,,,,,"{""Q0"":""Jane is challenging fred""}","<img src=""stim_listB/challenge1.gif""style=""height:400px;""></stim_listB>",is challenging,,,,,,
null,"<div style=""font-size:60px;"">+</div>",,html-keyboard-response,70,512886,0.0-13.0-0.10,51197,List2B,black,man,,,,null,,,,,,,,,
null,"<img src=""stim_listB/seduce3.gif""style=""height:400px;""></stim_listB>",,html-keyboard-response,71,514895,0.0-13.0-1.10,51197,List2B,black,man,,,,null,,,,,,,,,
null,is seducing,,html-keyboard-response,72,516907,0.0-13.0-2.10,51197,List2B,black,man,,,,null,,,,,,,,,
18497.5,,,survey-text,73,535429,0.0-13.0-3.10,51197,List2B,black,man,,,,,"{""Q0"":""fred is seducing ruth""}","<img src=""stim_listB/seduce3.gif""style=""height:400px;""></stim_listB>",is seducing,,,,,,
null,"<div style=""font-size:60px;"">+</div>",,html-keyboard-response,74,535934,0.0-13.0-0.11,51197,List2B,black,man,,,,null,,,,,,,,,
null,"<img src=""stim_listB/kiss4.gif""style=""height:400px;""></stim_listB>",,html-keyboard-response,75,537946,0.0-13.0-1.11,51197,List2B,black,man,,,,null,,,,,,,,,
null,is being kissed by,,html-keyboard-response,76,539950,0.0-13.0-2.11,51197,List2B,black,man,,,,null,,,,,,,,,
14968.5,,,survey-text,77,554974,0.0-13.0-3.11,51197,List2B,black,man,,,,,"{""Q0"":""Mike is being kissed by ruth""}","<img src=""stim_listB/kiss4.gif""style=""height:400px;""></stim_listB>",is being kissed by,,,,,,
null,"<div style=""font-size:60px;"">+</div>",,html-keyboard-response,78,555479,0.0-13.0-0.12,51197,List2B,black,man,,,,null,,,,,,,,,
null,"<img src=""stim_listB/oppose7.gif""style=""height:400px;""></stim_listB>",,html-keyboard-response,79,557492,0.0-13.0-1.12,51197,List2B,black,man,,,,null,,,,,,,,,
null,is opposing,,html-keyboard-response,80,559497,0.0-13.0-2.12,51197,List2B,black,man,,,,null,,,,,,,,,
13881,,,survey-text,81,573430,0.0-13.0-3.12,51197,List2B,black,man,,,,,"{""Q0"":""Mike is opposing jane""}","<img src=""stim_listB/oppose7.gif""style=""height:400px;""></stim_listB>",is opposing,,,,,,
null,"<div style=""font-size:60px;"">+</div>",,html-keyboard-response,82,573936,0.0-13.0-0.13,51197,List2B,black,man,,,,null,,,,,,,,,
null,"<img src=""stim_listB/copy8.gif""style=""height:400px;""></stim_listB>",,html-keyboard-response,83,575950,0.0-13.0-1.13,51197,List2B,black,man,,,,null,,,,,,,,,
null,is being copied by,,html-keyboard-response,84,577963,0.0-13.0-2.13,51197,List2B,black,man,,,,null,,,,,,,,,
18486.1,,,survey-text,85,596502,0.0-13.0-3.13,51197,List2B,black,man,,,,,"{""Q0"":""Jane is being copied by ruth""}","<img src=""stim_listB/copy8.gif""style=""height:400px;""></stim_listB>",is being copied by,,,,,,
null,"<div style=""font-size:60px;"">+</div>",,html-keyboard-response,86,597007,0.0-13.0-0.14,51197,List2B,black,man,,,,null,,,,,,,,,
null,"<img src=""stim_listB/hug8.gif""style=""height:400px;""></stim_listB>",,html-keyboard-response,87,599016,0.0-13.0-1.14,51197,List2B,black,man,,,,null,,,,,,,,,
null,is being hugged by,,html-keyboard-response,88,601022,0.0-13.0-2.14,51197,List2B,black,man,,,,null,,,,,,,,,
22741.6,,,survey-text,89,623810,0.0-13.0-3.14,51197,List2B,black,man,,,,,"{""Q0"":""Ruth is being hugged by jane""}","<img src=""stim_listB/hug8.gif""style=""height:400px;""></stim_listB>",is being hugged by,,,,,,
null,"<div style=""font-size:60px;"">+</div>",,html-keyboard-response,90,624316,0.0-13.0-0.15,51197,List2B,black,man,,,,null,,,,,,,,,
null,"<img src=""stim_listB/copy6.gif""style=""height:400px;""></stim_listB>",,html-keyboard-response,91,626332,0.0-13.0-1.15,51197,List2B,black,man,,,,null,,,,,,,,,
null,is being copied by,,html-keyboard-response,92,628340,0.0-13.0-2.15,51197,List2B,black,man,,,,null,,,,,,,,,
29750.7,,,survey-text,93,658131,0.0-13.0-3.15,51197,List2B,black,man,,,,,"{""Q0"":""fred is being copied by ruth""}","<img src=""stim_listB/copy6.gif""style=""height:400px;""></stim_listB>",is being copied by,,,,,,
null,"<div style=""font-size:60px;"">+</div>",,html-keyboard-response,94,658636,0.0-13.0-0.16,51197,List2B,black,man,,,,null,,,,,,,,,
null,"<img src=""stim_listB/look5.gif""style=""height:400px;""></stim_listB>",,html-keyboard-response,95,660646,0.0-13.0-1.16,51197,List2B,black,man,,,,null,,,,,,,,,
null,is looking at,,html-keyboard-response,96,662653,0.0-13.0-2.16,51197,List2B,black,man,,,,null,,,,,,,,,
13457,,,survey-text,97,676159,0.0-13.0-3.16,51197,List2B,black,man,,,,,"{""Q0"":""fred is looking at mike""}","<img src=""stim_listB/look5.gif""style=""height:400px;""></stim_listB>",is looking at,,,,,,
null,"<div style=""font-size:60px;"">+</div>",,html-keyboard-response,98,676664,0.0-13.0-0.17,51197,List2B,black,man,,,,null,,,,,,,,,
null,"<img src=""stim_listB/touch5.gif""style=""height:400px;""></stim_listB>",,html-keyboard-response,99,678674,0.0-13.0-1.17,51197,List2B,black,man,,,,null,,,,,,,,,
null,is touching,,html-keyboard-response,100,680683,0.0-13.0-2.17,51197,List2B,black,man,,,,null,,,,,,,,,
14934.8,,,survey-text,101,695657,0.0-13.0-3.17,51197,List2B,black,man,,,,,"{""Q0"":""Mike is touching james""}","<img src=""stim_listB/touch5.gif""style=""height:400px;""></stim_listB>",is touching,,,,,,
null,"<div style=""font-size:60px;"">+</div>",,html-keyboard-response,102,696162,0.0-13.0-0.18,51197,List2B,black,man,,,,null,,,,,,,,,
null,"<img src=""stim_listB/seduce4.gif""style=""height:400px;""></stim_listB>",,html-keyboard-response,103,698174,0.0-13.0-1.18,51197,List2B,black,man,,,,null,,,,,,,,,
null,is being seduced by,,html-keyboard-response,104,700182,0.0-13.0-2.18,51197,List2B,black,man,,,,null,,,,,,,,,
30070.8,,,survey-text,105,730311,0.0-13.0-3.18,51197,List2B,black,man,,,,,"{""Q0"":""Peter is being seduced by kate""}","<img src=""stim_listB/seduce4.gif""style=""height:400px;""></stim_listB>",is being seduced by,,,,,,
null,"<div style=""font-size:60px;"">+</div>",,html-keyboard-response,106,730815,0.0-13.0-0.19,51197,List2B,black,man,,,,null,,,,,,,,,
null,"<img src=""stim_listB/touch8.gif""style=""height:400px;""></stim_listB>",,html-keyboard-response,107,732824,0.0-13.0-1.19,51197,List2B,black,man,,,,null,,,,,,,,,
null,is being touched by,,html-keyboard-response,108,734828,0.0-13.0-2.19,51197,List2B,black,man,,,,null,,,,,,,,,
28541.1,,,survey-text,109,763406,0.0-13.0-3.19,51197,List2B,black,man,,,,,"{""Q0"":""Jane is being touched by kate""}","<img src=""stim_listB/touch8.gif""style=""height:400px;""></stim_listB>",is being touched by,,,,,,
22085.1,"<img src='img/portrait_matrix_list2.jpg' style='width:900px;height:500px;''></img><p>If you have memorised all the portraits and names and are ready to start, press Continue.</p><p><strong>Please note: Your memory of these faces will be tested 4 times during this experiment.</strong></p>",0,html-button-response,110,785499,0.0-14.0-0.0,51197,List2B,black,man,,,,,,,,,,,,,
5749.2,"<img src=""portrait/WW2.jpg""style=""height:400px;""></img>",3,html-button-response,111,792271,0.0-14.0-1.0,51197,List2B,black,man,,TRUE,3,,,,,,,,,,
null,CORRECT,,html-keyboard-response,112,793787,0.0-14.0-2.0-0.0,51197,List2B,black,man,,,,null,,,,,,,,,
3378.6,"<img src=""portrait/BW2.jpg""style=""height:400px;""></img>",2,html-button-response,113,797181,0.0-14.0-4.0,51197,List2B,black,man,,TRUE,2,,,,,,,,,,
null,CORRECT,,html-keyboard-response,114,798687,0.0-14.0-5.0-0.0,51197,List2B,black,man,,,,null,,,,,,,,,
2933.5,"<img src=""portrait/BW1.jpg""style=""height:400px;""></img>",0,html-button-response,115,801632,0.0-14.0-7.0,51197,List2B,black,man,,TRUE,0,,,,,,,,,,
null,CORRECT,,html-keyboard-response,116,803142,0.0-14.0-8.0-0.0,51197,List2B,black,man,,,,null,,,,,,,,,
3212.6,"<img src=""portrait/WM1.jpg""style=""height:400px;""></img>",6,html-button-response,117,806370,0.0-14.0-10.0,51197,List2B,black,man,,TRUE,6,,,,,,,,,,
null,CORRECT,,html-keyboard-response,118,807885,0.0-14.0-11.0-0.0,51197,List2B,black,man,,,,null,,,,,,,,,
4482.2,"<img src=""portrait/WM2.jpg""style=""height:400px;""></img>",7,html-button-response,119,812378,0.0-14.0-13.0,51197,List2B,black,man,,TRUE,7,,,,,,,,,,
null,CORRECT,,html-keyboard-response,120,813892,0.0-14.0-14.0-0.0,51197,List2B,black,man,,,,null,,,,,,,,,
3551.1,"<img src=""portrait/BM2.jpg""style=""height:400px;""></img>",5,html-button-response,121,817455,0.0-14.0-16.0,51197,List2B,black,man,,TRUE,5,,,,,,,,,,
null,CORRECT,,html-keyboard-response,122,818970,0.0-14.0-17.0-0.0,51197,List2B,black,man,,,,null,,,,,,,,,
4825.2,"<img src=""portrait/BM1.jpg""style=""height:400px;""></img>",7,html-button-response,123,823819,0.0-14.0-19.0,51197,List2B,black,man,,TRUE,4,,,,,,,,,,
5343.3,"<img src=""portrait/BM1.jpg""style=""height:400px;""></img>",4,html-button-response,124,830185,0.0-14.0-21.0-0.0,51197,List2B,black,man,,FALSE,4,,,,,,,,,,
null,CORRECT,,html-keyboard-response,125,831712,0.0-14.0-21.0-1.0-0.0,51197,List2B,black,man,,,,null,,,,,,,,,
3332.3,"<img src=""portrait/WW1.jpg""style=""height:400px;""></img>",1,html-button-response,126,835054,0.0-14.0-22.0,51197,List2B,black,man,,TRUE,1,,,,,,,,,,
null,CORRECT,,html-keyboard-response,127,836561,0.0-14.0-23.0-0.0,51197,List2B,black,man,,,,null,,,,,,,,,
2980.4,<p>You got 7 out of 8 right first time. Press Continue.</p>,0,html-button-response,128,839555,0.0-14.0-25.0,51197,List2B,black,man,,,,,,,,,,,,,
5059.8,"As you did not score 100%, the memory game will repeat. Press Continue.",0,html-button-response,129,845632,0.0-14.0-26.0-0.0,51197,List2B,black,man,,,,,,,,,,,,,
1761.4,"<img src='img/portrait_matrix_list2.jpg' style='width:900px;height:500px;''></img><p>If you have memorised all the portraits and names and are ready to start, press Continue.</p><p><strong>Please note: Your memory of these faces will be tested 4 times during this experiment.</strong></p>",0,html-button-response,130,848403,0.0-14.1-0.1,51197,List2B,black,man,,,,,,,,,,,,,
3284.7,"<img src=""portrait/WW2.jpg""style=""height:400px;""></img>",3,html-button-response,131,852706,0.0-14.1-1.1,51197,List2B,black,man,,TRUE,3,,,,,,,,,,
null,CORRECT,,html-keyboard-response,132,854222,0.0-14.1-2.1-0.1,51197,List2B,black,man,,,,null,,,,,,,,,
2588.3,"<img src=""portrait/BW2.jpg""style=""height:400px;""></img>",2,html-button-response,133,856819,0.0-14.1-4.1,51197,List2B,black,man,,TRUE,2,,,,,,,,,,
null,CORRECT,,html-keyboard-response,134,858333,0.0-14.1-5.1-0.1,51197,List2B,black,man,,,,null,,,,,,,,,
2825.9,"<img src=""portrait/BW1.jpg""style=""height:400px;""></img>",0,html-button-response,135,861167,0.0-14.1-7.1,51197,List2B,black,man,,TRUE,0,,,,,,,,,,
null,CORRECT,,html-keyboard-response,136,862683,0.0-14.1-8.1-0.1,51197,List2B,black,man,,,,null,,,,,,,,,
9102.8,"<img src=""portrait/WM1.jpg""style=""height:400px;""></img>",6,html-button-response,137,871798,0.0-14.1-10.1,51197,List2B,black,man,,TRUE,6,,,,,,,,,,
null,CORRECT,,html-keyboard-response,138,873314,0.0-14.1-11.1-0.1,51197,List2B,black,man,,,,null,,,,,,,,,
3568.6,"<img src=""portrait/WM2.jpg""style=""height:400px;""></img>",7,html-button-response,139,876913,0.0-14.1-13.1,51197,List2B,black,man,,TRUE,7,,,,,,,,,,
null,CORRECT,,html-keyboard-response,140,878421,0.0-14.1-14.1-0.1,51197,List2B,black,man,,,,null,,,,,,,,,
3053.4,"<img src=""portrait/BM2.jpg""style=""height:400px;""></img>",5,html-button-response,141,881516,0.0-14.1-16.1,51197,List2B,black,man,,TRUE,5,,,,,,,,,,
null,CORRECT,,html-keyboard-response,142,883028,0.0-14.1-17.1-0.1,51197,List2B,black,man,,,,null,,,,,,,,,
2861.7,"<img src=""portrait/BM1.jpg""style=""height:400px;""></img>",4,html-button-response,143,885909,0.0-14.1-19.1,51197,List2B,black,man,,TRUE,4,,,,,,,,,,
null,CORRECT,,html-keyboard-response,144,887419,0.0-14.1-20.1-0.1,51197,List2B,black,man,,,,null,,,,,,,,,
4249.7,"<img src=""portrait/WW1.jpg""style=""height:400px;""></img>",1,html-button-response,145,891686,0.0-14.1-22.1,51197,List2B,black,man,,TRUE,1,,,,,,,,,,
null,CORRECT,,html-keyboard-response,146,893199,0.0-14.1-23.1-0.1,51197,List2B,black,man,,,,null,,,,,,,,,
3002.1,<p>You got 8 out of 8 right first time. Press Continue.</p>,0,html-button-response,147,896213,0.0-14.1-25.1,51197,List2B,black,man,,,,,,,,,,,,,
null,"<div style=""font-size:60px;"">+</div>",,html-keyboard-response,148,897733,0.0-15.0-0.0,51197,List2B,black,man,,,,null,,,,,,,,,
null,"<img src=""stim_listB/seduce8.gif""style=""height:400px;""></stim_listB>",,html-keyboard-response,149,899745,0.0-15.0-1.0,51197,List2B,black,man,,,,null,,,,,,,,,
null,is being seduced by,,html-keyboard-response,150,901750,0.0-15.0-2.0,51197,List2B,black,man,,,,null,,,,,,,,,
33105.5,,,survey-text,151,934891,0.0-15.0-3.0,51197,List2B,black,man,,,,,"{""Q0"":""ruth is being seduced by beth""}","<img src=""stim_listB/seduce8.gif""style=""height:400px;""></stim_listB>",is being seduced by,,,,,,
null,"<div style=""font-size:60px;"">+</div>",,html-keyboard-response,152,935397,0.0-15.0-0.1,51197,List2B,black,man,,,,null,,,,,,,,,
null,"<img src=""stim_listB/shout2.gif""style=""height:400px;""></stim_listB>",,html-keyboard-response,153,937414,0.0-15.0-1.1,51197,List2B,black,man,,,,null,,,,,,,,,
null,is being shouted at by,,html-keyboard-response,154,939418,0.0-15.0-2.1,51197,List2B,black,man,,,,null,,,,,,,,,
16067.3,,,survey-text,155,955524,0.0-15.0-3.1,51197,List2B,black,man,,,,,"{""Q0"":""Ja""}","<img src=""stim_listB/shout2.gif""style=""height:400px;""></stim_listB>",is being shouted at by,,,,,,
null,"<div style=""font-size:60px;"">+</div>",,html-keyboard-response,156,956030,0.0-15.0-0.2,51197,List2B,black,man,,,,null,,,,,,,,,
null,"<img src=""stim_listB/look8.gif""style=""height:400px;""></stim_listB>",,html-keyboard-response,157,958042,0.0-15.0-1.2,51197,List2B,black,man,,,,null,,,,,,,,,
null,is being looked at by,,html-keyboard-response,158,960047,0.0-15.0-2.2,51197,List2B,black,man,,,,null,,,,,,,,,
15476,,,survey-text,159,975593,0.0-15.0-3.2,51197,List2B,black,man,,,,,"{""Q0"":""Jane is looked at by kate""}","<img src=""stim_listB/look8.gif""style=""height:400px;""></stim_listB>",is being looked at by,,,,,,
null,"<div style=""font-size:60px;"">+</div>",,html-keyboard-response,160,976097,0.0-15.0-0.3,51197,List2B,black,man,,,,null,,,,,,,,,
null,"<img src=""stim_listB/touch7.gif""style=""height:400px;""></stim_listB>",,html-keyboard-response,161,978107,0.0-15.0-1.3,51197,List2B,black,man,,,,null,,,,,,,,,
null,is touching,,html-keyboard-response,162,980112,0.0-15.0-2.3,51197,List2B,black,man,,,,null,,,,,,,,,
15165.4,,,survey-text,163,995301,0.0-15.0-3.3,51197,List2B,black,man,,,,,"{""Q0"":""Jane is touching kate""}","<img src=""stim_listB/touch7.gif""style=""height:400px;""></stim_listB>",is touching,,,,,,
null,"<div style=""font-size:60px;"">+</div>",,html-keyboard-response,164,995806,0.0-15.0-0.4,51197,List2B,black,man,,,,null,,,,,,,,,
null,"<img src=""stim_listB/touch1.gif""style=""height:400px;""></stim_listB>",,html-keyboard-response,165,997820,0.0-15.0-1.4,51197,List2B,black,man,,,,null,,,,,,,,,
null,is touching,,html-keyboard-response,166,999826,0.0-15.0-2.4,51197,List2B,black,man,,,,null,,,,,,,,,
14627.1,,,survey-text,167,1014490,0.0-15.0-3.4,51197,List2B,black,man,,,,,"{""Q0"":""Jane is touching dave""}","<img src=""stim_listB/touch1.gif""style=""height:400px;""></stim_listB>",is touching,,,,,,
null,"<div style=""font-size:60px;"">+</div>",,html-keyboard-response,168,1014995,0.0-15.0-0.5,51197,List2B,black,man,,,,null,,,,,,,,,
null,"<img src=""stim_listB/hug2.gif""style=""height:400px;""></stim_listB>",,html-keyboard-response,169,1017007,0.0-15.0-1.5,51197,List2B,black,man,,,,null,,,,,,,,,
null,is being hugged by,,html-keyboard-response,170,1019021,0.0-15.0-2.5,51197,List2B,black,man,,,,null,,,,,,,,,
17672.7,,,survey-text,171,1036730,0.0-15.0-3.5,51197,List2B,black,man,,,,,"{""Q0"":""Dave is being hugged by jane""}","<img src=""stim_listB/hug2.gif""style=""height:400px;""></stim_listB>",is being hugged by,,,,,,
null,"<div style=""font-size:60px;"">+</div>",,html-keyboard-response,172,1037236,0.0-15.0-0.6,51197,List2B,black,man,,,,null,,,,,,,,,
null,"<img src=""stim_listB/oppose5.gif""style=""height:400px;""></stim_listB>",,html-keyboard-response,173,1039251,0.0-15.0-1.6,51197,List2B,black,man,,,,null,,,,,,,,,
null,is opposing,,html-keyboard-response,174,1041261,0.0-15.0-2.6,51197,List2B,black,man,,,,null,,,,,,,,,
17520.3,,,survey-text,175,1058816,0.0-15.0-3.6,51197,List2B,black,man,,,,,"{""Q0"":""Luke is opposing dave""}","<img src=""stim_listB/oppose5.gif""style=""height:400px;""></stim_listB>",is opposing,,,,,,
null,"<div style=""font-size:60px;"">+</div>",,html-keyboard-response,176,1059323,0.0-15.0-0.7,51197,List2B,black,man,,,,null,,,,,,,,,
null,"<img src=""stim_listB/copy4.gif""style=""height:400px;""></stim_listB>",,html-keyboard-response,177,1061337,0.0-15.0-1.7,51197,List2B,black,man,,,,null,,,,,,,,,
null,is being copied by,,html-keyboard-response,178,1063342,0.0-15.0-2.7,51197,List2B,black,man,,,,null,,,,,,,,,
22253.9,,,survey-text,179,1085652,0.0-15.0-3.7,51197,List2B,black,man,,,,,"{""Q0"":""Fred is copying beth""}","<img src=""stim_listB/copy4.gif""style=""height:400px;""></stim_listB>",is being copied by,,,,,,
null,"<div style=""font-size:60px;"">+</div>",,html-keyboard-response,180,1086157,0.0-15.0-0.8,51197,List2B,black,man,,,,null,,,,,,,,,
null,"<img src=""stim_listB/seduce5.gif""style=""height:400px;""></stim_listB>",,html-keyboard-response,181,1088167,0.0-15.0-1.8,51197,List2B,black,man,,,,null,,,,,,,,,
null,is seducing,,html-keyboard-response,182,1090177,0.0-15.0-2.8,51197,List2B,black,man,,,,null,,,,,,,,,
17338.5,,,survey-text,183,1107554,0.0-15.0-3.8,51197,List2B,black,man,,,,,"{""Q0"":""Mike is seducing luke""}","<img src=""stim_listB/seduce5.gif""style=""height:400px;""></stim_listB>",is seducing,,,,,,
null,"<div style=""font-size:60px;"">+</div>",,html-keyboard-response,184,1108063,0.0-15.0-0.9,51197,List2B,black,man,,,,null,,,,,,,,,
null,"<img src=""stim_listB/greet3.gif""style=""height:400px;""></stim_listB>",,html-keyboard-response,185,1110074,0.0-15.0-1.9,51197,List2B,black,man,,,,null,,,,,,,,,
null,is greeting,,html-keyboard-response,186,1112082,0.0-15.0-2.9,51197,List2B,black,man,,,,null,,,,,,,,,
15676,,,survey-text,187,1127792,0.0-15.0-3.9,51197,List2B,black,man,,,,,"{""Q0"":""Beth is greeting mike""}","<img src=""stim_listB/greet3.gif""style=""height:400px;""></stim_listB>",is greeting,,,,,,
null,"<div style=""font-size:60px;"">+</div>",,html-keyboard-response,188,1128297,0.0-15.0-0.10,51197,List2B,black,man,,,,null,,,,,,,,,
null,"<img src=""stim_listB/hug1.gif""style=""height:400px;""></stim_listB>",,html-keyboard-response,189,1130311,0.0-15.0-1.10,51197,List2B,black,man,,,,null,,,,,,,,,
null,is hugging,,html-keyboard-response,190,1132316,0.0-15.0-2.10,51197,List2B,black,man,,,,null,,,,,,,,,
17716.5,,,survey-text,191,1150073,0.0-15.0-3.10,51197,List2B,black,man,,,,,"{""Q0"":""Beth is hugging luke""}","<img src=""stim_listB/hug1.gif""style=""height:400px;""></stim_listB>",is hugging,,,,,,
null,"<div style=""font-size:60px;"">+</div>",,html-keyboard-response,192,1150579,0.0-15.0-0.11,51197,List2B,black,man,,,,null,,,,,,,,,
null,"<img src=""stim_listB/copy7.gif""style=""height:400px;""></stim_listB>",,html-keyboard-response,193,1152592,0.0-15.0-1.11,51197,List2B,black,man,,,,null,,,,,,,,,
null,is copying,,html-keyboard-response,194,1154597,0.0-15.0-2.11,51197,List2B,black,man,,,,null,,,,,,,,,
28327.8,,,survey-text,195,1182981,0.0-15.0-3.11,51197,List2B,black,man,,,,,"{""Q0"":""Beth is copying jane""}","<img src=""stim_listB/copy7.gif""style=""height:400px;""></stim_listB>",is copying,,,,,,
null,"<div style=""font-size:60px;"">+</div>",,html-keyboard-response,196,1183486,0.0-15.0-0.12,51197,List2B,black,man,,,,null,,,,,,,,,
null,"<img src=""stim_listB/challenge8.gif""style=""height:400px;""></stim_listB>",,html-keyboard-response,197,1185500,0.0-15.0-1.12,51197,List2B,black,man,,,,null,,,,,,,,,
null,is being challenged by,,html-keyboard-response,198,1187505,0.0-15.0-2.12,51197,List2B,black,man,,,,null,,,,,,,,,
33647.9,,,survey-text,199,1221202,0.0-15.0-3.12,51197,List2B,black,man,,,,,"{""Q0"":""Jane is being challenged by kate""}","<img src=""stim_listB/challenge8.gif""style=""height:400px;""></stim_listB>",is being challenged by,,,,,,
null,"<div style=""font-size:60px;"">+</div>",,html-keyboard-response,200,1221709,0.0-15.0-0.13,51197,List2B,black,man,,,,null,,,,,,,,,
null,"<img src=""stim_listB/kiss7.gif""style=""height:400px;""></stim_listB>",,html-keyboard-response,201,1223723,0.0-15.0-1.13,51197,List2B,black,man,,,,null,,,,,,,,,
null,is kissing,,html-keyboard-response,202,1225729,0.0-15.0-2.13,51197,List2B,black,man,,,,null,,,,,,,,,
14947.2,,,survey-text,203,1240708,0.0-15.0-3.13,51197,List2B,black,man,,,,,"{""Q0"":""Beth is kissing ruth""}","<img src=""stim_listB/kiss7.gif""style=""height:400px;""></stim_listB>",is kissing,,,,,,
null,"<div style=""font-size:60px;"">+</div>",,html-keyboard-response,204,1241213,0.0-15.0-0.14,51197,List2B,black,man,,,,null,,,,,,,,,
null,"<img src=""stim_listB/touch6.gif""style=""height:400px;""></stim_listB>",,html-keyboard-response,205,1243220,0.0-15.0-1.14,51197,List2B,black,man,,,,null,,,,,,,,,
null,is being touched by,,html-keyboard-response,206,1245229,0.0-15.0-2.14,51197,List2B,black,man,,,,null,,,,,,,,,
18803.4,,,survey-text,207,1264075,0.0-15.0-3.14,51197,List2B,black,man,,,,,"{""Q0"":""Fred is being touched by luke""}","<img src=""stim_listB/touch6.gif""style=""height:400px;""></stim_listB>",is being touched by,,,,,,
null,"<div style=""font-size:60px;"">+</div>",,html-keyboard-response,208,1264580,0.0-15.0-0.15,51197,List2B,black,man,,,,null,,,,,,,,,
null,"<img src=""stim_listB/greet2.gif""style=""height:400px;""></stim_listB>",,html-keyboard-response,209,1266593,0.0-15.0-1.15,51197,List2B,black,man,,,,null,,,,,,,,,
null,is being greeted by,,html-keyboard-response,210,1268599,0.0-15.0-2.15,51197,List2B,black,man,,,,null,,,,,,,,,
18901.4,,,survey-text,211,1287556,0.0-15.0-3.15,51197,List2B,black,man,,,,,"{""Q0"":""Jane is being greeted by luke""}","<img src=""stim_listB/greet2.gif""style=""height:400px;""></stim_listB>",is being greeted by,,,,,,
null,"<div style=""font-size:60px;"">+</div>",,html-keyboard-response,212,1288062,0.0-15.0-0.16,51197,List2B,black,man,,,,null,,,,,,,,,
null,"<img src=""stim_listB/greet8.gif""style=""height:400px;""></stim_listB>",,html-keyboard-response,213,1290076,0.0-15.0-1.16,51197,List2B,black,man,,,,null,,,,,,,,,
null,is being greeted by,,html-keyboard-response,214,1292081,0.0-15.0-2.16,51197,List2B,black,man,,,,null,,,,,,,,,
25226.1,,,survey-text,215,1317361,0.0-15.0-3.16,51197,List2B,black,man,,,,,"{""Q0"":""Jane is being greeted by kate""}","<img src=""stim_listB/greet8.gif""style=""height:400px;""></stim_listB>",is being greeted by,,,,,,
null,"<div style=""font-size:60px;"">+</div>",,html-keyboard-response,216,1317868,0.0-15.0-0.17,51197,List2B,black,man,,,,null,,,,,,,,,
null,"<img src=""stim_listB/shout5.gif""style=""height:400px;""></stim_listB>",,html-keyboard-response,217,1319881,0.0-15.0-1.17,51197,List2B,black,man,,,,null,,,,,,,,,
null,is shouting at,,html-keyboard-response,218,1321889,0.0-15.0-2.17,51197,List2B,black,man,,,,null,,,,,,,,,
22340.3,,,survey-text,219,1344269,0.0-15.0-3.17,51197,List2B,black,man,,,,,"{""Q0"":""Fred is shouting at luke""}","<img src=""stim_listB/shout5.gif""style=""height:400px;""></stim_listB>",is shouting at,,,,,,
null,"<div style=""font-size:60px;"">+</div>",,html-keyboard-response,220,1344774,0.0-15.0-0.18,51197,List2B,black,man,,,,null,,,,,,,,,
null,"<img src=""stim_listB/touch2.gif""style=""height:400px;""></stim_listB>",,html-keyboard-response,221,1346785,0.0-15.0-1.18,51197,List2B,black,man,,,,null,,,,,,,,,
null,is being touched by,,html-keyboard-response,222,1348796,0.0-15.0-2.18,51197,List2B,black,man,,,,null,,,,,,,,,
20475.6,,,survey-text,223,1369313,0.0-15.0-3.18,51197,List2B,black,man,,,,,"{""Q0"":""Ruth is being touched by luke""}","<img src=""stim_listB/touch2.gif""style=""height:400px;""></stim_listB>",is being touched by,,,,,,
null,"<div style=""font-size:60px;"">+</div>",,html-keyboard-response,224,1369818,0.0-15.0-0.19,51197,List2B,black,man,,,,null,,,,,,,,,
null,"<img src=""stim_listB/copy3.gif""style=""height:400px;""></stim_listB>",,html-keyboard-response,225,1371826,0.0-15.0-1.19,51197,List2B,black,man,,,,null,,,,,,,,,
null,is copying,,html-keyboard-response,226,1373831,0.0-15.0-2.19,51197,List2B,black,man,,,,null,,,,,,,,,
25724.4,,,survey-text,227,1399596,0.0-15.0-3.19,51197,List2B,black,man,,,,,"{""Q0"":""Beth is copying mike""}","<img src=""stim_listB/copy3.gif""style=""height:400px;""></stim_listB>",is copying,,,,,,
8988.3,"<img src='img/portrait_matrix_list2.jpg' style='width:900px;height:500px;''></img><p>If you have memorised all the portraits and names and are ready to start, press Continue.</p><p><strong>Please note: Your memory of these faces will be tested 4 times during this experiment.</strong></p>",0,html-button-response,228,1408593,0.0-16.0-0.0,51197,List2B,black,man,,,,,,,,,,,,,
4293.6,"<img src=""portrait/BM1.jpg""style=""height:400px;""></img>",4,html-button-response,229,1413912,0.0-16.0-1.0,51197,List2B,black,man,,TRUE,4,,,,,,,,,,
null,CORRECT,,html-keyboard-response,230,1415441,0.0-16.0-2.0-0.0,51197,List2B,black,man,,,,null,,,,,,,,,
3401.4,"<img src=""portrait/BW2.jpg""style=""height:400px;""></img>",2,html-button-response,231,1418865,0.0-16.0-4.0,51197,List2B,black,man,,TRUE,2,,,,,,,,,,
null,CORRECT,,html-keyboard-response,232,1420371,0.0-16.0-5.0-0.0,51197,List2B,black,man,,,,null,,,,,,,,,
3023.2,"<img src=""portrait/BM2.jpg""style=""height:400px;""></img>",5,html-button-response,233,1423407,0.0-16.0-7.0,51197,List2B,black,man,,TRUE,5,,,,,,,,,,
null,CORRECT,,html-keyboard-response,234,1424922,0.0-16.0-8.0-0.0,51197,List2B,black,man,,,,null,,,,,,,,,
3243.6,"<img src=""portrait/BW1.jpg""style=""height:400px;""></img>",0,html-button-response,235,1428175,0.0-16.0-10.0,51197,List2B,black,man,,TRUE,0,,,,,,,,,,
null,CORRECT,,html-keyboard-response,236,1429689,0.0-16.0-11.0-0.0,51197,List2B,black,man,,,,null,,,,,,,,,
2752.4,"<img src=""portrait/WM2.jpg""style=""height:400px;""></img>",7,html-button-response,237,1432459,0.0-16.0-13.0,51197,List2B,black,man,,TRUE,7,,,,,,,,,,
null,CORRECT,,html-keyboard-response,238,1433974,0.0-16.0-14.0-0.0,51197,List2B,black,man,,,,null,,,,,,,,,
4173.7,"<img src=""portrait/WW2.jpg""style=""height:400px;""></img>",3,html-button-response,239,1438162,0.0-16.0-16.0,51197,List2B,black,man,,TRUE,3,,,,,,,,,,
null,CORRECT,,html-keyboard-response,240,1439676,0.0-16.0-17.0-0.0,51197,List2B,black,man,,,,null,,,,,,,,,
2959.7,"<img src=""portrait/WM1.jpg""style=""height:400px;""></img>",6,html-button-response,241,1442652,0.0-16.0-19.0,51197,List2B,black,man,,TRUE,6,,,,,,,,,,
null,CORRECT,,html-keyboard-response,242,1444165,0.0-16.0-20.0-0.0,51197,List2B,black,man,,,,null,,,,,,,,,
3854.4,"<img src=""portrait/WW1.jpg""style=""height:400px;""></img>",1,html-button-response,243,1448031,0.0-16.0-22.0,51197,List2B,black,man,,TRUE,1,,,,,,,,,,
null,CORRECT,,html-keyboard-response,244,1449544,0.0-16.0-23.0-0.0,51197,List2B,black,man,,,,null,,,,,,,,,
1874.9,<p>You got 8 out of 8 right first time. Press Continue.</p>,0,html-button-response,245,1451428,0.0-16.0-25.0,51197,List2B,black,man,,,,,,,,,,,,,
null,"<div style=""font-size:60px;"">+</div>",,html-keyboard-response,246,1452943,0.0-17.0-0.0,51197,List2B,black,man,,,,null,,,,,,,,,
null,"<img src=""stim_listB/kiss2.gif""style=""height:400px;""></stim_listB>",,html-keyboard-response,247,1454953,0.0-17.0-1.0,51197,List2B,black,man,,,,null,,,,,,,,,
null,is being kissed by,,html-keyboard-response,248,1456961,0.0-17.0-2.0,51197,List2B,black,man,,,,null,,,,,,,,,
18326.3,,,survey-text,249,1475351,0.0-17.0-3.0,51197,List2B,black,man,,,,,"{""Q0"":""Jane is being kissed by dave""}","<img src=""stim_listB/kiss2.gif""style=""height:400px;""></stim_listB>",is being kissed by,,,,,,
null,"<div style=""font-size:60px;"">+</div>",,html-keyboard-response,250,1475857,0.0-17.0-0.1,51197,List2B,black,man,,,,null,,,,,,,,,
null,"<img src=""stim_listB/oppose4.gif""style=""height:400px;""></stim_listB>",,html-keyboard-response,251,1477872,0.0-17.0-1.1,51197,List2B,black,man,,,,null,,,,,,,,,
null,is being opposed by,,html-keyboard-response,252,1479877,0.0-17.0-2.1,51197,List2B,black,man,,,,null,,,,,,,,,
28876,,,survey-text,253,1508771,0.0-17.0-3.1,51197,List2B,black,man,,,,,"{""Q0"":""Fred is being opposed by kate""}","<img src=""stim_listB/oppose4.gif""style=""height:400px;""></stim_listB>",is being opposed by,,,,,,
null,"<div style=""font-size:60px;"">+</div>",,html-keyboard-response,254,1509276,0.0-17.0-0.2,51197,List2B,black,man,,,,null,,,,,,,,,
null,"<img src=""stim_listB/challenge6.gif""style=""height:400px;""></stim_listB>",,html-keyboard-response,255,1511289,0.0-17.0-1.2,51197,List2B,black,man,,,,null,,,,,,,,,
null,is being challenged by,,html-keyboard-response,256,1513294,0.0-17.0-2.2,51197,List2B,black,man,,,,null,,,,,,,,,
23209.5,,,survey-text,257,1536546,0.0-17.0-3.2,51197,List2B,black,man,,,,,"{""Q0"":""Mike is being challenged by luke""}","<img src=""stim_listB/challenge6.gif""style=""height:400px;""></stim_listB>",is being challenged by,,,,,,
null,"<div style=""font-size:60px;"">+</div>",,html-keyboard-response,258,1537051,0.0-17.0-0.3,51197,List2B,black,man,,,,null,,,,,,,,,
null,"<img src=""stim_listB/shout6.gif""style=""height:400px;""></stim_listB>",,html-keyboard-response,259,1539065,0.0-17.0-1.3,51197,List2B,black,man,,,,null,,,,,,,,,
null,is being shouted at by,,html-keyboard-response,260,1541073,0.0-17.0-2.3,51197,List2B,black,man,,,,null,,,,,,,,,
31648,,,survey-text,261,1572779,0.0-17.0-3.3,51197,List2B,black,man,,,,,"{""Q0"":""Fred is being shouted at by dave""}","<img src=""stim_listB/shout6.gif""style=""height:400px;""></stim_listB>",is being shouted at by,,,,,,
null,"<div style=""font-size:60px;"">+</div>",,html-keyboard-response,262,1573284,0.0-17.0-0.4,51197,List2B,black,man,,,,null,,,,,,,,,
null,"<img src=""stim_listB/hug7.gif""style=""height:400px;""></stim_listB>",,html-keyboard-response,263,1575297,0.0-17.0-1.4,51197,List2B,black,man,,,,null,,,,,,,,,
null,is hugging,,html-keyboard-response,264,1577302,0.0-17.0-2.4,51197,List2B,black,man,,,,null,,,,,,,,,
27221.2,,,survey-text,265,1604566,0.0-17.0-3.4,51197,List2B,black,man,,,,,"{""Q0"":""Ruth is hugging beth""}","<img src=""stim_listB/hug7.gif""style=""height:400px;""></stim_listB>",is hugging,,,,,,
null,"<div style=""font-size:60px;"">+</div>",,html-keyboard-response,266,1605072,0.0-17.0-0.5,51197,List2B,black,man,,,,null,,,,,,,,,
null,"<img src=""stim_listB/look1.gif""style=""height:400px;""></stim_listB>",,html-keyboard-response,267,1607087,0.0-17.0-1.5,51197,List2B,black,man,,,,null,,,,,,,,,
null,is looking at,,html-keyboard-response,268,1609092,0.0-17.0-2.5,51197,List2B,black,man,,,,null,,,,,,,,,
24952.6,,,survey-text,269,1634094,0.0-17.0-3.5,51197,List2B,black,man,,,,,"{""Q0"":""ruth is looking at luke""}","<img src=""stim_listB/look1.gif""style=""height:400px;""></stim_listB>",is looking at,,,,,,
null,"<div style=""font-size:60px;"">+</div>",,html-keyboard-response,270,1634601,0.0-17.0-0.6,51197,List2B,black,man,,,,null,,,,,,,,,
null,"<img src=""stim_listB/look3.gif""style=""height:400px;""></stim_listB>",,html-keyboard-response,271,1636617,0.0-17.0-1.6,51197,List2B,black,man,,,,null,,,,,,,,,
null,is looking at,,html-keyboard-response,272,1638625,0.0-17.0-2.6,51197,List2B,black,man,,,,null,,,,,,,,,
14162.8,,,survey-text,273,1652847,0.0-17.0-3.6,51197,List2B,black,man,,,,,"{""Q0"":""Fred is looking at beth""}","<img src=""stim_listB/look3.gif""style=""height:400px;""></stim_listB>",is looking at,,,,,,
null,"<div style=""font-size:60px;"">+</div>",,html-keyboard-response,274,1653353,0.0-17.0-0.7,51197,List2B,black,man,,,,null,,,,,,,,,
null,"<img src=""stim_listB/shout1.gif""style=""height:400px;""></stim_listB>",,html-keyboard-response,275,1655372,0.0-17.0-1.7,51197,List2B,black,man,,,,null,,,,,,,,,
null,is shouting at,,html-keyboard-response,276,1657377,0.0-17.0-2.7,51197,List2B,black,man,,,,null,,,,,,,,,
16696.3,,,survey-text,277,1674107,0.0-17.0-3.7,51197,List2B,black,man,,,,,"{""Q0"":""Luke is shouting at ruth""}","<img src=""stim_listB/shout1.gif""style=""height:400px;""></stim_listB>",is shouting at,,,,,,
null,"<div style=""font-size:60px;"">+</div>",,html-keyboard-response,278,1674614,0.0-17.0-0.8,51197,List2B,black,man,,,,null,,,,,,,,,
null,"<img src=""stim_listB/seduce1.gif""style=""height:400px;""></stim_listB>",,html-keyboard-response,279,1676629,0.0-17.0-1.8,51197,List2B,black,man,,,,null,,,,,,,,,
null,is seducing,,html-keyboard-response,280,1678635,0.0-17.0-2.8,51197,List2B,black,man,,,,null,,,,,,,,,
14945.3,,,survey-text,281,1693614,0.0-17.0-3.8,51197,List2B,black,man,,,,,"{""Q0"":""Luke is seducing jane""}","<img src=""stim_listB/seduce1.gif""style=""height:400px;""></stim_listB>",is seducing,,,,,,
null,"<div style=""font-size:60px;"">+</div>",,html-keyboard-response,282,1694118,0.0-17.0-0.9,51197,List2B,black,man,,,,null,,,,,,,,,
null,"<img src=""stim_listB/seduce6.gif""style=""height:400px;""></stim_listB>",,html-keyboard-response,283,1696136,0.0-17.0-1.9,51197,List2B,black,man,,,,null,,,,,,,,,
null,is being seduced by,,html-keyboard-response,284,1698145,0.0-17.0-2.9,51197,List2B,black,man,,,,null,,,,,,,,,
17940,,,survey-text,285,1716145,0.0-17.0-3.9,51197,List2B,black,man,,,,,"{""Q0"":""Fred is being seduced by dave""}","<img src=""stim_listB/seduce6.gif""style=""height:400px;""></stim_listB>",is being seduced by,,,,,,
null,"<div style=""font-size:60px;"">+</div>",,html-keyboard-response,286,1716652,0.0-17.0-0.10,51197,List2B,black,man,,,,null,,,,,,,,,
null,"<img src=""stim_listB/seduce2.gif""style=""height:400px;""></stim_listB>",,html-keyboard-response,287,1718660,0.0-17.0-1.10,51197,List2B,black,man,,,,null,,,,,,,,,
null,is being seduced by,,html-keyboard-response,288,1720677,0.0-17.0-2.10,51197,List2B,black,man,,,,null,,,,,,,,,
29480.4,,,survey-text,289,1750210,0.0-17.0-3.10,51197,List2B,black,man,,,,,"{""Q0"":""Dave is being seduced by jane""}","<img src=""stim_listB/seduce2.gif""style=""height:400px;""></stim_listB>",is being seduced by,,,,,,
null,"<div style=""font-size:60px;"">+</div>",,html-keyboard-response,290,1750716,0.0-17.0-0.11,51197,List2B,black,man,,,,null,,,,,,,,,
null,"<img src=""stim_listB/oppose1.gif""style=""height:400px;""></stim_listB>",,html-keyboard-response,291,1752732,0.0-17.0-1.11,51197,List2B,black,man,,,,null,,,,,,,,,
null,is opposing,,html-keyboard-response,292,1754740,0.0-17.0-2.11,51197,List2B,black,man,,,,null,,,,,,,,,
15898.3,,,survey-text,293,1770692,0.0-17.0-3.11,51197,List2B,black,man,,,,,"{""Q0"":""Dave is opposing jane""}","<img src=""stim_listB/oppose1.gif""style=""height:400px;""></stim_listB>",is opposing,,,,,,
null,"<div style=""font-size:60px;"">+</div>",,html-keyboard-response,294,1771199,0.0-17.0-0.12,51197,List2B,black,man,,,,null,,,,,,,,,
null,"<img src=""stim_listB/hug5.gif""style=""height:400px;""></stim_listB>",,html-keyboard-response,295,1773211,0.0-17.0-1.12,51197,List2B,black,man,,,,null,,,,,,,,,
null,is hugging,,html-keyboard-response,296,1775221,0.0-17.0-2.12,51197,List2B,black,man,,,,null,,,,,,,,,
15737.5,,,survey-text,297,1791012,0.0-17.0-3.12,51197,List2B,black,man,,,,,"{""Q0"":""Fred is hugging luke""}","<img src=""stim_listB/hug5.gif""style=""height:400px;""></stim_listB>",is hugging,,,,,,
null,"<div style=""font-size:60px;"">+</div>",,html-keyboard-response,298,1791517,0.0-17.0-0.13,51197,List2B,black,man,,,,null,,,,,,,,,
null,"<img src=""stim_listB/hug4.gif""style=""height:400px;""></stim_listB>",,html-keyboard-response,299,1793527,0.0-17.0-1.13,51197,List2B,black,man,,,,null,,,,,,,,,
null,is being hugged by,,html-keyboard-response,300,1795532,0.0-17.0-2.13,51197,List2B,black,man,,,,null,,,,,,,,,
30529.2,,,survey-text,301,1826086,0.0-17.0-3.13,51197,List2B,black,man,,,,,"{""Q0"":""Mike is being hugged by kate""}","<img src=""stim_listB/hug4.gif""style=""height:400px;""></stim_listB>",is being hugged by,,,,,,
null,"<div style=""font-size:60px;"">+</div>",,html-keyboard-response,302,1826591,0.0-17.0-0.14,51197,List2B,black,man,,,,null,,,,,,,,,
null,"<img src=""stim_listB/kiss3.gif""style=""height:400px;""></stim_listB>",,html-keyboard-response,303,1828600,0.0-17.0-1.14,51197,List2B,black,man,,,,null,,,,,,,,,
null,is kissing,,html-keyboard-response,304,1830611,0.0-17.0-2.14,51197,List2B,black,man,,,,null,,,,,,,,,
33229,,,survey-text,305,1863889,0.0-17.0-3.14,51197,List2B,black,man,,,,,"{""Q0"":""fred is kissing beth""}","<img src=""stim_listB/kiss3.gif""style=""height:400px;""></stim_listB>",is kissing,,,,,,
null,"<div style=""font-size:60px;"">+</div>",,html-keyboard-response,306,1864394,0.0-17.0-0.15,51197,List2B,black,man,,,,null,,,,,,,,,
null,"<img src=""stim_listB/greet6.gif""style=""height:400px;""></stim_listB>",,html-keyboard-response,307,1866404,0.0-17.0-1.15,51197,List2B,black,man,,,,null,,,,,,,,,
null,is being greeted by,,html-keyboard-response,308,1868409,0.0-17.0-2.15,51197,List2B,black,man,,,,null,,,,,,,,,
19191.8,,,survey-text,309,1887653,0.0-17.0-3.15,51197,List2B,black,man,,,,,"{""Q0"":""Luke is being greeted by mike""}","<img src=""stim_listB/greet6.gif""style=""height:400px;""></stim_listB>",is being greeted by,,,,,,
null,"<div style=""font-size:60px;"">+</div>",,html-keyboard-response,310,1888157,0.0-17.0-0.16,51197,List2B,black,man,,,,null,,,,,,,,,
null,"<img src=""stim_listB/greet1.gif""style=""height:400px;""></stim_listB>",,html-keyboard-response,311,1890168,0.0-17.0-1.16,51197,List2B,black,man,,,,null,,,,,,,,,
null,is greeting,,html-keyboard-response,312,1892176,0.0-17.0-2.16,51197,List2B,black,man,,,,null,,,,,,,,,
16594.6,,,survey-text,313,1908807,0.0-17.0-3.16,51197,List2B,black,man,,,,,"{""Q0"":""Dave is greeting ruth""}","<img src=""stim_listB/greet1.gif""style=""height:400px;""></stim_listB>",is greeting,,,,,,
null,"<div style=""font-size:60px;"">+</div>",,html-keyboard-response,314,1909312,0.0-17.0-0.17,51197,List2B,black,man,,,,null,,,,,,,,,
null,"<img src=""stim_listB/greet4.gif""style=""height:400px;""></stim_listB>",,html-keyboard-response,315,1911326,0.0-17.0-1.17,51197,List2B,black,man,,,,null,,,,,,,,,
null,is being greeted by,,html-keyboard-response,316,1913334,0.0-17.0-2.17,51197,List2B,black,man,,,,null,,,,,,,,,
15121.9,,,survey-text,317,1928490,0.0-17.0-3.17,51197,List2B,black,man,,,,,"{""Q0"":""Fred is being greeted by kate""}","<img src=""stim_listB/greet4.gif""style=""height:400px;""></stim_listB>",is being greeted by,,,,,,
null,"<div style=""font-size:60px;"">+</div>",,html-keyboard-response,318,1928996,0.0-17.0-0.18,51197,List2B,black,man,,,,null,,,,,,,,,
null,"<img src=""stim_listB/challenge3.gif""style=""height:400px;""></stim_listB>",,html-keyboard-response,319,1931006,0.0-17.0-1.18,51197,List2B,black,man,,,,null,,,,,,,,,
null,is challenging,,html-keyboard-response,320,1933011,0.0-17.0-2.18,51197,List2B,black,man,,,,null,,,,,,,,,
15558.9,,,survey-text,321,1948634,0.0-17.0-3.18,51197,List2B,black,man,,,,,"{""Q0"":""Mike is challenging beth""}","<img src=""stim_listB/challenge3.gif""style=""height:400px;""></stim_listB>",is challenging,,,,,,
null,"<div style=""font-size:60px;"">+</div>",,html-keyboard-response,322,1949139,0.0-17.0-0.19,51197,List2B,black,man,,,,null,,,,,,,,,
null,"<img src=""stim_listB/challenge5.gif""style=""height:400px;""></stim_listB>",,html-keyboard-response,323,1951148,0.0-17.0-1.19,51197,List2B,black,man,,,,null,,,,,,,,,
null,is challenging,,html-keyboard-response,324,1953158,0.0-17.0-2.19,51197,List2B,black,man,,,,null,,,,,,,,,
28998.9,,,survey-text,325,1982194,0.0-17.0-3.19,51197,List2B,black,man,,,,,"{""Q0"":""Fred is challenging dave""}","<img src=""stim_listB/challenge5.gif""style=""height:400px;""></stim_listB>",is challenging,,,,,,
4699.5,"<img src='img/portrait_matrix_list2.jpg' style='width:900px;height:500px;''></img><p>If you have memorised all the portraits and names and are ready to start, press Continue.</p><p><strong>Please note: Your memory of these faces will be tested 4 times during this experiment.</strong></p>",0,html-button-response,326,1986902,0.0-18.0-0.0,51197,List2B,black,man,,,,,,,,,,,,,
4664,"<img src=""portrait/WM2.jpg""style=""height:400px;""></img>",7,html-button-response,327,1992581,0.0-18.0-1.0,51197,List2B,black,man,,TRUE,7,,,,,,,,,,
null,CORRECT,,html-keyboard-response,328,1994094,0.0-18.0-2.0-0.0,51197,List2B,black,man,,,,null,,,,,,,,,
4206.1,"<img src=""portrait/WW1.jpg""style=""height:400px;""></img>",1,html-button-response,329,1998311,0.0-18.0-4.0,51197,List2B,black,man,,TRUE,1,,,,,,,,,,
null,CORRECT,,html-keyboard-response,330,1999828,0.0-18.0-5.0-0.0,51197,List2B,black,man,,,,null,,,,,,,,,
2410.6,"<img src=""portrait/BM1.jpg""style=""height:400px;""></img>",4,html-button-response,331,2002253,0.0-18.0-7.0,51197,List2B,black,man,,TRUE,4,,,,,,,,,,
null,CORRECT,,html-keyboard-response,332,2003771,0.0-18.0-8.0-0.0,51197,List2B,black,man,,,,null,,,,,,,,,
2415,"<img src=""portrait/BW2.jpg""style=""height:400px;""></img>",0,html-button-response,333,2006200,0.0-18.0-10.0,51197,List2B,black,man,,TRUE,2,,,,,,,,,,
4310.8,"<img src=""portrait/BW2.jpg""style=""height:400px;""></img>",2,html-button-response,334,2011534,0.0-18.0-12.0-0.0,51197,List2B,black,man,,FALSE,2,,,,,,,,,,
null,CORRECT,,html-keyboard-response,335,2013048,0.0-18.0-12.0-1.0-0.0,51197,List2B,black,man,,,,null,,,,,,,,,
3595.6,"<img src=""portrait/WM1.jpg""style=""height:400px;""></img>",6,html-button-response,336,2016660,0.0-18.0-13.0,51197,List2B,black,man,,TRUE,6,,,,,,,,,,
null,CORRECT,,html-keyboard-response,337,2018186,0.0-18.0-14.0-0.0,51197,List2B,black,man,,,,null,,,,,,,,,
2758.5,"<img src=""portrait/WW2.jpg""style=""height:400px;""></img>",3,html-button-response,338,2020965,0.0-18.0-16.0,51197,List2B,black,man,,TRUE,3,,,,,,,,,,
null,CORRECT,,html-keyboard-response,339,2022482,0.0-18.0-17.0-0.0,51197,List2B,black,man,,,,null,,,,,,,,,
2489.4,"<img src=""portrait/BW1.jpg""style=""height:400px;""></img>",0,html-button-response,340,2024988,0.0-18.0-19.0,51197,List2B,black,man,,TRUE,0,,,,,,,,,,
null,CORRECT,,html-keyboard-response,341,2026502,0.0-18.0-20.0-0.0,51197,List2B,black,man,,,,null,,,,,,,,,
2820,"<img src=""portrait/BM2.jpg""style=""height:400px;""></img>",5,html-button-response,342,2029335,0.0-18.0-22.0,51197,List2B,black,man,,TRUE,5,,,,,,,,,,
null,CORRECT,,html-keyboard-response,343,2030850,0.0-18.0-23.0-0.0,51197,List2B,black,man,,,,null,,,,,,,,,
1959,<p>You got 7 out of 8 right first time. Press Continue.</p>,0,html-button-response,344,2032822,0.0-18.0-25.0,51197,List2B,black,man,,,,,,,,,,,,,
2500,"As you did not score 100%, the memory game will repeat. Press Continue.",0,html-button-response,345,2036339,0.0-18.0-26.0-0.0,51197,List2B,black,man,,,,,,,,,,,,,
2179.9,"<img src='img/portrait_matrix_list2.jpg' style='width:900px;height:500px;''></img><p>If you have memorised all the portraits and names and are ready to start, press Continue.</p><p><strong>Please note: Your memory of these faces will be tested 4 times during this experiment.</strong></p>",0,html-button-response,346,2039539,0.0-18.1-0.1,51197,List2B,black,man,,,,,,,,,,,,,
2614.3,"<img src=""portrait/WM2.jpg""style=""height:400px;""></img>",7,html-button-response,347,2043178,0.0-18.1-1.1,51197,List2B,black,man,,TRUE,7,,,,,,,,,,
null,CORRECT,,html-keyboard-response,348,2044695,0.0-18.1-2.1-0.1,51197,List2B,black,man,,,,null,,,,,,,,,
3192.1,"<img src=""portrait/WW1.jpg""style=""height:400px;""></img>",1,html-button-response,349,2047903,0.0-18.1-4.1,51197,List2B,black,man,,TRUE,1,,,,,,,,,,
null,CORRECT,,html-keyboard-response,350,2049417,0.0-18.1-5.1-0.1,51197,List2B,black,man,,,,null,,,,,,,,,
2050.6,"<img src=""portrait/BM1.jpg""style=""height:400px;""></img>",4,html-button-response,351,2051490,0.0-18.1-7.1,51197,List2B,black,man,,TRUE,4,,,,,,,,,,
null,CORRECT,,html-keyboard-response,352,2053005,0.0-18.1-8.1-0.1,51197,List2B,black,man,,,,null,,,,,,,,,
3376.5,"<img src=""portrait/BW2.jpg""style=""height:400px;""></img>",2,html-button-response,353,2056403,0.0-18.1-10.1,51197,List2B,black,man,,TRUE,2,,,,,,,,,,
null,CORRECT,,html-keyboard-response,354,2057924,0.0-18.1-11.1-0.1,51197,List2B,black,man,,,,null,,,,,,,,,
4990.7,"<img src=""portrait/WM1.jpg""style=""height:400px;""></img>",6,html-button-response,355,2062935,0.0-18.1-13.1,51197,List2B,black,man,,TRUE,6,,,,,,,,,,
null,CORRECT,,html-keyboard-response,356,2064448,0.0-18.1-14.1-0.1,51197,List2B,black,man,,,,null,,,,,,,,,
2600.5,"<img src=""portrait/WW2.jpg""style=""height:400px;""></img>",3,html-button-response,357,2067063,0.0-18.1-16.1,51197,List2B,black,man,,TRUE,3,,,,,,,,,,
null,CORRECT,,html-keyboard-response,358,2068577,0.0-18.1-17.1-0.1,51197,List2B,black,man,,,,null,,,,,,,,,
2219.3,"<img src=""portrait/BW1.jpg""style=""height:400px;""></img>",0,html-button-response,359,2070817,0.0-18.1-19.1,51197,List2B,black,man,,TRUE,0,,,,,,,,,,
null,CORRECT,,html-keyboard-response,360,2072333,0.0-18.1-20.1-0.1,51197,List2B,black,man,,,,null,,,,,,,,,
2204.8,"<img src=""portrait/BM2.jpg""style=""height:400px;""></img>",5,html-button-response,361,2074558,0.0-18.1-22.1,51197,List2B,black,man,,TRUE,5,,,,,,,,,,
null,CORRECT,,html-keyboard-response,362,2076070,0.0-18.1-23.1-0.1,51197,List2B,black,man,,,,null,,,,,,,,,
1449,<p>You got 8 out of 8 right first time. Press Continue.</p>,0,html-button-response,363,2077533,0.0-18.1-25.1,51197,List2B,black,man,,,,,,,,,,,,,
null,"<div style=""font-size:60px;"">+</div>",,html-keyboard-response,364,2079046,0.0-19.0-0.0,51197,List2B,black,man,,,,null,,,,,,,,,
null,"<img src=""stim_listB/look4.gif""style=""height:400px;""></stim_listB>",,html-keyboard-response,365,2081064,0.0-19.0-1.0,51197,List2B,black,man,,,,null,,,,,,,,,
null,is being looked at by,,html-keyboard-response,366,2083072,0.0-19.0-2.0,51197,List2B,black,man,,,,null,,,,,,,,,
22620.1,,,survey-text,367,2105718,0.0-19.0-3.0,51197,List2B,black,man,,,,,"{""Q0"":""Mike is being looked at by kate""}","<img src=""stim_listB/look4.gif""style=""height:400px;""></stim_listB>",is being looked at by,,,,,,
null,"<div style=""font-size:60px;"">+</div>",,html-keyboard-response,368,2106224,0.0-19.0-0.1,51197,List2B,black,man,,,,null,,,,,,,,,
null,"<img src=""stim_listB/challenge4.gif""style=""height:400px;""></stim_listB>",,html-keyboard-response,369,2108244,0.0-19.0-1.1,51197,List2B,black,man,,,,null,,,,,,,,,
null,is being challenged by,,html-keyboard-response,370,2110250,0.0-19.0-2.1,51197,List2B,black,man,,,,null,,,,,,,,,
30592.3,,,survey-text,371,2140882,0.0-19.0-3.1,51197,List2B,black,man,,,,,"{""Q0"":""Fred is being challenged by kate""}","<img src=""stim_listB/challenge4.gif""style=""height:400px;""></stim_listB>",is being challenged by,,,,,,
null,"<div style=""font-size:60px;"">+</div>",,html-keyboard-response,372,2141388,0.0-19.0-0.2,51197,List2B,black,man,,,,null,,,,,,,,,
null,"<img src=""stim_listB/oppose6.gif""style=""height:400px;""></stim_listB>",,html-keyboard-response,373,2143407,0.0-19.0-1.2,51197,List2B,black,man,,,,null,,,,,,,,,
null,is being opposed by,,html-keyboard-response,374,2145415,0.0-19.0-2.2,51197,List2B,black,man,,,,null,,,,,,,,,
22733.7,,,survey-text,375,2168182,0.0-19.0-3.2,51197,List2B,black,man,,,,,"{""Q0"":""Luke is being opposed by fred""}","<img src=""stim_listB/oppose6.gif""style=""height:400px;""></stim_listB>",is being opposed by,,,,,,
null,"<div style=""font-size:60px;"">+</div>",,html-keyboard-response,376,2168688,0.0-19.0-0.3,51197,List2B,black,man,,,,null,,,,,,,,,
null,"<img src=""stim_listB/challenge7.gif""style=""height:400px;""></stim_listB>",,html-keyboard-response,377,2170705,0.0-19.0-1.3,51197,List2B,black,man,,,,null,,,,,,,,,
null,is challenging,,html-keyboard-response,378,2172713,0.0-19.0-2.3,51197,List2B,black,man,,,,null,,,,,,,,,
33285.1,,,survey-text,379,2206044,0.0-19.0-3.3,51197,List2B,black,man,,,,,"{""Q0"":""Beth is challenging jane""}","<img src=""stim_listB/challenge7.gif""style=""height:400px;""></stim_listB>",is challenging,,,,,,
null,"<div style=""font-size:60px;"">+</div>",,html-keyboard-response,380,2206555,0.0-19.0-0.4,51197,List2B,black,man,,,,null,,,,,,,,,
null,"<img src=""stim_listB/copy2.gif""style=""height:400px;""></stim_listB>",,html-keyboard-response,381,2208569,0.0-19.0-1.4,51197,List2B,black,man,,,,null,,,,,,,,,
null,is being copied by,,html-keyboard-response,382,2210575,0.0-19.0-2.4,51197,List2B,black,man,,,,null,,,,,,,,,
15001.4,,,survey-text,383,2225677,0.0-19.0-3.4,51197,List2B,black,man,,,,,"{""Q0"":""Luke is being copied by jane""}","<img src=""stim_listB/copy2.gif""style=""height:400px;""></stim_listB>",is being copied by,,,,,,
null,"<div style=""font-size:60px;"">+</div>",,html-keyboard-response,384,2226182,0.0-19.0-0.5,51197,List2B,black,man,,,,null,,,,,,,,,
null,"<img src=""stim_listB/kiss6.gif""style=""height:400px;""></stim_listB>",,html-keyboard-response,385,2228201,0.0-19.0-1.5,51197,List2B,black,man,,,,null,,,,,,,,,
null,is being kissed by,,html-keyboard-response,386,2230207,0.0-19.0-2.5,51197,List2B,black,man,,,,null,,,,,,,,,
19633.7,,,survey-text,387,2249876,0.0-19.0-3.5,51197,List2B,black,man,,,,,"{""Q0"":""Dave is being kissed by mike""}","<img src=""stim_listB/kiss6.gif""style=""height:400px;""></stim_listB>",is being kissed by,,,,,,
null,"<div style=""font-size:60px;"">+</div>",,html-keyboard-response,388,2250382,0.0-19.0-0.6,51197,List2B,black,man,,,,null,,,,,,,,,
null,"<img src=""stim_listB/hug6.gif""style=""height:400px;""></stim_listB>",,html-keyboard-response,389,2252396,0.0-19.0-1.6,51197,List2B,black,man,,,,null,,,,,,,,,
null,is being hugged by,,html-keyboard-response,390,2254401,0.0-19.0-2.6,51197,List2B,black,man,,,,null,,,,,,,,,
14814.3,,,survey-text,391,2269255,0.0-19.0-3.6,51197,List2B,black,man,,,,,"{""Q0"":""Dave is being hugged by mike""}","<img src=""stim_listB/hug6.gif""style=""height:400px;""></stim_listB>",is being hugged by,,,,,,
null,"<div style=""font-size:60px;"">+</div>",,html-keyboard-response,392,2269761,0.0-19.0-0.7,51197,List2B,black,man,,,,null,,,,,,,,,
null,"<img src=""stim_listB/oppose3.gif""style=""height:400px;""></stim_listB>",,html-keyboard-response,393,2271781,0.0-19.0-1.7,51197,List2B,black,man,,,,null,,,,,,,,,
null,is opposing,,html-keyboard-response,394,2273787,0.0-19.0-2.7,51197,List2B,black,man,,,,null,,,,,,,,,
11251.5,,,survey-text,395,2285094,0.0-19.0-3.7,51197,List2B,black,man,,,,,"{""Q0"":""Mike is opposing kate""}","<img src=""stim_listB/oppose3.gif""style=""height:400px;""></stim_listB>",is opposing,,,,,,
null,"<div style=""font-size:60px;"">+</div>",,html-keyboard-response,396,2285600,0.0-19.0-0.8,51197,List2B,black,man,,,,null,,,,,,,,,
null,"<img src=""stim_listB/kiss8.gif""style=""height:400px;""></stim_listB>",,html-keyboard-response,397,2287610,0.0-19.0-1.8,51197,List2B,black,man,,,,null,,,,,,,,,
null,is being kissed by,,html-keyboard-response,398,2289618,0.0-19.0-2.8,51197,List2B,black,man,,,,null,,,,,,,,,
19504.1,,,survey-text,399,2309165,0.0-19.0-3.8,51197,List2B,black,man,,,,,"{""Q0"":""Jane is being kissed by kate""}","<img src=""stim_listB/kiss8.gif""style=""height:400px;""></stim_listB>",is being kissed by,,,,,,
null,"<div style=""font-size:60px;"">+</div>",,html-keyboard-response,400,2309670,0.0-19.0-0.9,51197,List2B,black,man,,,,null,,,,,,,,,
null,"<img src=""stim_listB/hug3.gif""style=""height:400px;""></stim_listB>",,html-keyboard-response,401,2311679,0.0-19.0-1.9,51197,List2B,black,man,,,,null,,,,,,,,,
null,is hugging,,html-keyboard-response,402,2313690,0.0-19.0-2.9,51197,List2B,black,man,,,,null,,,,,,,,,
12496.7,,,survey-text,403,2326226,0.0-19.0-3.9,51197,List2B,black,man,,,,,"{""Q0"":""Fred is hugging beth""}","<img src=""stim_listB/hug3.gif""style=""height:400px;""></stim_listB>",is hugging,,,,,,
null,"<div style=""font-size:60px;"">+</div>",,html-keyboard-response,404,2326732,0.0-19.0-0.10,51197,List2B,black,man,,,,null,,,,,,,,,
null,"<img src=""stim_listB/challenge2.gif""style=""height:400px;""></stim_listB>",,html-keyboard-response,405,2328747,0.0-19.0-1.10,51197,List2B,black,man,,,,null,,,,,,,,,
null,is being challenged by,,html-keyboard-response,406,2330753,0.0-19.0-2.10,51197,List2B,black,man,,,,null,,,,,,,,,
40140.2,,,survey-text,407,2370931,0.0-19.0-3.10,51197,List2B,black,man,,,,,"{""Q0"":""luke is being challenged by kate""}","<img src=""stim_listB/challenge2.gif""style=""height:400px;""></stim_listB>",is being challenged by,,,,,,
null,"<div style=""font-size:60px;"">+</div>",,html-keyboard-response,408,2371435,0.0-19.0-0.11,51197,List2B,black,man,,,,null,,,,,,,,,
null,"<img src=""stim_listB/oppose2.gif""style=""height:400px;""></stim_listB>",,html-keyboard-response,409,2373444,0.0-19.0-1.11,51197,List2B,black,man,,,,null,,,,,,,,,
null,is being opposed by,,html-keyboard-response,410,2375456,0.0-19.0-2.11,51197,List2B,black,man,,,,null,,,,,,,,,
19143.5,,,survey-text,411,2394645,0.0-19.0-3.11,51197,List2B,black,man,,,,,"{""Q0"":""Luke is being opposed by ruth""}","<img src=""stim_listB/oppose2.gif""style=""height:400px;""></stim_listB>",is being opposed by,,,,,,
null,"<div style=""font-size:60px;"">+</div>",,html-keyboard-response,412,2395152,0.0-19.0-0.12,51197,List2B,black,man,,,,null,,,,,,,,,
null,"<img src=""stim_listB/kiss5.gif""style=""height:400px;""></stim_listB>",,html-keyboard-response,413,2397171,0.0-19.0-1.12,51197,List2B,black,man,,,,null,,,,,,,,,
null,is kissing,,html-keyboard-response,414,2399176,0.0-19.0-2.12,51197,List2B,black,man,,,,null,,,,,,,,,
13103.7,,,survey-text,415,2412303,0.0-19.0-3.12,51197,List2B,black,man,,,,,"{""Q0"":""Fred is kissing luke""}","<img src=""stim_listB/kiss5.gif""style=""height:400px;""></stim_listB>",is kissing,,,,,,
null,"<div style=""font-size:60px;"">+</div>",,html-keyboard-response,416,2412808,0.0-19.0-0.13,51197,List2B,black,man,,,,null,,,,,,,,,
null,"<img src=""stim_listB/look2.gif""style=""height:400px;""></stim_listB>",,html-keyboard-response,417,2414817,0.0-19.0-1.13,51197,List2B,black,man,,,,null,,,,,,,,,
null,is being looked at by,,html-keyboard-response,418,2416828,0.0-19.0-2.13,51197,List2B,black,man,,,,null,,,,,,,,,
30416.6,,,survey-text,419,2447316,0.0-19.0-3.13,51197,List2B,black,man,,,,,"{""Q0"":""Dave is being looked at by jane""}","<img src=""stim_listB/look2.gif""style=""height:400px;""></stim_listB>",is being looked at by,,,,,,
null,"<div style=""font-size:60px;"">+</div>",,html-keyboard-response,420,2447824,0.0-19.0-0.14,51197,List2B,black,man,,,,null,,,,,,,,,
null,"<img src=""stim_listB/copy5.gif""style=""height:400px;""></stim_listB>",,html-keyboard-response,421,2449838,0.0-19.0-1.14,51197,List2B,black,man,,,,null,,,,,,,,,
null,is copying,,html-keyboard-response,422,2451844,0.0-19.0-2.14,51197,List2B,black,man,,,,null,,,,,,,,,
13576.6,,,survey-text,423,2465458,0.0-19.0-3.14,51197,List2B,black,man,,,,,"{""Q0"":""Fred is copying dave""}","<img src=""stim_listB/copy5.gif""style=""height:400px;""></stim_listB>",is copying,,,,,,
null,"<div style=""font-size:60px;"">+</div>",,html-keyboard-response,424,2465965,0.0-19.0-0.15,51197,List2B,black,man,,,,null,,,,,,,,,
null,"<img src=""stim_listB/look6.gif""style=""height:400px;""></stim_listB>",,html-keyboard-response,425,2467975,0.0-19.0-1.15,51197,List2B,black,man,,,,null,,,,,,,,,
null,is being looked at by,,html-keyboard-response,426,2469986,0.0-19.0-2.15,51197,List2B,black,man,,,,null,,,,,,,,,
15510.2,,,survey-text,427,2485549,0.0-19.0-3.15,51197,List2B,black,man,,,,,"{""Q0"":""Mike is being looked at by dave""}","<img src=""stim_listB/look6.gif""style=""height:400px;""></stim_listB>",is being looked at by,,,,,,
null,"<div style=""font-size:60px;"">+</div>",,html-keyboard-response,428,2486055,0.0-19.0-0.16,51197,List2B,black,man,,,,null,,,,,,,,,
null,"<img src=""stim_listB/shout7.gif""style=""height:400px;""></stim_listB>",,html-keyboard-response,429,2488070,0.0-19.0-1.16,51197,List2B,black,man,,,,null,,,,,,,,,
null,is shouting at,,html-keyboard-response,430,2490080,0.0-19.0-2.16,51197,List2B,black,man,,,,null,,,,,,,,,
67817.1,,,survey-text,431,2557939,0.0-19.0-3.16,51197,List2B,black,man,,,,,"{""Q0"":""Beth is opposing kate""}","<img src=""stim_listB/shout7.gif""style=""height:400px;""></stim_listB>",is shouting at,,,,,,
null,"<div style=""font-size:60px;"">+</div>",,html-keyboard-response,432,2558446,0.0-19.0-0.17,51197,List2B,black,man,,,,null,,,,,,,,,
null,"<img src=""stim_listB/touch4.gif""style=""height:400px;""></stim_listB>",,html-keyboard-response,433,2560456,0.0-19.0-1.17,51197,List2B,black,man,,,,null,,,,,,,,,
null,is being touched by,,html-keyboard-response,434,2562460,0.0-19.0-2.17,51197,List2B,black,man,,,,null,,,,,,,,,
20699.8,,,survey-text,435,2583194,0.0-19.0-3.17,51197,List2B,black,man,,,,,"{""Q0"":""Fred is being touched by beth""}","<img src=""stim_listB/touch4.gif""style=""height:400px;""></stim_listB>",is being touched by,,,,,,
null,"<div style=""font-size:60px;"">+</div>",,html-keyboard-response,436,2583699,0.0-19.0-0.18,51197,List2B,black,man,,,,null,,,,,,,,,
null,"<img src=""stim_listB/look7.gif""style=""height:400px;""></stim_listB>",,html-keyboard-response,437,2585718,0.0-19.0-1.18,51197,List2B,black,man,,,,null,,,,,,,,,
null,is looking at,,html-keyboard-response,438,2587726,0.0-19.0-2.18,51197,List2B,black,man,,,,null,,,,,,,,,
34367,,,survey-text,439,2622127,0.0-19.0-3.18,51197,List2B,black,man,,,,,"{""Q0"":""Ruth is looking at beth""}","<img src=""stim_listB/look7.gif""style=""height:400px;""></stim_listB>",is looking at,,,,,,
null,"<div style=""font-size:60px;"">+</div>",,html-keyboard-response,440,2622633,0.0-19.0-0.19,51197,List2B,black,man,,,,null,,,,,,,,,
null,"<img src=""stim_listB/greet5.gif""style=""height:400px;""></stim_listB>",,html-keyboard-response,441,2624649,0.0-19.0-1.19,51197,List2B,black,man,,,,null,,,,,,,,,
null,is greeting,,html-keyboard-response,442,2626655,0.0-19.0-2.19,51197,List2B,black,man,,,,null,,,,,,,,,
14902.6,,,survey-text,443,2641609,0.0-19.0-3.19,51197,List2B,black,man,,,,,"{""Q0"":""Fred is greeting dave""}","<img src=""stim_listB/greet5.gif""style=""height:400px;""></stim_listB>",is greeting,,,,,,
8323.6,<p>Thank you for completing that task.</p><p>The final part of this session is a questionnaire that will take about 4 minutes.</p><p>Press Continue.</p>,0,html-button-response,444,2649940,0.0-20.0,51197,List2B,black,man,,,,,,,,,,,,,
96797.2,,,survey-text,445,2747826,0.0-21.0,51197,List2B,black,man,,,,,"{""Q0"":""25"",""Q1"":""English"",""Q2"":""English"",""Q3"":""United state of America"",""Q4"":""American"",""Q5"":""Black African American"",""Q6"":""Male""}",,,demographics,,,,,
4545.4,<p>Have you lived in the USA for the last 5 years or more?</p>,0,html-button-response,446,2752384,0.0-22.0,51197,List2B,black,man,,,,,,,,fiveyears,,,,,
6379,<p>Move the slider to show the extent to which you agree with the following statements.</p>,0,html-button-response,447,2759779,0.0-23.0,51197,List2B,black,man,,,,,,,,,,,,,
8800.6,,,html-slider-response,448,2769611,0.0-24.0-0.0-0.0,51197,List2B,black,man,,,,,,,,survey_race,95,,,The fact that I am my race is an important part of my identity.,identity
5799.5,,,html-slider-response,449,2775425,0.0-24.0-0.0-0.1,51197,List2B,black,man,,,,,,,,survey_race,98,,,People of my race have a lot in common with each other.,common
3765.6,,,html-slider-response,450,2779204,0.0-24.0-0.0-0.2,51197,List2B,black,man,,,,,,,,survey_race,84,,,I feel solidarity with my race.,solidarity
4792.9,,,html-slider-response,451,2784010,0.0-24.0-0.0-0.3,51197,List2B,black,man,,,,,,,,survey_race,100,,,I am glad to be the age I am.,filler
3964,,,html-slider-response,452,2787988,0.0-24.0-0.0-0.4,51197,List2B,black,man,,,,,,,,survey_race,100,,,Being my race is an important part of how I see myself.,important
6760,,,html-slider-response,453,2794759,0.0-24.0-0.0-0.5,51197,List2B,black,man,,,,,,,,survey_race,88,,,I feel committed to my race.,committed
5182.1,,,html-slider-response,454,2799952,0.0-24.0-0.0-0.6,51197,List2B,black,man,,,,,,,,survey_race,68,,,I have a lot in common with the average person of my race.,average
4591.6,,,html-slider-response,455,2804554,0.0-24.0-0.0-0.7,51197,List2B,black,man,,,,,,,,survey_race,81,,,I think that my race has a lot to be proud of.,proud
3543.5,,,html-slider-response,456,2808108,0.0-24.0-0.0-0.8,51197,List2B,black,man,,,,,,,,survey_race,85,,,I feel a bond with people the same age as me.,filler
5930.2,,,html-slider-response,457,2814048,0.0-24.0-0.0-0.9,51197,List2B,black,man,,,,,,,,survey_race,81,,,It is pleasant to be my race.,pleasant
2682.2,,,html-slider-response,458,2816740,0.0-24.0-0.0-0.10,51197,List2B,black,man,,,,,,,,survey_race,86,,,I am glad to be my age.,filler
8912.3,,,html-slider-response,459,2825660,0.0-24.0-0.0-0.11,51197,List2B,black,man,,,,,,,,survey_race,85,,,I have a lot in common with people of a similar age to me.,filler
5386.2,,,html-slider-response,460,2831056,0.0-24.0-0.0-0.12,51197,List2B,black,man,,,,,,,,survey_race,50,,,People my age have a lot in common with each other.,filler
3531.6,,,html-slider-response,461,2834598,0.0-24.0-0.0-0.13,51197,List2B,black,man,,,,,,,,survey_race,88,,,"The older I get, the wiser I feel.",filler
15721.1,,,html-slider-response,462,2850332,0.0-24.0-0.0-0.14,51197,List2B,black,man,,,,,,,,survey_race,57,,,I consider myself an extrovert.,filler
17809.4,,,html-slider-response,463,2868154,0.0-24.0-0.0-0.15,51197,List2B,black,man,,,,,,,,survey_race,56,,,I often think about the fact that I am my race.,often
7177.5,,,html-slider-response,464,2875349,0.0-24.0-0.0-0.16,51197,List2B,black,man,,,,,,,,survey_race,43,,,My age is not an important part of who I am.,filler
5639.3,,,html-slider-response,465,2881000,0.0-24.0-0.0-0.17,51197,List2B,black,man,,,,,,,,survey_race,38,,,People of my race are very similar to each other.,verysimilar
5727.6,,,html-slider-response,466,2886737,0.0-24.0-0.0-0.18,51197,List2B,black,man,,,,,,,,survey_race,59,,,I often think about the fact that I am my age.,filler
4323.9,,,html-slider-response,467,2891071,0.0-24.0-0.0-0.19,51197,List2B,black,man,,,,,,,,survey_race,76,,,I feel a bond with my race.,bond
5088.7,,,html-slider-response,468,2896170,0.0-24.0-0.0-0.20,51197,List2B,black,man,,,,,,,,survey_race,57,,,I consider myself an introvert.,filler
4319.2,,,html-slider-response,469,2900502,0.0-24.0-0.0-0.21,51197,List2B,black,man,,,,,,,,survey_race,98,,,Being my race gives me a good feeling.,feeling
3485.8,,,html-slider-response,470,2904000,0.0-24.0-0.0-0.22,51197,List2B,black,man,,,,,,,,survey_race,80,,,I am similar to the average person of my race.,similar
4444.5,,,html-slider-response,471,2908452,0.0-24.0-0.0-0.23,51197,List2B,black,man,,,,,,,,survey_race,82,,,Getting older does not worry me.,filler
3730,,,html-slider-response,472,2912192,0.0-24.0-0.0-0.24,51197,List2B,black,man,,,,,,,,survey_race,100,,,I am glad to be my race.,glad
4497.6,,,html-slider-response,473,2916698,0.0-24.0-0.0-0.25,51197,List2B,black,man,,,,,,,,survey_race,69,,,I enjoy being in large groups.,filler
2978.7,,,html-slider-response,474,2919687,0.0-24.0-0.0-0.26,51197,List2B,black,man,,,,,,,,survey_race,70,,,I feel solidarity with people the same age as me.,filler
4629.5,,,html-slider-response,475,2924324,0.0-24.0-0.0-0.27,51197,List2B,black,man,,,,,,,,survey_race,82,,,Being my age gives me a good feeling.,filler
4392.3,,,html-slider-response,476,2928726,0.0-24.0-1.0-0.0,51197,List2B,black,man,,,,,,,,survey_gender,59,,,I consider myself a highly empathetic person.,filler
14174.8,,,html-slider-response,477,2942911,0.0-24.0-1.0-0.1,51197,List2B,black,man,,,,,,,,survey_gender,33,,,I often think about the fact that I am my gender.,often
2692.8,,,html-slider-response,478,2945613,0.0-24.0-1.0-0.2,51197,List2B,black,man,,,,,,,,survey_gender,100,,,I am glad to be my gender.,glad
3599.9,,,html-slider-response,479,2949220,0.0-24.0-1.0-0.3,51197,List2B,black,man,,,,,,,,survey_gender,68,,,People of my gender are very similar to each other.,verysimilar
6627.9,,,html-slider-response,480,2955859,0.0-24.0-1.0-0.4,51197,List2B,black,man,,,,,,,,survey_gender,0,,,Family is not more important to me than friendship.,filler
3132.8,,,html-slider-response,481,2959004,0.0-24.0-1.0-0.5,51197,List2B,black,man,,,,,,,,survey_gender,70,,,I feel a bond with my friends.,filler
5881.1,,,html-slider-response,482,2964896,0.0-24.0-1.0-0.6,51197,List2B,black,man,,,,,,,,survey_gender,25,,,I would say I am an animal person.,filler
2928.5,,,html-slider-response,483,2967837,0.0-24.0-1.0-0.7,51197,List2B,black,man,,,,,,,,survey_gender,67,,,Being my gender gives me a good feeling.,feeling
3950.7,,,html-slider-response,484,2971805,0.0-24.0-1.0-0.8,51197,List2B,black,man,,,,,,,,survey_gender,25,,,Routine is not important to me.,filler
3313.5,,,html-slider-response,485,2975132,0.0-24.0-1.0-0.9,51197,List2B,black,man,,,,,,,,survey_gender,67,,,My friends have a lot in common with each other.,filler
3847.8,,,html-slider-response,486,2978989,0.0-24.0-1.0-0.10,51197,List2B,black,man,,,,,,,,survey_gender,75,,,I often think about my actions.,filler
2562.8,,,html-slider-response,487,2981562,0.0-24.0-1.0-0.11,51197,List2B,black,man,,,,,,,,survey_gender,75,,,I feel solidarity with my gender.,solidarity
7912.2,,,html-slider-response,488,2989482,0.0-24.0-1.0-0.12,51197,List2B,black,man,,,,,,,,survey_gender,70,,,The fact that I am my gender is an important part of my identity.,identity
3832,,,html-slider-response,489,2993324,0.0-24.0-1.0-0.13,51197,List2B,black,man,,,,,,,,survey_gender,77,,,I am glad to have the friends that I have.,filler
2126.6,,,html-slider-response,490,2995458,0.0-24.0-1.0-0.14,51197,List2B,black,man,,,,,,,,survey_gender,81,,,I have a lot in common with my friends.,filler
7240,,,html-slider-response,491,3002706,0.0-24.0-1.0-0.15,51197,List2B,black,man,,,,,,,,survey_gender,76,,,Being my gender is an important part of how I see myself.,important
5080.3,,,html-slider-response,492,3007797,0.0-24.0-1.0-0.16,51197,List2B,black,man,,,,,,,,survey_gender,63,,,People of my gender have a lot in common with each other.,common
2794.2,,,html-slider-response,493,3010603,0.0-24.0-1.0-0.17,51197,List2B,black,man,,,,,,,,survey_gender,69,,,It is pleasant to be my gender.,pleasant
2379.7,,,html-slider-response,494,3012990,0.0-24.0-1.0-0.18,51197,List2B,black,man,,,,,,,,survey_gender,82,,,I feel committed to my gender.,committed
3565.4,,,html-slider-response,495,3016567,0.0-24.0-1.0-0.19,51197,List2B,black,man,,,,,,,,survey_gender,76,,,Most of the friends in my life are very similar to me.,filler
3994.4,,,html-slider-response,496,3020572,0.0-24.0-1.0-0.20,51197,List2B,black,man,,,,,,,,survey_gender,82,,,I think that my gender has a lot to be proud of.,proud
3559.8,,,html-slider-response,497,3024142,0.0-24.0-1.0-0.21,51197,List2B,black,man,,,,,,,,survey_gender,64,,,I am similar to the average person of my gender.,similar
4479.9,,,html-slider-response,498,3028633,0.0-24.0-1.0-0.22,51197,List2B,black,man,,,,,,,,survey_gender,77,,,Being around my friends gives me a good feeling.,filler
4111.5,,,html-slider-response,499,3032761,0.0-24.0-1.0-0.23,51197,List2B,black,man,,,,,,,,survey_gender,62,,,I feel a bond with my gender.,bond
4519.2,,,html-slider-response,500,3037292,0.0-24.0-1.0-0.24,51197,List2B,black,man,,,,,,,,survey_gender,63,,,It is not always easy for people to know what I am thinking.,filler
2545.9,,,html-slider-response,501,3039848,0.0-24.0-1.0-0.25,51197,List2B,black,man,,,,,,,,survey_gender,66,,,I feel solidarity with my friends.,filler
3427.6,,,html-slider-response,502,3043283,0.0-24.0-1.0-0.26,51197,List2B,black,man,,,,,,,,survey_gender,70,,,I have a lot in common with the average person of my gender.,average
2972.1,,,html-slider-response,503,3046265,0.0-24.0-1.0-0.27,51197,List2B,black,man,,,,,,,,survey_gender,66,,,My friends understand me.,filler
208899.6,,,survey-text,504,3255184,0.0-25.0,51197,List2B,black,man,,,,,"{""Q0"":""ccc""}",,,worker_id,,,,,
7358.8,,,external-html,505,3263303,0.0-26.0,51197,List2B,black,man,debrief.html,,,,,,,,,,,,
