"rt","stimulus","button_pressed","trial_type","trial_index","time_elapsed","internal_node_id","subject","list","ppt_race","ppt_gender","url","first_guess","correct","key_press","responses","image_type","phrase_type","test_part","response","stimulus1","stimulus2","question_type","survey_item"
"11496","Welcome to the experiment. Press Continue to begin.","0","html-button-response","0","11501","0.0-0.0","51828","List2B","black","woman","","","","","","","","","","","","",""
"13792","","","external-html","1","26669","0.0-1.0","51828","List2B","black","woman","consent.html","","","","","","","","","","","",""
"57334","<p>On the next page, you will see portraits of 8 people and their names.</p><p>Your first task is to take a few minutes to memorise the names of these people.</p><p>You will have to recall their names during the rest of the experiment, so it is</p><p>essential that you try to memorise these people and their names as best as you can.</p><br><p><strong>You will then be tested on your memory of these names and portraits.</strong></p><br><p>The experiment will start after you have completed this memory test.</p><br><p>Ready?</p>","0","html-button-response","2","84006","0.0-2.0","51828","List2B","black","woman","","","","","","","","","","","","",""
"34210","<img src='img/portrait_matrix_list2.jpg' style='width:900px;height:500px;''></img><p>If you have memorised all the portraits and names and are ready to start, press Continue.</p><p><strong>Please note: Your memory of these faces will be tested 4 times during this experiment.</strong></p>","0","html-button-response","3","119220","0.0-3.0-0.0","51828","List2B","black","woman","","","","","","","","","","","","",""
"4635","<img src=""portrait/WW1.jpg""style=""height:400px;""></img>","2","html-button-response","4","124860","0.0-3.0-1.0","51828","List2B","black","woman","","true","1","","","","","","","","","",""
"3706","<img src=""portrait/WW1.jpg""style=""height:400px;""></img>","0","html-button-response","5","129572","0.0-3.0-3.0-0.0","51828","List2B","black","woman","","false","1","","","","","","","","","",""
"null","INCORRECT","","html-keyboard-response","6","131078","0.0-3.0-3.0-2.0-0.0","51828","List2B","black","woman","","","","null","","","","","","","","",""
"3462","<img src=""portrait/WM2.jpg""style=""height:400px;""></img>","4","html-button-response","7","134541","0.0-3.0-4.0","51828","List2B","black","woman","","true","7","","","","","","","","","",""
"1308","<img src=""portrait/WM2.jpg""style=""height:400px;""></img>","7","html-button-response","8","136852","0.0-3.0-6.0-0.0","51828","List2B","black","woman","","false","7","","","","","","","","","",""
"null","CORRECT","","html-keyboard-response","9","138355","0.0-3.0-6.0-1.0-0.0","51828","List2B","black","woman","","","","null","","","","","","","","",""
"2791","<img src=""portrait/BM1.jpg""style=""height:400px;""></img>","4","html-button-response","10","141147","0.0-3.0-7.0","51828","List2B","black","woman","","true","4","","","","","","","","","",""
"null","CORRECT","","html-keyboard-response","11","142651","0.0-3.0-8.0-0.0","51828","List2B","black","woman","","","","null","","","","","","","","",""
"1823","<img src=""portrait/BW2.jpg""style=""height:400px;""></img>","3","html-button-response","12","144476","0.0-3.0-10.0","51828","List2B","black","woman","","true","2","","","","","","","","","",""
"1516","<img src=""portrait/BW2.jpg""style=""height:400px;""></img>","2","html-button-response","13","146996","0.0-3.0-12.0-0.0","51828","List2B","black","woman","","false","2","","","","","","","","","",""
"null","CORRECT","","html-keyboard-response","14","148499","0.0-3.0-12.0-1.0-0.0","51828","List2B","black","woman","","","","null","","","","","","","","",""
"3095","<img src=""portrait/WM1.jpg""style=""height:400px;""></img>","5","html-button-response","15","151596","0.0-3.0-13.0","51828","List2B","black","woman","","true","6","","","","","","","","","",""
"1670","<img src=""portrait/WM1.jpg""style=""height:400px;""></img>","6","html-button-response","16","154268","0.0-3.0-15.0-0.0","51828","List2B","black","woman","","false","6","","","","","","","","","",""
"null","CORRECT","","html-keyboard-response","17","155771","0.0-3.0-15.0-1.0-0.0","51828","List2B","black","woman","","","","null","","","","","","","","",""
"7991","<img src=""portrait/BM2.jpg""style=""height:400px;""></img>","5","html-button-response","18","163765","0.0-3.0-16.0","51828","List2B","black","woman","","true","5","","","","","","","","","",""
"null","CORRECT","","html-keyboard-response","19","165268","0.0-3.0-17.0-0.0","51828","List2B","black","woman","","","","null","","","","","","","","",""
"2455","<img src=""portrait/WW2.jpg""style=""height:400px;""></img>","1","html-button-response","20","167724","0.0-3.0-19.0","51828","List2B","black","woman","","true","3","","","","","","","","","",""
"1533","<img src=""portrait/WW2.jpg""style=""height:400px;""></img>","3","html-button-response","21","170260","0.0-3.0-21.0-0.0","51828","List2B","black","woman","","false","3","","","","","","","","","",""
"null","CORRECT","","html-keyboard-response","22","171763","0.0-3.0-21.0-1.0-0.0","51828","List2B","black","woman","","","","null","","","","","","","","",""
"1976","<img src=""portrait/BW1.jpg""style=""height:400px;""></img>","0","html-button-response","23","173749","0.0-3.0-22.0","51828","List2B","black","woman","","true","0","","","","","","","","","",""
"null","CORRECT","","html-keyboard-response","24","175251","0.0-3.0-23.0-0.0","51828","List2B","black","woman","","","","null","","","","","","","","",""
"1831","<p>You got 3 out of 8 right first time. Press Continue.</p>","0","html-button-response","25","177084","0.0-3.0-25.0","51828","List2B","black","woman","","","","","","","","","","","","",""
"2078","As you did not score 100%, the memory game will repeat. Press Continue.","0","html-button-response","26","180164","0.0-3.0-26.0-0.0","51828","List2B","black","woman","","","","","","","","","","","","",""
"30220","<img src='img/portrait_matrix_list2.jpg' style='width:900px;height:500px;''></img><p>If you have memorised all the portraits and names and are ready to start, press Continue.</p><p><strong>Please note: Your memory of these faces will be tested 4 times during this experiment.</strong></p>","0","html-button-response","27","211388","0.0-3.1-0.1","51828","List2B","black","woman","","","","","","","","","","","","",""
"5364","<img src=""portrait/WW1.jpg""style=""height:400px;""></img>","2","html-button-response","28","217755","0.0-3.1-1.1","51828","List2B","black","woman","","true","1","","","","","","","","","",""
"1438","<img src=""portrait/WW1.jpg""style=""height:400px;""></img>","1","html-button-response","29","220196","0.0-3.1-3.1-0.1","51828","List2B","black","woman","","false","1","","","","","","","","","",""
"null","CORRECT","","html-keyboard-response","30","221699","0.0-3.1-3.1-1.1-0.1","51828","List2B","black","woman","","","","null","","","","","","","","",""
"2727","<img src=""portrait/WM2.jpg""style=""height:400px;""></img>","4","html-button-response","31","224428","0.0-3.1-4.1","51828","List2B","black","woman","","true","7","","","","","","","","","",""
"1449","<img src=""portrait/WM2.jpg""style=""height:400px;""></img>","7","html-button-response","32","226885","0.0-3.1-6.1-0.1","51828","List2B","black","woman","","false","7","","","","","","","","","",""
"null","CORRECT","","html-keyboard-response","33","228388","0.0-3.1-6.1-1.1-0.1","51828","List2B","black","woman","","","","null","","","","","","","","",""
"2263","<img src=""portrait/BM1.jpg""style=""height:400px;""></img>","4","html-button-response","34","230652","0.0-3.1-7.1","51828","List2B","black","woman","","true","4","","","","","","","","","",""
"null","CORRECT","","html-keyboard-response","35","232156","0.0-3.1-8.1-0.1","51828","List2B","black","woman","","","","null","","","","","","","","",""
"1447","<img src=""portrait/BW2.jpg""style=""height:400px;""></img>","3","html-button-response","36","233603","0.0-3.1-10.1","51828","List2B","black","woman","","true","2","","","","","","","","","",""
"1389","<img src=""portrait/BW2.jpg""style=""height:400px;""></img>","2","html-button-response","37","235996","0.0-3.1-12.1-0.1","51828","List2B","black","woman","","false","2","","","","","","","","","",""
"null","CORRECT","","html-keyboard-response","38","237498","0.0-3.1-12.1-1.1-0.1","51828","List2B","black","woman","","","","null","","","","","","","","",""
"2936","<img src=""portrait/WM1.jpg""style=""height:400px;""></img>","5","html-button-response","39","240436","0.0-3.1-13.1","51828","List2B","black","woman","","true","6","","","","","","","","","",""
"1405","<img src=""portrait/WM1.jpg""style=""height:400px;""></img>","6","html-button-response","40","242844","0.0-3.1-15.1-0.1","51828","List2B","black","woman","","false","6","","","","","","","","","",""
"null","CORRECT","","html-keyboard-response","41","244347","0.0-3.1-15.1-1.1-0.1","51828","List2B","black","woman","","","","null","","","","","","","","",""
"911","<img src=""portrait/BM2.jpg""style=""height:400px;""></img>","5","html-button-response","42","245260","0.0-3.1-16.1","51828","List2B","black","woman","","true","5","","","","","","","","","",""
"null","CORRECT","","html-keyboard-response","43","246763","0.0-3.1-17.1-0.1","51828","List2B","black","woman","","","","null","","","","","","","","",""
"3640","<img src=""portrait/WW2.jpg""style=""height:400px;""></img>","3","html-button-response","44","250404","0.0-3.1-19.1","51828","List2B","black","woman","","true","3","","","","","","","","","",""
"null","CORRECT","","html-keyboard-response","45","251907","0.0-3.1-20.1-0.1","51828","List2B","black","woman","","","","null","","","","","","","","",""
"1647","<img src=""portrait/BW1.jpg""style=""height:400px;""></img>","0","html-button-response","46","253556","0.0-3.1-22.1","51828","List2B","black","woman","","true","0","","","","","","","","","",""
"null","CORRECT","","html-keyboard-response","47","255059","0.0-3.1-23.1-0.1","51828","List2B","black","woman","","","","null","","","","","","","","",""
"1040","<p>You got 4 out of 8 right first time. Press Continue.</p>","0","html-button-response","48","256100","0.0-3.1-25.1","51828","List2B","black","woman","","","","","","","","","","","","",""
"678","As you did not score 100%, the memory game will repeat. Press Continue.","0","html-button-response","49","257780","0.0-3.1-26.1-0.1","51828","List2B","black","woman","","","","","","","","","","","","",""
"68356","<img src='img/portrait_matrix_list2.jpg' style='width:900px;height:500px;''></img><p>If you have memorised all the portraits and names and are ready to start, press Continue.</p><p><strong>Please note: Your memory of these faces will be tested 4 times during this experiment.</strong></p>","0","html-button-response","50","327140","0.0-3.2-0.2","51828","List2B","black","woman","","","","","","","","","","","","",""
"1765","<img src=""portrait/WW1.jpg""style=""height:400px;""></img>","1","html-button-response","51","329908","0.0-3.2-1.2","51828","List2B","black","woman","","true","1","","","","","","","","","",""
"null","CORRECT","","html-keyboard-response","52","331411","0.0-3.2-2.2-0.2","51828","List2B","black","woman","","","","null","","","","","","","","",""
"2439","<img src=""portrait/WM2.jpg""style=""height:400px;""></img>","7","html-button-response","53","333852","0.0-3.2-4.2","51828","List2B","black","woman","","true","7","","","","","","","","","",""
"null","CORRECT","","html-keyboard-response","54","335355","0.0-3.2-5.2-0.2","51828","List2B","black","woman","","","","null","","","","","","","","",""
"1398","<img src=""portrait/BM1.jpg""style=""height:400px;""></img>","4","html-button-response","55","336756","0.0-3.2-7.2","51828","List2B","black","woman","","true","4","","","","","","","","","",""
"null","CORRECT","","html-keyboard-response","56","338258","0.0-3.2-8.2-0.2","51828","List2B","black","woman","","","","null","","","","","","","","",""
"1248","<img src=""portrait/BW2.jpg""style=""height:400px;""></img>","3","html-button-response","57","339507","0.0-3.2-10.2","51828","List2B","black","woman","","true","2","","","","","","","","","",""
"1837","<img src=""portrait/BW2.jpg""style=""height:400px;""></img>","2","html-button-response","58","342348","0.0-3.2-12.2-0.2","51828","List2B","black","woman","","false","2","","","","","","","","","",""
"null","CORRECT","","html-keyboard-response","59","343852","0.0-3.2-12.2-1.2-0.2","51828","List2B","black","woman","","","","null","","","","","","","","",""
"2431","<img src=""portrait/WM1.jpg""style=""height:400px;""></img>","6","html-button-response","60","346284","0.0-3.2-13.2","51828","List2B","black","woman","","true","6","","","","","","","","","",""
"null","CORRECT","","html-keyboard-response","61","347787","0.0-3.2-14.2-0.2","51828","List2B","black","woman","","","","null","","","","","","","","",""
"1864","<img src=""portrait/BM2.jpg""style=""height:400px;""></img>","5","html-button-response","62","349651","0.0-3.2-16.2","51828","List2B","black","woman","","true","5","","","","","","","","","",""
"null","CORRECT","","html-keyboard-response","63","351154","0.0-3.2-17.2-0.2","51828","List2B","black","woman","","","","null","","","","","","","","",""
"1233","<img src=""portrait/WW2.jpg""style=""height:400px;""></img>","3","html-button-response","64","352388","0.0-3.2-19.2","51828","List2B","black","woman","","true","3","","","","","","","","","",""
"null","CORRECT","","html-keyboard-response","65","353890","0.0-3.2-20.2-0.2","51828","List2B","black","woman","","","","null","","","","","","","","",""
"1247","<img src=""portrait/BW1.jpg""style=""height:400px;""></img>","0","html-button-response","66","355140","0.0-3.2-22.2","51828","List2B","black","woman","","true","0","","","","","","","","","",""
"null","CORRECT","","html-keyboard-response","67","356642","0.0-3.2-23.2-0.2","51828","List2B","black","woman","","","","null","","","","","","","","",""
"1000","<p>You got 7 out of 8 right first time. Press Continue.</p>","0","html-button-response","68","357643","0.0-3.2-25.2","51828","List2B","black","woman","","","","","","","","","","","","",""
"1365","As you did not score 100%, the memory game will repeat. Press Continue.","0","html-button-response","69","360012","0.0-3.2-26.2-0.2","51828","List2B","black","woman","","","","","","","","","","","","",""
"1245","<img src='img/portrait_matrix_list2.jpg' style='width:900px;height:500px;''></img><p>If you have memorised all the portraits and names and are ready to start, press Continue.</p><p><strong>Please note: Your memory of these faces will be tested 4 times during this experiment.</strong></p>","0","html-button-response","70","362260","0.0-3.3-0.3","51828","List2B","black","woman","","","","","","","","","","","","",""
"1509","<img src=""portrait/WW1.jpg""style=""height:400px;""></img>","1","html-button-response","71","364772","0.0-3.3-1.3","51828","List2B","black","woman","","true","1","","","","","","","","","",""
"null","CORRECT","","html-keyboard-response","72","366274","0.0-3.3-2.3-0.3","51828","List2B","black","woman","","","","null","","","","","","","","",""
"2647","<img src=""portrait/WM2.jpg""style=""height:400px;""></img>","7","html-button-response","73","368924","0.0-3.3-4.3","51828","List2B","black","woman","","true","7","","","","","","","","","",""
"null","CORRECT","","html-keyboard-response","74","370426","0.0-3.3-5.3-0.3","51828","List2B","black","woman","","","","null","","","","","","","","",""
"1432","<img src=""portrait/BM1.jpg""style=""height:400px;""></img>","4","html-button-response","75","371859","0.0-3.3-7.3","51828","List2B","black","woman","","true","4","","","","","","","","","",""
"null","CORRECT","","html-keyboard-response","76","373362","0.0-3.3-8.3-0.3","51828","List2B","black","woman","","","","null","","","","","","","","",""
"1503","<img src=""portrait/BW2.jpg""style=""height:400px;""></img>","2","html-button-response","77","374867","0.0-3.3-10.3","51828","List2B","black","woman","","true","2","","","","","","","","","",""
"null","CORRECT","","html-keyboard-response","78","376370","0.0-3.3-11.3-0.3","51828","List2B","black","woman","","","","null","","","","","","","","",""
"3479","<img src=""portrait/WM1.jpg""style=""height:400px;""></img>","6","html-button-response","79","379852","0.0-3.3-13.3","51828","List2B","black","woman","","true","6","","","","","","","","","",""
"null","CORRECT","","html-keyboard-response","80","381354","0.0-3.3-14.3-0.3","51828","List2B","black","woman","","","","null","","","","","","","","",""
"1185","<img src=""portrait/BM2.jpg""style=""height:400px;""></img>","5","html-button-response","81","382540","0.0-3.3-16.3","51828","List2B","black","woman","","true","5","","","","","","","","","",""
"null","CORRECT","","html-keyboard-response","82","384043","0.0-3.3-17.3-0.3","51828","List2B","black","woman","","","","null","","","","","","","","",""
"1351","<img src=""portrait/WW2.jpg""style=""height:400px;""></img>","3","html-button-response","83","385395","0.0-3.3-19.3","51828","List2B","black","woman","","true","3","","","","","","","","","",""
"null","CORRECT","","html-keyboard-response","84","386898","0.0-3.3-20.3-0.3","51828","List2B","black","woman","","","","null","","","","","","","","",""
"2080","<img src=""portrait/BW1.jpg""style=""height:400px;""></img>","0","html-button-response","85","388979","0.0-3.3-22.3","51828","List2B","black","woman","","true","0","","","","","","","","","",""
"null","CORRECT","","html-keyboard-response","86","390481","0.0-3.3-23.3-0.3","51828","List2B","black","woman","","","","null","","","","","","","","",""
"1120","<p>You got 8 out of 8 right first time. Press Continue.</p>","0","html-button-response","87","391603","0.0-3.3-25.3","51828","List2B","black","woman","","","","","","","","","","","","",""
"28245","<p>In this experiment, you will view photographs of the people from the memory game interacting.</p><p>By using the <strong>exact</strong> phrase given <i>after</i> the photograph appears and recalling the correct names of the people in the photographs, form a sentence describing the interaction. You do not need to capitalise names.</p><p>Type your answer in the space provided. Please complete every sentence before moving onto the next trial.</p><p>You will only have a few seconds to memorise each given photograph and phrase before you can respond, so try your best to focus.</p><p>An example is given below. Press 'Continue' when you are ready.</p><img src='img/speaking_example.jpg' style='width:800px;height:460px;''></img>","0","html-button-response","88","420851","0.0-4.0","51828","List2B","black","woman","","","","","","","","","","","","",""
"2077","<p>Before the experiment starts, you will watch two example trials. Press 'Continue'.</p>","0","html-button-response","89","423931","0.0-5.0","51828","List2B","black","woman","","","","","","","","","","","","",""
"null","<img src='img/play_eg.gif' style='height:400px;''></img>","","html-keyboard-response","90","426933","0.0-6.0","51828","List2B","black","woman","","","","null","","","","","","","","",""
"null","<p>is playing with</p>","","html-keyboard-response","91","428935","0.0-7.0","51828","List2B","black","woman","","","","null","","","","","","","","",""
"2003","<p><b>Answer:</b> jane is playing with ruth</p>","0","html-button-response","92","430939","0.0-8.0","51828","List2B","black","woman","","","","","","","","","","","","",""
"null","<img src='img/dance_eg.gif' style='height:400px;''></img>","","html-keyboard-response","93","433942","0.0-9.0","51828","List2B","black","woman","","","","null","","","","","","","","",""
"null","<p>is being entertained by</p>","","html-keyboard-response","94","435943","0.0-10.0","51828","List2B","black","woman","","","","null","","","","","","","","",""
"1811","<p><b>Answer:</b> fred is being entertained by mike</p>","0","html-button-response","95","437756","0.0-11.0","51828","List2B","black","woman","","","","","","","","","","","","",""
"8629","<p>Ready to start the experiment?</p><br><p><strong>Remember to describe the picture using a full sentence,</strong></p><p><strong>that combines the names of the people with the <i>exact</i> phrase given.</strong></p><p><strong>To receive full payment you must do this correctly.</strong></p><p><strong> You do not need to capitalise names or use punctuation.</strong></p><br><p>Press 'Continue' to begin.</p>","0","html-button-response","96","447387","0.0-12.0","51828","List2B","black","woman","","","","","","","","","","","","",""
"null","<div style=""font-size:60px;"">+</div>","","html-keyboard-response","97","448890","0.0-13.0-0.0","51828","List2B","black","woman","","","","null","","","","","","","","",""
"null","<img src=""stim_listB/look7.gif""style=""height:400px;""></stim_listB>","","html-keyboard-response","98","450892","0.0-13.0-1.0","51828","List2B","black","woman","","","","null","","","","","","","","",""
"null","is looking at","","html-keyboard-response","99","452893","0.0-13.0-2.0","51828","List2B","black","woman","","","","null","","","","","","","","",""
"5907","","","survey-text","100","458806","0.0-13.0-3.0","51828","List2B","black","woman","","","","","{""Q0"":""beth is looking at ruth""}","<img src=""stim_listB/look7.gif""style=""height:400px;""></stim_listB>","is looking at","","","","","",""
"null","<div style=""font-size:60px;"">+</div>","","html-keyboard-response","101","459308","0.0-13.0-0.1","51828","List2B","black","woman","","","","null","","","","","","","","",""
"null","<img src=""stim_listB/seduce5.gif""style=""height:400px;""></stim_listB>","","html-keyboard-response","102","461310","0.0-13.0-1.1","51828","List2B","black","woman","","","","null","","","","","","","","",""
"null","is seducing","","html-keyboard-response","103","463311","0.0-13.0-2.1","51828","List2B","black","woman","","","","null","","","","","","","","",""
"7346","","","survey-text","104","470663","0.0-13.0-3.1","51828","List2B","black","woman","","","","","{""Q0"":""luke is seducing mike""}","<img src=""stim_listB/seduce5.gif""style=""height:400px;""></stim_listB>","is seducing","","","","","",""
"null","<div style=""font-size:60px;"">+</div>","","html-keyboard-response","105","471164","0.0-13.0-0.2","51828","List2B","black","woman","","","","null","","","","","","","","",""
"null","<img src=""stim_listB/greet4.gif""style=""height:400px;""></stim_listB>","","html-keyboard-response","106","473165","0.0-13.0-1.2","51828","List2B","black","woman","","","","null","","","","","","","","",""
"null","is being greeted by","","html-keyboard-response","107","475167","0.0-13.0-2.2","51828","List2B","black","woman","","","","null","","","","","","","","",""
"8107","","","survey-text","108","483278","0.0-13.0-3.2","51828","List2B","black","woman","","","","","{""Q0"":""fred is greeted by kate""}","<img src=""stim_listB/greet4.gif""style=""height:400px;""></stim_listB>","is being greeted by","","","","","",""
"null","<div style=""font-size:60px;"">+</div>","","html-keyboard-response","109","483781","0.0-13.0-0.3","51828","List2B","black","woman","","","","null","","","","","","","","",""
"null","<img src=""stim_listB/greet6.gif""style=""height:400px;""></stim_listB>","","html-keyboard-response","110","485783","0.0-13.0-1.3","51828","List2B","black","woman","","","","null","","","","","","","","",""
"null","is being greeted by","","html-keyboard-response","111","487784","0.0-13.0-2.3","51828","List2B","black","woman","","","","null","","","","","","","","",""
"6216","","","survey-text","112","494005","0.0-13.0-3.3","51828","List2B","black","woman","","","","","{""Q0"":""mike is greeted by luke""}","<img src=""stim_listB/greet6.gif""style=""height:400px;""></stim_listB>","is being greeted by","","","","","",""
"null","<div style=""font-size:60px;"">+</div>","","html-keyboard-response","113","494508","0.0-13.0-0.4","51828","List2B","black","woman","","","","null","","","","","","","","",""
"null","<img src=""stim_listB/kiss7.gif""style=""height:400px;""></stim_listB>","","html-keyboard-response","114","496509","0.0-13.0-1.4","51828","List2B","black","woman","","","","null","","","","","","","","",""
"null","is kissing","","html-keyboard-response","115","498511","0.0-13.0-2.4","51828","List2B","black","woman","","","","null","","","","","","","","",""
"10028","","","survey-text","116","508543","0.0-13.0-3.4","51828","List2B","black","woman","","","","","{""Q0"":""beth is kissing ruth""}","<img src=""stim_listB/kiss7.gif""style=""height:400px;""></stim_listB>","is kissing","","","","","",""
"null","<div style=""font-size:60px;"">+</div>","","html-keyboard-response","117","509046","0.0-13.0-0.5","51828","List2B","black","woman","","","","null","","","","","","","","",""
"null","<img src=""stim_listB/seduce6.gif""style=""height:400px;""></stim_listB>","","html-keyboard-response","118","511047","0.0-13.0-1.5","51828","List2B","black","woman","","","","null","","","","","","","","",""
"null","is being seduced by","","html-keyboard-response","119","513049","0.0-13.0-2.5","51828","List2B","black","woman","","","","null","","","","","","","","",""
"12730","","","survey-text","120","525783","0.0-13.0-3.5","51828","List2B","black","woman","","","","","{""Q0"":""fred is seduced by dave""}","<img src=""stim_listB/seduce6.gif""style=""height:400px;""></stim_listB>","is being seduced by","","","","","",""
"null","<div style=""font-size:60px;"">+</div>","","html-keyboard-response","121","526286","0.0-13.0-0.6","51828","List2B","black","woman","","","","null","","","","","","","","",""
"null","<img src=""stim_listB/copy5.gif""style=""height:400px;""></stim_listB>","","html-keyboard-response","122","528287","0.0-13.0-1.6","51828","List2B","black","woman","","","","null","","","","","","","","",""
"null","is copying","","html-keyboard-response","123","530289","0.0-13.0-2.6","51828","List2B","black","woman","","","","null","","","","","","","","",""
"3958","","","survey-text","124","534253","0.0-13.0-3.6","51828","List2B","black","woman","","","","","{""Q0"":""fred is copying dave""}","<img src=""stim_listB/copy5.gif""style=""height:400px;""></stim_listB>","is copying","","","","","",""
"null","<div style=""font-size:60px;"">+</div>","","html-keyboard-response","125","534755","0.0-13.0-0.7","51828","List2B","black","woman","","","","null","","","","","","","","",""
"null","<img src=""stim_listB/hug2.gif""style=""height:400px;""></stim_listB>","","html-keyboard-response","126","536757","0.0-13.0-1.7","51828","List2B","black","woman","","","","null","","","","","","","","",""
"null","is being hugged by","","html-keyboard-response","127","538758","0.0-13.0-2.7","51828","List2B","black","woman","","","","null","","","","","","","","",""
"4085","","","survey-text","128","542848","0.0-13.0-3.7","51828","List2B","black","woman","","","","","{""Q0"":""jane is being hugged by dave""}","<img src=""stim_listB/hug2.gif""style=""height:400px;""></stim_listB>","is being hugged by","","","","","",""
"null","<div style=""font-size:60px;"">+</div>","","html-keyboard-response","129","543350","0.0-13.0-0.8","51828","List2B","black","woman","","","","null","","","","","","","","",""
"null","<img src=""stim_listB/touch8.gif""style=""height:400px;""></stim_listB>","","html-keyboard-response","130","545352","0.0-13.0-1.8","51828","List2B","black","woman","","","","null","","","","","","","","",""
"null","is being touched by","","html-keyboard-response","131","547353","0.0-13.0-2.8","51828","List2B","black","woman","","","","null","","","","","","","","",""
"4826","","","survey-text","132","552184","0.0-13.0-3.8","51828","List2B","black","woman","","","","","{""Q0"":""beth is being touched by ruth""}","<img src=""stim_listB/touch8.gif""style=""height:400px;""></stim_listB>","is being touched by","","","","","",""
"null","<div style=""font-size:60px;"">+</div>","","html-keyboard-response","133","552687","0.0-13.0-0.9","51828","List2B","black","woman","","","","null","","","","","","","","",""
"null","<img src=""stim_listB/greet8.gif""style=""height:400px;""></stim_listB>","","html-keyboard-response","134","554688","0.0-13.0-1.9","51828","List2B","black","woman","","","","null","","","","","","","","",""
"null","is being greeted by","","html-keyboard-response","135","556689","0.0-13.0-2.9","51828","List2B","black","woman","","","","null","","","","","","","","",""
"12310","","","survey-text","136","569003","0.0-13.0-3.9","51828","List2B","black","woman","","","","","{""Q0"":""beth is being greeted by ruth""}","<img src=""stim_listB/greet8.gif""style=""height:400px;""></stim_listB>","is being greeted by","","","","","",""
"null","<div style=""font-size:60px;"">+</div>","","html-keyboard-response","137","569506","0.0-13.0-0.10","51828","List2B","black","woman","","","","null","","","","","","","","",""
"null","<img src=""stim_listB/shout7.gif""style=""height:400px;""></stim_listB>","","html-keyboard-response","138","571507","0.0-13.0-1.10","51828","List2B","black","woman","","","","null","","","","","","","","",""
"null","is shouting at","","html-keyboard-response","139","573508","0.0-13.0-2.10","51828","List2B","black","woman","","","","null","","","","","","","","",""
"6463","","","survey-text","140","579977","0.0-13.0-3.10","51828","List2B","black","woman","","","","","{""Q0"":""ruth is shouting at beth""}","<img src=""stim_listB/shout7.gif""style=""height:400px;""></stim_listB>","is shouting at","","","","","",""
"null","<div style=""font-size:60px;"">+</div>","","html-keyboard-response","141","580479","0.0-13.0-0.11","51828","List2B","black","woman","","","","null","","","","","","","","",""
"null","<img src=""stim_listB/hug5.gif""style=""height:400px;""></stim_listB>","","html-keyboard-response","142","582481","0.0-13.0-1.11","51828","List2B","black","woman","","","","null","","","","","","","","",""
"null","is hugging","","html-keyboard-response","143","584483","0.0-13.0-2.11","51828","List2B","black","woman","","","","null","","","","","","","","",""
"11012","","","survey-text","144","595500","0.0-13.0-3.11","51828","List2B","black","woman","","","","","{""Q0"":""fred is hugging luke""}","<img src=""stim_listB/hug5.gif""style=""height:400px;""></stim_listB>","is hugging","","","","","",""
"null","<div style=""font-size:60px;"">+</div>","","html-keyboard-response","145","596002","0.0-13.0-0.12","51828","List2B","black","woman","","","","null","","","","","","","","",""
"null","<img src=""stim_listB/kiss2.gif""style=""height:400px;""></stim_listB>","","html-keyboard-response","146","598003","0.0-13.0-1.12","51828","List2B","black","woman","","","","null","","","","","","","","",""
"null","is being kissed by","","html-keyboard-response","147","600005","0.0-13.0-2.12","51828","List2B","black","woman","","","","null","","","","","","","","",""
"4457","","","survey-text","148","604465","0.0-13.0-3.12","51828","List2B","black","woman","","","","","{""Q0"":""jane is being kissed by dave""}","<img src=""stim_listB/kiss2.gif""style=""height:400px;""></stim_listB>","is being kissed by","","","","","",""
"null","<div style=""font-size:60px;"">+</div>","","html-keyboard-response","149","604968","0.0-13.0-0.13","51828","List2B","black","woman","","","","null","","","","","","","","",""
"null","<img src=""stim_listB/oppose4.gif""style=""height:400px;""></stim_listB>","","html-keyboard-response","150","606969","0.0-13.0-1.13","51828","List2B","black","woman","","","","null","","","","","","","","",""
"null","is being opposed by","","html-keyboard-response","151","608971","0.0-13.0-2.13","51828","List2B","black","woman","","","","null","","","","","","","","",""
"14731","","","survey-text","152","623706","0.0-13.0-3.13","51828","List2B","black","woman","","","","","{""Q0"":""beth is being opposed by fred""}","<img src=""stim_listB/oppose4.gif""style=""height:400px;""></stim_listB>","is being opposed by","","","","","",""
"null","<div style=""font-size:60px;"">+</div>","","html-keyboard-response","153","624208","0.0-13.0-0.14","51828","List2B","black","woman","","","","null","","","","","","","","",""
"null","<img src=""stim_listB/copy4.gif""style=""height:400px;""></stim_listB>","","html-keyboard-response","154","626210","0.0-13.0-1.14","51828","List2B","black","woman","","","","null","","","","","","","","",""
"null","is being copied by","","html-keyboard-response","155","628211","0.0-13.0-2.14","51828","List2B","black","woman","","","","null","","","","","","","","",""
"4527","","","survey-text","156","632742","0.0-13.0-3.14","51828","List2B","black","woman","","","","","{""Q0"":""jane is being copied by fred""}","<img src=""stim_listB/copy4.gif""style=""height:400px;""></stim_listB>","is being copied by","","","","","",""
"null","<div style=""font-size:60px;"">+</div>","","html-keyboard-response","157","633244","0.0-13.0-0.15","51828","List2B","black","woman","","","","null","","","","","","","","",""
"null","<img src=""stim_listB/hug6.gif""style=""height:400px;""></stim_listB>","","html-keyboard-response","158","635246","0.0-13.0-1.15","51828","List2B","black","woman","","","","null","","","","","","","","",""
"null","is being hugged by","","html-keyboard-response","159","637248","0.0-13.0-2.15","51828","List2B","black","woman","","","","null","","","","","","","","",""
"4828","","","survey-text","160","642088","0.0-13.0-3.15","51828","List2B","black","woman","","","","","{""Q0"":""mike is being hugged by dave""}","<img src=""stim_listB/hug6.gif""style=""height:400px;""></stim_listB>","is being hugged by","","","","","",""
"null","<div style=""font-size:60px;"">+</div>","","html-keyboard-response","161","642591","0.0-13.0-0.16","51828","List2B","black","woman","","","","null","","","","","","","","",""
"null","<img src=""stim_listB/seduce4.gif""style=""height:400px;""></stim_listB>","","html-keyboard-response","162","644592","0.0-13.0-1.16","51828","List2B","black","woman","","","","null","","","","","","","","",""
"null","is being seduced by","","html-keyboard-response","163","646593","0.0-13.0-2.16","51828","List2B","black","woman","","","","null","","","","","","","","",""
"7295","","","survey-text","164","653893","0.0-13.0-3.16","51828","List2B","black","woman","","","","","{""Q0"":""beth is being seduced by mike""}","<img src=""stim_listB/seduce4.gif""style=""height:400px;""></stim_listB>","is being seduced by","","","","","",""
"null","<div style=""font-size:60px;"">+</div>","","html-keyboard-response","165","654395","0.0-13.0-0.17","51828","List2B","black","woman","","","","null","","","","","","","","",""
"null","<img src=""stim_listB/challenge6.gif""style=""height:400px;""></stim_listB>","","html-keyboard-response","166","656396","0.0-13.0-1.17","51828","List2B","black","woman","","","","null","","","","","","","","",""
"null","is being challenged by","","html-keyboard-response","167","658398","0.0-13.0-2.17","51828","List2B","black","woman","","","","null","","","","","","","","",""
"4890","","","survey-text","168","663294","0.0-13.0-3.17","51828","List2B","black","woman","","","","","{""Q0"":""mike is being challenged by uke""}","<img src=""stim_listB/challenge6.gif""style=""height:400px;""></stim_listB>","is being challenged by","","","","","",""
"null","<div style=""font-size:60px;"">+</div>","","html-keyboard-response","169","663796","0.0-13.0-0.18","51828","List2B","black","woman","","","","null","","","","","","","","",""
"null","<img src=""stim_listB/challenge4.gif""style=""height:400px;""></stim_listB>","","html-keyboard-response","170","665797","0.0-13.0-1.18","51828","List2B","black","woman","","","","null","","","","","","","","",""
"null","is being challenged by","","html-keyboard-response","171","667799","0.0-13.0-2.18","51828","List2B","black","woman","","","","null","","","","","","","","",""
"5814","","","survey-text","172","673618","0.0-13.0-3.18","51828","List2B","black","woman","","","","","{""Q0"":""jane is being challenged by fred""}","<img src=""stim_listB/challenge4.gif""style=""height:400px;""></stim_listB>","is being challenged by","","","","","",""
"null","<div style=""font-size:60px;"">+</div>","","html-keyboard-response","173","674121","0.0-13.0-0.19","51828","List2B","black","woman","","","","null","","","","","","","","",""
"null","<img src=""stim_listB/shout5.gif""style=""height:400px;""></stim_listB>","","html-keyboard-response","174","676122","0.0-13.0-1.19","51828","List2B","black","woman","","","","null","","","","","","","","",""
"null","is shouting at","","html-keyboard-response","175","678124","0.0-13.0-2.19","51828","List2B","black","woman","","","","null","","","","","","","","",""
"5941","","","survey-text","176","684068","0.0-13.0-3.19","51828","List2B","black","woman","","","","","{""Q0"":""luke is shouting at fred""}","<img src=""stim_listB/shout5.gif""style=""height:400px;""></stim_listB>","is shouting at","","","","","",""
"11614","<img src='img/portrait_matrix_list2.jpg' style='width:900px;height:500px;''></img><p>If you have memorised all the portraits and names and are ready to start, press Continue.</p><p><strong>Please note: Your memory of these faces will be tested 4 times during this experiment.</strong></p>","0","html-button-response","177","695684","0.0-14.0-0.0","51828","List2B","black","woman","","","","","","","","","","","","",""
"2362","<img src=""portrait/BW1.jpg""style=""height:400px;""></img>","0","html-button-response","178","699050","0.0-14.0-1.0","51828","List2B","black","woman","","true","0","","","","","","","","","",""
"null","CORRECT","","html-keyboard-response","179","700552","0.0-14.0-2.0-0.0","51828","List2B","black","woman","","","","null","","","","","","","","",""
"1328","<img src=""portrait/WW1.jpg""style=""height:400px;""></img>","1","html-button-response","180","701882","0.0-14.0-4.0","51828","List2B","black","woman","","true","1","","","","","","","","","",""
"null","CORRECT","","html-keyboard-response","181","703386","0.0-14.0-5.0-0.0","51828","List2B","black","woman","","","","null","","","","","","","","",""
"1663","<img src=""portrait/WM1.jpg""style=""height:400px;""></img>","6","html-button-response","182","705051","0.0-14.0-7.0","51828","List2B","black","woman","","true","6","","","","","","","","","",""
"null","CORRECT","","html-keyboard-response","183","706553","0.0-14.0-8.0-0.0","51828","List2B","black","woman","","","","null","","","","","","","","",""
"1911","<img src=""portrait/BW2.jpg""style=""height:400px;""></img>","2","html-button-response","184","708466","0.0-14.0-10.0","51828","List2B","black","woman","","true","2","","","","","","","","","",""
"null","CORRECT","","html-keyboard-response","185","709970","0.0-14.0-11.0-0.0","51828","List2B","black","woman","","","","null","","","","","","","","",""
"1191","<img src=""portrait/BM1.jpg""style=""height:400px;""></img>","4","html-button-response","186","711162","0.0-14.0-13.0","51828","List2B","black","woman","","true","4","","","","","","","","","",""
"null","CORRECT","","html-keyboard-response","187","712665","0.0-14.0-14.0-0.0","51828","List2B","black","woman","","","","null","","","","","","","","",""
"1399","<img src=""portrait/WM2.jpg""style=""height:400px;""></img>","7","html-button-response","188","714066","0.0-14.0-16.0","51828","List2B","black","woman","","true","7","","","","","","","","","",""
"null","CORRECT","","html-keyboard-response","189","715569","0.0-14.0-17.0-0.0","51828","List2B","black","woman","","","","null","","","","","","","","",""
"1167","<img src=""portrait/WW2.jpg""style=""height:400px;""></img>","3","html-button-response","190","716739","0.0-14.0-19.0","51828","List2B","black","woman","","true","3","","","","","","","","","",""
"null","CORRECT","","html-keyboard-response","191","718242","0.0-14.0-20.0-0.0","51828","List2B","black","woman","","","","null","","","","","","","","",""
"1294","<img src=""portrait/BM2.jpg""style=""height:400px;""></img>","5","html-button-response","192","719539","0.0-14.0-22.0","51828","List2B","black","woman","","true","5","","","","","","","","","",""
"null","CORRECT","","html-keyboard-response","193","721041","0.0-14.0-23.0-0.0","51828","List2B","black","woman","","","","null","","","","","","","","",""
"1103","<p>You got 8 out of 8 right first time. Press Continue.</p>","0","html-button-response","194","722145","0.0-14.0-25.0","51828","List2B","black","woman","","","","","","","","","","","","",""
"null","<div style=""font-size:60px;"">+</div>","","html-keyboard-response","195","723650","0.0-15.0-0.0","51828","List2B","black","woman","","","","null","","","","","","","","",""
"null","<img src=""stim_listB/look5.gif""style=""height:400px;""></stim_listB>","","html-keyboard-response","196","725651","0.0-15.0-1.0","51828","List2B","black","woman","","","","null","","","","","","","","",""
"null","is looking at","","html-keyboard-response","197","727653","0.0-15.0-2.0","51828","List2B","black","woman","","","","null","","","","","","","","",""
"3524","","","survey-text","198","731183","0.0-15.0-3.0","51828","List2B","black","woman","","","","","{""Q0"":""luke is looking at fred""}","<img src=""stim_listB/look5.gif""style=""height:400px;""></stim_listB>","is looking at","","","","","",""
"null","<div style=""font-size:60px;"">+</div>","","html-keyboard-response","199","731688","0.0-15.0-0.1","51828","List2B","black","woman","","","","null","","","","","","","","",""
"null","<img src=""stim_listB/seduce8.gif""style=""height:400px;""></stim_listB>","","html-keyboard-response","200","733691","0.0-15.0-1.1","51828","List2B","black","woman","","","","null","","","","","","","","",""
"null","is being seduced by","","html-keyboard-response","201","735692","0.0-15.0-2.1","51828","List2B","black","woman","","","","null","","","","","","","","",""
"4398","","","survey-text","202","740107","0.0-15.0-3.1","51828","List2B","black","woman","","","","","{""Q0"":""....""}","<img src=""stim_listB/seduce8.gif""style=""height:400px;""></stim_listB>","is being seduced by","","","","","",""
"null","<div style=""font-size:60px;"">+</div>","","html-keyboard-response","203","740609","0.0-15.0-0.2","51828","List2B","black","woman","","","","null","","","","","","","","",""
"null","<img src=""stim_listB/hug3.gif""style=""height:400px;""></stim_listB>","","html-keyboard-response","204","742611","0.0-15.0-1.2","51828","List2B","black","woman","","","","null","","","","","","","","",""
"null","is hugging","","html-keyboard-response","205","744613","0.0-15.0-2.2","51828","List2B","black","woman","","","","null","","","","","","","","",""
"3386","","","survey-text","206","748005","0.0-15.0-3.2","51828","List2B","black","woman","","","","","{""Q0"":""beth is hugging fred""}","<img src=""stim_listB/hug3.gif""style=""height:400px;""></stim_listB>","is hugging","","","","","",""
"null","<div style=""font-size:60px;"">+</div>","","html-keyboard-response","207","748506","0.0-15.0-0.3","51828","List2B","black","woman","","","","null","","","","","","","","",""
"null","<img src=""stim_listB/seduce2.gif""style=""height:400px;""></stim_listB>","","html-keyboard-response","208","750508","0.0-15.0-1.3","51828","List2B","black","woman","","","","null","","","","","","","","",""
"null","is being seduced by","","html-keyboard-response","209","752509","0.0-15.0-2.3","51828","List2B","black","woman","","","","null","","","","","","","","",""
"4897","","","survey-text","210","757412","0.0-15.0-3.3","51828","List2B","black","woman","","","","","{""Q0"":""ruth is being seduced by dave""}","<img src=""stim_listB/seduce2.gif""style=""height:400px;""></stim_listB>","is being seduced by","","","","","",""
"null","<div style=""font-size:60px;"">+</div>","","html-keyboard-response","211","757913","0.0-15.0-0.4","51828","List2B","black","woman","","","","null","","","","","","","","",""
"null","<img src=""stim_listB/hug7.gif""style=""height:400px;""></stim_listB>","","html-keyboard-response","212","759915","0.0-15.0-1.4","51828","List2B","black","woman","","","","null","","","","","","","","",""
"null","is hugging","","html-keyboard-response","213","761916","0.0-15.0-2.4","51828","List2B","black","woman","","","","null","","","","","","","","",""
"4941","","","survey-text","214","766861","0.0-15.0-3.4","51828","List2B","black","woman","","","","","{""Q0"":""ruth is hugging beth""}","<img src=""stim_listB/hug7.gif""style=""height:400px;""></stim_listB>","is hugging","","","","","",""
"null","<div style=""font-size:60px;"">+</div>","","html-keyboard-response","215","767364","0.0-15.0-0.5","51828","List2B","black","woman","","","","null","","","","","","","","",""
"null","<img src=""stim_listB/copy2.gif""style=""height:400px;""></stim_listB>","","html-keyboard-response","216","769365","0.0-15.0-1.5","51828","List2B","black","woman","","","","null","","","","","","","","",""
"null","is being copied by","","html-keyboard-response","217","771367","0.0-15.0-2.5","51828","List2B","black","woman","","","","null","","","","","","","","",""
"4636","","","survey-text","218","776007","0.0-15.0-3.5","51828","List2B","black","woman","","","","","{""Q0"":""jane is being copied by luke""}","<img src=""stim_listB/copy2.gif""style=""height:400px;""></stim_listB>","is being copied by","","","","","",""
"null","<div style=""font-size:60px;"">+</div>","","html-keyboard-response","219","776510","0.0-15.0-0.6","51828","List2B","black","woman","","","","null","","","","","","","","",""
"null","<img src=""stim_listB/challenge7.gif""style=""height:400px;""></stim_listB>","","html-keyboard-response","220","778511","0.0-15.0-1.6","51828","List2B","black","woman","","","","null","","","","","","","","",""
"null","is challenging","","html-keyboard-response","221","780513","0.0-15.0-2.6","51828","List2B","black","woman","","","","null","","","","","","","","",""
"4315","","","survey-text","222","784834","0.0-15.0-3.6","51828","List2B","black","woman","","","","","{""Q0"":""jane is challenging beth""}","<img src=""stim_listB/challenge7.gif""style=""height:400px;""></stim_listB>","is challenging","","","","","",""
"null","<div style=""font-size:60px;"">+</div>","","html-keyboard-response","223","785335","0.0-15.0-0.7","51828","List2B","black","woman","","","","null","","","","","","","","",""
"null","<img src=""stim_listB/challenge2.gif""style=""height:400px;""></stim_listB>","","html-keyboard-response","224","787337","0.0-15.0-1.7","51828","List2B","black","woman","","","","null","","","","","","","","",""
"null","is being challenged by","","html-keyboard-response","225","789339","0.0-15.0-2.7","51828","List2B","black","woman","","","","null","","","","","","","","",""
"6316","","","survey-text","226","795659","0.0-15.0-3.7","51828","List2B","black","woman","","","","","{""Q0"":""luke is being challenged by jane""}","<img src=""stim_listB/challenge2.gif""style=""height:400px;""></stim_listB>","is being challenged by","","","","","",""
"null","<div style=""font-size:60px;"">+</div>","","html-keyboard-response","227","796162","0.0-15.0-0.8","51828","List2B","black","woman","","","","null","","","","","","","","",""
"null","<img src=""stim_listB/look6.gif""style=""height:400px;""></stim_listB>","","html-keyboard-response","228","798163","0.0-15.0-1.8","51828","List2B","black","woman","","","","null","","","","","","","","",""
"null","is being looked at by","","html-keyboard-response","229","800165","0.0-15.0-2.8","51828","List2B","black","woman","","","","null","","","","","","","","",""
"6730","","","survey-text","230","806899","0.0-15.0-3.8","51828","List2B","black","woman","","","","","{""Q0"":""mike is being looked at by dave""}","<img src=""stim_listB/look6.gif""style=""height:400px;""></stim_listB>","is being looked at by","","","","","",""
"null","<div style=""font-size:60px;"">+</div>","","html-keyboard-response","231","807401","0.0-15.0-0.9","51828","List2B","black","woman","","","","null","","","","","","","","",""
"null","<img src=""stim_listB/copy7.gif""style=""height:400px;""></stim_listB>","","html-keyboard-response","232","809403","0.0-15.0-1.9","51828","List2B","black","woman","","","","null","","","","","","","","",""
"null","is copying","","html-keyboard-response","233","811404","0.0-15.0-2.9","51828","List2B","black","woman","","","","null","","","","","","","","",""
"3832","","","survey-text","234","815240","0.0-15.0-3.9","51828","List2B","black","woman","","","","","{""Q0"":""jane is copying beth""}","<img src=""stim_listB/copy7.gif""style=""height:400px;""></stim_listB>","is copying","","","","","",""
"null","<div style=""font-size:60px;"">+</div>","","html-keyboard-response","235","815743","0.0-15.0-0.10","51828","List2B","black","woman","","","","null","","","","","","","","",""
"null","<img src=""stim_listB/seduce7.gif""style=""height:400px;""></stim_listB>","","html-keyboard-response","236","817744","0.0-15.0-1.10","51828","List2B","black","woman","","","","null","","","","","","","","",""
"null","is seducing","","html-keyboard-response","237","819746","0.0-15.0-2.10","51828","List2B","black","woman","","","","null","","","","","","","","",""
"6271","","","survey-text","238","826020","0.0-15.0-3.10","51828","List2B","black","woman","","","","","{""Q0"":""ruth is seducing kate""}","<img src=""stim_listB/seduce7.gif""style=""height:400px;""></stim_listB>","is seducing","","","","","",""
"null","<div style=""font-size:60px;"">+</div>","","html-keyboard-response","239","826522","0.0-15.0-0.11","51828","List2B","black","woman","","","","null","","","","","","","","",""
"null","<img src=""stim_listB/hug8.gif""style=""height:400px;""></stim_listB>","","html-keyboard-response","240","828524","0.0-15.0-1.11","51828","List2B","black","woman","","","","null","","","","","","","","",""
"null","is being hugged by","","html-keyboard-response","241","830525","0.0-15.0-2.11","51828","List2B","black","woman","","","","null","","","","","","","","",""
"5683","","","survey-text","242","836214","0.0-15.0-3.11","51828","List2B","black","woman","","","","","{""Q0"":""kate is being hugged by ruth""}","<img src=""stim_listB/hug8.gif""style=""height:400px;""></stim_listB>","is being hugged by","","","","","",""
"null","<div style=""font-size:60px;"">+</div>","","html-keyboard-response","243","836716","0.0-15.0-0.12","51828","List2B","black","woman","","","","null","","","","","","","","",""
"null","<img src=""stim_listB/greet2.gif""style=""height:400px;""></stim_listB>","","html-keyboard-response","244","838717","0.0-15.0-1.12","51828","List2B","black","woman","","","","null","","","","","","","","",""
"null","is being greeted by","","html-keyboard-response","245","840719","0.0-15.0-2.12","51828","List2B","black","woman","","","","null","","","","","","","","",""
"4148","","","survey-text","246","844870","0.0-15.0-3.12","51828","List2B","black","woman","","","","","{""Q0"":""jane is being greeted by luke""}","<img src=""stim_listB/greet2.gif""style=""height:400px;""></stim_listB>","is being greeted by","","","","","",""
"null","<div style=""font-size:60px;"">+</div>","","html-keyboard-response","247","845373","0.0-15.0-0.13","51828","List2B","black","woman","","","","null","","","","","","","","",""
"null","<img src=""stim_listB/challenge1.gif""style=""height:400px;""></stim_listB>","","html-keyboard-response","248","847374","0.0-15.0-1.13","51828","List2B","black","woman","","","","null","","","","","","","","",""
"null","is challenging","","html-keyboard-response","249","849375","0.0-15.0-2.13","51828","List2B","black","woman","","","","null","","","","","","","","",""
"3363","","","survey-text","250","852743","0.0-15.0-3.13","51828","List2B","black","woman","","","","","{""Q0"":""ruth is challenging dave""}","<img src=""stim_listB/challenge1.gif""style=""height:400px;""></stim_listB>","is challenging","","","","","",""
"null","<div style=""font-size:60px;"">+</div>","","html-keyboard-response","251","853246","0.0-15.0-0.14","51828","List2B","black","woman","","","","null","","","","","","","","",""
"null","<img src=""stim_listB/kiss1.gif""style=""height:400px;""></stim_listB>","","html-keyboard-response","252","855248","0.0-15.0-1.14","51828","List2B","black","woman","","","","null","","","","","","","","",""
"null","is kissing","","html-keyboard-response","253","857249","0.0-15.0-2.14","51828","List2B","black","woman","","","","null","","","","","","","","",""
"3197","","","survey-text","254","860450","0.0-15.0-3.14","51828","List2B","black","woman","","","","","{""Q0"":""luke is kissing ruth""}","<img src=""stim_listB/kiss1.gif""style=""height:400px;""></stim_listB>","is kissing","","","","","",""
"null","<div style=""font-size:60px;"">+</div>","","html-keyboard-response","255","860953","0.0-15.0-0.15","51828","List2B","black","woman","","","","null","","","","","","","","",""
"null","<img src=""stim_listB/kiss5.gif""style=""height:400px;""></stim_listB>","","html-keyboard-response","256","862954","0.0-15.0-1.15","51828","List2B","black","woman","","","","null","","","","","","","","",""
"null","is kissing","","html-keyboard-response","257","864955","0.0-15.0-2.15","51828","List2B","black","woman","","","","null","","","","","","","","",""
"3482","","","survey-text","258","868444","0.0-15.0-3.15","51828","List2B","black","woman","","","","","{""Q0"":""luke is kissing fred""}","<img src=""stim_listB/kiss5.gif""style=""height:400px;""></stim_listB>","is kissing","","","","","",""
"null","<div style=""font-size:60px;"">+</div>","","html-keyboard-response","259","868946","0.0-15.0-0.16","51828","List2B","black","woman","","","","null","","","","","","","","",""
"null","<img src=""stim_listB/look1.gif""style=""height:400px;""></stim_listB>","","html-keyboard-response","260","870948","0.0-15.0-1.16","51828","List2B","black","woman","","","","null","","","","","","","","",""
"null","is looking at","","html-keyboard-response","261","872949","0.0-15.0-2.16","51828","List2B","black","woman","","","","null","","","","","","","","",""
"3454","","","survey-text","262","876407","0.0-15.0-3.16","51828","List2B","black","woman","","","","","{""Q0"":""ruth is looking at fred""}","<img src=""stim_listB/look1.gif""style=""height:400px;""></stim_listB>","is looking at","","","","","",""
"null","<div style=""font-size:60px;"">+</div>","","html-keyboard-response","263","876910","0.0-15.0-0.17","51828","List2B","black","woman","","","","null","","","","","","","","",""
"null","<img src=""stim_listB/touch7.gif""style=""height:400px;""></stim_listB>","","html-keyboard-response","264","878911","0.0-15.0-1.17","51828","List2B","black","woman","","","","null","","","","","","","","",""
"null","is touching","","html-keyboard-response","265","880913","0.0-15.0-2.17","51828","List2B","black","woman","","","","null","","","","","","","","",""
"5160","","","survey-text","266","886078","0.0-15.0-3.17","51828","List2B","black","woman","","","","","{""Q0"":""kate is touching jane""}","<img src=""stim_listB/touch7.gif""style=""height:400px;""></stim_listB>","is touching","","","","","",""
"null","<div style=""font-size:60px;"">+</div>","","html-keyboard-response","267","886580","0.0-15.0-0.18","51828","List2B","black","woman","","","","null","","","","","","","","",""
"null","<img src=""stim_listB/look3.gif""style=""height:400px;""></stim_listB>","","html-keyboard-response","268","888581","0.0-15.0-1.18","51828","List2B","black","woman","","","","null","","","","","","","","",""
"null","is looking at","","html-keyboard-response","269","890582","0.0-15.0-2.18","51828","List2B","black","woman","","","","null","","","","","","","","",""
"4457","","","survey-text","270","895044","0.0-15.0-3.18","51828","List2B","black","woman","","","","","{""Q0"":""beth is looking at fred""}","<img src=""stim_listB/look3.gif""style=""height:400px;""></stim_listB>","is looking at","","","","","",""
"null","<div style=""font-size:60px;"">+</div>","","html-keyboard-response","271","895548","0.0-15.0-0.19","51828","List2B","black","woman","","","","null","","","","","","","","",""
"null","<img src=""stim_listB/copy6.gif""style=""height:400px;""></stim_listB>","","html-keyboard-response","272","897548","0.0-15.0-1.19","51828","List2B","black","woman","","","","null","","","","","","","","",""
"null","is being copied by","","html-keyboard-response","273","899549","0.0-15.0-2.19","51828","List2B","black","woman","","","","null","","","","","","","","",""
"4689","","","survey-text","274","904243","0.0-15.0-3.19","51828","List2B","black","woman","","","","","{""Q0"":""mike is being copied by luke""}","<img src=""stim_listB/copy6.gif""style=""height:400px;""></stim_listB>","is being copied by","","","","","",""
"5250","<img src='img/portrait_matrix_list2.jpg' style='width:900px;height:500px;''></img><p>If you have memorised all the portraits and names and are ready to start, press Continue.</p><p><strong>Please note: Your memory of these faces will be tested 4 times during this experiment.</strong></p>","0","html-button-response","275","909498","0.0-16.0-0.0","51828","List2B","black","woman","","","","","","","","","","","","",""
"2139","<img src=""portrait/WM2.jpg""style=""height:400px;""></img>","7","html-button-response","276","912642","0.0-16.0-1.0","51828","List2B","black","woman","","true","7","","","","","","","","","",""
"null","CORRECT","","html-keyboard-response","277","914145","0.0-16.0-2.0-0.0","51828","List2B","black","woman","","","","null","","","","","","","","",""
"1464","<img src=""portrait/BW2.jpg""style=""height:400px;""></img>","2","html-button-response","278","915611","0.0-16.0-4.0","51828","List2B","black","woman","","true","2","","","","","","","","","",""
"null","CORRECT","","html-keyboard-response","279","917114","0.0-16.0-5.0-0.0","51828","List2B","black","woman","","","","null","","","","","","","","",""
"1103","<img src=""portrait/WW2.jpg""style=""height:400px;""></img>","3","html-button-response","280","918218","0.0-16.0-7.0","51828","List2B","black","woman","","true","3","","","","","","","","","",""
"null","CORRECT","","html-keyboard-response","281","919721","0.0-16.0-8.0-0.0","51828","List2B","black","woman","","","","null","","","","","","","","",""
"1428","<img src=""portrait/WW1.jpg""style=""height:400px;""></img>","1","html-button-response","282","921194","0.0-16.0-10.0","51828","List2B","black","woman","","true","1","","","","","","","","","",""
"null","CORRECT","","html-keyboard-response","283","922697","0.0-16.0-11.0-0.0","51828","List2B","black","woman","","","","null","","","","","","","","",""
"1320","<img src=""portrait/BM1.jpg""style=""height:400px;""></img>","4","html-button-response","284","924026","0.0-16.0-13.0","51828","List2B","black","woman","","true","4","","","","","","","","","",""
"null","CORRECT","","html-keyboard-response","285","925529","0.0-16.0-14.0-0.0","51828","List2B","black","woman","","","","null","","","","","","","","",""
"2095","<img src=""portrait/BM2.jpg""style=""height:400px;""></img>","5","html-button-response","286","927626","0.0-16.0-16.0","51828","List2B","black","woman","","true","5","","","","","","","","","",""
"null","CORRECT","","html-keyboard-response","287","929129","0.0-16.0-17.0-0.0","51828","List2B","black","woman","","","","null","","","","","","","","",""
"1301","<img src=""portrait/BW1.jpg""style=""height:400px;""></img>","0","html-button-response","288","930474","0.0-16.0-19.0","51828","List2B","black","woman","","true","0","","","","","","","","","",""
"null","CORRECT","","html-keyboard-response","289","931976","0.0-16.0-20.0-0.0","51828","List2B","black","woman","","","","null","","","","","","","","",""
"1312","<img src=""portrait/WM1.jpg""style=""height:400px;""></img>","6","html-button-response","290","933290","0.0-16.0-22.0","51828","List2B","black","woman","","true","6","","","","","","","","","",""
"null","CORRECT","","html-keyboard-response","291","934792","0.0-16.0-23.0-0.0","51828","List2B","black","woman","","","","null","","","","","","","","",""
"896","<p>You got 8 out of 8 right first time. Press Continue.</p>","0","html-button-response","292","935690","0.0-16.0-25.0","51828","List2B","black","woman","","","","","","","","","","","","",""
"null","<div style=""font-size:60px;"">+</div>","","html-keyboard-response","293","937193","0.0-17.0-0.0","51828","List2B","black","woman","","","","null","","","","","","","","",""
"null","<img src=""stim_listB/oppose8.gif""style=""height:400px;""></stim_listB>","","html-keyboard-response","294","939201","0.0-17.0-1.0","51828","List2B","black","woman","","","","null","","","","","","","","",""
"null","is being opposed by","","html-keyboard-response","295","941202","0.0-17.0-2.0","51828","List2B","black","woman","","","","null","","","","","","","","",""
"10798","","","survey-text","296","952003","0.0-17.0-3.0","51828","List2B","black","woman","","","","","{""Q0"":""...""}","<img src=""stim_listB/oppose8.gif""style=""height:400px;""></stim_listB>","is being opposed by","","","","","",""
"null","<div style=""font-size:60px;"">+</div>","","html-keyboard-response","297","952505","0.0-17.0-0.1","51828","List2B","black","woman","","","","null","","","","","","","","",""
"null","<img src=""stim_listB/touch5.gif""style=""height:400px;""></stim_listB>","","html-keyboard-response","298","954507","0.0-17.0-1.1","51828","List2B","black","woman","","","","null","","","","","","","","",""
"null","is touching","","html-keyboard-response","299","956508","0.0-17.0-2.1","51828","List2B","black","woman","","","","null","","","","","","","","",""
"3532","","","survey-text","300","960045","0.0-17.0-3.1","51828","List2B","black","woman","","","","","{""Q0"":""dave is touching mike""}","<img src=""stim_listB/touch5.gif""style=""height:400px;""></stim_listB>","is touching","","","","","",""
"null","<div style=""font-size:60px;"">+</div>","","html-keyboard-response","301","960548","0.0-17.0-0.2","51828","List2B","black","woman","","","","null","","","","","","","","",""
"null","<img src=""stim_listB/shout4.gif""style=""height:400px;""></stim_listB>","","html-keyboard-response","302","962548","0.0-17.0-1.2","51828","List2B","black","woman","","","","null","","","","","","","","",""
"null","is being shouted at by","","html-keyboard-response","303","964550","0.0-17.0-2.2","51828","List2B","black","woman","","","","null","","","","","","","","",""
"9425","","","survey-text","304","973988","0.0-17.0-3.2","51828","List2B","black","woman","","","","","{""Q0"":""kate is being shouted at by mike""}","<img src=""stim_listB/shout4.gif""style=""height:400px;""></stim_listB>","is being shouted at by","","","","","",""
"null","<div style=""font-size:60px;"">+</div>","","html-keyboard-response","305","974490","0.0-17.0-0.3","51828","List2B","black","woman","","","","null","","","","","","","","",""
"null","<img src=""stim_listB/kiss6.gif""style=""height:400px;""></stim_listB>","","html-keyboard-response","306","976492","0.0-17.0-1.3","51828","List2B","black","woman","","","","null","","","","","","","","",""
"null","is being kissed by","","html-keyboard-response","307","978493","0.0-17.0-2.3","51828","List2B","black","woman","","","","null","","","","","","","","",""
"5121","","","survey-text","308","983620","0.0-17.0-3.3","51828","List2B","black","woman","","","","","{""Q0"":""mike is being kissed by dave""}","<img src=""stim_listB/kiss6.gif""style=""height:400px;""></stim_listB>","is being kissed by","","","","","",""
"null","<div style=""font-size:60px;"">+</div>","","html-keyboard-response","309","984122","0.0-17.0-0.4","51828","List2B","black","woman","","","","null","","","","","","","","",""
"null","<img src=""stim_listB/challenge5.gif""style=""height:400px;""></stim_listB>","","html-keyboard-response","310","986124","0.0-17.0-1.4","51828","List2B","black","woman","","","","null","","","","","","","","",""
"null","is challenging","","html-keyboard-response","311","988125","0.0-17.0-2.4","51828","List2B","black","woman","","","","null","","","","","","","","",""
"5137","","","survey-text","312","993268","0.0-17.0-3.4","51828","List2B","black","woman","","","","","{""Q0"":""dave is challenging fred""}","<img src=""stim_listB/challenge5.gif""style=""height:400px;""></stim_listB>","is challenging","","","","","",""
"null","<div style=""font-size:60px;"">+</div>","","html-keyboard-response","313","993771","0.0-17.0-0.5","51828","List2B","black","woman","","","","null","","","","","","","","",""
"null","<img src=""stim_listB/oppose3.gif""style=""height:400px;""></stim_listB>","","html-keyboard-response","314","995772","0.0-17.0-1.5","51828","List2B","black","woman","","","","null","","","","","","","","",""
"null","is opposing","","html-keyboard-response","315","997774","0.0-17.0-2.5","51828","List2B","black","woman","","","","null","","","","","","","","",""
"5529","","","survey-text","316","1003307","0.0-17.0-3.5","51828","List2B","black","woman","","","","","{""Q0"":""kate is opposing mike""}","<img src=""stim_listB/oppose3.gif""style=""height:400px;""></stim_listB>","is opposing","","","","","",""
"null","<div style=""font-size:60px;"">+</div>","","html-keyboard-response","317","1003810","0.0-17.0-0.6","51828","List2B","black","woman","","","","null","","","","","","","","",""
"null","<img src=""stim_listB/look8.gif""style=""height:400px;""></stim_listB>","","html-keyboard-response","318","1005811","0.0-17.0-1.6","51828","List2B","black","woman","","","","null","","","","","","","","",""
"null","is being looked at by","","html-keyboard-response","319","1007812","0.0-17.0-2.6","51828","List2B","black","woman","","","","null","","","","","","","","",""
"6638","","","survey-text","320","1014455","0.0-17.0-3.6","51828","List2B","black","woman","","","","","{""Q0"":""kate is being looked at by jane""}","<img src=""stim_listB/look8.gif""style=""height:400px;""></stim_listB>","is being looked at by","","","","","",""
"null","<div style=""font-size:60px;"">+</div>","","html-keyboard-response","321","1014958","0.0-17.0-0.7","51828","List2B","black","woman","","","","null","","","","","","","","",""
"null","<img src=""stim_listB/shout3.gif""style=""height:400px;""></stim_listB>","","html-keyboard-response","322","1016959","0.0-17.0-1.7","51828","List2B","black","woman","","","","null","","","","","","","","",""
"null","is shouting at","","html-keyboard-response","323","1018960","0.0-17.0-2.7","51828","List2B","black","woman","","","","null","","","","","","","","",""
"6640","","","survey-text","324","1025604","0.0-17.0-3.7","51828","List2B","black","woman","","","","","{""Q0"":""beth is shouting at fred""}","<img src=""stim_listB/shout3.gif""style=""height:400px;""></stim_listB>","is shouting at","","","","","",""
"null","<div style=""font-size:60px;"">+</div>","","html-keyboard-response","325","1026107","0.0-17.0-0.8","51828","List2B","black","woman","","","","null","","","","","","","","",""
"null","<img src=""stim_listB/challenge8.gif""style=""height:400px;""></stim_listB>","","html-keyboard-response","326","1028108","0.0-17.0-1.8","51828","List2B","black","woman","","","","null","","","","","","","","",""
"null","is being challenged by","","html-keyboard-response","327","1030109","0.0-17.0-2.8","51828","List2B","black","woman","","","","null","","","","","","","","",""
"1872","","","survey-text","328","1031986","0.0-17.0-3.8","51828","List2B","black","woman","","","","","{""Q0"":""...""}","<img src=""stim_listB/challenge8.gif""style=""height:400px;""></stim_listB>","is being challenged by","","","","","",""
"null","<div style=""font-size:60px;"">+</div>","","html-keyboard-response","329","1032489","0.0-17.0-0.9","51828","List2B","black","woman","","","","null","","","","","","","","",""
"null","<img src=""stim_listB/oppose6.gif""style=""height:400px;""></stim_listB>","","html-keyboard-response","330","1034490","0.0-17.0-1.9","51828","List2B","black","woman","","","","null","","","","","","","","",""
"null","is being opposed by","","html-keyboard-response","331","1036492","0.0-17.0-2.9","51828","List2B","black","woman","","","","null","","","","","","","","",""
"5859","","","survey-text","332","1042357","0.0-17.0-3.9","51828","List2B","black","woman","","","","","{""Q0"":""luke is being opposed by fred""}","<img src=""stim_listB/oppose6.gif""style=""height:400px;""></stim_listB>","is being opposed by","","","","","",""
"null","<div style=""font-size:60px;"">+</div>","","html-keyboard-response","333","1042859","0.0-17.0-0.10","51828","List2B","black","woman","","","","null","","","","","","","","",""
"null","<img src=""stim_listB/seduce1.gif""style=""height:400px;""></stim_listB>","","html-keyboard-response","334","1044860","0.0-17.0-1.10","51828","List2B","black","woman","","","","null","","","","","","","","",""
"null","is seducing","","html-keyboard-response","335","1046862","0.0-17.0-2.10","51828","List2B","black","woman","","","","null","","","","","","","","",""
"5555","","","survey-text","336","1052422","0.0-17.0-3.10","51828","List2B","black","woman","","","","","{""Q0"":""luke is seducing jane""}","<img src=""stim_listB/seduce1.gif""style=""height:400px;""></stim_listB>","is seducing","","","","","",""
"null","<div style=""font-size:60px;"">+</div>","","html-keyboard-response","337","1052931","0.0-17.0-0.11","51828","List2B","black","woman","","","","null","","","","","","","","",""
"null","<img src=""stim_listB/touch3.gif""style=""height:400px;""></stim_listB>","","html-keyboard-response","338","1054932","0.0-17.0-1.11","51828","List2B","black","woman","","","","null","","","","","","","","",""
"null","is touching","","html-keyboard-response","339","1056933","0.0-17.0-2.11","51828","List2B","black","woman","","","","null","","","","","","","","",""
"3651","","","survey-text","340","1060589","0.0-17.0-3.11","51828","List2B","black","woman","","","","","{""Q0"":""kate is touching mike""}","<img src=""stim_listB/touch3.gif""style=""height:400px;""></stim_listB>","is touching","","","","","",""
"null","<div style=""font-size:60px;"">+</div>","","html-keyboard-response","341","1061092","0.0-17.0-0.12","51828","List2B","black","woman","","","","null","","","","","","","","",""
"null","<img src=""stim_listB/challenge3.gif""style=""height:400px;""></stim_listB>","","html-keyboard-response","342","1063093","0.0-17.0-1.12","51828","List2B","black","woman","","","","null","","","","","","","","",""
"null","is challenging","","html-keyboard-response","343","1065095","0.0-17.0-2.12","51828","List2B","black","woman","","","","null","","","","","","","","",""
"3451","","","survey-text","344","1068551","0.0-17.0-3.12","51828","List2B","black","woman","","","","","{""Q0"":""beth is challenging mike""}","<img src=""stim_listB/challenge3.gif""style=""height:400px;""></stim_listB>","is challenging","","","","","",""
"null","<div style=""font-size:60px;"">+</div>","","html-keyboard-response","345","1069053","0.0-17.0-0.13","51828","List2B","black","woman","","","","null","","","","","","","","",""
"null","<img src=""stim_listB/oppose7.gif""style=""height:400px;""></stim_listB>","","html-keyboard-response","346","1071054","0.0-17.0-1.13","51828","List2B","black","woman","","","","null","","","","","","","","",""
"null","is opposing","","html-keyboard-response","347","1073055","0.0-17.0-2.13","51828","List2B","black","woman","","","","null","","","","","","","","",""
"4796","","","survey-text","348","1077857","0.0-17.0-3.13","51828","List2B","black","woman","","","","","{""Q0"":""jane is opposing kate""}","<img src=""stim_listB/oppose7.gif""style=""height:400px;""></stim_listB>","is opposing","","","","","",""
"null","<div style=""font-size:60px;"">+</div>","","html-keyboard-response","349","1078359","0.0-17.0-0.14","51828","List2B","black","woman","","","","null","","","","","","","","",""
"null","<img src=""stim_listB/hug4.gif""style=""height:400px;""></stim_listB>","","html-keyboard-response","350","1080360","0.0-17.0-1.14","51828","List2B","black","woman","","","","null","","","","","","","","",""
"null","is being hugged by","","html-keyboard-response","351","1082361","0.0-17.0-2.14","51828","List2B","black","woman","","","","null","","","","","","","","",""
"5382","","","survey-text","352","1087748","0.0-17.0-3.14","51828","List2B","black","woman","","","","","{""Q0"":""kate is being hugged by mike""}","<img src=""stim_listB/hug4.gif""style=""height:400px;""></stim_listB>","is being hugged by","","","","","",""
"null","<div style=""font-size:60px;"">+</div>","","html-keyboard-response","353","1088252","0.0-17.0-0.15","51828","List2B","black","woman","","","","null","","","","","","","","",""
"null","<img src=""stim_listB/copy1.gif""style=""height:400px;""></stim_listB>","","html-keyboard-response","354","1090253","0.0-17.0-1.15","51828","List2B","black","woman","","","","null","","","","","","","","",""
"null","is copying","","html-keyboard-response","355","1092255","0.0-17.0-2.15","51828","List2B","black","woman","","","","null","","","","","","","","",""
"3460","","","survey-text","356","1095719","0.0-17.0-3.15","51828","List2B","black","woman","","","","","{""Q0"":""ruth is copying dave""}","<img src=""stim_listB/copy1.gif""style=""height:400px;""></stim_listB>","is copying","","","","","",""
"null","<div style=""font-size:60px;"">+</div>","","html-keyboard-response","357","1096222","0.0-17.0-0.16","51828","List2B","black","woman","","","","null","","","","","","","","",""
"null","<img src=""stim_listB/greet1.gif""style=""height:400px;""></stim_listB>","","html-keyboard-response","358","1098223","0.0-17.0-1.16","51828","List2B","black","woman","","","","null","","","","","","","","",""
"null","is greeting","","html-keyboard-response","359","1100225","0.0-17.0-2.16","51828","List2B","black","woman","","","","null","","","","","","","","",""
"394675","","","survey-text","360","1494904","0.0-17.0-3.16","51828","List2B","black","woman","","","","","{""Q0"":""kate is greeting ""}","<img src=""stim_listB/greet1.gif""style=""height:400px;""></stim_listB>","is greeting","","","","","",""
"null","<div style=""font-size:60px;"">+</div>","","html-keyboard-response","361","1495410","0.0-17.0-0.17","51828","List2B","black","woman","","","","null","","","","","","","","",""
"null","<img src=""stim_listB/touch1.gif""style=""height:400px;""></stim_listB>","","html-keyboard-response","362","1497414","0.0-17.0-1.17","51828","List2B","black","woman","","","","null","","","","","","","","",""
"null","is touching","","html-keyboard-response","363","1499416","0.0-17.0-2.17","51828","List2B","black","woman","","","","null","","","","","","","","",""
"3308","","","survey-text","364","1502733","0.0-17.0-3.17","51828","List2B","black","woman","","","","","{""Q0"":""jane is touching dave""}","<img src=""stim_listB/touch1.gif""style=""height:400px;""></stim_listB>","is touching","","","","","",""
"null","<div style=""font-size:60px;"">+</div>","","html-keyboard-response","365","1503237","0.0-17.0-0.18","51828","List2B","black","woman","","","","null","","","","","","","","",""
"null","<img src=""stim_listB/oppose2.gif""style=""height:400px;""></stim_listB>","","html-keyboard-response","366","1505238","0.0-17.0-1.18","51828","List2B","black","woman","","","","null","","","","","","","","",""
"null","is being opposed by","","html-keyboard-response","367","1507240","0.0-17.0-2.18","51828","List2B","black","woman","","","","null","","","","","","","","",""
"4116","","","survey-text","368","1511363","0.0-17.0-3.18","51828","List2B","black","woman","","","","","{""Q0"":""ruth is opposed by luke""}","<img src=""stim_listB/oppose2.gif""style=""height:400px;""></stim_listB>","is being opposed by","","","","","",""
"null","<div style=""font-size:60px;"">+</div>","","html-keyboard-response","369","1511867","0.0-17.0-0.19","51828","List2B","black","woman","","","","null","","","","","","","","",""
"null","<img src=""stim_listB/shout6.gif""style=""height:400px;""></stim_listB>","","html-keyboard-response","370","1513869","0.0-17.0-1.19","51828","List2B","black","woman","","","","null","","","","","","","","",""
"null","is being shouted at by","","html-keyboard-response","371","1515871","0.0-17.0-2.19","51828","List2B","black","woman","","","","null","","","","","","","","",""
"4214","","","survey-text","372","1520090","0.0-17.0-3.19","51828","List2B","black","woman","","","","","{""Q0"":""mike is being shouted at by dave""}","<img src=""stim_listB/shout6.gif""style=""height:400px;""></stim_listB>","is being shouted at by","","","","","",""
"1485","<img src='img/portrait_matrix_list2.jpg' style='width:900px;height:500px;''></img><p>If you have memorised all the portraits and names and are ready to start, press Continue.</p><p><strong>Please note: Your memory of these faces will be tested 4 times during this experiment.</strong></p>","0","html-button-response","373","1521577","0.0-18.0-0.0","51828","List2B","black","woman","","","","","","","","","","","","",""
"2105","<img src=""portrait/WM1.jpg""style=""height:400px;""></img>","6","html-button-response","374","1524688","0.0-18.0-1.0","51828","List2B","black","woman","","true","6","","","","","","","","","",""
"null","CORRECT","","html-keyboard-response","375","1526192","0.0-18.0-2.0-0.0","51828","List2B","black","woman","","","","null","","","","","","","","",""
"38165","<img src=""portrait/BM2.jpg""style=""height:400px;""></img>","5","html-button-response","376","1564360","0.0-18.0-4.0","51828","List2B","black","woman","","true","5","","","","","","","","","",""
"null","CORRECT","","html-keyboard-response","377","1565864","0.0-18.0-5.0-0.0","51828","List2B","black","woman","","","","null","","","","","","","","",""
"6582","<img src=""portrait/BW2.jpg""style=""height:400px;""></img>","2","html-button-response","378","1572448","0.0-18.0-7.0","51828","List2B","black","woman","","true","2","","","","","","","","","",""
"null","CORRECT","","html-keyboard-response","379","1573951","0.0-18.0-8.0-0.0","51828","List2B","black","woman","","","","null","","","","","","","","",""
"1165","<img src=""portrait/BW1.jpg""style=""height:400px;""></img>","0","html-button-response","380","1575119","0.0-18.0-10.0","51828","List2B","black","woman","","true","0","","","","","","","","","",""
"null","CORRECT","","html-keyboard-response","381","1576621","0.0-18.0-11.0-0.0","51828","List2B","black","woman","","","","null","","","","","","","","",""
"1895","<img src=""portrait/BM1.jpg""style=""height:400px;""></img>","4","html-button-response","382","1578519","0.0-18.0-13.0","51828","List2B","black","woman","","true","4","","","","","","","","","",""
"null","CORRECT","","html-keyboard-response","383","1580023","0.0-18.0-14.0-0.0","51828","List2B","black","woman","","","","null","","","","","","","","",""
"2191","<img src=""portrait/WM2.jpg""style=""height:400px;""></img>","7","html-button-response","384","1582217","0.0-18.0-16.0","51828","List2B","black","woman","","true","7","","","","","","","","","",""
"null","CORRECT","","html-keyboard-response","385","1583720","0.0-18.0-17.0-0.0","51828","List2B","black","woman","","","","null","","","","","","","","",""
"1662","<img src=""portrait/WW1.jpg""style=""height:400px;""></img>","1","html-button-response","386","1585384","0.0-18.0-19.0","51828","List2B","black","woman","","true","1","","","","","","","","","",""
"null","CORRECT","","html-keyboard-response","387","1586886","0.0-18.0-20.0-0.0","51828","List2B","black","woman","","","","null","","","","","","","","",""
"6527","<img src=""portrait/WW2.jpg""style=""height:400px;""></img>","3","html-button-response","388","1593416","0.0-18.0-22.0","51828","List2B","black","woman","","true","3","","","","","","","","","",""
"null","CORRECT","","html-keyboard-response","389","1594919","0.0-18.0-23.0-0.0","51828","List2B","black","woman","","","","null","","","","","","","","",""
"1085","<p>You got 8 out of 8 right first time. Press Continue.</p>","0","html-button-response","390","1596007","0.0-18.0-25.0","51828","List2B","black","woman","","","","","","","","","","","","",""
"null","<div style=""font-size:60px;"">+</div>","","html-keyboard-response","391","1597512","0.0-19.0-0.0","51828","List2B","black","woman","","","","null","","","","","","","","",""
"null","<img src=""stim_listB/look2.gif""style=""height:400px;""></stim_listB>","","html-keyboard-response","392","1599514","0.0-19.0-1.0","51828","List2B","black","woman","","","","null","","","","","","","","",""
"null","is being looked at by","","html-keyboard-response","393","1601515","0.0-19.0-2.0","51828","List2B","black","woman","","","","null","","","","","","","","",""
"5389","","","survey-text","394","1606909","0.0-19.0-3.0","51828","List2B","black","woman","","","","","{""Q0"":""jane is being looked at by dave""}","<img src=""stim_listB/look2.gif""style=""height:400px;""></stim_listB>","is being looked at by","","","","","",""
"null","<div style=""font-size:60px;"">+</div>","","html-keyboard-response","395","1607412","0.0-19.0-0.1","51828","List2B","black","woman","","","","null","","","","","","","","",""
"null","<img src=""stim_listB/touch2.gif""style=""height:400px;""></stim_listB>","","html-keyboard-response","396","1609413","0.0-19.0-1.1","51828","List2B","black","woman","","","","null","","","","","","","","",""
"null","is being touched by","","html-keyboard-response","397","1611414","0.0-19.0-2.1","51828","List2B","black","woman","","","","null","","","","","","","","",""
"26584","","","survey-text","398","1638004","0.0-19.0-3.1","51828","List2B","black","woman","","","","","{""Q0"":""...""}","<img src=""stim_listB/touch2.gif""style=""height:400px;""></stim_listB>","is being touched by","","","","","",""
"null","<div style=""font-size:60px;"">+</div>","","html-keyboard-response","399","1638507","0.0-19.0-0.2","51828","List2B","black","woman","","","","null","","","","","","","","",""
"null","<img src=""stim_listB/kiss3.gif""style=""height:400px;""></stim_listB>","","html-keyboard-response","400","1640508","0.0-19.0-1.2","51828","List2B","black","woman","","","","null","","","","","","","","",""
"null","is kissing","","html-keyboard-response","401","1642509","0.0-19.0-2.2","51828","List2B","black","woman","","","","null","","","","","","","","",""
"4607","","","survey-text","402","1647122","0.0-19.0-3.2","51828","List2B","black","woman","","","","","{""Q0"":""fred is kissing beth""}","<img src=""stim_listB/kiss3.gif""style=""height:400px;""></stim_listB>","is kissing","","","","","",""
"null","<div style=""font-size:60px;"">+</div>","","html-keyboard-response","403","1647624","0.0-19.0-0.3","51828","List2B","black","woman","","","","null","","","","","","","","",""
"null","<img src=""stim_listB/shout2.gif""style=""height:400px;""></stim_listB>","","html-keyboard-response","404","1649625","0.0-19.0-1.3","51828","List2B","black","woman","","","","null","","","","","","","","",""
"null","is being shouted at by","","html-keyboard-response","405","1651627","0.0-19.0-2.3","51828","List2B","black","woman","","","","null","","","","","","","","",""
"15136","","","survey-text","406","1666770","0.0-19.0-3.3","51828","List2B","black","woman","","","","","{""Q0"":""jane is being shouted at by dave""}","<img src=""stim_listB/shout2.gif""style=""height:400px;""></stim_listB>","is being shouted at by","","","","","",""
"null","<div style=""font-size:60px;"">+</div>","","html-keyboard-response","407","1667273","0.0-19.0-0.4","51828","List2B","black","woman","","","","null","","","","","","","","",""
"null","<img src=""stim_listB/seduce3.gif""style=""height:400px;""></stim_listB>","","html-keyboard-response","408","1669277","0.0-19.0-1.4","51828","List2B","black","woman","","","","null","","","","","","","","",""
"null","is seducing","","html-keyboard-response","409","1671279","0.0-19.0-2.4","51828","List2B","black","woman","","","","null","","","","","","","","",""
"44556","","","survey-text","410","1715841","0.0-19.0-3.4","51828","List2B","black","woman","","","","","{""Q0"":""...""}","<img src=""stim_listB/seduce3.gif""style=""height:400px;""></stim_listB>","is seducing","","","","","",""
"null","<div style=""font-size:60px;"">+</div>","","html-keyboard-response","411","1716345","0.0-19.0-0.5","51828","List2B","black","woman","","","","null","","","","","","","","",""
"null","<img src=""stim_listB/copy3.gif""style=""height:400px;""></stim_listB>","","html-keyboard-response","412","1718347","0.0-19.0-1.5","51828","List2B","black","woman","","","","null","","","","","","","","",""
"null","is copying","","html-keyboard-response","413","1720351","0.0-19.0-2.5","51828","List2B","black","woman","","","","null","","","","","","","","",""
"3005","","","survey-text","414","1723364","0.0-19.0-3.5","51828","List2B","black","woman","","","","","{""Q0"":""mike is copying beth""}","<img src=""stim_listB/copy3.gif""style=""height:400px;""></stim_listB>","is copying","","","","","",""
"null","<div style=""font-size:60px;"">+</div>","","html-keyboard-response","415","1723866","0.0-19.0-0.6","51828","List2B","black","woman","","","","null","","","","","","","","",""
"null","<img src=""stim_listB/shout8.gif""style=""height:400px;""></stim_listB>","","html-keyboard-response","416","1725869","0.0-19.0-1.6","51828","List2B","black","woman","","","","null","","","","","","","","",""
"null","is being shouted at by","","html-keyboard-response","417","1727871","0.0-19.0-2.6","51828","List2B","black","woman","","","","null","","","","","","","","",""
"12957","","","survey-text","418","1740834","0.0-19.0-3.6","51828","List2B","black","woman","","","","","{""Q0"":""jane is being shouted at by kate]""}","<img src=""stim_listB/shout8.gif""style=""height:400px;""></stim_listB>","is being shouted at by","","","","","",""
"null","<div style=""font-size:60px;"">+</div>","","html-keyboard-response","419","1741338","0.0-19.0-0.7","51828","List2B","black","woman","","","","null","","","","","","","","",""
"null","<img src=""stim_listB/touch4.gif""style=""height:400px;""></stim_listB>","","html-keyboard-response","420","1743340","0.0-19.0-1.7","51828","List2B","black","woman","","","","null","","","","","","","","",""
"null","is being touched by","","html-keyboard-response","421","1745342","0.0-19.0-2.7","51828","List2B","black","woman","","","","null","","","","","","","","",""
"5589","","","survey-text","422","1750936","0.0-19.0-3.7","51828","List2B","black","woman","","","","","{""Q0"":""fred is being touched by beth""}","<img src=""stim_listB/touch4.gif""style=""height:400px;""></stim_listB>","is being touched by","","","","","",""
"null","<div style=""font-size:60px;"">+</div>","","html-keyboard-response","423","1751439","0.0-19.0-0.8","51828","List2B","black","woman","","","","null","","","","","","","","",""
"null","<img src=""stim_listB/copy8.gif""style=""height:400px;""></stim_listB>","","html-keyboard-response","424","1753441","0.0-19.0-1.8","51828","List2B","black","woman","","","","null","","","","","","","","",""
"null","is being copied by","","html-keyboard-response","425","1755441","0.0-19.0-2.8","51828","List2B","black","woman","","","","null","","","","","","","","",""
"8484","","","survey-text","426","1763931","0.0-19.0-3.8","51828","List2B","black","woman","","","","","{""Q0"":""kate is being copied by ruth""}","<img src=""stim_listB/copy8.gif""style=""height:400px;""></stim_listB>","is being copied by","","","","","",""
"null","<div style=""font-size:60px;"">+</div>","","html-keyboard-response","427","1764433","0.0-19.0-0.9","51828","List2B","black","woman","","","","null","","","","","","","","",""
"null","<img src=""stim_listB/oppose1.gif""style=""height:400px;""></stim_listB>","","html-keyboard-response","428","1766435","0.0-19.0-1.9","51828","List2B","black","woman","","","","null","","","","","","","","",""
"null","is opposing","","html-keyboard-response","429","1768436","0.0-19.0-2.9","51828","List2B","black","woman","","","","null","","","","","","","","",""
"3864","","","survey-text","430","1772305","0.0-19.0-3.9","51828","List2B","black","woman","","","","","{""Q0"":""dave is opposing jane""}","<img src=""stim_listB/oppose1.gif""style=""height:400px;""></stim_listB>","is opposing","","","","","",""
"null","<div style=""font-size:60px;"">+</div>","","html-keyboard-response","431","1772808","0.0-19.0-0.10","51828","List2B","black","woman","","","","null","","","","","","","","",""
"null","<img src=""stim_listB/shout1.gif""style=""height:400px;""></stim_listB>","","html-keyboard-response","432","1774810","0.0-19.0-1.10","51828","List2B","black","woman","","","","null","","","","","","","","",""
"null","is shouting at","","html-keyboard-response","433","1776811","0.0-19.0-2.10","51828","List2B","black","woman","","","","null","","","","","","","","",""
"11756","","","survey-text","434","1788573","0.0-19.0-3.10","51828","List2B","black","woman","","","","","{""Q0"":""luke is being shouted at by ruth""}","<img src=""stim_listB/shout1.gif""style=""height:400px;""></stim_listB>","is shouting at","","","","","",""
"null","<div style=""font-size:60px;"">+</div>","","html-keyboard-response","435","1789078","0.0-19.0-0.11","51828","List2B","black","woman","","","","null","","","","","","","","",""
"null","<img src=""stim_listB/greet5.gif""style=""height:400px;""></stim_listB>","","html-keyboard-response","436","1791081","0.0-19.0-1.11","51828","List2B","black","woman","","","","null","","","","","","","","",""
"null","is greeting","","html-keyboard-response","437","1793083","0.0-19.0-2.11","51828","List2B","black","woman","","","","null","","","","","","","","",""
"4727","","","survey-text","438","1797817","0.0-19.0-3.11","51828","List2B","black","woman","","","","","{""Q0"":""dave is greeting fred""}","<img src=""stim_listB/greet5.gif""style=""height:400px;""></stim_listB>","is greeting","","","","","",""
"null","<div style=""font-size:60px;"">+</div>","","html-keyboard-response","439","1798320","0.0-19.0-0.12","51828","List2B","black","woman","","","","null","","","","","","","","",""
"null","<img src=""stim_listB/touch6.gif""style=""height:400px;""></stim_listB>","","html-keyboard-response","440","1800323","0.0-19.0-1.12","51828","List2B","black","woman","","","","null","","","","","","","","",""
"null","is being touched by","","html-keyboard-response","441","1802325","0.0-19.0-2.12","51828","List2B","black","woman","","","","null","","","","","","","","",""
"5390","","","survey-text","442","1807720","0.0-19.0-3.12","51828","List2B","black","woman","","","","","{""Q0"":""fred is being touched by luke""}","<img src=""stim_listB/touch6.gif""style=""height:400px;""></stim_listB>","is being touched by","","","","","",""
"null","<div style=""font-size:60px;"">+</div>","","html-keyboard-response","443","1808224","0.0-19.0-0.13","51828","List2B","black","woman","","","","null","","","","","","","","",""
"null","<img src=""stim_listB/hug1.gif""style=""height:400px;""></stim_listB>","","html-keyboard-response","444","1810226","0.0-19.0-1.13","51828","List2B","black","woman","","","","null","","","","","","","","",""
"null","is hugging","","html-keyboard-response","445","1812229","0.0-19.0-2.13","51828","List2B","black","woman","","","","null","","","","","","","","",""
"3965","","","survey-text","446","1816203","0.0-19.0-3.13","51828","List2B","black","woman","","","","","{""Q0"":""luke is hugging ruth""}","<img src=""stim_listB/hug1.gif""style=""height:400px;""></stim_listB>","is hugging","","","","","",""
"null","<div style=""font-size:60px;"">+</div>","","html-keyboard-response","447","1816705","0.0-19.0-0.14","51828","List2B","black","woman","","","","null","","","","","","","","",""
"null","<img src=""stim_listB/greet7.gif""style=""height:400px;""></stim_listB>","","html-keyboard-response","448","1818707","0.0-19.0-1.14","51828","List2B","black","woman","","","","null","","","","","","","","",""
"null","is greeting","","html-keyboard-response","449","1820709","0.0-19.0-2.14","51828","List2B","black","woman","","","","null","","","","","","","","",""
"6526","","","survey-text","450","1827242","0.0-19.0-3.14","51828","List2B","black","woman","","","","","{""Q0"":""jane is greeting kate""}","<img src=""stim_listB/greet7.gif""style=""height:400px;""></stim_listB>","is greeting","","","","","",""
"null","<div style=""font-size:60px;"">+</div>","","html-keyboard-response","451","1827744","0.0-19.0-0.15","51828","List2B","black","woman","","","","null","","","","","","","","",""
"null","<img src=""stim_listB/greet3.gif""style=""height:400px;""></stim_listB>","","html-keyboard-response","452","1829745","0.0-19.0-1.15","51828","List2B","black","woman","","","","null","","","","","","","","",""
"null","is greeting","","html-keyboard-response","453","1831747","0.0-19.0-2.15","51828","List2B","black","woman","","","","null","","","","","","","","",""
"4102","","","survey-text","454","1835855","0.0-19.0-3.15","51828","List2B","black","woman","","","","","{""Q0"":""mike is greeting beth""}","<img src=""stim_listB/greet3.gif""style=""height:400px;""></stim_listB>","is greeting","","","","","",""
"null","<div style=""font-size:60px;"">+</div>","","html-keyboard-response","455","1836358","0.0-19.0-0.16","51828","List2B","black","woman","","","","null","","","","","","","","",""
"null","<img src=""stim_listB/look4.gif""style=""height:400px;""></stim_listB>","","html-keyboard-response","456","1838360","0.0-19.0-1.16","51828","List2B","black","woman","","","","null","","","","","","","","",""
"null","is being looked at by","","html-keyboard-response","457","1840362","0.0-19.0-2.16","51828","List2B","black","woman","","","","null","","","","","","","","",""
"10554","","","survey-text","458","1850921","0.0-19.0-3.16","51828","List2B","black","woman","","","","","{""Q0"":""kate is being looked at by mike""}","<img src=""stim_listB/look4.gif""style=""height:400px;""></stim_listB>","is being looked at by","","","","","",""
"null","<div style=""font-size:60px;"">+</div>","","html-keyboard-response","459","1851423","0.0-19.0-0.17","51828","List2B","black","woman","","","","null","","","","","","","","",""
"null","<img src=""stim_listB/kiss8.gif""style=""height:400px;""></stim_listB>","","html-keyboard-response","460","1853425","0.0-19.0-1.17","51828","List2B","black","woman","","","","null","","","","","","","","",""
"null","is being kissed by","","html-keyboard-response","461","1855428","0.0-19.0-2.17","51828","List2B","black","woman","","","","null","","","","","","","","",""
"5726","","","survey-text","462","1861160","0.0-19.0-3.17","51828","List2B","black","woman","","","","","{""Q0"":""kate is being kissed by jane""}","<img src=""stim_listB/kiss8.gif""style=""height:400px;""></stim_listB>","is being kissed by","","","","","",""
"null","<div style=""font-size:60px;"">+</div>","","html-keyboard-response","463","1861662","0.0-19.0-0.18","51828","List2B","black","woman","","","","null","","","","","","","","",""
"null","<img src=""stim_listB/kiss4.gif""style=""height:400px;""></stim_listB>","","html-keyboard-response","464","1863664","0.0-19.0-1.18","51828","List2B","black","woman","","","","null","","","","","","","","",""
"null","is being kissed by","","html-keyboard-response","465","1865665","0.0-19.0-2.18","51828","List2B","black","woman","","","","null","","","","","","","","",""
"8962","","","survey-text","466","1874633","0.0-19.0-3.18","51828","List2B","black","woman","","","","","{""Q0"":""kate is being kissed by mike""}","<img src=""stim_listB/kiss4.gif""style=""height:400px;""></stim_listB>","is being kissed by","","","","","",""
"null","<div style=""font-size:60px;"">+</div>","","html-keyboard-response","467","1875137","0.0-19.0-0.19","51828","List2B","black","woman","","","","null","","","","","","","","",""
"null","<img src=""stim_listB/oppose5.gif""style=""height:400px;""></stim_listB>","","html-keyboard-response","468","1877140","0.0-19.0-1.19","51828","List2B","black","woman","","","","null","","","","","","","","",""
"null","is opposing","","html-keyboard-response","469","1879143","0.0-19.0-2.19","51828","List2B","black","woman","","","","null","","","","","","","","",""
"3203","","","survey-text","470","1882353","0.0-19.0-3.19","51828","List2B","black","woman","","","","","{""Q0"":""mike is opposing dave""}","<img src=""stim_listB/oppose5.gif""style=""height:400px;""></stim_listB>","is opposing","","","","","",""
"2649","<p>Thank you for completing that task.</p><p>The final part of this session is a questionnaire that will take about 4 minutes.</p><p>Press Continue.</p>","0","html-button-response","471","1885006","0.0-20.0","51828","List2B","black","woman","","","","","","","","","","","","",""
"28535","","","survey-text","472","1914561","0.0-21.0","51828","List2B","black","woman","","","","","{""Q0"":""20"",""Q1"":""English"",""Q2"":""English"",""Q3"":""United States of America"",""Q4"":""American"",""Q5"":""African American"",""Q6"":""Female""}","","","demographics","","","","",""
"1698","<p>Have you lived in the USA for the last 5 years or more?</p>","0","html-button-response","473","1916262","0.0-22.0","51828","List2B","black","woman","","","","","","","","fiveyears","","","","",""
"1885","<p>Move the slider to show the extent to which you agree with the following statements.</p>","0","html-button-response","474","1919150","0.0-23.0","51828","List2B","black","woman","","","","","","","","","","","","",""
"7788","","","html-slider-response","475","1927992","0.0-24.0-0.0-0.0","51828","List2B","black","woman","","","","","","","","survey_gender","49","","","Family is not more important to me than friendship.","filler"
"3735","","","html-slider-response","476","1931735","0.0-24.0-0.0-0.1","51828","List2B","black","woman","","","","","","","","survey_gender","93","","","I am glad to be my gender.","glad"
"5144","","","html-slider-response","477","1936887","0.0-24.0-0.0-0.2","51828","List2B","black","woman","","","","","","","","survey_gender","68","","","I often think about the fact that I am my gender.","often"
"3131","","","html-slider-response","478","1940022","0.0-24.0-0.0-0.3","51828","List2B","black","woman","","","","","","","","survey_gender","84","","","I would say I am an animal person.","filler"
"3211","","","html-slider-response","479","1943238","0.0-24.0-0.0-0.4","51828","List2B","black","woman","","","","","","","","survey_gender","66","","","I feel committed to my gender.","committed"
"3891","","","html-slider-response","480","1947134","0.0-24.0-0.0-0.5","51828","List2B","black","woman","","","","","","","","survey_gender","60","","","My friends have a lot in common with each other.","filler"
"3243","","","html-slider-response","481","1950382","0.0-24.0-0.0-0.6","51828","List2B","black","woman","","","","","","","","survey_gender","55","","","I feel a bond with my friends.","filler"
"2676","","","html-slider-response","482","1953062","0.0-24.0-0.0-0.7","51828","List2B","black","woman","","","","","","","","survey_gender","79","","","It is pleasant to be my gender.","pleasant"
"3580","","","html-slider-response","483","1956646","0.0-24.0-0.0-0.8","51828","List2B","black","woman","","","","","","","","survey_gender","82","","","I am glad to have the friends that I have.","filler"
"2884","","","html-slider-response","484","1959535","0.0-24.0-0.0-0.9","51828","List2B","black","woman","","","","","","","","survey_gender","19","","","Routine is not important to me.","filler"
"3171","","","html-slider-response","485","1962710","0.0-24.0-0.0-0.10","51828","List2B","black","woman","","","","","","","","survey_gender","68","","","The fact that I am my gender is an important part of my identity.","identity"
"3324","","","html-slider-response","486","1966038","0.0-24.0-0.0-0.11","51828","List2B","black","woman","","","","","","","","survey_gender","94","","","I often think about my actions.","filler"
"4691","","","html-slider-response","487","1970733","0.0-24.0-0.0-0.12","51828","List2B","black","woman","","","","","","","","survey_gender","79","","","Being my gender is an important part of how I see myself.","important"
