rt,stimulus,button_pressed,trial_type,trial_index,time_elapsed,internal_node_id,subject,list,ppt_race,ppt_gender,url,first_guess,correct,key_press,responses,image_type,phrase_type,test_part,response,stimulus1,stimulus2,question_type,survey_item
9051.5,Welcome to the experiment. Press Continue to begin.,0,html-button-response,0,9059,0.0-0.0,52082,List2B,black,man,,,,,,,,,,,,,
19786.9,,,external-html,1,32040,0.0-1.0,52082,List2B,black,man,consent.html,,,,,,,,,,,,
6379.1,"<p>On the next page, you will see portraits of 8 people and their names.</p><p>Your first task is to take a few minutes to memorise the names of these people.</p><p>You will have to recall their names during the rest of the experiment, so it is</p><p>essential that you try to memorise these people and their names as best as you can.</p><br><p><strong>You will then be tested on your memory of these names and portraits.</strong></p><br><p>The experiment will start after you have completed this memory test.</p><br><p>Ready?</p>",0,html-button-response,2,38424,0.0-2.0,52082,List2B,black,man,,,,,,,,,,,,,
57298.3,"<img src='img/portrait_matrix_list2.jpg' style='width:900px;height:500px;''></img><p>If you have memorised all the portraits and names and are ready to start, press Continue.</p><p><strong>Please note: Your memory of these faces will be tested 4 times during this experiment.</strong></p>",0,html-button-response,3,96738,0.0-3.0-0.0,52082,List2B,black,man,,,,,,,,,,,,,
30864.4,"<img src=""portrait/BW2.jpg""style=""height:400px;""></img>",2,html-button-response,4,128628,0.0-3.0-1.0,52082,List2B,black,man,,TRUE,2,,,,,,,,,,
null,CORRECT,,html-keyboard-response,5,130164,0.0-3.0-2.0-0.0,52082,List2B,black,man,,,,null,,,,,,,,,
15259,"<img src=""portrait/WW1.jpg""style=""height:400px;""></img>",1,html-button-response,6,145433,0.0-3.0-4.0,52082,List2B,black,man,,TRUE,1,,,,,,,,,,
null,CORRECT,,html-keyboard-response,7,146944,0.0-3.0-5.0-0.0,52082,List2B,black,man,,,,null,,,,,,,,,
14785.4,"<img src=""portrait/BM1.jpg""style=""height:400px;""></img>",4,html-button-response,8,161736,0.0-3.0-7.0,52082,List2B,black,man,,TRUE,4,,,,,,,,,,
null,CORRECT,,html-keyboard-response,9,163264,0.0-3.0-8.0-0.0,52082,List2B,black,man,,,,null,,,,,,,,,
19637.5,"<img src=""portrait/WW2.jpg""style=""height:400px;""></img>",3,html-button-response,10,182908,0.0-3.0-10.0,52082,List2B,black,man,,TRUE,3,,,,,,,,,,
null,CORRECT,,html-keyboard-response,11,184424,0.0-3.0-11.0-0.0,52082,List2B,black,man,,,,null,,,,,,,,,
11682.7,"<img src=""portrait/BM2.jpg""style=""height:400px;""></img>",5,html-button-response,12,196114,0.0-3.0-13.0,52082,List2B,black,man,,TRUE,5,,,,,,,,,,
null,CORRECT,,html-keyboard-response,13,197643,0.0-3.0-14.0-0.0,52082,List2B,black,man,,,,null,,,,,,,,,
6679.4,"<img src=""portrait/WM1.jpg""style=""height:400px;""></img>",6,html-button-response,14,204329,0.0-3.0-16.0,52082,List2B,black,man,,TRUE,6,,,,,,,,,,
null,CORRECT,,html-keyboard-response,15,205856,0.0-3.0-17.0-0.0,52082,List2B,black,man,,,,null,,,,,,,,,
6127.2,"<img src=""portrait/BW1.jpg""style=""height:400px;""></img>",0,html-button-response,16,211990,0.0-3.0-19.0,52082,List2B,black,man,,TRUE,0,,,,,,,,,,
null,CORRECT,,html-keyboard-response,17,213524,0.0-3.0-20.0-0.0,52082,List2B,black,man,,,,null,,,,,,,,,
5742.4,"<img src=""portrait/WM2.jpg""style=""height:400px;""></img>",7,html-button-response,18,219275,0.0-3.0-22.0,52082,List2B,black,man,,TRUE,7,,,,,,,,,,
null,CORRECT,,html-keyboard-response,19,220804,0.0-3.0-23.0-0.0,52082,List2B,black,man,,,,null,,,,,,,,,
1769.2,<p>You got 8 out of 8 right first time. Press Continue.</p>,0,html-button-response,20,222581,0.0-3.0-25.0,52082,List2B,black,man,,,,,,,,,,,,,
40344.3,"<p>In this experiment, you will view photographs of the people from the memory game interacting.</p><p>By using the <strong>exact</strong> phrase given <i>after</i> the photograph appears and recalling the correct names of the people in the photographs, form a sentence describing the interaction. You do not need to capitalise names.</p><p>Type your answer in the space provided. Please complete every sentence before moving onto the next trial.</p><p>You will only have a few seconds to memorise each given photograph and phrase before you can respond, so try your best to focus.</p><p>An example is given below. Press 'Continue' when you are ready.</p><img src='img/speaking_example.jpg' style='width:800px;height:460px;''></img>",0,html-button-response,21,263940,0.0-4.0,52082,List2B,black,man,,,,,,,,,,,,,
3695.8,"<p>Before the experiment starts, you will watch two example trials. Press 'Continue'.</p>",0,html-button-response,22,268644,0.0-5.0,52082,List2B,black,man,,,,,,,,,,,,,
null,<img src='img/play_eg.gif' style='height:400px;''></img>,,html-keyboard-response,23,271670,0.0-6.0,52082,List2B,black,man,,,,null,,,,,,,,,
null,<p>is playing with</p>,,html-keyboard-response,24,273681,0.0-7.0,52082,List2B,black,man,,,,null,,,,,,,,,
2127.1,<p><b>Answer:</b> jane is playing with ruth</p>,0,html-button-response,25,275813,0.0-8.0,52082,List2B,black,man,,,,,,,,,,,,,
null,<img src='img/dance_eg.gif' style='height:400px;''></img>,,html-keyboard-response,26,278837,0.0-9.0,52082,List2B,black,man,,,,null,,,,,,,,,
null,<p>is being entertained by</p>,,html-keyboard-response,27,280848,0.0-10.0,52082,List2B,black,man,,,,null,,,,,,,,,
1646.3,<p><b>Answer:</b> fred is being entertained by mike</p>,0,html-button-response,28,282500,0.0-11.0,52082,List2B,black,man,,,,,,,,,,,,,
14585,"<p>Ready to start the experiment?</p><br><p><strong>Remember to describe the picture using a full sentence,</strong></p><p><strong>that combines the names of the people with the <i>exact</i> phrase given.</strong></p><p><strong>To receive full payment you must do this correctly.</strong></p><p><strong> You do not need to capitalise names or use punctuation.</strong></p><br><p>Press 'Continue' to begin.</p>",0,html-button-response,29,298103,0.0-12.0,52082,List2B,black,man,,,,,,,,,,,,,
null,"<div style=""font-size:60px;"">+</div>",,html-keyboard-response,30,299619,0.0-13.0-0.0,52082,List2B,black,man,,,,null,,,,,,,,,
null,"<img src=""stim_listB/kiss5.gif""style=""height:400px;""></stim_listB>",,html-keyboard-response,31,301640,0.0-13.0-1.0,52082,List2B,black,man,,,,null,,,,,,,,,
null,is kissing,,html-keyboard-response,32,303657,0.0-13.0-2.0,52082,List2B,black,man,,,,null,,,,,,,,,
18976.5,,,survey-text,33,322653,0.0-13.0-3.0,52082,List2B,black,man,,,,,"{""Q0"":""luke is kissing fred""}","<img src=""stim_listB/kiss5.gif""style=""height:400px;""></stim_listB>",is kissing,,,,,,
null,"<div style=""font-size:60px;"">+</div>",,html-keyboard-response,34,323174,0.0-13.0-0.1,52082,List2B,black,man,,,,null,,,,,,,,,
null,"<img src=""stim_listB/look3.gif""style=""height:400px;""></stim_listB>",,html-keyboard-response,35,325182,0.0-13.0-1.1,52082,List2B,black,man,,,,null,,,,,,,,,
null,is looking at,,html-keyboard-response,36,327198,0.0-13.0-2.1,52082,List2B,black,man,,,,null,,,,,,,,,
53558.3,,,survey-text,37,380772,0.0-13.0-3.1,52082,List2B,black,man,,,,,"{""Q0"":""beth is kissing fred""}","<img src=""stim_listB/look3.gif""style=""height:400px;""></stim_listB>",is looking at,,,,,,
null,"<div style=""font-size:60px;"">+</div>",,html-keyboard-response,38,381280,0.0-13.0-0.2,52082,List2B,black,man,,,,null,,,,,,,,,
null,"<img src=""stim_listB/greet4.gif""style=""height:400px;""></stim_listB>",,html-keyboard-response,39,383302,0.0-13.0-1.2,52082,List2B,black,man,,,,null,,,,,,,,,
null,is being greeted by,,html-keyboard-response,40,385317,0.0-13.0-2.2,52082,List2B,black,man,,,,null,,,,,,,,,
44292.3,,,survey-text,41,429624,0.0-13.0-3.2,52082,List2B,black,man,,,,,"{""Q0"":""kate is being greeted by fred""}","<img src=""stim_listB/greet4.gif""style=""height:400px;""></stim_listB>",is being greeted by,,,,,,
null,"<div style=""font-size:60px;"">+</div>",,html-keyboard-response,42,430128,0.0-13.0-0.3,52082,List2B,black,man,,,,null,,,,,,,,,
null,"<img src=""stim_listB/oppose7.gif""style=""height:400px;""></stim_listB>",,html-keyboard-response,43,432140,0.0-13.0-1.3,52082,List2B,black,man,,,,null,,,,,,,,,
null,is opposing,,html-keyboard-response,44,434159,0.0-13.0-2.3,52082,List2B,black,man,,,,null,,,,,,,,,
97575.7,,,survey-text,45,531748,0.0-13.0-3.3,52082,List2B,black,man,,,,,"{""Q0"":""jane is opposing kate""}","<img src=""stim_listB/oppose7.gif""style=""height:400px;""></stim_listB>",is opposing,,,,,,
null,"<div style=""font-size:60px;"">+</div>",,html-keyboard-response,46,532263,0.0-13.0-0.4,52082,List2B,black,man,,,,null,,,,,,,,,
null,"<img src=""stim_listB/challenge7.gif""style=""height:400px;""></stim_listB>",,html-keyboard-response,47,534274,0.0-13.0-1.4,52082,List2B,black,man,,,,null,,,,,,,,,
null,is challenging,,html-keyboard-response,48,536286,0.0-13.0-2.4,52082,List2B,black,man,,,,null,,,,,,,,,
91394.2,,,survey-text,49,627694,0.0-13.0-3.4,52082,List2B,black,man,,,,,"{""Q0"":""beth is challenging jane""}","<img src=""stim_listB/challenge7.gif""style=""height:400px;""></stim_listB>",is challenging,,,,,,
null,"<div style=""font-size:60px;"">+</div>",,html-keyboard-response,50,628201,0.0-13.0-0.5,52082,List2B,black,man,,,,null,,,,,,,,,
null,"<img src=""stim_listB/oppose5.gif""style=""height:400px;""></stim_listB>",,html-keyboard-response,51,630213,0.0-13.0-1.5,52082,List2B,black,man,,,,null,,,,,,,,,
null,is opposing,,html-keyboard-response,52,632226,0.0-13.0-2.5,52082,List2B,black,man,,,,null,,,,,,,,,
73945.8,,,survey-text,53,706186,0.0-13.0-3.5,52082,List2B,black,man,,,,,"{""Q0"":""dave is opposing mike""}","<img src=""stim_listB/oppose5.gif""style=""height:400px;""></stim_listB>",is opposing,,,,,,
null,"<div style=""font-size:60px;"">+</div>",,html-keyboard-response,54,706699,0.0-13.0-0.6,52082,List2B,black,man,,,,null,,,,,,,,,
null,"<img src=""stim_listB/seduce1.gif""style=""height:400px;""></stim_listB>",,html-keyboard-response,55,708717,0.0-13.0-1.6,52082,List2B,black,man,,,,null,,,,,,,,,
null,is seducing,,html-keyboard-response,56,710737,0.0-13.0-2.6,52082,List2B,black,man,,,,null,,,,,,,,,
43175.1,,,survey-text,57,753928,0.0-13.0-3.6,52082,List2B,black,man,,,,,"{""Q0"":""luke is seducing ruth""}","<img src=""stim_listB/seduce1.gif""style=""height:400px;""></stim_listB>",is seducing,,,,,,
null,"<div style=""font-size:60px;"">+</div>",,html-keyboard-response,58,754442,0.0-13.0-0.7,52082,List2B,black,man,,,,null,,,,,,,,,
null,"<img src=""stim_listB/touch5.gif""style=""height:400px;""></stim_listB>",,html-keyboard-response,59,756460,0.0-13.0-1.7,52082,List2B,black,man,,,,null,,,,,,,,,
null,is touching,,html-keyboard-response,60,758466,0.0-13.0-2.7,52082,List2B,black,man,,,,null,,,,,,,,,
30348.1,,,survey-text,61,788829,0.0-13.0-3.7,52082,List2B,black,man,,,,,"{""Q0"":""dave is touching mike""}","<img src=""stim_listB/touch5.gif""style=""height:400px;""></stim_listB>",is touching,,,,,,
null,"<div style=""font-size:60px;"">+</div>",,html-keyboard-response,62,789335,0.0-13.0-0.8,52082,List2B,black,man,,,,null,,,,,,,,,
null,"<img src=""stim_listB/copy2.gif""style=""height:400px;""></stim_listB>",,html-keyboard-response,63,791347,0.0-13.0-1.8,52082,List2B,black,man,,,,null,,,,,,,,,
null,is being copied by,,html-keyboard-response,64,793359,0.0-13.0-2.8,52082,List2B,black,man,,,,null,,,,,,,,,
70791.7,,,survey-text,65,864166,0.0-13.0-3.8,52082,List2B,black,man,,,,,"{""Q0"":""mike is flirting with ruth""}","<img src=""stim_listB/copy2.gif""style=""height:400px;""></stim_listB>",is being copied by,,,,,,
null,"<div style=""font-size:60px;"">+</div>",,html-keyboard-response,66,864673,0.0-13.0-0.9,52082,List2B,black,man,,,,null,,,,,,,,,
null,"<img src=""stim_listB/shout5.gif""style=""height:400px;""></stim_listB>",,html-keyboard-response,67,866683,0.0-13.0-1.9,52082,List2B,black,man,,,,null,,,,,,,,,
null,is shouting at,,html-keyboard-response,68,868715,0.0-13.0-2.9,52082,List2B,black,man,,,,null,,,,,,,,,
61592.4,,,survey-text,69,930322,0.0-13.0-3.9,52082,List2B,black,man,,,,,"{""Q0"":""fred is shouting at luke""}","<img src=""stim_listB/shout5.gif""style=""height:400px;""></stim_listB>",is shouting at,,,,,,
null,"<div style=""font-size:60px;"">+</div>",,html-keyboard-response,70,930838,0.0-13.0-0.10,52082,List2B,black,man,,,,null,,,,,,,,,
null,"<img src=""stim_listB/challenge1.gif""style=""height:400px;""></stim_listB>",,html-keyboard-response,71,932851,0.0-13.0-1.10,52082,List2B,black,man,,,,null,,,,,,,,,
null,is challenging,,html-keyboard-response,72,934866,0.0-13.0-2.10,52082,List2B,black,man,,,,null,,,,,,,,,
76787.5,,,survey-text,73,1011669,0.0-13.0-3.10,52082,List2B,black,man,,,,,"{""Q0"":""ruth is challenging dave""}","<img src=""stim_listB/challenge1.gif""style=""height:400px;""></stim_listB>",is challenging,,,,,,
null,"<div style=""font-size:60px;"">+</div>",,html-keyboard-response,74,1012182,0.0-13.0-0.11,52082,List2B,black,man,,,,null,,,,,,,,,
null,"<img src=""stim_listB/seduce2.gif""style=""height:400px;""></stim_listB>",,html-keyboard-response,75,1014202,0.0-13.0-1.11,52082,List2B,black,man,,,,null,,,,,,,,,
null,is being seduced by,,html-keyboard-response,76,1016218,0.0-13.0-2.11,52082,List2B,black,man,,,,null,,,,,,,,,
34799.2,,,survey-text,77,1051032,0.0-13.0-3.11,52082,List2B,black,man,,,,,"{""Q0"":""ruth is being seduced by dave""}","<img src=""stim_listB/seduce2.gif""style=""height:400px;""></stim_listB>",is being seduced by,,,,,,
null,"<div style=""font-size:60px;"">+</div>",,html-keyboard-response,78,1051551,0.0-13.0-0.12,52082,List2B,black,man,,,,null,,,,,,,,,
null,"<img src=""stim_listB/touch6.gif""style=""height:400px;""></stim_listB>",,html-keyboard-response,79,1053568,0.0-13.0-1.12,52082,List2B,black,man,,,,null,,,,,,,,,
null,is being touched by,,html-keyboard-response,80,1055573,0.0-13.0-2.12,52082,List2B,black,man,,,,null,,,,,,,,,
55381.1,,,survey-text,81,1110965,0.0-13.0-3.12,52082,List2B,black,man,,,,,"{""Q0"":""fred is being touched by luke""}","<img src=""stim_listB/touch6.gif""style=""height:400px;""></stim_listB>",is being touched by,,,,,,
null,"<div style=""font-size:60px;"">+</div>",,html-keyboard-response,82,1111476,0.0-13.0-0.13,52082,List2B,black,man,,,,null,,,,,,,,,
null,"<img src=""stim_listB/challenge8.gif""style=""height:400px;""></stim_listB>",,html-keyboard-response,83,1113495,0.0-13.0-1.13,52082,List2B,black,man,,,,null,,,,,,,,,
null,is being challenged by,,html-keyboard-response,84,1115500,0.0-13.0-2.13,52082,List2B,black,man,,,,null,,,,,,,,,
55459.4,,,survey-text,85,1170971,0.0-13.0-3.13,52082,List2B,black,man,,,,,"{""Q0"":""ruth is being challenged by kate""}","<img src=""stim_listB/challenge8.gif""style=""height:400px;""></stim_listB>",is being challenged by,,,,,,
null,"<div style=""font-size:60px;"">+</div>",,html-keyboard-response,86,1171475,0.0-13.0-0.14,52082,List2B,black,man,,,,null,,,,,,,,,
null,"<img src=""stim_listB/challenge4.gif""style=""height:400px;""></stim_listB>",,html-keyboard-response,87,1173493,0.0-13.0-1.14,52082,List2B,black,man,,,,null,,,,,,,,,
null,is being challenged by,,html-keyboard-response,88,1175499,0.0-13.0-2.14,52082,List2B,black,man,,,,null,,,,,,,,,
38199.2,,,survey-text,89,1213710,0.0-13.0-3.14,52082,List2B,black,man,,,,,"{""Q0"":""kate is being challenged by fred""}","<img src=""stim_listB/challenge4.gif""style=""height:400px;""></stim_listB>",is being challenged by,,,,,,
null,"<div style=""font-size:60px;"">+</div>",,html-keyboard-response,90,1214215,0.0-13.0-0.15,52082,List2B,black,man,,,,null,,,,,,,,,
null,"<img src=""stim_listB/shout8.gif""style=""height:400px;""></stim_listB>",,html-keyboard-response,91,1216238,0.0-13.0-1.15,52082,List2B,black,man,,,,null,,,,,,,,,
null,is being shouted at by,,html-keyboard-response,92,1218249,0.0-13.0-2.15,52082,List2B,black,man,,,,null,,,,,,,,,
75517,,,survey-text,93,1293779,0.0-13.0-3.15,52082,List2B,black,man,,,,,"{""Q0"":""kate is being shouted at by jane""}","<img src=""stim_listB/shout8.gif""style=""height:400px;""></stim_listB>",is being shouted at by,,,,,,
null,"<div style=""font-size:60px;"">+</div>",,html-keyboard-response,94,1294291,0.0-13.0-0.16,52082,List2B,black,man,,,,null,,,,,,,,,
null,"<img src=""stim_listB/kiss6.gif""style=""height:400px;""></stim_listB>",,html-keyboard-response,95,1296307,0.0-13.0-1.16,52082,List2B,black,man,,,,null,,,,,,,,,
null,is being kissed by,,html-keyboard-response,96,1298326,0.0-13.0-2.16,52082,List2B,black,man,,,,null,,,,,,,,,
54908.8,,,survey-text,97,1353248,0.0-13.0-3.16,52082,List2B,black,man,,,,,"{""Q0"":""dave is being kissed by mike""}","<img src=""stim_listB/kiss6.gif""style=""height:400px;""></stim_listB>",is being kissed by,,,,,,
null,"<div style=""font-size:60px;"">+</div>",,html-keyboard-response,98,1353767,0.0-13.0-0.17,52082,List2B,black,man,,,,null,,,,,,,,,
null,"<img src=""stim_listB/seduce8.gif""style=""height:400px;""></stim_listB>",,html-keyboard-response,99,1355779,0.0-13.0-1.17,52082,List2B,black,man,,,,null,,,,,,,,,
null,is being seduced by,,html-keyboard-response,100,1357797,0.0-13.0-2.17,52082,List2B,black,man,,,,null,,,,,,,,,
39324.3,,,survey-text,101,1397136,0.0-13.0-3.17,52082,List2B,black,man,,,,,"{""Q0"":""jane is being seduced by beth""}","<img src=""stim_listB/seduce8.gif""style=""height:400px;""></stim_listB>",is being seduced by,,,,,,
null,"<div style=""font-size:60px;"">+</div>",,html-keyboard-response,102,1397641,0.0-13.0-0.18,52082,List2B,black,man,,,,null,,,,,,,,,
null,"<img src=""stim_listB/hug3.gif""style=""height:400px;""></stim_listB>",,html-keyboard-response,103,1399653,0.0-13.0-1.18,52082,List2B,black,man,,,,null,,,,,,,,,
null,is hugging,,html-keyboard-response,104,1401668,0.0-13.0-2.18,52082,List2B,black,man,,,,null,,,,,,,,,
28228.9,,,survey-text,105,1429911,0.0-13.0-3.18,52082,List2B,black,man,,,,,"{""Q0"":""fred is hugging beth""}","<img src=""stim_listB/hug3.gif""style=""height:400px;""></stim_listB>",is hugging,,,,,,
null,"<div style=""font-size:60px;"">+</div>",,html-keyboard-response,106,1430432,0.0-13.0-0.19,52082,List2B,black,man,,,,null,,,,,,,,,
null,"<img src=""stim_listB/hug2.gif""style=""height:400px;""></stim_listB>",,html-keyboard-response,107,1432456,0.0-13.0-1.19,52082,List2B,black,man,,,,null,,,,,,,,,
null,is being hugged by,,html-keyboard-response,108,1434475,0.0-13.0-2.19,52082,List2B,black,man,,,,null,,,,,,,,,
30299.1,,,survey-text,109,1464788,0.0-13.0-3.19,52082,List2B,black,man,,,,,"{""Q0"":""jane is being hugged by dave""}","<img src=""stim_listB/hug2.gif""style=""height:400px;""></stim_listB>",is being hugged by,,,,,,
13594.9,"<img src='img/portrait_matrix_list2.jpg' style='width:900px;height:500px;''></img><p>If you have memorised all the portraits and names and are ready to start, press Continue.</p><p><strong>Please note: Your memory of these faces will be tested 4 times during this experiment.</strong></p>",0,html-button-response,110,1478388,0.0-14.0-0.0,52082,List2B,black,man,,,,,,,,,,,,,
7593.8,"<img src=""portrait/WM1.jpg""style=""height:400px;""></img>",6,html-button-response,111,1486994,0.0-14.0-1.0,52082,List2B,black,man,,TRUE,6,,,,,,,,,,
null,CORRECT,,html-keyboard-response,112,1488522,0.0-14.0-2.0-0.0,52082,List2B,black,man,,,,null,,,,,,,,,
6077,"<img src=""portrait/BW2.jpg""style=""height:400px;""></img>",2,html-button-response,113,1494610,0.0-14.0-4.0,52082,List2B,black,man,,TRUE,2,,,,,,,,,,
null,CORRECT,,html-keyboard-response,114,1496118,0.0-14.0-5.0-0.0,52082,List2B,black,man,,,,null,,,,,,,,,
2387.1,"<img src=""portrait/BM1.jpg""style=""height:400px;""></img>",4,html-button-response,115,1498512,0.0-14.0-7.0,52082,List2B,black,man,,TRUE,4,,,,,,,,,,
null,CORRECT,,html-keyboard-response,116,1500040,0.0-14.0-8.0-0.0,52082,List2B,black,man,,,,null,,,,,,,,,
3278.3,"<img src=""portrait/BM2.jpg""style=""height:400px;""></img>",5,html-button-response,117,1503326,0.0-14.0-10.0,52082,List2B,black,man,,TRUE,5,,,,,,,,,,
null,CORRECT,,html-keyboard-response,118,1504834,0.0-14.0-11.0-0.0,52082,List2B,black,man,,,,null,,,,,,,,,
4053,"<img src=""portrait/WW1.jpg""style=""height:400px;""></img>",1,html-button-response,119,1508893,0.0-14.0-13.0,52082,List2B,black,man,,TRUE,1,,,,,,,,,,
null,CORRECT,,html-keyboard-response,120,1510401,0.0-14.0-14.0-0.0,52082,List2B,black,man,,,,null,,,,,,,,,
2850.6,"<img src=""portrait/WW2.jpg""style=""height:400px;""></img>",3,html-button-response,121,1513257,0.0-14.0-16.0,52082,List2B,black,man,,TRUE,3,,,,,,,,,,
null,CORRECT,,html-keyboard-response,122,1514794,0.0-14.0-17.0-0.0,52082,List2B,black,man,,,,null,,,,,,,,,
5114.3,"<img src=""portrait/BW1.jpg""style=""height:400px;""></img>",0,html-button-response,123,1519914,0.0-14.0-19.0,52082,List2B,black,man,,TRUE,0,,,,,,,,,,
null,CORRECT,,html-keyboard-response,124,1521436,0.0-14.0-20.0-0.0,52082,List2B,black,man,,,,null,,,,,,,,,
4313.6,"<img src=""portrait/WM2.jpg""style=""height:400px;""></img>",7,html-button-response,125,1525755,0.0-14.0-22.0,52082,List2B,black,man,,TRUE,7,,,,,,,,,,
null,CORRECT,,html-keyboard-response,126,1527270,0.0-14.0-23.0-0.0,52082,List2B,black,man,,,,null,,,,,,,,,
2535.5,<p>You got 8 out of 8 right first time. Press Continue.</p>,0,html-button-response,127,1529812,0.0-14.0-25.0,52082,List2B,black,man,,,,,,,,,,,,,
null,"<div style=""font-size:60px;"">+</div>",,html-keyboard-response,128,1531344,0.0-15.0-0.0,52082,List2B,black,man,,,,null,,,,,,,,,
null,"<img src=""stim_listB/look1.gif""style=""height:400px;""></stim_listB>",,html-keyboard-response,129,1533367,0.0-15.0-1.0,52082,List2B,black,man,,,,null,,,,,,,,,
null,is looking at,,html-keyboard-response,130,1535372,0.0-15.0-2.0,52082,List2B,black,man,,,,null,,,,,,,,,
21230.9,,,survey-text,131,1556617,0.0-15.0-3.0,52082,List2B,black,man,,,,,"{""Q0"":""luke is looking at ruth ""}","<img src=""stim_listB/look1.gif""style=""height:400px;""></stim_listB>",is looking at,,,,,,
null,"<div style=""font-size:60px;"">+</div>",,html-keyboard-response,132,1557123,0.0-15.0-0.1,52082,List2B,black,man,,,,null,,,,,,,,,
null,"<img src=""stim_listB/oppose4.gif""style=""height:400px;""></stim_listB>",,html-keyboard-response,133,1559141,0.0-15.0-1.1,52082,List2B,black,man,,,,null,,,,,,,,,
null,is being opposed by,,html-keyboard-response,134,1561149,0.0-15.0-2.1,52082,List2B,black,man,,,,null,,,,,,,,,
28165,,,survey-text,135,1589326,0.0-15.0-3.1,52082,List2B,black,man,,,,,"{""Q0"":""fred is being opposed by fred""}","<img src=""stim_listB/oppose4.gif""style=""height:400px;""></stim_listB>",is being opposed by,,,,,,
null,"<div style=""font-size:60px;"">+</div>",,html-keyboard-response,136,1589839,0.0-15.0-0.2,52082,List2B,black,man,,,,null,,,,,,,,,
null,"<img src=""stim_listB/look6.gif""style=""height:400px;""></stim_listB>",,html-keyboard-response,137,1591843,0.0-15.0-1.2,52082,List2B,black,man,,,,null,,,,,,,,,
null,is being looked at by,,html-keyboard-response,138,1593857,0.0-15.0-2.2,52082,List2B,black,man,,,,null,,,,,,,,,
15098.7,,,survey-text,139,1608968,0.0-15.0-3.2,52082,List2B,black,man,,,,,"{""Q0"":""mike is being looked at by dave""}","<img src=""stim_listB/look6.gif""style=""height:400px;""></stim_listB>",is being looked at by,,,,,,
null,"<div style=""font-size:60px;"">+</div>",,html-keyboard-response,140,1609474,0.0-15.0-0.3,52082,List2B,black,man,,,,null,,,,,,,,,
null,"<img src=""stim_listB/look7.gif""style=""height:400px;""></stim_listB>",,html-keyboard-response,141,1611484,0.0-15.0-1.3,52082,List2B,black,man,,,,null,,,,,,,,,
null,is looking at,,html-keyboard-response,142,1613490,0.0-15.0-2.3,52082,List2B,black,man,,,,null,,,,,,,,,
14073.7,,,survey-text,143,1627569,0.0-15.0-3.3,52082,List2B,black,man,,,,,"{""Q0"":""beth is looking at ruth""}","<img src=""stim_listB/look7.gif""style=""height:400px;""></stim_listB>",is looking at,,,,,,
null,"<div style=""font-size:60px;"">+</div>",,html-keyboard-response,144,1628083,0.0-15.0-0.4,52082,List2B,black,man,,,,null,,,,,,,,,
null,"<img src=""stim_listB/seduce5.gif""style=""height:400px;""></stim_listB>",,html-keyboard-response,145,1630103,0.0-15.0-1.4,52082,List2B,black,man,,,,null,,,,,,,,,
null,is seducing,,html-keyboard-response,146,1632111,0.0-15.0-2.4,52082,List2B,black,man,,,,null,,,,,,,,,
18903,,,survey-text,147,1651028,0.0-15.0-3.4,52082,List2B,black,man,,,,,"{""Q0"":""mike is seducing luke""}","<img src=""stim_listB/seduce5.gif""style=""height:400px;""></stim_listB>",is seducing,,,,,,
null,"<div style=""font-size:60px;"">+</div>",,html-keyboard-response,148,1651541,0.0-15.0-0.5,52082,List2B,black,man,,,,null,,,,,,,,,
null,"<img src=""stim_listB/touch7.gif""style=""height:400px;""></stim_listB>",,html-keyboard-response,149,1653559,0.0-15.0-1.5,52082,List2B,black,man,,,,null,,,,,,,,,
null,is touching,,html-keyboard-response,150,1655571,0.0-15.0-2.5,52082,List2B,black,man,,,,null,,,,,,,,,
19692.5,,,survey-text,151,1675270,0.0-15.0-3.5,52082,List2B,black,man,,,,,"{""Q0"":""kate is touching jane""}","<img src=""stim_listB/touch7.gif""style=""height:400px;""></stim_listB>",is touching,,,,,,
null,"<div style=""font-size:60px;"">+</div>",,html-keyboard-response,152,1675775,0.0-15.0-0.6,52082,List2B,black,man,,,,null,,,,,,,,,
null,"<img src=""stim_listB/look4.gif""style=""height:400px;""></stim_listB>",,html-keyboard-response,153,1677798,0.0-15.0-1.6,52082,List2B,black,man,,,,null,,,,,,,,,
null,is being looked at by,,html-keyboard-response,154,1679802,0.0-15.0-2.6,52082,List2B,black,man,,,,null,,,,,,,,,
16758,,,survey-text,155,1696567,0.0-15.0-3.6,52082,List2B,black,man,,,,,"{""Q0"":""mike is being looked at by kate""}","<img src=""stim_listB/look4.gif""style=""height:400px;""></stim_listB>",is being looked at by,,,,,,
null,"<div style=""font-size:60px;"">+</div>",,html-keyboard-response,156,1697083,0.0-15.0-0.7,52082,List2B,black,man,,,,null,,,,,,,,,
null,"<img src=""stim_listB/hug1.gif""style=""height:400px;""></stim_listB>",,html-keyboard-response,157,1699102,0.0-15.0-1.7,52082,List2B,black,man,,,,null,,,,,,,,,
null,is hugging,,html-keyboard-response,158,1701124,0.0-15.0-2.7,52082,List2B,black,man,,,,null,,,,,,,,,
15212,,,survey-text,159,1716351,0.0-15.0-3.7,52082,List2B,black,man,,,,,"{""Q0"":""ruth is hugging luke""}","<img src=""stim_listB/hug1.gif""style=""height:400px;""></stim_listB>",is hugging,,,,,,
null,"<div style=""font-size:60px;"">+</div>",,html-keyboard-response,160,1716857,0.0-15.0-0.8,52082,List2B,black,man,,,,null,,,,,,,,,
null,"<img src=""stim_listB/oppose6.gif""style=""height:400px;""></stim_listB>",,html-keyboard-response,161,1718869,0.0-15.0-1.8,52082,List2B,black,man,,,,null,,,,,,,,,
null,is being opposed by,,html-keyboard-response,162,1720876,0.0-15.0-2.8,52082,List2B,black,man,,,,null,,,,,,,,,
15341.2,,,survey-text,163,1736233,0.0-15.0-3.8,52082,List2B,black,man,,,,,"{""Q0"":""fred is being opposed by luke""}","<img src=""stim_listB/oppose6.gif""style=""height:400px;""></stim_listB>",is being opposed by,,,,,,
null,"<div style=""font-size:60px;"">+</div>",,html-keyboard-response,164,1736748,0.0-15.0-0.9,52082,List2B,black,man,,,,null,,,,,,,,,
null,"<img src=""stim_listB/copy8.gif""style=""height:400px;""></stim_listB>",,html-keyboard-response,165,1738767,0.0-15.0-1.9,52082,List2B,black,man,,,,null,,,,,,,,,
null,is being copied by,,html-keyboard-response,166,1740774,0.0-15.0-2.9,52082,List2B,black,man,,,,null,,,,,,,,,
22322.7,,,survey-text,167,1763112,0.0-15.0-3.9,52082,List2B,black,man,,,,,"{""Q0"":""ruth is being copied by kate""}","<img src=""stim_listB/copy8.gif""style=""height:400px;""></stim_listB>",is being copied by,,,,,,
null,"<div style=""font-size:60px;"">+</div>",,html-keyboard-response,168,1763617,0.0-15.0-0.10,52082,List2B,black,man,,,,null,,,,,,,,,
null,"<img src=""stim_listB/shout3.gif""style=""height:400px;""></stim_listB>",,html-keyboard-response,169,1765640,0.0-15.0-1.10,52082,List2B,black,man,,,,null,,,,,,,,,
null,is shouting at,,html-keyboard-response,170,1767644,0.0-15.0-2.10,52082,List2B,black,man,,,,null,,,,,,,,,
19092.3,,,survey-text,171,1786749,0.0-15.0-3.10,52082,List2B,black,man,,,,,"{""Q0"":""fred is shouting at beth""}","<img src=""stim_listB/shout3.gif""style=""height:400px;""></stim_listB>",is shouting at,,,,,,
null,"<div style=""font-size:60px;"">+</div>",,html-keyboard-response,172,1787261,0.0-15.0-0.11,52082,List2B,black,man,,,,null,,,,,,,,,
null,"<img src=""stim_listB/kiss2.gif""style=""height:400px;""></stim_listB>",,html-keyboard-response,173,1789282,0.0-15.0-1.11,52082,List2B,black,man,,,,null,,,,,,,,,
null,is being kissed by,,html-keyboard-response,174,1791287,0.0-15.0-2.11,52082,List2B,black,man,,,,null,,,,,,,,,
21364.5,,,survey-text,175,1812664,0.0-15.0-3.11,52082,List2B,black,man,,,,,"{""Q0"":""jane is kissed by dave""}","<img src=""stim_listB/kiss2.gif""style=""height:400px;""></stim_listB>",is being kissed by,,,,,,
null,"<div style=""font-size:60px;"">+</div>",,html-keyboard-response,176,1813175,0.0-15.0-0.12,52082,List2B,black,man,,,,null,,,,,,,,,
null,"<img src=""stim_listB/kiss3.gif""style=""height:400px;""></stim_listB>",,html-keyboard-response,177,1815184,0.0-15.0-1.12,52082,List2B,black,man,,,,null,,,,,,,,,
null,is kissing,,html-keyboard-response,178,1817192,0.0-15.0-2.12,52082,List2B,black,man,,,,null,,,,,,,,,
10399.2,,,survey-text,179,1827605,0.0-15.0-3.12,52082,List2B,black,man,,,,,"{""Q0"":""beth is kissing fred""}","<img src=""stim_listB/kiss3.gif""style=""height:400px;""></stim_listB>",is kissing,,,,,,
null,"<div style=""font-size:60px;"">+</div>",,html-keyboard-response,180,1828126,0.0-15.0-0.13,52082,List2B,black,man,,,,null,,,,,,,,,
null,"<img src=""stim_listB/touch3.gif""style=""height:400px;""></stim_listB>",,html-keyboard-response,181,1830143,0.0-15.0-1.13,52082,List2B,black,man,,,,null,,,,,,,,,
null,is touching,,html-keyboard-response,182,1832159,0.0-15.0-2.13,52082,List2B,black,man,,,,null,,,,,,,,,
20823.6,,,survey-text,183,1852989,0.0-15.0-3.13,52082,List2B,black,man,,,,,"{""Q0"":""mike is touching kate""}","<img src=""stim_listB/touch3.gif""style=""height:400px;""></stim_listB>",is touching,,,,,,
null,"<div style=""font-size:60px;"">+</div>",,html-keyboard-response,184,1853494,0.0-15.0-0.14,52082,List2B,black,man,,,,null,,,,,,,,,
null,"<img src=""stim_listB/kiss4.gif""style=""height:400px;""></stim_listB>",,html-keyboard-response,185,1855507,0.0-15.0-1.14,52082,List2B,black,man,,,,null,,,,,,,,,
null,is being kissed by,,html-keyboard-response,186,1857526,0.0-15.0-2.14,52082,List2B,black,man,,,,null,,,,,,,,,
16673.6,,,survey-text,187,1874212,0.0-15.0-3.14,52082,List2B,black,man,,,,,"{""Q0"":""mike is being kissed by kate""}","<img src=""stim_listB/kiss4.gif""style=""height:400px;""></stim_listB>",is being kissed by,,,,,,
null,"<div style=""font-size:60px;"">+</div>",,html-keyboard-response,188,1874726,0.0-15.0-0.15,52082,List2B,black,man,,,,null,,,,,,,,,
null,"<img src=""stim_listB/kiss8.gif""style=""height:400px;""></stim_listB>",,html-keyboard-response,189,1876737,0.0-15.0-1.15,52082,List2B,black,man,,,,null,,,,,,,,,
null,is being kissed by,,html-keyboard-response,190,1878757,0.0-15.0-2.15,52082,List2B,black,man,,,,null,,,,,,,,,
16147.6,,,survey-text,191,1894911,0.0-15.0-3.15,52082,List2B,black,man,,,,,"{""Q0"":""kate is being kissed by jane""}","<img src=""stim_listB/kiss8.gif""style=""height:400px;""></stim_listB>",is being kissed by,,,,,,
null,"<div style=""font-size:60px;"">+</div>",,html-keyboard-response,192,1895421,0.0-15.0-0.16,52082,List2B,black,man,,,,null,,,,,,,,,
null,"<img src=""stim_listB/shout2.gif""style=""height:400px;""></stim_listB>",,html-keyboard-response,193,1897437,0.0-15.0-1.16,52082,List2B,black,man,,,,null,,,,,,,,,
null,is being shouted at by,,html-keyboard-response,194,1899442,0.0-15.0-2.16,52082,List2B,black,man,,,,null,,,,,,,,,
22136.1,,,survey-text,195,1921594,0.0-15.0-3.16,52082,List2B,black,man,,,,,"{""Q0"":""dave is being shouted at by jane""}","<img src=""stim_listB/shout2.gif""style=""height:400px;""></stim_listB>",is being shouted at by,,,,,,
null,"<div style=""font-size:60px;"">+</div>",,html-keyboard-response,196,1922104,0.0-15.0-0.17,52082,List2B,black,man,,,,null,,,,,,,,,
null,"<img src=""stim_listB/look5.gif""style=""height:400px;""></stim_listB>",,html-keyboard-response,197,1924110,0.0-15.0-1.17,52082,List2B,black,man,,,,null,,,,,,,,,
null,is looking at,,html-keyboard-response,198,1926126,0.0-15.0-2.17,52082,List2B,black,man,,,,null,,,,,,,,,
24972.8,,,survey-text,199,1951112,0.0-15.0-3.17,52082,List2B,black,man,,,,,"{""Q0"":""luke is looking at fred""}","<img src=""stim_listB/look5.gif""style=""height:400px;""></stim_listB>",is looking at,,,,,,
null,"<div style=""font-size:60px;"">+</div>",,html-keyboard-response,200,1951625,0.0-15.0-0.18,52082,List2B,black,man,,,,null,,,,,,,,,
null,"<img src=""stim_listB/greet8.gif""style=""height:400px;""></stim_listB>",,html-keyboard-response,201,1953642,0.0-15.0-1.18,52082,List2B,black,man,,,,null,,,,,,,,,
null,is being greeted by,,html-keyboard-response,202,1955653,0.0-15.0-2.18,52082,List2B,black,man,,,,null,,,,,,,,,
20907.4,,,survey-text,203,1976575,0.0-15.0-3.18,52082,List2B,black,man,,,,,"{""Q0"":""kate is being greeted by ruth""}","<img src=""stim_listB/greet8.gif""style=""height:400px;""></stim_listB>",is being greeted by,,,,,,
null,"<div style=""font-size:60px;"">+</div>",,html-keyboard-response,204,1977084,0.0-15.0-0.19,52082,List2B,black,man,,,,null,,,,,,,,,
null,"<img src=""stim_listB/shout7.gif""style=""height:400px;""></stim_listB>",,html-keyboard-response,205,1979099,0.0-15.0-1.19,52082,List2B,black,man,,,,null,,,,,,,,,
null,is shouting at,,html-keyboard-response,206,1981110,0.0-15.0-2.19,52082,List2B,black,man,,,,null,,,,,,,,,
13468.3,,,survey-text,207,1994593,0.0-15.0-3.19,52082,List2B,black,man,,,,,"{""Q0"":""ruth is shouting at beth""}","<img src=""stim_listB/shout7.gif""style=""height:400px;""></stim_listB>",is shouting at,,,,,,
14047.5,"<img src='img/portrait_matrix_list2.jpg' style='width:900px;height:500px;''></img><p>If you have memorised all the portraits and names and are ready to start, press Continue.</p><p><strong>Please note: Your memory of these faces will be tested 4 times during this experiment.</strong></p>",0,html-button-response,208,2008645,0.0-16.0-0.0,52082,List2B,black,man,,,,,,,,,,,,,
1800.4,"<img src=""portrait/BM2.jpg""style=""height:400px;""></img>",5,html-button-response,209,2011456,0.0-16.0-1.0,52082,List2B,black,man,,TRUE,5,,,,,,,,,,
null,CORRECT,,html-keyboard-response,210,2012976,0.0-16.0-2.0-0.0,52082,List2B,black,man,,,,null,,,,,,,,,
1987.6,"<img src=""portrait/BM1.jpg""style=""height:400px;""></img>",4,html-button-response,211,2014973,0.0-16.0-4.0,52082,List2B,black,man,,TRUE,4,,,,,,,,,,
null,CORRECT,,html-keyboard-response,212,2016482,0.0-16.0-5.0-0.0,52082,List2B,black,man,,,,null,,,,,,,,,
4090.8,"<img src=""portrait/BW1.jpg""style=""height:400px;""></img>",0,html-button-response,213,2020581,0.0-16.0-7.0,52082,List2B,black,man,,TRUE,0,,,,,,,,,,
null,CORRECT,,html-keyboard-response,214,2022088,0.0-16.0-8.0-0.0,52082,List2B,black,man,,,,null,,,,,,,,,
2662.3,"<img src=""portrait/WW1.jpg""style=""height:400px;""></img>",1,html-button-response,215,2024757,0.0-16.0-10.0,52082,List2B,black,man,,TRUE,1,,,,,,,,,,
null,CORRECT,,html-keyboard-response,216,2026278,0.0-16.0-11.0-0.0,52082,List2B,black,man,,,,null,,,,,,,,,
3312.7,"<img src=""portrait/WM1.jpg""style=""height:400px;""></img>",6,html-button-response,217,2029598,0.0-16.0-13.0,52082,List2B,black,man,,TRUE,6,,,,,,,,,,
null,CORRECT,,html-keyboard-response,218,2031115,0.0-16.0-14.0-0.0,52082,List2B,black,man,,,,null,,,,,,,,,
1253.7,"<img src=""portrait/WM2.jpg""style=""height:400px;""></img>",7,html-button-response,219,2032376,0.0-16.0-16.0,52082,List2B,black,man,,TRUE,7,,,,,,,,,,
null,CORRECT,,html-keyboard-response,220,2033897,0.0-16.0-17.0-0.0,52082,List2B,black,man,,,,null,,,,,,,,,
3473.2,"<img src=""portrait/WW2.jpg""style=""height:400px;""></img>",3,html-button-response,221,2037376,0.0-16.0-19.0,52082,List2B,black,man,,TRUE,3,,,,,,,,,,
null,CORRECT,,html-keyboard-response,222,2038897,0.0-16.0-20.0-0.0,52082,List2B,black,man,,,,null,,,,,,,,,
2589.8,"<img src=""portrait/BW2.jpg""style=""height:400px;""></img>",2,html-button-response,223,2041493,0.0-16.0-22.0,52082,List2B,black,man,,TRUE,2,,,,,,,,,,
null,CORRECT,,html-keyboard-response,224,2043010,0.0-16.0-23.0-0.0,52082,List2B,black,man,,,,null,,,,,,,,,
1221.2,<p>You got 8 out of 8 right first time. Press Continue.</p>,0,html-button-response,225,2044238,0.0-16.0-25.0,52082,List2B,black,man,,,,,,,,,,,,,
null,"<div style=""font-size:60px;"">+</div>",,html-keyboard-response,226,2045762,0.0-17.0-0.0,52082,List2B,black,man,,,,null,,,,,,,,,
null,"<img src=""stim_listB/greet3.gif""style=""height:400px;""></stim_listB>",,html-keyboard-response,227,2047783,0.0-17.0-1.0,52082,List2B,black,man,,,,null,,,,,,,,,
null,is greeting,,html-keyboard-response,228,2049788,0.0-17.0-2.0,52082,List2B,black,man,,,,null,,,,,,,,,
14372.8,,,survey-text,229,2064174,0.0-17.0-3.0,52082,List2B,black,man,,,,,"{""Q0"":""mike is greeting beth""}","<img src=""stim_listB/greet3.gif""style=""height:400px;""></stim_listB>",is greeting,,,,,,
null,"<div style=""font-size:60px;"">+</div>",,html-keyboard-response,230,2064680,0.0-17.0-0.1,52082,List2B,black,man,,,,null,,,,,,,,,
null,"<img src=""stim_listB/seduce7.gif""style=""height:400px;""></stim_listB>",,html-keyboard-response,231,2066701,0.0-17.0-1.1,52082,List2B,black,man,,,,null,,,,,,,,,
null,is seducing,,html-keyboard-response,232,2068718,0.0-17.0-2.1,52082,List2B,black,man,,,,null,,,,,,,,,
19519,,,survey-text,233,2088249,0.0-17.0-3.1,52082,List2B,black,man,,,,,"{""Q0"":""ruth is seducing kate""}","<img src=""stim_listB/seduce7.gif""style=""height:400px;""></stim_listB>",is seducing,,,,,,
null,"<div style=""font-size:60px;"">+</div>",,html-keyboard-response,234,2088766,0.0-17.0-0.2,52082,List2B,black,man,,,,null,,,,,,,,,
null,"<img src=""stim_listB/kiss1.gif""style=""height:400px;""></stim_listB>",,html-keyboard-response,235,2090788,0.0-17.0-1.2,52082,List2B,black,man,,,,null,,,,,,,,,
null,is kissing,,html-keyboard-response,236,2092806,0.0-17.0-2.2,52082,List2B,black,man,,,,null,,,,,,,,,
9589.2,,,survey-text,237,2102408,0.0-17.0-3.2,52082,List2B,black,man,,,,,"{""Q0"":""ruth is kissing luke""}","<img src=""stim_listB/kiss1.gif""style=""height:400px;""></stim_listB>",is kissing,,,,,,
null,"<div style=""font-size:60px;"">+</div>",,html-keyboard-response,238,2102918,0.0-17.0-0.3,52082,List2B,black,man,,,,null,,,,,,,,,
null,"<img src=""stim_listB/kiss7.gif""style=""height:400px;""></stim_listB>",,html-keyboard-response,239,2104942,0.0-17.0-1.3,52082,List2B,black,man,,,,null,,,,,,,,,
null,is kissing,,html-keyboard-response,240,2106962,0.0-17.0-2.3,52082,List2B,black,man,,,,null,,,,,,,,,
16464.9,,,survey-text,241,2123440,0.0-17.0-3.3,52082,List2B,black,man,,,,,"{""Q0"":""ruth is kissing beth""}","<img src=""stim_listB/kiss7.gif""style=""height:400px;""></stim_listB>",is kissing,,,,,,
null,"<div style=""font-size:60px;"">+</div>",,html-keyboard-response,242,2123952,0.0-17.0-0.4,52082,List2B,black,man,,,,null,,,,,,,,,
null,"<img src=""stim_listB/copy3.gif""style=""height:400px;""></stim_listB>",,html-keyboard-response,243,2125965,0.0-17.0-1.4,52082,List2B,black,man,,,,null,,,,,,,,,
null,is copying,,html-keyboard-response,244,2127971,0.0-17.0-2.4,52082,List2B,black,man,,,,null,,,,,,,,,
10389.9,,,survey-text,245,2138376,0.0-17.0-3.4,52082,List2B,black,man,,,,,"{""Q0"":""mike is copying beth""}","<img src=""stim_listB/copy3.gif""style=""height:400px;""></stim_listB>",is copying,,,,,,
null,"<div style=""font-size:60px;"">+</div>",,html-keyboard-response,246,2138891,0.0-17.0-0.5,52082,List2B,black,man,,,,null,,,,,,,,,
null,"<img src=""stim_listB/hug5.gif""style=""height:400px;""></stim_listB>",,html-keyboard-response,247,2140901,0.0-17.0-1.5,52082,List2B,black,man,,,,null,,,,,,,,,
null,is hugging,,html-keyboard-response,248,2142906,0.0-17.0-2.5,52082,List2B,black,man,,,,null,,,,,,,,,
10596.6,,,survey-text,249,2153518,0.0-17.0-3.5,52082,List2B,black,man,,,,,"{""Q0"":""luke is hugging fred""}","<img src=""stim_listB/hug5.gif""style=""height:400px;""></stim_listB>",is hugging,,,,,,
null,"<div style=""font-size:60px;"">+</div>",,html-keyboard-response,250,2154032,0.0-17.0-0.6,52082,List2B,black,man,,,,null,,,,,,,,,
null,"<img src=""stim_listB/touch8.gif""style=""height:400px;""></stim_listB>",,html-keyboard-response,251,2156057,0.0-17.0-1.6,52082,List2B,black,man,,,,null,,,,,,,,,
null,is being touched by,,html-keyboard-response,252,2158070,0.0-17.0-2.6,52082,List2B,black,man,,,,null,,,,,,,,,
17099.2,,,survey-text,253,2175186,0.0-17.0-3.6,52082,List2B,black,man,,,,,"{""Q0"":""beth is being touched by ruth""}","<img src=""stim_listB/touch8.gif""style=""height:400px;""></stim_listB>",is being touched by,,,,,,
null,"<div style=""font-size:60px;"">+</div>",,html-keyboard-response,254,2175690,0.0-17.0-0.7,52082,List2B,black,man,,,,null,,,,,,,,,
null,"<img src=""stim_listB/greet7.gif""style=""height:400px;""></stim_listB>",,html-keyboard-response,255,2177712,0.0-17.0-1.7,52082,List2B,black,man,,,,null,,,,,,,,,
null,is greeting,,html-keyboard-response,256,2179726,0.0-17.0-2.7,52082,List2B,black,man,,,,null,,,,,,,,,
10894.8,,,survey-text,257,2190636,0.0-17.0-3.7,52082,List2B,black,man,,,,,"{""Q0"":""beth is greeting jane""}","<img src=""stim_listB/greet7.gif""style=""height:400px;""></stim_listB>",is greeting,,,,,,
null,"<div style=""font-size:60px;"">+</div>",,html-keyboard-response,258,2191152,0.0-17.0-0.8,52082,List2B,black,man,,,,null,,,,,,,,,
null,"<img src=""stim_listB/greet6.gif""style=""height:400px;""></stim_listB>",,html-keyboard-response,259,2193174,0.0-17.0-1.8,52082,List2B,black,man,,,,null,,,,,,,,,
null,is being greeted by,,html-keyboard-response,260,2195187,0.0-17.0-2.8,52082,List2B,black,man,,,,null,,,,,,,,,
12948.5,,,survey-text,261,2208151,0.0-17.0-3.8,52082,List2B,black,man,,,,,"{""Q0"":""mike is being greeted by luke""}","<img src=""stim_listB/greet6.gif""style=""height:400px;""></stim_listB>",is being greeted by,,,,,,
null,"<div style=""font-size:60px;"">+</div>",,html-keyboard-response,262,2208657,0.0-17.0-0.9,52082,List2B,black,man,,,,null,,,,,,,,,
null,"<img src=""stim_listB/oppose8.gif""style=""height:400px;""></stim_listB>",,html-keyboard-response,263,2210668,0.0-17.0-1.9,52082,List2B,black,man,,,,null,,,,,,,,,
null,is being opposed by,,html-keyboard-response,264,2212686,0.0-17.0-2.9,52082,List2B,black,man,,,,null,,,,,,,,,
16697.9,,,survey-text,265,2229399,0.0-17.0-3.9,52082,List2B,black,man,,,,,"{""Q0"":""ruth is being opposed by beth""}","<img src=""stim_listB/oppose8.gif""style=""height:400px;""></stim_listB>",is being opposed by,,,,,,
null,"<div style=""font-size:60px;"">+</div>",,html-keyboard-response,266,2229914,0.0-17.0-0.10,52082,List2B,black,man,,,,null,,,,,,,,,
null,"<img src=""stim_listB/hug4.gif""style=""height:400px;""></stim_listB>",,html-keyboard-response,267,2231924,0.0-17.0-1.10,52082,List2B,black,man,,,,null,,,,,,,,,
null,is being hugged by,,html-keyboard-response,268,2233945,0.0-17.0-2.10,52082,List2B,black,man,,,,null,,,,,,,,,
12709.3,,,survey-text,269,2246671,0.0-17.0-3.10,52082,List2B,black,man,,,,,"{""Q0"":""kate is being hugged by mike""}","<img src=""stim_listB/hug4.gif""style=""height:400px;""></stim_listB>",is being hugged by,,,,,,
null,"<div style=""font-size:60px;"">+</div>",,html-keyboard-response,270,2247184,0.0-17.0-0.11,52082,List2B,black,man,,,,null,,,,,,,,,
null,"<img src=""stim_listB/greet5.gif""style=""height:400px;""></stim_listB>",,html-keyboard-response,271,2249198,0.0-17.0-1.11,52082,List2B,black,man,,,,null,,,,,,,,,
null,is greeting,,html-keyboard-response,272,2251209,0.0-17.0-2.11,52082,List2B,black,man,,,,null,,,,,,,,,
23851,,,survey-text,273,2275076,0.0-17.0-3.11,52082,List2B,black,man,,,,,"{""Q0"":""dave is greeting fred'""}","<img src=""stim_listB/greet5.gif""style=""height:400px;""></stim_listB>",is greeting,,,,,,
null,"<div style=""font-size:60px;"">+</div>",,html-keyboard-response,274,2275583,0.0-17.0-0.12,52082,List2B,black,man,,,,null,,,,,,,,,
null,"<img src=""stim_listB/copy1.gif""style=""height:400px;""></stim_listB>",,html-keyboard-response,275,2277604,0.0-17.0-1.12,52082,List2B,black,man,,,,null,,,,,,,,,
null,is copying,,html-keyboard-response,276,2279614,0.0-17.0-2.12,52082,List2B,black,man,,,,null,,,,,,,,,
13331.3,,,survey-text,277,2292960,0.0-17.0-3.12,52082,List2B,black,man,,,,,"{""Q0"":""dave is copying ruth""}","<img src=""stim_listB/copy1.gif""style=""height:400px;""></stim_listB>",is copying,,,,,,
null,"<div style=""font-size:60px;"">+</div>",,html-keyboard-response,278,2293477,0.0-17.0-0.13,52082,List2B,black,man,,,,null,,,,,,,,,
null,"<img src=""stim_listB/seduce4.gif""style=""height:400px;""></stim_listB>",,html-keyboard-response,279,2295501,0.0-17.0-1.13,52082,List2B,black,man,,,,null,,,,,,,,,
null,is being seduced by,,html-keyboard-response,280,2297517,0.0-17.0-2.13,52082,List2B,black,man,,,,null,,,,,,,,,
20981,,,survey-text,281,2318511,0.0-17.0-3.13,52082,List2B,black,man,,,,,"{""Q0"":""beth is being seduced by mike""}","<img src=""stim_listB/seduce4.gif""style=""height:400px;""></stim_listB>",is being seduced by,,,,,,
null,"<div style=""font-size:60px;"">+</div>",,html-keyboard-response,282,2319017,0.0-17.0-0.14,52082,List2B,black,man,,,,null,,,,,,,,,
null,"<img src=""stim_listB/touch1.gif""style=""height:400px;""></stim_listB>",,html-keyboard-response,283,2321041,0.0-17.0-1.14,52082,List2B,black,man,,,,null,,,,,,,,,
null,is touching,,html-keyboard-response,284,2323053,0.0-17.0-2.14,52082,List2B,black,man,,,,null,,,,,,,,,
12459.8,,,survey-text,285,2335530,0.0-17.0-3.14,52082,List2B,black,man,,,,,"{""Q0"":""dave is touching  jane""}","<img src=""stim_listB/touch1.gif""style=""height:400px;""></stim_listB>",is touching,,,,,,
null,"<div style=""font-size:60px;"">+</div>",,html-keyboard-response,286,2336037,0.0-17.0-0.15,52082,List2B,black,man,,,,null,,,,,,,,,
null,"<img src=""stim_listB/oppose2.gif""style=""height:400px;""></stim_listB>",,html-keyboard-response,287,2338057,0.0-17.0-1.15,52082,List2B,black,man,,,,null,,,,,,,,,
null,is being opposed by,,html-keyboard-response,288,2340070,0.0-17.0-2.15,52082,List2B,black,man,,,,null,,,,,,,,,
20985.6,,,survey-text,289,2361072,0.0-17.0-3.15,52082,List2B,black,man,,,,,"{""Q0"":""ruth is being opposed by luke""}","<img src=""stim_listB/oppose2.gif""style=""height:400px;""></stim_listB>",is being opposed by,,,,,,
null,"<div style=""font-size:60px;"">+</div>",,html-keyboard-response,290,2361585,0.0-17.0-0.16,52082,List2B,black,man,,,,null,,,,,,,,,
null,"<img src=""stim_listB/shout1.gif""style=""height:400px;""></stim_listB>",,html-keyboard-response,291,2363595,0.0-17.0-1.16,52082,List2B,black,man,,,,null,,,,,,,,,
null,is shouting at,,html-keyboard-response,292,2365606,0.0-17.0-2.16,52082,List2B,black,man,,,,null,,,,,,,,,
14840.1,,,survey-text,293,2380460,0.0-17.0-3.16,52082,List2B,black,man,,,,,"{""Q0"":""ruth is shouting at luke""}","<img src=""stim_listB/shout1.gif""style=""height:400px;""></stim_listB>",is shouting at,,,,,,
null,"<div style=""font-size:60px;"">+</div>",,html-keyboard-response,294,2380967,0.0-17.0-0.17,52082,List2B,black,man,,,,null,,,,,,,,,
null,"<img src=""stim_listB/challenge6.gif""style=""height:400px;""></stim_listB>",,html-keyboard-response,295,2382982,0.0-17.0-1.17,52082,List2B,black,man,,,,null,,,,,,,,,
null,is being challenged by,,html-keyboard-response,296,2384996,0.0-17.0-2.17,52082,List2B,black,man,,,,null,,,,,,,,,
18550.3,,,survey-text,297,2403561,0.0-17.0-3.17,52082,List2B,black,man,,,,,"{""Q0"":""mike is being challenged by luke""}","<img src=""stim_listB/challenge6.gif""style=""height:400px;""></stim_listB>",is being challenged by,,,,,,
null,"<div style=""font-size:60px;"">+</div>",,html-keyboard-response,298,2404077,0.0-17.0-0.18,52082,List2B,black,man,,,,null,,,,,,,,,
null,"<img src=""stim_listB/copy7.gif""style=""height:400px;""></stim_listB>",,html-keyboard-response,299,2406088,0.0-17.0-1.18,52082,List2B,black,man,,,,null,,,,,,,,,
null,is copying,,html-keyboard-response,300,2408097,0.0-17.0-2.18,52082,List2B,black,man,,,,null,,,,,,,,,
9377.9,,,survey-text,301,2417493,0.0-17.0-3.18,52082,List2B,black,man,,,,,"{""Q0"":""beth is copying jane""}","<img src=""stim_listB/copy7.gif""style=""height:400px;""></stim_listB>",is copying,,,,,,
null,"<div style=""font-size:60px;"">+</div>",,html-keyboard-response,302,2418001,0.0-17.0-0.19,52082,List2B,black,man,,,,null,,,,,,,,,
null,"<img src=""stim_listB/greet2.gif""style=""height:400px;""></stim_listB>",,html-keyboard-response,303,2420022,0.0-17.0-1.19,52082,List2B,black,man,,,,null,,,,,,,,,
null,is being greeted by,,html-keyboard-response,304,2422028,0.0-17.0-2.19,52082,List2B,black,man,,,,null,,,,,,,,,
14172,,,survey-text,305,2436214,0.0-17.0-3.19,52082,List2B,black,man,,,,,"{""Q0"":""luke is being greeted by jane""}","<img src=""stim_listB/greet2.gif""style=""height:400px;""></stim_listB>",is being greeted by,,,,,,
4380.6,"<img src='img/portrait_matrix_list2.jpg' style='width:900px;height:500px;''></img><p>If you have memorised all the portraits and names and are ready to start, press Continue.</p><p><strong>Please note: Your memory of these faces will be tested 4 times during this experiment.</strong></p>",0,html-button-response,306,2440600,0.0-18.0-0.0,52082,List2B,black,man,,,,,,,,,,,,,
1808.9,"<img src=""portrait/WW2.jpg""style=""height:400px;""></img>",3,html-button-response,307,2443424,0.0-18.0-1.0,52082,List2B,black,man,,TRUE,3,,,,,,,,,,
null,CORRECT,,html-keyboard-response,308,2444943,0.0-18.0-2.0-0.0,52082,List2B,black,man,,,,null,,,,,,,,,
3006.6,"<img src=""portrait/BW2.jpg""style=""height:400px;""></img>",2,html-button-response,309,2447957,0.0-18.0-4.0,52082,List2B,black,man,,TRUE,2,,,,,,,,,,
null,CORRECT,,html-keyboard-response,310,2449469,0.0-18.0-5.0-0.0,52082,List2B,black,man,,,,null,,,,,,,,,
3068.6,"<img src=""portrait/BW1.jpg""style=""height:400px;""></img>",0,html-button-response,311,2452545,0.0-18.0-7.0,52082,List2B,black,man,,TRUE,0,,,,,,,,,,
null,CORRECT,,html-keyboard-response,312,2454060,0.0-18.0-8.0-0.0,52082,List2B,black,man,,,,null,,,,,,,,,
1729.7,"<img src=""portrait/WM2.jpg""style=""height:400px;""></img>",7,html-button-response,313,2455798,0.0-18.0-10.0,52082,List2B,black,man,,TRUE,7,,,,,,,,,,
null,CORRECT,,html-keyboard-response,314,2457319,0.0-18.0-11.0-0.0,52082,List2B,black,man,,,,null,,,,,,,,,
2584.7,"<img src=""portrait/WM1.jpg""style=""height:400px;""></img>",6,html-button-response,315,2459911,0.0-18.0-13.0,52082,List2B,black,man,,TRUE,6,,,,,,,,,,
null,CORRECT,,html-keyboard-response,316,2461433,0.0-18.0-14.0-0.0,52082,List2B,black,man,,,,null,,,,,,,,,
1957.5,"<img src=""portrait/BM1.jpg""style=""height:400px;""></img>",4,html-button-response,317,2463398,0.0-18.0-16.0,52082,List2B,black,man,,TRUE,4,,,,,,,,,,
null,CORRECT,,html-keyboard-response,318,2464912,0.0-18.0-17.0-0.0,52082,List2B,black,man,,,,null,,,,,,,,,
1979.8,"<img src=""portrait/WW1.jpg""style=""height:400px;""></img>",1,html-button-response,319,2466901,0.0-18.0-19.0,52082,List2B,black,man,,TRUE,1,,,,,,,,,,
null,CORRECT,,html-keyboard-response,320,2468419,0.0-18.0-20.0-0.0,52082,List2B,black,man,,,,null,,,,,,,,,
1824.9,"<img src=""portrait/BM2.jpg""style=""height:400px;""></img>",5,html-button-response,321,2470252,0.0-18.0-22.0,52082,List2B,black,man,,TRUE,5,,,,,,,,,,
null,CORRECT,,html-keyboard-response,322,2471773,0.0-18.0-23.0-0.0,52082,List2B,black,man,,,,null,,,,,,,,,
1395.4,<p>You got 8 out of 8 right first time. Press Continue.</p>,0,html-button-response,323,2473176,0.0-18.0-25.0,52082,List2B,black,man,,,,,,,,,,,,,
null,"<div style=""font-size:60px;"">+</div>",,html-keyboard-response,324,2474693,0.0-19.0-0.0,52082,List2B,black,man,,,,null,,,,,,,,,
null,"<img src=""stim_listB/hug7.gif""style=""height:400px;""></stim_listB>",,html-keyboard-response,325,2476717,0.0-19.0-1.0,52082,List2B,black,man,,,,null,,,,,,,,,
null,is hugging,,html-keyboard-response,326,2478723,0.0-19.0-2.0,52082,List2B,black,man,,,,null,,,,,,,,,
10257.8,,,survey-text,327,2488995,0.0-19.0-3.0,52082,List2B,black,man,,,,,"{""Q0"":""ruth is hugging beth""}","<img src=""stim_listB/hug7.gif""style=""height:400px;""></stim_listB>",is hugging,,,,,,
null,"<div style=""font-size:60px;"">+</div>",,html-keyboard-response,328,2489507,0.0-19.0-0.1,52082,List2B,black,man,,,,null,,,,,,,,,
null,"<img src=""stim_listB/copy5.gif""style=""height:400px;""></stim_listB>",,html-keyboard-response,329,2491527,0.0-19.0-1.1,52082,List2B,black,man,,,,null,,,,,,,,,
null,is copying,,html-keyboard-response,330,2493532,0.0-19.0-2.1,52082,List2B,black,man,,,,null,,,,,,,,,
10153.3,,,survey-text,331,2503700,0.0-19.0-3.1,52082,List2B,black,man,,,,,"{""Q0"":""dave is copying fred""}","<img src=""stim_listB/copy5.gif""style=""height:400px;""></stim_listB>",is copying,,,,,,
null,"<div style=""font-size:60px;"">+</div>",,html-keyboard-response,332,2504216,0.0-19.0-0.2,52082,List2B,black,man,,,,null,,,,,,,,,
null,"<img src=""stim_listB/challenge2.gif""style=""height:400px;""></stim_listB>",,html-keyboard-response,333,2506235,0.0-19.0-1.2,52082,List2B,black,man,,,,null,,,,,,,,,
null,is being challenged by,,html-keyboard-response,334,2508242,0.0-19.0-2.2,52082,List2B,black,man,,,,null,,,,,,,,,
18917.1,,,survey-text,335,2527176,0.0-19.0-3.2,52082,List2B,black,man,,,,,"{""Q0"":""jane is being challenged by luke ""}","<img src=""stim_listB/challenge2.gif""style=""height:400px;""></stim_listB>",is being challenged by,,,,,,
null,"<div style=""font-size:60px;"">+</div>",,html-keyboard-response,336,2527692,0.0-19.0-0.3,52082,List2B,black,man,,,,null,,,,,,,,,
null,"<img src=""stim_listB/shout6.gif""style=""height:400px;""></stim_listB>",,html-keyboard-response,337,2529713,0.0-19.0-1.3,52082,List2B,black,man,,,,null,,,,,,,,,
null,is being shouted at by,,html-keyboard-response,338,2531729,0.0-19.0-2.3,52082,List2B,black,man,,,,null,,,,,,,,,
11885.1,,,survey-text,339,2543631,0.0-19.0-3.3,52082,List2B,black,man,,,,,"{""Q0"":""mike is being shouted at by dave""}","<img src=""stim_listB/shout6.gif""style=""height:400px;""></stim_listB>",is being shouted at by,,,,,,
null,"<div style=""font-size:60px;"">+</div>",,html-keyboard-response,340,2544142,0.0-19.0-0.4,52082,List2B,black,man,,,,null,,,,,,,,,
null,"<img src=""stim_listB/touch4.gif""style=""height:400px;""></stim_listB>",,html-keyboard-response,341,2546153,0.0-19.0-1.4,52082,List2B,black,man,,,,null,,,,,,,,,
null,is being touched by,,html-keyboard-response,342,2548159,0.0-19.0-2.4,52082,List2B,black,man,,,,null,,,,,,,,,
11080.5,,,survey-text,343,2559256,0.0-19.0-3.4,52082,List2B,black,man,,,,,"{""Q0"":""beth is being touched by fred""}","<img src=""stim_listB/touch4.gif""style=""height:400px;""></stim_listB>",is being touched by,,,,,,
null,"<div style=""font-size:60px;"">+</div>",,html-keyboard-response,344,2559763,0.0-19.0-0.5,52082,List2B,black,man,,,,null,,,,,,,,,
null,"<img src=""stim_listB/hug8.gif""style=""height:400px;""></stim_listB>",,html-keyboard-response,345,2561786,0.0-19.0-1.5,52082,List2B,black,man,,,,null,,,,,,,,,
null,is being hugged by,,html-keyboard-response,346,2563795,0.0-19.0-2.5,52082,List2B,black,man,,,,null,,,,,,,,,
13179.3,,,survey-text,347,2576992,0.0-19.0-3.5,52082,List2B,black,man,,,,,"{""Q0"":""kate is being hugged by jane""}","<img src=""stim_listB/hug8.gif""style=""height:400px;""></stim_listB>",is being hugged by,,,,,,
null,"<div style=""font-size:60px;"">+</div>",,html-keyboard-response,348,2577509,0.0-19.0-0.6,52082,List2B,black,man,,,,null,,,,,,,,,
null,"<img src=""stim_listB/touch2.gif""style=""height:400px;""></stim_listB>",,html-keyboard-response,349,2579525,0.0-19.0-1.6,52082,List2B,black,man,,,,null,,,,,,,,,
null,is being touched by,,html-keyboard-response,350,2581537,0.0-19.0-2.6,52082,List2B,black,man,,,,null,,,,,,,,,
17139.7,,,survey-text,351,2598693,0.0-19.0-3.6,52082,List2B,black,man,,,,,"{""Q0"":""ruth is being touched by luke""}","<img src=""stim_listB/touch2.gif""style=""height:400px;""></stim_listB>",is being touched by,,,,,,
null,"<div style=""font-size:60px;"">+</div>",,html-keyboard-response,352,2599207,0.0-19.0-0.7,52082,List2B,black,man,,,,null,,,,,,,,,
null,"<img src=""stim_listB/challenge3.gif""style=""height:400px;""></stim_listB>",,html-keyboard-response,353,2601228,0.0-19.0-1.7,52082,List2B,black,man,,,,null,,,,,,,,,
null,is challenging,,html-keyboard-response,354,2603242,0.0-19.0-2.7,52082,List2B,black,man,,,,null,,,,,,,,,
9612.1,,,survey-text,355,2612870,0.0-19.0-3.7,52082,List2B,black,man,,,,,"{""Q0"":""mike is challenging beth""}","<img src=""stim_listB/challenge3.gif""style=""height:400px;""></stim_listB>",is challenging,,,,,,
null,"<div style=""font-size:60px;"">+</div>",,html-keyboard-response,356,2613388,0.0-19.0-0.8,52082,List2B,black,man,,,,null,,,,,,,,,
null,"<img src=""stim_listB/look2.gif""style=""height:400px;""></stim_listB>",,html-keyboard-response,357,2615414,0.0-19.0-1.8,52082,List2B,black,man,,,,null,,,,,,,,,
null,is being looked at by,,html-keyboard-response,358,2617427,0.0-19.0-2.8,52082,List2B,black,man,,,,null,,,,,,,,,
12934.1,,,survey-text,359,2630379,0.0-19.0-3.8,52082,List2B,black,man,,,,,"{""Q0"":""dave is being looked at by kate""}","<img src=""stim_listB/look2.gif""style=""height:400px;""></stim_listB>",is being looked at by,,,,,,
null,"<div style=""font-size:60px;"">+</div>",,html-keyboard-response,360,2630887,0.0-19.0-0.9,52082,List2B,black,man,,,,null,,,,,,,,,
null,"<img src=""stim_listB/hug6.gif""style=""height:400px;""></stim_listB>",,html-keyboard-response,361,2632904,0.0-19.0-1.9,52082,List2B,black,man,,,,null,,,,,,,,,
null,is being hugged by,,html-keyboard-response,362,2634913,0.0-19.0-2.9,52082,List2B,black,man,,,,null,,,,,,,,,
13127.4,,,survey-text,363,2648056,0.0-19.0-3.9,52082,List2B,black,man,,,,,"{""Q0"":""mike is being hugged by dave""}","<img src=""stim_listB/hug6.gif""style=""height:400px;""></stim_listB>",is being hugged by,,,,,,
null,"<div style=""font-size:60px;"">+</div>",,html-keyboard-response,364,2648567,0.0-19.0-0.10,52082,List2B,black,man,,,,null,,,,,,,,,
null,"<img src=""stim_listB/look8.gif""style=""height:400px;""></stim_listB>",,html-keyboard-response,365,2650587,0.0-19.0-1.10,52082,List2B,black,man,,,,null,,,,,,,,,
null,is being looked at by,,html-keyboard-response,366,2652602,0.0-19.0-2.10,52082,List2B,black,man,,,,null,,,,,,,,,
12794.9,,,survey-text,367,2665413,0.0-19.0-3.10,52082,List2B,black,man,,,,,"{""Q0"":""jane is being looked at by kate""}","<img src=""stim_listB/look8.gif""style=""height:400px;""></stim_listB>",is being looked at by,,,,,,
null,"<div style=""font-size:60px;"">+</div>",,html-keyboard-response,368,2665932,0.0-19.0-0.11,52082,List2B,black,man,,,,null,,,,,,,,,
null,"<img src=""stim_listB/copy6.gif""style=""height:400px;""></stim_listB>",,html-keyboard-response,369,2667947,0.0-19.0-1.11,52082,List2B,black,man,,,,null,,,,,,,,,
null,is being copied by,,html-keyboard-response,370,2669952,0.0-19.0-2.11,52082,List2B,black,man,,,,null,,,,,,,,,
13531.4,,,survey-text,371,2683498,0.0-19.0-3.11,52082,List2B,black,man,,,,,"{""Q0"":""luke is being copied by mike""}","<img src=""stim_listB/copy6.gif""style=""height:400px;""></stim_listB>",is being copied by,,,,,,
null,"<div style=""font-size:60px;"">+</div>",,html-keyboard-response,372,2684004,0.0-19.0-0.12,52082,List2B,black,man,,,,null,,,,,,,,,
null,"<img src=""stim_listB/oppose1.gif""style=""height:400px;""></stim_listB>",,html-keyboard-response,373,2686014,0.0-19.0-1.12,52082,List2B,black,man,,,,null,,,,,,,,,
null,is opposing,,html-keyboard-response,374,2688024,0.0-19.0-2.12,52082,List2B,black,man,,,,null,,,,,,,,,
14340.7,,,survey-text,375,2702380,0.0-19.0-3.12,52082,List2B,black,man,,,,,"{""Q0"":""jane is opposing dave""}","<img src=""stim_listB/oppose1.gif""style=""height:400px;""></stim_listB>",is opposing,,,,,,
null,"<div style=""font-size:60px;"">+</div>",,html-keyboard-response,376,2702894,0.0-19.0-0.13,52082,List2B,black,man,,,,null,,,,,,,,,
null,"<img src=""stim_listB/challenge5.gif""style=""height:400px;""></stim_listB>",,html-keyboard-response,377,2704908,0.0-19.0-1.13,52082,List2B,black,man,,,,null,,,,,,,,,
null,is challenging,,html-keyboard-response,378,2706923,0.0-19.0-2.13,52082,List2B,black,man,,,,null,,,,,,,,,
11552.4,,,survey-text,379,2718490,0.0-19.0-3.13,52082,List2B,black,man,,,,,"{""Q0"":""dave is challenging fred""}","<img src=""stim_listB/challenge5.gif""style=""height:400px;""></stim_listB>",is challenging,,,,,,
null,"<div style=""font-size:60px;"">+</div>",,html-keyboard-response,380,2718995,0.0-19.0-0.14,52082,List2B,black,man,,,,null,,,,,,,,,
null,"<img src=""stim_listB/oppose3.gif""style=""height:400px;""></stim_listB>",,html-keyboard-response,381,2721015,0.0-19.0-1.14,52082,List2B,black,man,,,,null,,,,,,,,,
null,is opposing,,html-keyboard-response,382,2723032,0.0-19.0-2.14,52082,List2B,black,man,,,,null,,,,,,,,,
20080.1,,,survey-text,383,2743128,0.0-19.0-3.14,52082,List2B,black,man,,,,,"{""Q0"":""mike is opposing kate""}","<img src=""stim_listB/oppose3.gif""style=""height:400px;""></stim_listB>",is opposing,,,,,,
null,"<div style=""font-size:60px;"">+</div>",,html-keyboard-response,384,2743645,0.0-19.0-0.15,52082,List2B,black,man,,,,null,,,,,,,,,
null,"<img src=""stim_listB/seduce6.gif""style=""height:400px;""></stim_listB>",,html-keyboard-response,385,2745670,0.0-19.0-1.15,52082,List2B,black,man,,,,null,,,,,,,,,
null,is being seduced by,,html-keyboard-response,386,2747689,0.0-19.0-2.15,52082,List2B,black,man,,,,null,,,,,,,,,
15768.1,,,survey-text,387,2763475,0.0-19.0-3.15,52082,List2B,black,man,,,,,"{""Q0"":""fred is being seduced by dave""}","<img src=""stim_listB/seduce6.gif""style=""height:400px;""></stim_listB>",is being seduced by,,,,,,
null,"<div style=""font-size:60px;"">+</div>",,html-keyboard-response,388,2763996,0.0-19.0-0.16,52082,List2B,black,man,,,,null,,,,,,,,,
null,"<img src=""stim_listB/seduce3.gif""style=""height:400px;""></stim_listB>",,html-keyboard-response,389,2766017,0.0-19.0-1.16,52082,List2B,black,man,,,,null,,,,,,,,,
null,is seducing,,html-keyboard-response,390,2768025,0.0-19.0-2.16,52082,List2B,black,man,,,,null,,,,,,,,,
10445.5,,,survey-text,391,2778497,0.0-19.0-3.16,52082,List2B,black,man,,,,,"{""Q0"":""fred is seducing kate""}","<img src=""stim_listB/seduce3.gif""style=""height:400px;""></stim_listB>",is seducing,,,,,,
null,"<div style=""font-size:60px;"">+</div>",,html-keyboard-response,392,2779005,0.0-19.0-0.17,52082,List2B,black,man,,,,null,,,,,,,,,
null,"<img src=""stim_listB/greet1.gif""style=""height:400px;""></stim_listB>",,html-keyboard-response,393,2781024,0.0-19.0-1.17,52082,List2B,black,man,,,,null,,,,,,,,,
null,is greeting,,html-keyboard-response,394,2783030,0.0-19.0-2.17,52082,List2B,black,man,,,,null,,,,,,,,,
9362.1,,,survey-text,395,2792407,0.0-19.0-3.17,52082,List2B,black,man,,,,,"{""Q0"":""dave is greeting luke""}","<img src=""stim_listB/greet1.gif""style=""height:400px;""></stim_listB>",is greeting,,,,,,
null,"<div style=""font-size:60px;"">+</div>",,html-keyboard-response,396,2792925,0.0-19.0-0.18,52082,List2B,black,man,,,,null,,,,,,,,,
null,"<img src=""stim_listB/shout4.gif""style=""height:400px;""></stim_listB>",,html-keyboard-response,397,2794947,0.0-19.0-1.18,52082,List2B,black,man,,,,null,,,,,,,,,
null,is being shouted at by,,html-keyboard-response,398,2796963,0.0-19.0-2.18,52082,List2B,black,man,,,,null,,,,,,,,,
14268.3,,,survey-text,399,2811248,0.0-19.0-3.18,52082,List2B,black,man,,,,,"{""Q0"":""mike is being shouted at by kate""}","<img src=""stim_listB/shout4.gif""style=""height:400px;""></stim_listB>",is being shouted at by,,,,,,
null,"<div style=""font-size:60px;"">+</div>",,html-keyboard-response,400,2811758,0.0-19.0-0.19,52082,List2B,black,man,,,,null,,,,,,,,,
null,"<img src=""stim_listB/copy4.gif""style=""height:400px;""></stim_listB>",,html-keyboard-response,401,2813771,0.0-19.0-1.19,52082,List2B,black,man,,,,null,,,,,,,,,
null,is being copied by,,html-keyboard-response,402,2815789,0.0-19.0-2.19,52082,List2B,black,man,,,,null,,,,,,,,,
11008.2,,,survey-text,403,2826815,0.0-19.0-3.19,52082,List2B,black,man,,,,,"{""Q0"":""kate is being copied by fred""}","<img src=""stim_listB/copy4.gif""style=""height:400px;""></stim_listB>",is being copied by,,,,,,
4414.7,<p>Thank you for completing that task.</p><p>The final part of this session is a questionnaire that will take about 4 minutes.</p><p>Press Continue.</p>,0,html-button-response,404,2831234,0.0-20.0,52082,List2B,black,man,,,,,,,,,,,,,
67118.5,,,survey-text,405,2899406,0.0-21.0,52082,List2B,black,man,,,,,"{""Q0"":""39"",""Q1"":""English"",""Q2"":""English"",""Q3"":""USA"",""Q4"":""American"",""Q5"":""Black American"",""Q6"":""Male""}",,,demographics,,,,,
2940.9,<p>Have you lived in the USA for the last 5 years or more?</p>,0,html-button-response,406,2902357,0.0-22.0,52082,List2B,black,man,,,,,,,,fiveyears,,,,,
2986.2,<p>Move the slider to show the extent to which you agree with the following statements.</p>,0,html-button-response,407,2906365,0.0-23.0,52082,List2B,black,man,,,,,,,,,,,,,
5818.2,,,html-slider-response,408,2913211,0.0-24.0-0.0-0.0,52082,List2B,black,man,,,,,,,,survey_race,66,,,I feel solidarity with people the same age as me.,filler
9903.9,,,html-slider-response,409,2923122,0.0-24.0-0.0-0.1,52082,List2B,black,man,,,,,,,,survey_race,38,,,I am similar to the average person of my race.,similar
5641.7,,,html-slider-response,410,2928769,0.0-24.0-0.0-0.2,52082,List2B,black,man,,,,,,,,survey_race,60,,,I consider myself an extrovert.,filler
4430.8,,,html-slider-response,411,2933206,0.0-24.0-0.0-0.3,52082,List2B,black,man,,,,,,,,survey_race,54,,,People of my race have a lot in common with each other.,common
5383.2,,,html-slider-response,412,2938595,0.0-24.0-0.0-0.4,52082,List2B,black,man,,,,,,,,survey_race,95,,,I feel solidarity with my race.,solidarity
4973.8,,,html-slider-response,413,2943574,0.0-24.0-0.0-0.5,52082,List2B,black,man,,,,,,,,survey_race,69,,,I am glad to be my race.,glad
3939.7,,,html-slider-response,414,2947519,0.0-24.0-0.0-0.6,52082,List2B,black,man,,,,,,,,survey_race,72,,,I feel a bond with people the same age as me.,filler
4172.7,,,html-slider-response,415,2951698,0.0-24.0-0.0-0.7,52082,List2B,black,man,,,,,,,,survey_race,67,,,I have a lot in common with the average person of my race.,average
4638.7,,,html-slider-response,416,2956342,0.0-24.0-0.0-0.8,52082,List2B,black,man,,,,,,,,survey_race,65,,,Getting older does not worry me.,filler
8782.7,,,html-slider-response,417,2965130,0.0-24.0-0.0-0.9,52082,List2B,black,man,,,,,,,,survey_race,39,,,I have a lot in common with people of a similar age to me.,filler
9879.4,,,html-slider-response,418,2975016,0.0-24.0-0.0-0.10,52082,List2B,black,man,,,,,,,,survey_race,43,,,I often think about the fact that I am my age.,filler
5990.6,,,html-slider-response,419,2981013,0.0-24.0-0.0-0.11,52082,List2B,black,man,,,,,,,,survey_race,61,,,Being my race gives me a good feeling.,feeling
4473.8,,,html-slider-response,420,2985492,0.0-24.0-0.0-0.12,52082,List2B,black,man,,,,,,,,survey_race,66,,,I often think about the fact that I am my race.,often
3345.4,,,html-slider-response,421,2988843,0.0-24.0-0.0-0.13,52082,List2B,black,man,,,,,,,,survey_race,90,,,I think that my race has a lot to be proud of.,proud
3065.5,,,html-slider-response,422,2991913,0.0-24.0-0.0-0.14,52082,List2B,black,man,,,,,,,,survey_race,42,,,I enjoy being in large groups.,filler
3549.3,,,html-slider-response,423,2995468,0.0-24.0-0.0-0.15,52082,List2B,black,man,,,,,,,,survey_race,19,,,I consider myself an introvert.,filler
3400,,,html-slider-response,424,2998873,0.0-24.0-0.0-0.16,52082,List2B,black,man,,,,,,,,survey_race,82,,,I am glad to be my age.,filler
5314.8,,,html-slider-response,425,3004191,0.0-24.0-0.0-0.17,52082,List2B,black,man,,,,,,,,survey_race,54,,,Being my age gives me a good feeling.,filler
4361,,,html-slider-response,426,3008558,0.0-24.0-0.0-0.18,52082,List2B,black,man,,,,,,,,survey_race,81,,,I am glad to be the age I am.,filler
8263,,,html-slider-response,427,3016826,0.0-24.0-0.0-0.19,52082,List2B,black,man,,,,,,,,survey_race,52,,,People my age have a lot in common with each other.,filler
3375.5,,,html-slider-response,428,3020206,0.0-24.0-0.0-0.20,52082,List2B,black,man,,,,,,,,survey_race,84,,,"The older I get, the wiser I feel.",filler
6006.4,,,html-slider-response,429,3026217,0.0-24.0-0.0-0.21,52082,List2B,black,man,,,,,,,,survey_race,100,,,The fact that I am my race is an important part of my identity.,identity
4799.4,,,html-slider-response,430,3031023,0.0-24.0-0.0-0.22,52082,List2B,black,man,,,,,,,,survey_race,96,,,It is pleasant to be my race.,pleasant
6680.5,,,html-slider-response,431,3037709,0.0-24.0-0.0-0.23,52082,List2B,black,man,,,,,,,,survey_race,100,,,I feel a bond with my race.,bond
5773.8,,,html-slider-response,432,3043488,0.0-24.0-0.0-0.24,52082,List2B,black,man,,,,,,,,survey_race,53,,,People of my race are very similar to each other.,verysimilar
4396.7,,,html-slider-response,433,3047890,0.0-24.0-0.0-0.25,52082,List2B,black,man,,,,,,,,survey_race,26,,,My age is not an important part of who I am.,filler
3627.6,,,html-slider-response,434,3051525,0.0-24.0-0.0-0.26,52082,List2B,black,man,,,,,,,,survey_race,100,,,I feel committed to my race.,committed
4438.4,,,html-slider-response,435,3055970,0.0-24.0-0.0-0.27,52082,List2B,black,man,,,,,,,,survey_race,100,,,Being my race is an important part of how I see myself.,important
9093.6,,,html-slider-response,436,3065068,0.0-24.0-1.0-0.0,52082,List2B,black,man,,,,,,,,survey_gender,100,,,I am glad to be my gender.,glad
3852.2,,,html-slider-response,437,3068925,0.0-24.0-1.0-0.1,52082,List2B,black,man,,,,,,,,survey_gender,100,,,I think that my gender has a lot to be proud of.,proud
2824.1,,,html-slider-response,438,3071753,0.0-24.0-1.0-0.2,52082,List2B,black,man,,,,,,,,survey_gender,77,,,The fact that I am my gender is an important part of my identity.,identity
2928.2,,,html-slider-response,439,3074686,0.0-24.0-1.0-0.3,52082,List2B,black,man,,,,,,,,survey_gender,94,,,I feel a bond with my gender.,bond
4097.8,,,html-slider-response,440,3078787,0.0-24.0-1.0-0.4,52082,List2B,black,man,,,,,,,,survey_gender,100,,,It is pleasant to be my gender.,pleasant
3978.8,,,html-slider-response,441,3082771,0.0-24.0-1.0-0.5,52082,List2B,black,man,,,,,,,,survey_gender,58,,,I have a lot in common with my friends.,filler
2802.2,,,html-slider-response,442,3085579,0.0-24.0-1.0-0.6,52082,List2B,black,man,,,,,,,,survey_gender,73,,,Being around my friends gives me a good feeling.,filler
4486.8,,,html-slider-response,443,3090070,0.0-24.0-1.0-0.7,52082,List2B,black,man,,,,,,,,survey_gender,47,,,People of my gender are very similar to each other.,verysimilar
4569.2,,,html-slider-response,444,3094646,0.0-24.0-1.0-0.8,52082,List2B,black,man,,,,,,,,survey_gender,83,,,It is not always easy for people to know what I am thinking.,filler
5665.8,,,html-slider-response,445,3100317,0.0-24.0-1.0-0.9,52082,List2B,black,man,,,,,,,,survey_gender,100,,,I feel committed to my gender.,committed
3741.1,,,html-slider-response,446,3104064,0.0-24.0-1.0-0.10,52082,List2B,black,man,,,,,,,,survey_gender,100,,,I feel solidarity with my gender.,solidarity
4694.7,,,html-slider-response,447,3108764,0.0-24.0-1.0-0.11,52082,List2B,black,man,,,,,,,,survey_gender,40,,,Most of the friends in my life are very similar to me.,filler
4413.3,,,html-slider-response,448,3113183,0.0-24.0-1.0-0.12,52082,List2B,black,man,,,,,,,,survey_gender,30,,,I am similar to the average person of my gender.,similar
5051.7,,,html-slider-response,449,3118241,0.0-24.0-1.0-0.13,52082,List2B,black,man,,,,,,,,survey_gender,16,,,I have a lot in common with the average person of my gender.,average
3338.1,,,html-slider-response,450,3121584,0.0-24.0-1.0-0.14,52082,List2B,black,man,,,,,,,,survey_gender,100,,,I feel solidarity with my friends.,filler
3543.9,,,html-slider-response,451,3125134,0.0-24.0-1.0-0.15,52082,List2B,black,man,,,,,,,,survey_gender,53,,,I consider myself a highly empathetic person.,filler
2806.6,,,html-slider-response,452,3127945,0.0-24.0-1.0-0.16,52082,List2B,black,man,,,,,,,,survey_gender,88,,,I feel a bond with my friends.,filler
4598.1,,,html-slider-response,453,3132549,0.0-24.0-1.0-0.17,52082,List2B,black,man,,,,,,,,survey_gender,68,,,My friends have a lot in common with each other.,filler
4212.4,,,html-slider-response,454,3136767,0.0-24.0-1.0-0.18,52082,List2B,black,man,,,,,,,,survey_gender,69,,,My friends understand me.,filler
5729.1,,,html-slider-response,455,3142501,0.0-24.0-1.0-0.19,52082,List2B,black,man,,,,,,,,survey_gender,65,,,Being my gender gives me a good feeling.,feeling
4163.8,,,html-slider-response,456,3146672,0.0-24.0-1.0-0.20,52082,List2B,black,man,,,,,,,,survey_gender,96,,,I am glad to have the friends that I have.,filler
4320.5,,,html-slider-response,457,3150998,0.0-24.0-1.0-0.21,52082,List2B,black,man,,,,,,,,survey_gender,15,,,I would say I am an animal person.,filler
5265.8,,,html-slider-response,458,3156269,0.0-24.0-1.0-0.22,52082,List2B,black,man,,,,,,,,survey_gender,0,,,Routine is not important to me.,filler
5678.2,,,html-slider-response,459,3161951,0.0-24.0-1.0-0.23,52082,List2B,black,man,,,,,,,,survey_gender,35,,,People of my gender have a lot in common with each other.,common
6245.4,,,html-slider-response,460,3168202,0.0-24.0-1.0-0.24,52082,List2B,black,man,,,,,,,,survey_gender,64,,,I often think about the fact that I am my gender.,often
3126.3,,,html-slider-response,461,3171333,0.0-24.0-1.0-0.25,52082,List2B,black,man,,,,,,,,survey_gender,100,,,I often think about my actions.,filler
5645,,,html-slider-response,462,3176984,0.0-24.0-1.0-0.26,52082,List2B,black,man,,,,,,,,survey_gender,19,,,Family is not more important to me than friendship.,filler
7091.6,,,html-slider-response,463,3184081,0.0-24.0-1.0-0.27,52082,List2B,black,man,,,,,,,,survey_gender,100,,,Being my gender is an important part of how I see myself.,important
15172.4,,,survey-text,464,3199264,0.0-25.0,52082,List2B,black,man,,,,,"{""Q0"":""ccc""}",,,worker_id,,,,,
9074.7,,,external-html,465,3210674,0.0-26.0,52082,List2B,black,man,debrief.html,,,,,,,,,,,,
