"rt","stimulus","button_pressed","trial_type","trial_index","time_elapsed","internal_node_id","subject","list","ppt_race","ppt_gender","url","first_guess","correct","key_press","responses","image_type","phrase_type","test_part","response","stimulus1","stimulus2","question_type","survey_item"
"2196.7000000476837","Welcome to the experiment. Press Continue to begin.","0","html-button-response","0","2199","0.0-0.0","52332","List2A","black","woman","","","","","","","","","","","","",""
"29540.600000023842","","","external-html","1","32936","0.0-1.0","52332","List2A","black","woman","consent.html","","","","","","","","","","","",""
"16966.700000047684","<p>On the next page, you will see portraits of 8 people and their names.</p><p>Your first task is to take a few minutes to memorise the names of these people.</p><p>You will have to recall their names during the rest of the experiment, so it is</p><p>essential that you try to memorise these people and their names as best as you can.</p><br><p><strong>You will then be tested on your memory of these names and portraits.</strong></p><br><p>The experiment will start after you have completed this memory test.</p><br><p>Ready?</p>","0","html-button-response","2","49905","0.0-2.0","52332","List2A","black","woman","","","","","","","","","","","","",""
"33406.59999990463","<img src='img/portrait_matrix_list2.jpg' style='width:900px;height:500px;''></img><p>If you have memorised all the portraits and names and are ready to start, press Continue.</p><p><strong>Please note: Your memory of these faces will be tested 4 times during this experiment.</strong></p>","0","html-button-response","3","84316","0.0-3.0-0.0","52332","List2A","black","woman","","","","","","","","","","","","",""
"4070.7000000476837","<img src=""portrait/BM1.jpg""style=""height:400px;""></img>","4","html-button-response","4","89394","0.0-3.0-1.0","52332","List2A","black","woman","","true","4","","","","","","","","","",""
"null","CORRECT","","html-keyboard-response","5","90913","0.0-3.0-2.0-0.0","52332","List2A","black","woman","","","","null","","","","","","","","",""
"3922.7000000476837","<img src=""portrait/BM2.jpg""style=""height:400px;""></img>","5","html-button-response","6","94838","0.0-3.0-4.0","52332","List2A","black","woman","","true","5","","","","","","","","","",""
"null","CORRECT","","html-keyboard-response","7","96356","0.0-3.0-5.0-0.0","52332","List2A","black","woman","","","","null","","","","","","","","",""
"3595.7999999523163","<img src=""portrait/BW1.jpg""style=""height:400px;""></img>","0","html-button-response","8","99954","0.0-3.0-7.0","52332","List2A","black","woman","","true","0","","","","","","","","","",""
"null","CORRECT","","html-keyboard-response","9","101459","0.0-3.0-8.0-0.0","52332","List2A","black","woman","","","","null","","","","","","","","",""
"5193.800000071526","<img src=""portrait/WM2.jpg""style=""height:400px;""></img>","7","html-button-response","10","106654","0.0-3.0-10.0","52332","List2A","black","woman","","true","7","","","","","","","","","",""
"null","CORRECT","","html-keyboard-response","11","108168","0.0-3.0-11.0-0.0","52332","List2A","black","woman","","","","null","","","","","","","","",""
"3409.2999999523163","<img src=""portrait/BW2.jpg""style=""height:400px;""></img>","2","html-button-response","12","111579","0.0-3.0-13.0","52332","List2A","black","woman","","true","2","","","","","","","","","",""
"null","CORRECT","","html-keyboard-response","13","113102","0.0-3.0-14.0-0.0","52332","List2A","black","woman","","","","null","","","","","","","","",""
"3220.5999999046326","<img src=""portrait/WW1.jpg""style=""height:400px;""></img>","1","html-button-response","14","116325","0.0-3.0-16.0","52332","List2A","black","woman","","true","1","","","","","","","","","",""
"null","CORRECT","","html-keyboard-response","15","117845","0.0-3.0-17.0-0.0","52332","List2A","black","woman","","","","null","","","","","","","","",""
"3680.100000023842","<img src=""portrait/WM1.jpg""style=""height:400px;""></img>","6","html-button-response","16","121527","0.0-3.0-19.0","52332","List2A","black","woman","","true","6","","","","","","","","","",""
"null","CORRECT","","html-keyboard-response","17","123042","0.0-3.0-20.0-0.0","52332","List2A","black","woman","","","","null","","","","","","","","",""
"3443","<img src=""portrait/WW2.jpg""style=""height:400px;""></img>","3","html-button-response","18","126487","0.0-3.0-22.0","52332","List2A","black","woman","","true","3","","","","","","","","","",""
"null","CORRECT","","html-keyboard-response","19","128004","0.0-3.0-23.0-0.0","52332","List2A","black","woman","","","","null","","","","","","","","",""
"1928.3999999761581","<p>You got 8 out of 8 right first time. Press Continue.</p>","0","html-button-response","20","129934","0.0-3.0-25.0","52332","List2A","black","woman","","","","","","","","","","","","",""
"28009.5","<p>In this experiment, you will view photographs of the people from the memory game interacting.</p><p>By using the <strong>exact</strong> phrase given <i>after</i> the photograph appears and recalling the correct names of the people in the photographs, form a sentence describing the interaction. You do not need to capitalise names.</p><p>Type your answer in the space provided. Please complete every sentence before moving onto the next trial.</p><p>You will only have a few seconds to memorise each given photograph and phrase before you can respond, so try your best to focus.</p><p>An example is given below. Press 'Continue' when you are ready.</p><img src='img/speaking_example.jpg' style='width:800px;height:460px;''></img>","0","html-button-response","21","158948","0.0-4.0","52332","List2A","black","woman","","","","","","","","","","","","",""
"3053.8000000715256","<p>Before the experiment starts, you will watch two example trials. Press 'Continue'.</p>","0","html-button-response","22","163013","0.0-5.0","52332","List2A","black","woman","","","","","","","","","","","","",""
"null","<img src='img/play_eg.gif' style='height:400px;''></img>","","html-keyboard-response","23","166023","0.0-6.0","52332","List2A","black","woman","","","","null","","","","","","","","",""
"null","<p>is playing with</p>","","html-keyboard-response","24","168028","0.0-7.0","52332","List2A","black","woman","","","","null","","","","","","","","",""
"9482.400000095367","<p><b>Answer:</b> jane is playing with ruth</p>","0","html-button-response","25","177511","0.0-8.0","52332","List2A","black","woman","","","","","","","","","","","","",""
"null","<img src='img/dance_eg.gif' style='height:400px;''></img>","","html-keyboard-response","26","180524","0.0-9.0","52332","List2A","black","woman","","","","null","","","","","","","","",""
"null","<p>is being entertained by</p>","","html-keyboard-response","27","182525","0.0-10.0","52332","List2A","black","woman","","","","null","","","","","","","","",""
"2469","<p><b>Answer:</b> fred is being entertained by mike</p>","0","html-button-response","28","184995","0.0-11.0","52332","List2A","black","woman","","","","","","","","","","","","",""
"5476.300000071526","<p>Ready to start the experiment?</p><br><p><strong>Remember to describe the picture using a full sentence,</strong></p><p><strong>that combines the names of the people with the <i>exact</i> phrase given.</strong></p><p><strong>To receive full payment you must do this correctly.</strong></p><p><strong> You do not need to capitalise names or use punctuation.</strong></p><br><p>Press 'Continue' to begin.</p>","0","html-button-response","29","191474","0.0-12.0","52332","List2A","black","woman","","","","","","","","","","","","",""
"null","<div style=""font-size:60px;"">+</div>","","html-keyboard-response","30","192992","0.0-13.0-0.0","52332","List2A","black","woman","","","","null","","","","","","","","",""
"null","<img src=""stim_listA/shout6.gif""style=""height:400px;""></stim_listA>","","html-keyboard-response","31","194995","0.0-13.0-1.0","52332","List2A","black","woman","","","","null","","","","","","","","",""
"null","is being shouted at by","","html-keyboard-response","32","196997","0.0-13.0-2.0","52332","List2A","black","woman","","","","null","","","","","","","","",""
"27996.199999928474","","","survey-text","33","224996","0.0-13.0-3.0","52332","List2A","black","woman","","","","","{""Q0"":""mike is being shouted at by dave""}","<img src=""stim_listA/shout6.gif""style=""height:400px;""></stim_listA>","is being shouted at by","","","","","",""
"null","<div style=""font-size:60px;"">+</div>","","html-keyboard-response","34","225507","0.0-13.0-0.1","52332","List2A","black","woman","","","","null","","","","","","","","",""
"null","<img src=""stim_listA/kiss4.gif""style=""height:400px;""></stim_listA>","","html-keyboard-response","35","227513","0.0-13.0-1.1","52332","List2A","black","woman","","","","null","","","","","","","","",""
"null","is being kissed by","","html-keyboard-response","36","229515","0.0-13.0-2.1","52332","List2A","black","woman","","","","null","","","","","","","","",""
"22981.700000047684","","","survey-text","37","252499","0.0-13.0-3.1","52332","List2A","black","woman","","","","","{""Q0"":""mike is being kissed by kate""}","<img src=""stim_listA/kiss4.gif""style=""height:400px;""></stim_listA>","is being kissed by","","","","","",""
"null","<div style=""font-size:60px;"">+</div>","","html-keyboard-response","38","253010","0.0-13.0-0.2","52332","List2A","black","woman","","","","null","","","","","","","","",""
"null","<img src=""stim_listA/kiss7.gif""style=""height:400px;""></stim_listA>","","html-keyboard-response","39","255022","0.0-13.0-1.2","52332","List2A","black","woman","","","","null","","","","","","","","",""
"null","is kissing","","html-keyboard-response","40","257024","0.0-13.0-2.2","52332","List2A","black","woman","","","","null","","","","","","","","",""
"27612.800000071526","","","survey-text","41","284640","0.0-13.0-3.2","52332","List2A","black","woman","","","","","{""Q0"":""beth is kissing ruth""}","<img src=""stim_listA/kiss7.gif""style=""height:400px;""></stim_listA>","is kissing","","","","","",""
"null","<div style=""font-size:60px;"">+</div>","","html-keyboard-response","42","285150","0.0-13.0-0.3","52332","List2A","black","woman","","","","null","","","","","","","","",""
"null","<img src=""stim_listA/seduce1.gif""style=""height:400px;""></stim_listA>","","html-keyboard-response","43","287152","0.0-13.0-1.3","52332","List2A","black","woman","","","","null","","","","","","","","",""
"null","is seducing","","html-keyboard-response","44","289153","0.0-13.0-2.3","52332","List2A","black","woman","","","","null","","","","","","","","",""
"22926.699999928474","","","survey-text","45","312082","0.0-13.0-3.3","52332","List2A","black","woman","","","","","{""Q0"":""luke is seducing jane""}","<img src=""stim_listA/seduce1.gif""style=""height:400px;""></stim_listA>","is seducing","","","","","",""
"null","<div style=""font-size:60px;"">+</div>","","html-keyboard-response","46","312594","0.0-13.0-0.4","52332","List2A","black","woman","","","","null","","","","","","","","",""
"null","<img src=""stim_listA/look6.gif""style=""height:400px;""></stim_listA>","","html-keyboard-response","47","314600","0.0-13.0-1.4","52332","List2A","black","woman","","","","null","","","","","","","","",""
"null","is being looked at by","","html-keyboard-response","48","316601","0.0-13.0-2.4","52332","List2A","black","woman","","","","null","","","","","","","","",""
"30001.800000071526","","","survey-text","49","346606","0.0-13.0-3.4","52332","List2A","black","woman","","","","","{""Q0"":""dave is being looked at by mike""}","<img src=""stim_listA/look6.gif""style=""height:400px;""></stim_listA>","is being looked at by","","","","","",""
"null","<div style=""font-size:60px;"">+</div>","","html-keyboard-response","50","347114","0.0-13.0-0.5","52332","List2A","black","woman","","","","null","","","","","","","","",""
"null","<img src=""stim_listA/copy3.gif""style=""height:400px;""></stim_listA>","","html-keyboard-response","51","349128","0.0-13.0-1.5","52332","List2A","black","woman","","","","null","","","","","","","","",""
"null","is copying","","html-keyboard-response","52","351129","0.0-13.0-2.5","52332","List2A","black","woman","","","","null","","","","","","","","",""
"28601.899999976158","","","survey-text","53","379734","0.0-13.0-3.5","52332","List2A","black","woman","","","","","{""Q0"":""mike is copying beth""}","<img src=""stim_listA/copy3.gif""style=""height:400px;""></stim_listA>","is copying","","","","","",""
"null","<div style=""font-size:60px;"">+</div>","","html-keyboard-response","54","380245","0.0-13.0-0.6","52332","List2A","black","woman","","","","null","","","","","","","","",""
"null","<img src=""stim_listA/shout7.gif""style=""height:400px;""></stim_listA>","","html-keyboard-response","55","382247","0.0-13.0-1.6","52332","List2A","black","woman","","","","null","","","","","","","","",""
"null","is shouting at","","html-keyboard-response","56","384249","0.0-13.0-2.6","52332","List2A","black","woman","","","","null","","","","","","","","",""
"23802.600000023842","","","survey-text","57","408053","0.0-13.0-3.6","52332","List2A","black","woman","","","","","{""Q0"":""beth is shouting at ruth""}","<img src=""stim_listA/shout7.gif""style=""height:400px;""></stim_listA>","is shouting at","","","","","",""
"null","<div style=""font-size:60px;"">+</div>","","html-keyboard-response","58","408560","0.0-13.0-0.7","52332","List2A","black","woman","","","","null","","","","","","","","",""
"null","<img src=""stim_listA/oppose6.gif""style=""height:400px;""></stim_listA>","","html-keyboard-response","59","410567","0.0-13.0-1.7","52332","List2A","black","woman","","","","null","","","","","","","","",""
"null","is being opposed by","","html-keyboard-response","60","412574","0.0-13.0-2.7","52332","List2A","black","woman","","","","null","","","","","","","","",""
"39630.89999997616","","","survey-text","61","452208","0.0-13.0-3.7","52332","List2A","black","woman","","","","","{""Q0"":""fred is being opposed by luke""}","<img src=""stim_listA/oppose6.gif""style=""height:400px;""></stim_listA>","is being opposed by","","","","","",""
"null","<div style=""font-size:60px;"">+</div>","","html-keyboard-response","62","452718","0.0-13.0-0.8","52332","List2A","black","woman","","","","null","","","","","","","","",""
"null","<img src=""stim_listA/kiss8.gif""style=""height:400px;""></stim_listA>","","html-keyboard-response","63","454732","0.0-13.0-1.8","52332","List2A","black","woman","","","","null","","","","","","","","",""
"null","is being kissed by","","html-keyboard-response","64","456737","0.0-13.0-2.8","52332","List2A","black","woman","","","","null","","","","","","","","",""
"19555.399999976158","","","survey-text","65","476295","0.0-13.0-3.8","52332","List2A","black","woman","","","","","{""Q0"":""kate is being kissed by jane""}","<img src=""stim_listA/kiss8.gif""style=""height:400px;""></stim_listA>","is being kissed by","","","","","",""
"null","<div style=""font-size:60px;"">+</div>","","html-keyboard-response","66","476807","0.0-13.0-0.9","52332","List2A","black","woman","","","","null","","","","","","","","",""
"null","<img src=""stim_listA/greet7.gif""style=""height:400px;""></stim_listA>","","html-keyboard-response","67","478823","0.0-13.0-1.9","52332","List2A","black","woman","","","","null","","","","","","","","",""
"null","is greeting","","html-keyboard-response","68","480827","0.0-13.0-2.9","52332","List2A","black","woman","","","","null","","","","","","","","",""
"15369.600000023842","","","survey-text","69","496199","0.0-13.0-3.9","52332","List2A","black","woman","","","","","{""Q0"":""beth is greeting jane""}","<img src=""stim_listA/greet7.gif""style=""height:400px;""></stim_listA>","is greeting","","","","","",""
"null","<div style=""font-size:60px;"">+</div>","","html-keyboard-response","70","496708","0.0-13.0-0.10","52332","List2A","black","woman","","","","null","","","","","","","","",""
"null","<img src=""stim_listA/copy7.gif""style=""height:400px;""></stim_listA>","","html-keyboard-response","71","498725","0.0-13.0-1.10","52332","List2A","black","woman","","","","null","","","","","","","","",""
"null","is copying","","html-keyboard-response","72","500728","0.0-13.0-2.10","52332","List2A","black","woman","","","","null","","","","","","","","",""
"15278.799999952316","","","survey-text","73","516009","0.0-13.0-3.10","52332","List2A","black","woman","","","","","{""Q0"":""beth is copying jane""}","<img src=""stim_listA/copy7.gif""style=""height:400px;""></stim_listA>","is copying","","","","","",""
"null","<div style=""font-size:60px;"">+</div>","","html-keyboard-response","74","516524","0.0-13.0-0.11","52332","List2A","black","woman","","","","null","","","","","","","","",""
"null","<img src=""stim_listA/shout4.gif""style=""height:400px;""></stim_listA>","","html-keyboard-response","75","518527","0.0-13.0-1.11","52332","List2A","black","woman","","","","null","","","","","","","","",""
"null","is being shouted at by","","html-keyboard-response","76","520528","0.0-13.0-2.11","52332","List2A","black","woman","","","","null","","","","","","","","",""
"19896.700000047684","","","survey-text","77","540426","0.0-13.0-3.11","52332","List2A","black","woman","","","","","{""Q0"":""kate is being shouted by mike""}","<img src=""stim_listA/shout4.gif""style=""height:400px;""></stim_listA>","is being shouted at by","","","","","",""
"null","<div style=""font-size:60px;"">+</div>","","html-keyboard-response","78","540938","0.0-13.0-0.12","52332","List2A","black","woman","","","","null","","","","","","","","",""
"null","<img src=""stim_listA/shout5.gif""style=""height:400px;""></stim_listA>","","html-keyboard-response","79","542948","0.0-13.0-1.12","52332","List2A","black","woman","","","","null","","","","","","","","",""
"null","is shouting at","","html-keyboard-response","80","544957","0.0-13.0-2.12","52332","List2A","black","woman","","","","null","","","","","","","","",""
"24604.400000095367","","","survey-text","81","569564","0.0-13.0-3.12","52332","List2A","black","woman","","","","","{""Q0"":""luke is shouting at fred""}","<img src=""stim_listA/shout5.gif""style=""height:400px;""></stim_listA>","is shouting at","","","","","",""
"null","<div style=""font-size:60px;"">+</div>","","html-keyboard-response","82","570065","0.0-13.0-0.13","52332","List2A","black","woman","","","","null","","","","","","","","",""
"null","<img src=""stim_listA/challenge5.gif""style=""height:400px;""></stim_listA>","","html-keyboard-response","83","572072","0.0-13.0-1.13","52332","List2A","black","woman","","","","null","","","","","","","","",""
"null","is challenging","","html-keyboard-response","84","574080","0.0-13.0-2.13","52332","List2A","black","woman","","","","null","","","","","","","","",""
"18402.5","","","survey-text","85","592485","0.0-13.0-3.13","52332","List2A","black","woman","","","","","{""Q0"":""dave is challenging fred""}","<img src=""stim_listA/challenge5.gif""style=""height:400px;""></stim_listA>","is challenging","","","","","",""
"null","<div style=""font-size:60px;"">+</div>","","html-keyboard-response","86","592993","0.0-13.0-0.14","52332","List2A","black","woman","","","","null","","","","","","","","",""
"null","<img src=""stim_listA/shout8.gif""style=""height:400px;""></stim_listA>","","html-keyboard-response","87","594995","0.0-13.0-1.14","52332","List2A","black","woman","","","","null","","","","","","","","",""
"null","is being shouted at by","","html-keyboard-response","88","596996","0.0-13.0-2.14","52332","List2A","black","woman","","","","null","","","","","","","","",""
"34062.199999928474","","","survey-text","89","631061","0.0-13.0-3.14","52332","List2A","black","woman","","","","","{""Q0"":""kate is being shouted at by jane""}","<img src=""stim_listA/shout8.gif""style=""height:400px;""></stim_listA>","is being shouted at by","","","","","",""
"null","<div style=""font-size:60px;"">+</div>","","html-keyboard-response","90","631572","0.0-13.0-0.15","52332","List2A","black","woman","","","","null","","","","","","","","",""
"null","<img src=""stim_listA/kiss3.gif""style=""height:400px;""></stim_listA>","","html-keyboard-response","91","633587","0.0-13.0-1.15","52332","List2A","black","woman","","","","null","","","","","","","","",""
"null","is kissing","","html-keyboard-response","92","635591","0.0-13.0-2.15","52332","List2A","black","woman","","","","null","","","","","","","","",""
"21212","","","survey-text","93","656805","0.0-13.0-3.15","52332","List2A","black","woman","","","","","{""Q0"":""beth is kissing fred""}","<img src=""stim_listA/kiss3.gif""style=""height:400px;""></stim_listA>","is kissing","","","","","",""
"null","<div style=""font-size:60px;"">+</div>","","html-keyboard-response","94","657313","0.0-13.0-0.16","52332","List2A","black","woman","","","","null","","","","","","","","",""
"null","<img src=""stim_listA/challenge2.gif""style=""height:400px;""></stim_listA>","","html-keyboard-response","95","659315","0.0-13.0-1.16","52332","List2A","black","woman","","","","null","","","","","","","","",""
"null","is being challenged by","","html-keyboard-response","96","661323","0.0-13.0-2.16","52332","List2A","black","woman","","","","null","","","","","","","","",""
"23856.299999952316","","","survey-text","97","685182","0.0-13.0-3.16","52332","List2A","black","woman","","","","","{""Q0"":""luke is being challenged by jane""}","<img src=""stim_listA/challenge2.gif""style=""height:400px;""></stim_listA>","is being challenged by","","","","","",""
"null","<div style=""font-size:60px;"">+</div>","","html-keyboard-response","98","685689","0.0-13.0-0.17","52332","List2A","black","woman","","","","null","","","","","","","","",""
"null","<img src=""stim_listA/seduce7.gif""style=""height:400px;""></stim_listA>","","html-keyboard-response","99","687697","0.0-13.0-1.17","52332","List2A","black","woman","","","","null","","","","","","","","",""
"null","is seducing","","html-keyboard-response","100","689699","0.0-13.0-2.17","52332","List2A","black","woman","","","","null","","","","","","","","",""
"17966.800000071526","","","survey-text","101","707669","0.0-13.0-3.17","52332","List2A","black","woman","","","","","{""Q0"":""ruth is seducing kate""}","<img src=""stim_listA/seduce7.gif""style=""height:400px;""></stim_listA>","is seducing","","","","","",""
"null","<div style=""font-size:60px;"">+</div>","","html-keyboard-response","102","708181","0.0-13.0-0.18","52332","List2A","black","woman","","","","null","","","","","","","","",""
"null","<img src=""stim_listA/oppose1.gif""style=""height:400px;""></stim_listA>","","html-keyboard-response","103","710183","0.0-13.0-1.18","52332","List2A","black","woman","","","","null","","","","","","","","",""
"null","is opposing","","html-keyboard-response","104","712184","0.0-13.0-2.18","52332","List2A","black","woman","","","","null","","","","","","","","",""
"42904.5","","","survey-text","105","755090","0.0-13.0-3.18","52332","List2A","black","woman","","","","","{""Q0"":""jane is opposing dave""}","<img src=""stim_listA/oppose1.gif""style=""height:400px;""></stim_listA>","is opposing","","","","","",""
"null","<div style=""font-size:60px;"">+</div>","","html-keyboard-response","106","755598","0.0-13.0-0.19","52332","List2A","black","woman","","","","null","","","","","","","","",""
"null","<img src=""stim_listA/touch1.gif""style=""height:400px;""></stim_listA>","","html-keyboard-response","107","757613","0.0-13.0-1.19","52332","List2A","black","woman","","","","null","","","","","","","","",""
"null","is touching","","html-keyboard-response","108","759620","0.0-13.0-2.19","52332","List2A","black","woman","","","","null","","","","","","","","",""
"13886.700000047684","","","survey-text","109","773508","0.0-13.0-3.19","52332","List2A","black","woman","","","","","{""Q0"":""jane is touching dave""}","<img src=""stim_listA/touch1.gif""style=""height:400px;""></stim_listA>","is touching","","","","","",""
"11748.399999976158","<img src='img/portrait_matrix_list2.jpg' style='width:900px;height:500px;''></img><p>If you have memorised all the portraits and names and are ready to start, press Continue.</p><p><strong>Please note: Your memory of these faces will be tested 4 times during this experiment.</strong></p>","0","html-button-response","110","785258","0.0-14.0-0.0","52332","List2A","black","woman","","","","","","","","","","","","",""
"4363.300000071526","<img src=""portrait/WM2.jpg""style=""height:400px;""></img>","7","html-button-response","111","790633","0.0-14.0-1.0","52332","List2A","black","woman","","true","7","","","","","","","","","",""
"null","CORRECT","","html-keyboard-response","112","792142","0.0-14.0-2.0-0.0","52332","List2A","black","woman","","","","null","","","","","","","","",""
"3914.1999999284744","<img src=""portrait/BW1.jpg""style=""height:400px;""></img>","0","html-button-response","113","796058","0.0-14.0-4.0","52332","List2A","black","woman","","true","0","","","","","","","","","",""
"null","CORRECT","","html-keyboard-response","114","797576","0.0-14.0-5.0-0.0","52332","List2A","black","woman","","","","null","","","","","","","","",""
"2360.3000000715256","<img src=""portrait/WW1.jpg""style=""height:400px;""></img>","1","html-button-response","115","799938","0.0-14.0-7.0","52332","List2A","black","woman","","true","1","","","","","","","","","",""
"null","CORRECT","","html-keyboard-response","116","801457","0.0-14.0-8.0-0.0","52332","List2A","black","woman","","","","null","","","","","","","","",""
"3951.7000000476837","<img src=""portrait/BM1.jpg""style=""height:400px;""></img>","4","html-button-response","117","805410","0.0-14.0-10.0","52332","List2A","black","woman","","true","4","","","","","","","","","",""
"null","CORRECT","","html-keyboard-response","118","806926","0.0-14.0-11.0-0.0","52332","List2A","black","woman","","","","null","","","","","","","","",""
"2951.5","<img src=""portrait/BM2.jpg""style=""height:400px;""></img>","5","html-button-response","119","809879","0.0-14.0-13.0","52332","List2A","black","woman","","true","5","","","","","","","","","",""
"null","CORRECT","","html-keyboard-response","120","811401","0.0-14.0-14.0-0.0","52332","List2A","black","woman","","","","null","","","","","","","","",""
"3413.6999999284744","<img src=""portrait/BW2.jpg""style=""height:400px;""></img>","2","html-button-response","121","814816","0.0-14.0-16.0","52332","List2A","black","woman","","true","2","","","","","","","","","",""
"null","CORRECT","","html-keyboard-response","122","816337","0.0-14.0-17.0-0.0","52332","List2A","black","woman","","","","null","","","","","","","","",""
"1898.2000000476837","<img src=""portrait/WW2.jpg""style=""height:400px;""></img>","3","html-button-response","123","818236","0.0-14.0-19.0","52332","List2A","black","woman","","true","3","","","","","","","","","",""
"null","CORRECT","","html-keyboard-response","124","819752","0.0-14.0-20.0-0.0","52332","List2A","black","woman","","","","null","","","","","","","","",""
"3175.5","<img src=""portrait/WM1.jpg""style=""height:400px;""></img>","6","html-button-response","125","822929","0.0-14.0-22.0","52332","List2A","black","woman","","true","6","","","","","","","","","",""
"null","CORRECT","","html-keyboard-response","126","824436","0.0-14.0-23.0-0.0","52332","List2A","black","woman","","","","null","","","","","","","","",""
"12272.600000023842","<p>You got 8 out of 8 right first time. Press Continue.</p>","0","html-button-response","127","836711","0.0-14.0-25.0","52332","List2A","black","woman","","","","","","","","","","","","",""
"null","<div style=""font-size:60px;"">+</div>","","html-keyboard-response","128","838231","0.0-15.0-0.0","52332","List2A","black","woman","","","","null","","","","","","","","",""
"null","<img src=""stim_listA/seduce6.gif""style=""height:400px;""></stim_listA>","","html-keyboard-response","129","840233","0.0-15.0-1.0","52332","List2A","black","woman","","","","null","","","","","","","","",""
"null","is being seduced by","","html-keyboard-response","130","842238","0.0-15.0-2.0","52332","List2A","black","woman","","","","null","","","","","","","","",""
"18759.700000047684","","","survey-text","131","861000","0.0-15.0-3.0","52332","List2A","black","woman","","","","","{""Q0"":""dave is being seduced by dave""}","<img src=""stim_listA/seduce6.gif""style=""height:400px;""></stim_listA>","is being seduced by","","","","","",""
"null","<div style=""font-size:60px;"">+</div>","","html-keyboard-response","132","861512","0.0-15.0-0.1","52332","List2A","black","woman","","","","null","","","","","","","","",""
"null","<img src=""stim_listA/touch8.gif""style=""height:400px;""></stim_listA>","","html-keyboard-response","133","863528","0.0-15.0-1.1","52332","List2A","black","woman","","","","null","","","","","","","","",""
"null","is being touched by","","html-keyboard-response","134","865535","0.0-15.0-2.1","52332","List2A","black","woman","","","","null","","","","","","","","",""
"22154","","","survey-text","135","887691","0.0-15.0-3.1","52332","List2A","black","woman","","","","","{""Q0"":""beth is being touched by ruth""}","<img src=""stim_listA/touch8.gif""style=""height:400px;""></stim_listA>","is being touched by","","","","","",""
"null","<div style=""font-size:60px;"">+</div>","","html-keyboard-response","136","888192","0.0-15.0-0.2","52332","List2A","black","woman","","","","null","","","","","","","","",""
"null","<img src=""stim_listA/look4.gif""style=""height:400px;""></stim_listA>","","html-keyboard-response","137","890207","0.0-15.0-1.2","52332","List2A","black","woman","","","","null","","","","","","","","",""
"null","is being looked at by","","html-keyboard-response","138","892208","0.0-15.0-2.2","52332","List2A","black","woman","","","","null","","","","","","","","",""
"27621.5","","","survey-text","139","919832","0.0-15.0-3.2","52332","List2A","black","woman","","","","","{""Q0"":""kate is being looked at by mike""}","<img src=""stim_listA/look4.gif""style=""height:400px;""></stim_listA>","is being looked at by","","","","","",""
"null","<div style=""font-size:60px;"">+</div>","","html-keyboard-response","140","920341","0.0-15.0-0.3","52332","List2A","black","woman","","","","null","","","","","","","","",""
"null","<img src=""stim_listA/look7.gif""style=""height:400px;""></stim_listA>","","html-keyboard-response","141","922353","0.0-15.0-1.3","52332","List2A","black","woman","","","","null","","","","","","","","",""
"null","is looking at","","html-keyboard-response","142","924360","0.0-15.0-2.3","52332","List2A","black","woman","","","","null","","","","","","","","",""
"15306","","","survey-text","143","939668","0.0-15.0-3.3","52332","List2A","black","woman","","","","","{""Q0"":""ruth is looking at beth""}","<img src=""stim_listA/look7.gif""style=""height:400px;""></stim_listA>","is looking at","","","","","",""
"null","<div style=""font-size:60px;"">+</div>","","html-keyboard-response","144","940179","0.0-15.0-0.4","52332","List2A","black","woman","","","","null","","","","","","","","",""
"null","<img src=""stim_listA/look1.gif""style=""height:400px;""></stim_listA>","","html-keyboard-response","145","942181","0.0-15.0-1.4","52332","List2A","black","woman","","","","null","","","","","","","","",""
"null","is looking at","","html-keyboard-response","146","944183","0.0-15.0-2.4","52332","List2A","black","woman","","","","null","","","","","","","","",""
"14961.799999952316","","","survey-text","147","959147","0.0-15.0-3.4","52332","List2A","black","woman","","","","","{""Q0"":""ruth is looking at luke""}","<img src=""stim_listA/look1.gif""style=""height:400px;""></stim_listA>","is looking at","","","","","",""
"null","<div style=""font-size:60px;"">+</div>","","html-keyboard-response","148","959658","0.0-15.0-0.5","52332","List2A","black","woman","","","","null","","","","","","","","",""
"null","<img src=""stim_listA/hug3.gif""style=""height:400px;""></stim_listA>","","html-keyboard-response","149","961660","0.0-15.0-1.5","52332","List2A","black","woman","","","","null","","","","","","","","",""
"null","is hugging","","html-keyboard-response","150","963664","0.0-15.0-2.5","52332","List2A","black","woman","","","","null","","","","","","","","",""
"13687.700000047684","","","survey-text","151","977354","0.0-15.0-3.5","52332","List2A","black","woman","","","","","{""Q0"":""beth is hugging fred""}","<img src=""stim_listA/hug3.gif""style=""height:400px;""></stim_listA>","is hugging","","","","","",""
"null","<div style=""font-size:60px;"">+</div>","","html-keyboard-response","152","977864","0.0-15.0-0.6","52332","List2A","black","woman","","","","null","","","","","","","","",""
"null","<img src=""stim_listA/hug4.gif""style=""height:400px;""></stim_listA>","","html-keyboard-response","153","979872","0.0-15.0-1.6","52332","List2A","black","woman","","","","null","","","","","","","","",""
"null","is being hugged by","","html-keyboard-response","154","981873","0.0-15.0-2.6","52332","List2A","black","woman","","","","null","","","","","","","","",""
"14227.899999976158","","","survey-text","155","996103","0.0-15.0-3.6","52332","List2A","black","woman","","","","","{""Q0"":""mike is being hugged by kate""}","<img src=""stim_listA/hug4.gif""style=""height:400px;""></stim_listA>","is being hugged by","","","","","",""
"null","<div style=""font-size:60px;"">+</div>","","html-keyboard-response","156","996612","0.0-15.0-0.7","52332","List2A","black","woman","","","","null","","","","","","","","",""
"null","<img src=""stim_listA/oppose8.gif""style=""height:400px;""></stim_listA>","","html-keyboard-response","157","998620","0.0-15.0-1.7","52332","List2A","black","woman","","","","null","","","","","","","","",""
"null","is being opposed by","","html-keyboard-response","158","1000620","0.0-15.0-2.7","52332","List2A","black","woman","","","","null","","","","","","","","",""
"20638.700000047684","","","survey-text","159","1021261","0.0-15.0-3.7","52332","List2A","black","woman","","","","","{""Q0"":""ruth is being opposed by beth""}","<img src=""stim_listA/oppose8.gif""style=""height:400px;""></stim_listA>","is being opposed by","","","","","",""
"null","<div style=""font-size:60px;"">+</div>","","html-keyboard-response","160","1021769","0.0-15.0-0.8","52332","List2A","black","woman","","","","null","","","","","","","","",""
"null","<img src=""stim_listA/touch6.gif""style=""height:400px;""></stim_listA>","","html-keyboard-response","161","1023778","0.0-15.0-1.8","52332","List2A","black","woman","","","","null","","","","","","","","",""
"null","is being touched by","","html-keyboard-response","162","1025784","0.0-15.0-2.8","52332","List2A","black","woman","","","","null","","","","","","","","",""
"22144","","","survey-text","163","1047930","0.0-15.0-3.8","52332","List2A","black","woman","","","","","{""Q0"":""fred is being touched by luke""}","<img src=""stim_listA/touch6.gif""style=""height:400px;""></stim_listA>","is being touched by","","","","","",""
"null","<div style=""font-size:60px;"">+</div>","","html-keyboard-response","164","1048442","0.0-15.0-0.9","52332","List2A","black","woman","","","","null","","","","","","","","",""
"null","<img src=""stim_listA/greet1.gif""style=""height:400px;""></stim_listA>","","html-keyboard-response","165","1050444","0.0-15.0-1.9","52332","List2A","black","woman","","","","null","","","","","","","","",""
"null","is greeting","","html-keyboard-response","166","1052446","0.0-15.0-2.9","52332","List2A","black","woman","","","","null","","","","","","","","",""
"33561.700000047684","","","survey-text","167","1086010","0.0-15.0-3.9","52332","List2A","black","woman","","","","","{""Q0"":""ruth is greeting dave""}","<img src=""stim_listA/greet1.gif""style=""height:400px;""></stim_listA>","is greeting","","","","","",""
"null","<div style=""font-size:60px;"">+</div>","","html-keyboard-response","168","1086518","0.0-15.0-0.10","52332","List2A","black","woman","","","","null","","","","","","","","",""
"null","<img src=""stim_listA/touch7.gif""style=""height:400px;""></stim_listA>","","html-keyboard-response","169","1088520","0.0-15.0-1.10","52332","List2A","black","woman","","","","null","","","","","","","","",""
"null","is touching","","html-keyboard-response","170","1090529","0.0-15.0-2.10","52332","List2A","black","woman","","","","null","","","","","","","","",""
"15388.399999976158","","","survey-text","171","1105919","0.0-15.0-3.10","52332","List2A","black","woman","","","","","{""Q0"":""jane is touching kate""}","<img src=""stim_listA/touch7.gif""style=""height:400px;""></stim_listA>","is touching","","","","","",""
"null","<div style=""font-size:60px;"">+</div>","","html-keyboard-response","172","1106432","0.0-15.0-0.11","52332","List2A","black","woman","","","","null","","","","","","","","",""
"null","<img src=""stim_listA/kiss6.gif""style=""height:400px;""></stim_listA>","","html-keyboard-response","173","1108440","0.0-15.0-1.11","52332","List2A","black","woman","","","","null","","","","","","","","",""
"null","is being kissed by","","html-keyboard-response","174","1110441","0.0-15.0-2.11","52332","List2A","black","woman","","","","null","","","","","","","","",""
"14321.5","","","survey-text","175","1124765","0.0-15.0-3.11","52332","List2A","black","woman","","","","","{""Q0"":""mike is being kissed by dave""}","<img src=""stim_listA/kiss6.gif""style=""height:400px;""></stim_listA>","is being kissed by","","","","","",""
"null","<div style=""font-size:60px;"">+</div>","","html-keyboard-response","176","1125272","0.0-15.0-0.12","52332","List2A","black","woman","","","","null","","","","","","","","",""
"null","<img src=""stim_listA/oppose7.gif""style=""height:400px;""></stim_listA>","","html-keyboard-response","177","1127274","0.0-15.0-1.12","52332","List2A","black","woman","","","","null","","","","","","","","",""
"null","is opposing","","html-keyboard-response","178","1129276","0.0-15.0-2.12","52332","List2A","black","woman","","","","null","","","","","","","","",""
"7759.900000095367","","","survey-text","179","1137038","0.0-15.0-3.12","52332","List2A","black","woman","","","","","{""Q0"":""jane is opposing kate""}","<img src=""stim_listA/oppose7.gif""style=""height:400px;""></stim_listA>","is opposing","","","","","",""
"null","<div style=""font-size:60px;"">+</div>","","html-keyboard-response","180","1137549","0.0-15.0-0.13","52332","List2A","black","woman","","","","null","","","","","","","","",""
"null","<img src=""stim_listA/kiss1.gif""style=""height:400px;""></stim_listA>","","html-keyboard-response","181","1139555","0.0-15.0-1.13","52332","List2A","black","woman","","","","null","","","","","","","","",""
"null","is kissing","","html-keyboard-response","182","1141560","0.0-15.0-2.13","52332","List2A","black","woman","","","","null","","","","","","","","",""
"14483.600000023842","","","survey-text","183","1156046","0.0-15.0-3.13","52332","List2A","black","woman","","","","","{""Q0"":""ruth is kissing luke""}","<img src=""stim_listA/kiss1.gif""style=""height:400px;""></stim_listA>","is kissing","","","","","",""
"null","<div style=""font-size:60px;"">+</div>","","html-keyboard-response","184","1156558","0.0-15.0-0.14","52332","List2A","black","woman","","","","null","","","","","","","","",""
"null","<img src=""stim_listA/shout2.gif""style=""height:400px;""></stim_listA>","","html-keyboard-response","185","1158564","0.0-15.0-1.14","52332","List2A","black","woman","","","","null","","","","","","","","",""
"null","is being shouted at by","","html-keyboard-response","186","1160571","0.0-15.0-2.14","52332","List2A","black","woman","","","","null","","","","","","","","",""
"29518.299999952316","","","survey-text","187","1190093","0.0-15.0-3.14","52332","List2A","black","woman","","","","","{""Q0"":""jane is being shouted at by dave""}","<img src=""stim_listA/shout2.gif""style=""height:400px;""></stim_listA>","is being shouted at by","","","","","",""
"null","<div style=""font-size:60px;"">+</div>","","html-keyboard-response","188","1190599","0.0-15.0-0.15","52332","List2A","black","woman","","","","null","","","","","","","","",""
"null","<img src=""stim_listA/seduce8.gif""style=""height:400px;""></stim_listA>","","html-keyboard-response","189","1192603","0.0-15.0-1.15","52332","List2A","black","woman","","","","null","","","","","","","","",""
"null","is being seduced by","","html-keyboard-response","190","1194605","0.0-15.0-2.15","52332","List2A","black","woman","","","","null","","","","","","","","",""
"42270","","","survey-text","191","1236878","0.0-15.0-3.15","52332","List2A","black","woman","","","","","{""Q0"":""beth is bring seduced by jane""}","<img src=""stim_listA/seduce8.gif""style=""height:400px;""></stim_listA>","is being seduced by","","","","","",""
"null","<div style=""font-size:60px;"">+</div>","","html-keyboard-response","192","1237385","0.0-15.0-0.16","52332","List2A","black","woman","","","","null","","","","","","","","",""
"null","<img src=""stim_listA/oppose2.gif""style=""height:400px;""></stim_listA>","","html-keyboard-response","193","1239387","0.0-15.0-1.16","52332","List2A","black","woman","","","","null","","","","","","","","",""
"null","is being opposed by","","html-keyboard-response","194","1241393","0.0-15.0-2.16","52332","List2A","black","woman","","","","null","","","","","","","","",""
"22322.100000023842","","","survey-text","195","1263718","0.0-15.0-3.16","52332","List2A","black","woman","","","","","{""Q0"":""luke is being opposed by ruth""}","<img src=""stim_listA/oppose2.gif""style=""height:400px;""></stim_listA>","is being opposed by","","","","","",""
"null","<div style=""font-size:60px;"">+</div>","","html-keyboard-response","196","1264230","0.0-15.0-0.17","52332","List2A","black","woman","","","","null","","","","","","","","",""
"null","<img src=""stim_listA/challenge8.gif""style=""height:400px;""></stim_listA>","","html-keyboard-response","197","1266232","0.0-15.0-1.17","52332","List2A","black","woman","","","","null","","","","","","","","",""
"null","is being challenged by","","html-keyboard-response","198","1268235","0.0-15.0-2.17","52332","List2A","black","woman","","","","null","","","","","","","","",""
"23833","","","survey-text","199","1292071","0.0-15.0-3.17","52332","List2A","black","woman","","","","","{""Q0"":""kate is being challenged by ruth""}","<img src=""stim_listA/challenge8.gif""style=""height:400px;""></stim_listA>","is being challenged by","","","","","",""
"null","<div style=""font-size:60px;"">+</div>","","html-keyboard-response","200","1292580","0.0-15.0-0.18","52332","List2A","black","woman","","","","null","","","","","","","","",""
"null","<img src=""stim_listA/seduce4.gif""style=""height:400px;""></stim_listA>","","html-keyboard-response","201","1294585","0.0-15.0-1.18","52332","List2A","black","woman","","","","null","","","","","","","","",""
"null","is being seduced by","","html-keyboard-response","202","1296586","0.0-15.0-2.18","52332","List2A","black","woman","","","","null","","","","","","","","",""
"19088.399999976158","","","survey-text","203","1315677","0.0-15.0-3.18","52332","List2A","black","woman","","","","","{""Q0"":""mike is being seduced by beth""}","<img src=""stim_listA/seduce4.gif""style=""height:400px;""></stim_listA>","is being seduced by","","","","","",""
"null","<div style=""font-size:60px;"">+</div>","","html-keyboard-response","204","1316188","0.0-15.0-0.19","52332","List2A","black","woman","","","","null","","","","","","","","",""
"null","<img src=""stim_listA/hug7.gif""style=""height:400px;""></stim_listA>","","html-keyboard-response","205","1318203","0.0-15.0-1.19","52332","List2A","black","woman","","","","null","","","","","","","","",""
"null","is hugging","","html-keyboard-response","206","1320218","0.0-15.0-2.19","52332","List2A","black","woman","","","","null","","","","","","","","",""
"12652.5","","","survey-text","207","1332873","0.0-15.0-3.19","52332","List2A","black","woman","","","","","{""Q0"":""ruth is hugging beth""}","<img src=""stim_listA/hug7.gif""style=""height:400px;""></stim_listA>","is hugging","","","","","",""
"6435.700000047684","<img src='img/portrait_matrix_list2.jpg' style='width:900px;height:500px;''></img><p>If you have memorised all the portraits and names and are ready to start, press Continue.</p><p><strong>Please note: Your memory of these faces will be tested 4 times during this experiment.</strong></p>","0","html-button-response","208","1339310","0.0-16.0-0.0","52332","List2A","black","woman","","","","","","","","","","","","",""
"3032.2000000476837","<img src=""portrait/WM1.jpg""style=""height:400px;""></img>","6","html-button-response","209","1343360","0.0-16.0-1.0","52332","List2A","black","woman","","true","6","","","","","","","","","",""
"null","CORRECT","","html-keyboard-response","210","1344883","0.0-16.0-2.0-0.0","52332","List2A","black","woman","","","","null","","","","","","","","",""
"2207.399999976158","<img src=""portrait/WW1.jpg""style=""height:400px;""></img>","0","html-button-response","211","1347092","0.0-16.0-4.0","52332","List2A","black","woman","","true","1","","","","","","","","","",""
"3825.8000000715256","<img src=""portrait/WW1.jpg""style=""height:400px;""></img>","1","html-button-response","212","1351923","0.0-16.0-6.0-0.0","52332","List2A","black","woman","","false","1","","","","","","","","","",""
"null","CORRECT","","html-keyboard-response","213","1353442","0.0-16.0-6.0-1.0-0.0","52332","List2A","black","woman","","","","null","","","","","","","","",""
"2005.5999999046326","<img src=""portrait/BM1.jpg""style=""height:400px;""></img>","4","html-button-response","214","1355450","0.0-16.0-7.0","52332","List2A","black","woman","","true","4","","","","","","","","","",""
"null","CORRECT","","html-keyboard-response","215","1356971","0.0-16.0-8.0-0.0","52332","List2A","black","woman","","","","null","","","","","","","","",""
"2051.5","<img src=""portrait/BM2.jpg""style=""height:400px;""></img>","5","html-button-response","216","1359024","0.0-16.0-10.0","52332","List2A","black","woman","","true","5","","","","","","","","","",""
"null","CORRECT","","html-keyboard-response","217","1360544","0.0-16.0-11.0-0.0","52332","List2A","black","woman","","","","null","","","","","","","","",""
"2330.3000000715256","<img src=""portrait/WW2.jpg""style=""height:400px;""></img>","3","html-button-response","218","1362876","0.0-16.0-13.0","52332","List2A","black","woman","","true","3","","","","","","","","","",""
"null","CORRECT","","html-keyboard-response","219","1364400","0.0-16.0-14.0-0.0","52332","List2A","black","woman","","","","null","","","","","","","","",""
"2456.8000000715256","<img src=""portrait/BW1.jpg""style=""height:400px;""></img>","4","html-button-response","220","1366858","0.0-16.0-16.0","52332","List2A","black","woman","","true","0","","","","","","","","","",""
"2412.9000000953674","<img src=""portrait/BW1.jpg""style=""height:400px;""></img>","0","html-button-response","221","1370280","0.0-16.0-18.0-0.0","52332","List2A","black","woman","","false","0","","","","","","","","","",""
"null","CORRECT","","html-keyboard-response","222","1371803","0.0-16.0-18.0-1.0-0.0","52332","List2A","black","woman","","","","null","","","","","","","","",""
"4499.800000071526","<img src=""portrait/WM2.jpg""style=""height:400px;""></img>","7","html-button-response","223","1376304","0.0-16.0-19.0","52332","List2A","black","woman","","true","7","","","","","","","","","",""
"null","CORRECT","","html-keyboard-response","224","1377817","0.0-16.0-20.0-0.0","52332","List2A","black","woman","","","","null","","","","","","","","",""
"2911.399999976158","<img src=""portrait/BW2.jpg""style=""height:400px;""></img>","2","html-button-response","225","1380730","0.0-16.0-22.0","52332","List2A","black","woman","","true","2","","","","","","","","","",""
"null","CORRECT","","html-keyboard-response","226","1382245","0.0-16.0-23.0-0.0","52332","List2A","black","woman","","","","null","","","","","","","","",""
"34046.10000002384","<p>You got 6 out of 8 right first time. Press Continue.</p>","0","html-button-response","227","1416292","0.0-16.0-25.0","52332","List2A","black","woman","","","","","","","","","","","","",""
"5059.700000047684","As you did not score 100%, the memory game will repeat. Press Continue.","0","html-button-response","228","1422354","0.0-16.0-26.0-0.0","52332","List2A","black","woman","","","","","","","","","","","","",""
"4835.800000071526","<img src='img/portrait_matrix_list2.jpg' style='width:900px;height:500px;''></img><p>If you have memorised all the portraits and names and are ready to start, press Continue.</p><p><strong>Please note: Your memory of these faces will be tested 4 times during this experiment.</strong></p>","0","html-button-response","229","1428202","0.0-16.1-0.1","52332","List2A","black","woman","","","","","","","","","","","","",""
"4749.600000023842","<img src=""portrait/WM1.jpg""style=""height:400px;""></img>","6","html-button-response","230","1433953","0.0-16.1-1.1","52332","List2A","black","woman","","true","6","","","","","","","","","",""
"null","CORRECT","","html-keyboard-response","231","1435470","0.0-16.1-2.1-0.1","52332","List2A","black","woman","","","","null","","","","","","","","",""
"2675.100000023842","<img src=""portrait/WW1.jpg""style=""height:400px;""></img>","1","html-button-response","232","1438147","0.0-16.1-4.1","52332","List2A","black","woman","","true","1","","","","","","","","","",""
"null","CORRECT","","html-keyboard-response","233","1439654","0.0-16.1-5.1-0.1","52332","List2A","black","woman","","","","null","","","","","","","","",""
"2806.3000000715256","<img src=""portrait/BM1.jpg""style=""height:400px;""></img>","4","html-button-response","234","1442462","0.0-16.1-7.1","52332","List2A","black","woman","","true","4","","","","","","","","","",""
"null","CORRECT","","html-keyboard-response","235","1443983","0.0-16.1-8.1-0.1","52332","List2A","black","woman","","","","null","","","","","","","","",""
"2269.7999999523163","<img src=""portrait/BM2.jpg""style=""height:400px;""></img>","5","html-button-response","236","1446254","0.0-16.1-10.1","52332","List2A","black","woman","","true","5","","","","","","","","","",""
"null","CORRECT","","html-keyboard-response","237","1447778","0.0-16.1-11.1-0.1","52332","List2A","black","woman","","","","null","","","","","","","","",""
"3048.600000023842","<img src=""portrait/WW2.jpg""style=""height:400px;""></img>","3","html-button-response","238","1450828","0.0-16.1-13.1","52332","List2A","black","woman","","true","3","","","","","","","","","",""
"null","CORRECT","","html-keyboard-response","239","1452345","0.0-16.1-14.1-0.1","52332","List2A","black","woman","","","","null","","","","","","","","",""
"3360.100000023842","<img src=""portrait/BW1.jpg""style=""height:400px;""></img>","0","html-button-response","240","1455706","0.0-16.1-16.1","52332","List2A","black","woman","","true","0","","","","","","","","","",""
"null","CORRECT","","html-keyboard-response","241","1457222","0.0-16.1-17.1-0.1","52332","List2A","black","woman","","","","null","","","","","","","","",""
"3692.0999999046326","<img src=""portrait/WM2.jpg""style=""height:400px;""></img>","7","html-button-response","242","1460916","0.0-16.1-19.1","52332","List2A","black","woman","","true","7","","","","","","","","","",""
"null","CORRECT","","html-keyboard-response","243","1462435","0.0-16.1-20.1-0.1","52332","List2A","black","woman","","","","null","","","","","","","","",""
"3318.100000023842","<img src=""portrait/BW2.jpg""style=""height:400px;""></img>","2","html-button-response","244","1465755","0.0-16.1-22.1","52332","List2A","black","woman","","true","2","","","","","","","","","",""
"null","CORRECT","","html-keyboard-response","245","1467272","0.0-16.1-23.1-0.1","52332","List2A","black","woman","","","","null","","","","","","","","",""
"4402.100000023842","<p>You got 8 out of 8 right first time. Press Continue.</p>","0","html-button-response","246","1471675","0.0-16.1-25.1","52332","List2A","black","woman","","","","","","","","","","","","",""
"null","<div style=""font-size:60px;"">+</div>","","html-keyboard-response","247","1473179","0.0-17.0-0.0","52332","List2A","black","woman","","","","null","","","","","","","","",""
"null","<img src=""stim_listA/shout1.gif""style=""height:400px;""></stim_listA>","","html-keyboard-response","248","1475183","0.0-17.0-1.0","52332","List2A","black","woman","","","","null","","","","","","","","",""
"null","is shouting at","","html-keyboard-response","249","1477185","0.0-17.0-2.0","52332","List2A","black","woman","","","","null","","","","","","","","",""
"16853.300000071526","","","survey-text","250","1494040","0.0-17.0-3.0","52332","List2A","black","woman","","","","","{""Q0"":""ruth is shouting at luke""}","<img src=""stim_listA/shout1.gif""style=""height:400px;""></stim_listA>","is shouting at","","","","","",""
"null","<div style=""font-size:60px;"">+</div>","","html-keyboard-response","251","1494555","0.0-17.0-0.1","52332","List2A","black","woman","","","","null","","","","","","","","",""
"null","<img src=""stim_listA/kiss5.gif""style=""height:400px;""></stim_listA>","","html-keyboard-response","252","1496557","0.0-17.0-1.1","52332","List2A","black","woman","","","","null","","","","","","","","",""
"null","is kissing","","html-keyboard-response","253","1498560","0.0-17.0-2.1","52332","List2A","black","woman","","","","null","","","","","","","","",""
"19081.599999904633","","","survey-text","254","1517644","0.0-17.0-3.1","52332","List2A","black","woman","","","","","{""Q0"":""fred is kissing luke""}","<img src=""stim_listA/kiss5.gif""style=""height:400px;""></stim_listA>","is kissing","","","","","",""
"null","<div style=""font-size:60px;"">+</div>","","html-keyboard-response","255","1518157","0.0-17.0-0.2","52332","List2A","black","woman","","","","null","","","","","","","","",""
"null","<img src=""stim_listA/greet6.gif""style=""height:400px;""></stim_listA>","","html-keyboard-response","256","1520165","0.0-17.0-1.2","52332","List2A","black","woman","","","","null","","","","","","","","",""
"null","is being greeted by","","html-keyboard-response","257","1522172","0.0-17.0-2.2","52332","List2A","black","woman","","","","null","","","","","","","","",""
"52904.799999952316","","","survey-text","258","1575080","0.0-17.0-3.2","52332","List2A","black","woman","","","","","{""Q0"":""luke is being greeted by mike""}","<img src=""stim_listA/greet6.gif""style=""height:400px;""></stim_listA>","is being greeted by","","","","","",""
"null","<div style=""font-size:60px;"">+</div>","","html-keyboard-response","259","1575588","0.0-17.0-0.3","52332","List2A","black","woman","","","","null","","","","","","","","",""
"null","<img src=""stim_listA/oppose4.gif""style=""height:400px;""></stim_listA>","","html-keyboard-response","260","1577602","0.0-17.0-1.3","52332","List2A","black","woman","","","","null","","","","","","","","",""
"null","is being opposed by","","html-keyboard-response","261","1579603","0.0-17.0-2.3","52332","List2A","black","woman","","","","null","","","","","","","","",""
"13888.699999928474","","","survey-text","262","1593494","0.0-17.0-3.3","52332","List2A","black","woman","","","","","{""Q0"":""beth is being opposed by fred""}","<img src=""stim_listA/oppose4.gif""style=""height:400px;""></stim_listA>","is being opposed by","","","","","",""
"null","<div style=""font-size:60px;"">+</div>","","html-keyboard-response","263","1594004","0.0-17.0-0.4","52332","List2A","black","woman","","","","null","","","","","","","","",""
"null","<img src=""stim_listA/hug6.gif""style=""height:400px;""></stim_listA>","","html-keyboard-response","264","1596012","0.0-17.0-1.4","52332","List2A","black","woman","","","","null","","","","","","","","",""
"null","is being hugged by","","html-keyboard-response","265","1598012","0.0-17.0-2.4","52332","List2A","black","woman","","","","null","","","","","","","","",""
"11657.400000095367","","","survey-text","266","1609671","0.0-17.0-3.4","52332","List2A","black","woman","","","","","{""Q0"":""mike is being hugged by dave""}","<img src=""stim_listA/hug6.gif""style=""height:400px;""></stim_listA>","is being hugged by","","","","","",""
"null","<div style=""font-size:60px;"">+</div>","","html-keyboard-response","267","1610181","0.0-17.0-0.5","52332","List2A","black","woman","","","","null","","","","","","","","",""
"null","<img src=""stim_listA/copy5.gif""style=""height:400px;""></stim_listA>","","html-keyboard-response","268","1612183","0.0-17.0-1.5","52332","List2A","black","woman","","","","null","","","","","","","","",""
"null","is copying","","html-keyboard-response","269","1614191","0.0-17.0-2.5","52332","List2A","black","woman","","","","null","","","","","","","","",""
"6655.299999952316","","","survey-text","270","1620848","0.0-17.0-3.5","52332","List2A","black","woman","","","","","{""Q0"":""fred is copying dave""}","<img src=""stim_listA/copy5.gif""style=""height:400px;""></stim_listA>","is copying","","","","","",""
"null","<div style=""font-size:60px;"">+</div>","","html-keyboard-response","271","1621359","0.0-17.0-0.6","52332","List2A","black","woman","","","","null","","","","","","","","",""
"null","<img src=""stim_listA/copy2.gif""style=""height:400px;""></stim_listA>","","html-keyboard-response","272","1623363","0.0-17.0-1.6","52332","List2A","black","woman","","","","null","","","","","","","","",""
"null","is being copied by","","html-keyboard-response","273","1625365","0.0-17.0-2.6","52332","List2A","black","woman","","","","null","","","","","","","","",""
"29533.600000023842","","","survey-text","274","1654902","0.0-17.0-3.6","52332","List2A","black","woman","","","","","{""Q0"":""luke is being copied by jane""}","<img src=""stim_listA/copy2.gif""style=""height:400px;""></stim_listA>","is being copied by","","","","","",""
"null","<div style=""font-size:60px;"">+</div>","","html-keyboard-response","275","1655411","0.0-17.0-0.7","52332","List2A","black","woman","","","","null","","","","","","","","",""
"null","<img src=""stim_listA/touch2.gif""style=""height:400px;""></stim_listA>","","html-keyboard-response","276","1657414","0.0-17.0-1.7","52332","List2A","black","woman","","","","null","","","","","","","","",""
"null","is being touched by","","html-keyboard-response","277","1659416","0.0-17.0-2.7","52332","List2A","black","woman","","","","null","","","","","","","","",""
"19107.299999952316","","","survey-text","278","1678526","0.0-17.0-3.7","52332","List2A","black","woman","","","","","{""Q0"":""luke is being touched by ruth""}","<img src=""stim_listA/touch2.gif""style=""height:400px;""></stim_listA>","is being touched by","","","","","",""
"null","<div style=""font-size:60px;"">+</div>","","html-keyboard-response","279","1679038","0.0-17.0-0.8","52332","List2A","black","woman","","","","null","","","","","","","","",""
"null","<img src=""stim_listA/challenge3.gif""style=""height:400px;""></stim_listA>","","html-keyboard-response","280","1681040","0.0-17.0-1.8","52332","List2A","black","woman","","","","null","","","","","","","","",""
"null","is challenging","","html-keyboard-response","281","1683054","0.0-17.0-2.8","52332","List2A","black","woman","","","","null","","","","","","","","",""
"9025","","","survey-text","282","1692081","0.0-17.0-3.8","52332","List2A","black","woman","","","","","{""Q0"":""mike is challenging beth""}","<img src=""stim_listA/challenge3.gif""style=""height:400px;""></stim_listA>","is challenging","","","","","",""
"null","<div style=""font-size:60px;"">+</div>","","html-keyboard-response","283","1692589","0.0-17.0-0.9","52332","List2A","black","woman","","","","null","","","","","","","","",""
"null","<img src=""stim_listA/hug1.gif""style=""height:400px;""></stim_listA>","","html-keyboard-response","284","1694593","0.0-17.0-1.9","52332","List2A","black","woman","","","","null","","","","","","","","",""
"null","is hugging","","html-keyboard-response","285","1696601","0.0-17.0-2.9","52332","List2A","black","woman","","","","null","","","","","","","","",""
"13940","","","survey-text","286","1710544","0.0-17.0-3.9","52332","List2A","black","woman","","","","","{""Q0"":""ruth is hugging luke""}","<img src=""stim_listA/hug1.gif""style=""height:400px;""></stim_listA>","is hugging","","","","","",""
"null","<div style=""font-size:60px;"">+</div>","","html-keyboard-response","287","1711051","0.0-17.0-0.10","52332","List2A","black","woman","","","","null","","","","","","","","",""
"null","<img src=""stim_listA/look2.gif""style=""height:400px;""></stim_listA>","","html-keyboard-response","288","1713055","0.0-17.0-1.10","52332","List2A","black","woman","","","","null","","","","","","","","",""
"null","is being looked at by","","html-keyboard-response","289","1715056","0.0-17.0-2.10","52332","List2A","black","woman","","","","null","","","","","","","","",""
"16116.200000047684","","","survey-text","290","1731175","0.0-17.0-3.10","52332","List2A","black","woman","","","","","{""Q0"":""jane is being looked at by dave""}","<img src=""stim_listA/look2.gif""style=""height:400px;""></stim_listA>","is being looked at by","","","","","",""
"null","<div style=""font-size:60px;"">+</div>","","html-keyboard-response","291","1731680","0.0-17.0-0.11","52332","List2A","black","woman","","","","null","","","","","","","","",""
"null","<img src=""stim_listA/look5.gif""style=""height:400px;""></stim_listA>","","html-keyboard-response","292","1733683","0.0-17.0-1.11","52332","List2A","black","woman","","","","null","","","","","","","","",""
"null","is looking at","","html-keyboard-response","293","1735684","0.0-17.0-2.11","52332","List2A","black","woman","","","","null","","","","","","","","",""
"8716.599999904633","","","survey-text","294","1744404","0.0-17.0-3.11","52332","List2A","black","woman","","","","","{""Q0"":""fred is looking at luke""}","<img src=""stim_listA/look5.gif""style=""height:400px;""></stim_listA>","is looking at","","","","","",""
"null","<div style=""font-size:60px;"">+</div>","","html-keyboard-response","295","1744914","0.0-17.0-0.12","52332","List2A","black","woman","","","","null","","","","","","","","",""
"null","<img src=""stim_listA/challenge7.gif""style=""height:400px;""></stim_listA>","","html-keyboard-response","296","1746915","0.0-17.0-1.12","52332","List2A","black","woman","","","","null","","","","","","","","",""
"null","is challenging","","html-keyboard-response","297","1748917","0.0-17.0-2.12","52332","List2A","black","woman","","","","null","","","","","","","","",""
"9731.300000071526","","","survey-text","298","1758651","0.0-17.0-3.12","52332","List2A","black","woman","","","","","{""Q0"":""jane is challenging beth""}","<img src=""stim_listA/challenge7.gif""style=""height:400px;""></stim_listA>","is challenging","","","","","",""
"null","<div style=""font-size:60px;"">+</div>","","html-keyboard-response","299","1759162","0.0-17.0-0.13","52332","List2A","black","woman","","","","null","","","","","","","","",""
"null","<img src=""stim_listA/greet3.gif""style=""height:400px;""></stim_listA>","","html-keyboard-response","300","1761168","0.0-17.0-1.13","52332","List2A","black","woman","","","","null","","","","","","","","",""
"null","is greeting","","html-keyboard-response","301","1763170","0.0-17.0-2.13","52332","List2A","black","woman","","","","null","","","","","","","","",""
"23912.099999904633","","","survey-text","302","1787083","0.0-17.0-3.13","52332","List2A","black","woman","","","","","{""Q0"":""beth is greeting mike""}","<img src=""stim_listA/greet3.gif""style=""height:400px;""></stim_listA>","is greeting","","","","","",""
"null","<div style=""font-size:60px;"">+</div>","","html-keyboard-response","303","1787591","0.0-17.0-0.14","52332","List2A","black","woman","","","","null","","","","","","","","",""
"null","<img src=""stim_listA/touch5.gif""style=""height:400px;""></stim_listA>","","html-keyboard-response","304","1789603","0.0-17.0-1.14","52332","List2A","black","woman","","","","null","","","","","","","","",""
"null","is touching","","html-keyboard-response","305","1791606","0.0-17.0-2.14","52332","List2A","black","woman","","","","null","","","","","","","","",""
"6075.600000023842","","","survey-text","306","1797684","0.0-17.0-3.14","52332","List2A","black","woman","","","","","{""Q0"":""mike is touching dave""}","<img src=""stim_listA/touch5.gif""style=""height:400px;""></stim_listA>","is touching","","","","","",""
"null","<div style=""font-size:60px;"">+</div>","","html-keyboard-response","307","1798191","0.0-17.0-0.15","52332","List2A","black","woman","","","","null","","","","","","","","",""
"null","<img src=""stim_listA/shout3.gif""style=""height:400px;""></stim_listA>","","html-keyboard-response","308","1800197","0.0-17.0-1.15","52332","List2A","black","woman","","","","null","","","","","","","","",""
"null","is shouting at","","html-keyboard-response","309","1802203","0.0-17.0-2.15","52332","List2A","black","woman","","","","null","","","","","","","","",""
"8675.799999952316","","","survey-text","310","1810881","0.0-17.0-3.15","52332","List2A","black","woman","","","","","{""Q0"":""fred is shouting at beth""}","<img src=""stim_listA/shout3.gif""style=""height:400px;""></stim_listA>","is shouting at","","","","","",""
"null","<div style=""font-size:60px;"">+</div>","","html-keyboard-response","311","1811390","0.0-17.0-0.16","52332","List2A","black","woman","","","","null","","","","","","","","",""
"null","<img src=""stim_listA/copy1.gif""style=""height:400px;""></stim_listA>","","html-keyboard-response","312","1813392","0.0-17.0-1.16","52332","List2A","black","woman","","","","null","","","","","","","","",""
"null","is copying","","html-keyboard-response","313","1815405","0.0-17.0-2.16","52332","List2A","black","woman","","","","null","","","","","","","","",""
"7443.5","","","survey-text","314","1822851","0.0-17.0-3.16","52332","List2A","black","woman","","","","","{""Q0"":""ruth is copying dave""}","<img src=""stim_listA/copy1.gif""style=""height:400px;""></stim_listA>","is copying","","","","","",""
"null","<div style=""font-size:60px;"">+</div>","","html-keyboard-response","315","1823361","0.0-17.0-0.17","52332","List2A","black","woman","","","","null","","","","","","","","",""
"null","<img src=""stim_listA/kiss2.gif""style=""height:400px;""></stim_listA>","","html-keyboard-response","316","1825363","0.0-17.0-1.17","52332","List2A","black","woman","","","","null","","","","","","","","",""
"null","is being kissed by","","html-keyboard-response","317","1827373","0.0-17.0-2.17","52332","List2A","black","woman","","","","null","","","","","","","","",""
"12778.800000071526","","","survey-text","318","1840154","0.0-17.0-3.17","52332","List2A","black","woman","","","","","{""Q0"":""dave is being kissed by jane""}","<img src=""stim_listA/kiss2.gif""style=""height:400px;""></stim_listA>","is being kissed by","","","","","",""
"null","<div style=""font-size:60px;"">+</div>","","html-keyboard-response","319","1840664","0.0-17.0-0.18","52332","List2A","black","woman","","","","null","","","","","","","","",""
"null","<img src=""stim_listA/greet5.gif""style=""height:400px;""></stim_listA>","","html-keyboard-response","320","1842671","0.0-17.0-1.18","52332","List2A","black","woman","","","","null","","","","","","","","",""
"null","is greeting","","html-keyboard-response","321","1844680","0.0-17.0-2.18","52332","List2A","black","woman","","","","null","","","","","","","","",""
"7191.200000047684","","","survey-text","322","1851874","0.0-17.0-3.18","52332","List2A","black","woman","","","","","{""Q0"":""fred is greeting dave""}","<img src=""stim_listA/greet5.gif""style=""height:400px;""></stim_listA>","is greeting","","","","","",""
"null","<div style=""font-size:60px;"">+</div>","","html-keyboard-response","323","1852378","0.0-17.0-0.19","52332","List2A","black","woman","","","","null","","","","","","","","",""
"null","<img src=""stim_listA/greet2.gif""style=""height:400px;""></stim_listA>","","html-keyboard-response","324","1854380","0.0-17.0-1.19","52332","List2A","black","woman","","","","null","","","","","","","","",""
"null","is being greeted by","","html-keyboard-response","325","1856381","0.0-17.0-2.19","52332","List2A","black","woman","","","","null","","","","","","","","",""
"12888.200000047684","","","survey-text","326","1869272","0.0-17.0-3.19","52332","List2A","black","woman","","","","","{""Q0"":""luke is being greeted by jane""}","<img src=""stim_listA/greet2.gif""style=""height:400px;""></stim_listA>","is being greeted by","","","","","",""
"20561.400000095367","<img src='img/portrait_matrix_list2.jpg' style='width:900px;height:500px;''></img><p>If you have memorised all the portraits and names and are ready to start, press Continue.</p><p><strong>Please note: Your memory of these faces will be tested 4 times during this experiment.</strong></p>","0","html-button-response","327","1889836","0.0-18.0-0.0","52332","List2A","black","woman","","","","","","","","","","","","",""
"2165.100000023842","<img src=""portrait/WM1.jpg""style=""height:400px;""></img>","6","html-button-response","328","1893007","0.0-18.0-1.0","52332","List2A","black","woman","","true","6","","","","","","","","","",""
"null","CORRECT","","html-keyboard-response","329","1894524","0.0-18.0-2.0-0.0","52332","List2A","black","woman","","","","null","","","","","","","","",""
"3573.899999976158","<img src=""portrait/BW1.jpg""style=""height:400px;""></img>","0","html-button-response","330","1898100","0.0-18.0-4.0","52332","List2A","black","woman","","true","0","","","","","","","","","",""
"null","CORRECT","","html-keyboard-response","331","1899621","0.0-18.0-5.0-0.0","52332","List2A","black","woman","","","","null","","","","","","","","",""
"2361.600000023842","<img src=""portrait/BM2.jpg""style=""height:400px;""></img>","5","html-button-response","332","1901985","0.0-18.0-7.0","52332","List2A","black","woman","","true","5","","","","","","","","","",""
"null","CORRECT","","html-keyboard-response","333","1903501","0.0-18.0-8.0-0.0","52332","List2A","black","woman","","","","null","","","","","","","","",""
"2368.600000023842","<img src=""portrait/WM2.jpg""style=""height:400px;""></img>","7","html-button-response","334","1905871","0.0-18.0-10.0","52332","List2A","black","woman","","true","7","","","","","","","","","",""
"null","CORRECT","","html-keyboard-response","335","1907387","0.0-18.0-11.0-0.0","52332","List2A","black","woman","","","","null","","","","","","","","",""
"2035.7999999523163","<img src=""portrait/BM1.jpg""style=""height:400px;""></img>","4","html-button-response","336","1909425","0.0-18.0-13.0","52332","List2A","black","woman","","true","4","","","","","","","","","",""
"null","CORRECT","","html-keyboard-response","337","1910946","0.0-18.0-14.0-0.0","52332","List2A","black","woman","","","","null","","","","","","","","",""
"2860.6999999284744","<img src=""portrait/BW2.jpg""style=""height:400px;""></img>","2","html-button-response","338","1913808","0.0-18.0-16.0","52332","List2A","black","woman","","true","2","","","","","","","","","",""
"null","CORRECT","","html-keyboard-response","339","1915324","0.0-18.0-17.0-0.0","52332","List2A","black","woman","","","","null","","","","","","","","",""
"2762.600000023842","<img src=""portrait/WW1.jpg""style=""height:400px;""></img>","1","html-button-response","340","1918087","0.0-18.0-19.0","52332","List2A","black","woman","","true","1","","","","","","","","","",""
"null","CORRECT","","html-keyboard-response","341","1919607","0.0-18.0-20.0-0.0","52332","List2A","black","woman","","","","null","","","","","","","","",""
"1830.8000000715256","<img src=""portrait/WW2.jpg""style=""height:400px;""></img>","3","html-button-response","342","1921439","0.0-18.0-22.0","52332","List2A","black","woman","","true","3","","","","","","","","","",""
"null","CORRECT","","html-keyboard-response","343","1922956","0.0-18.0-23.0-0.0","52332","List2A","black","woman","","","","null","","","","","","","","",""
"2760.399999976158","<p>You got 8 out of 8 right first time. Press Continue.</p>","0","html-button-response","344","1925718","0.0-18.0-25.0","52332","List2A","black","woman","","","","","","","","","","","","",""
"null","<div style=""font-size:60px;"">+</div>","","html-keyboard-response","345","1927224","0.0-19.0-0.0","52332","List2A","black","woman","","","","null","","","","","","","","",""
"null","<img src=""stim_listA/hug5.gif""style=""height:400px;""></stim_listA>","","html-keyboard-response","346","1929230","0.0-19.0-1.0","52332","List2A","black","woman","","","","null","","","","","","","","",""
"null","is hugging","","html-keyboard-response","347","1931231","0.0-19.0-2.0","52332","List2A","black","woman","","","","null","","","","","","","","",""
"9547.200000047684","","","survey-text","348","1940782","0.0-19.0-3.0","52332","List2A","black","woman","","","","","{""Q0"":""fred is hugging luke""}","<img src=""stim_listA/hug5.gif""style=""height:400px;""></stim_listA>","is hugging","","","","","",""
"null","<div style=""font-size:60px;"">+</div>","","html-keyboard-response","349","1941292","0.0-19.0-0.1","52332","List2A","black","woman","","","","null","","","","","","","","",""
"null","<img src=""stim_listA/copy4.gif""style=""height:400px;""></stim_listA>","","html-keyboard-response","350","1943297","0.0-19.0-1.1","52332","List2A","black","woman","","","","null","","","","","","","","",""
"null","is being copied by","","html-keyboard-response","351","1945310","0.0-19.0-2.1","52332","List2A","black","woman","","","","null","","","","","","","","",""
"16297.200000047684","","","survey-text","352","1961609","0.0-19.0-3.1","52332","List2A","black","woman","","","","","{""Q0"":""kate is being copied by fred""}","<img src=""stim_listA/copy4.gif""style=""height:400px;""></stim_listA>","is being copied by","","","","","",""
"null","<div style=""font-size:60px;"">+</div>","","html-keyboard-response","353","1962119","0.0-19.0-0.2","52332","List2A","black","woman","","","","null","","","","","","","","",""
"null","<img src=""stim_listA/oppose3.gif""style=""height:400px;""></stim_listA>","","html-keyboard-response","354","1964129","0.0-19.0-1.2","52332","List2A","black","woman","","","","null","","","","","","","","",""
"null","is opposing","","html-keyboard-response","355","1966132","0.0-19.0-2.2","52332","List2A","black","woman","","","","null","","","","","","","","",""
"7737.800000071526","","","survey-text","356","1973872","0.0-19.0-3.2","52332","List2A","black","woman","","","","","{""Q0"":""mike is opposing kate""}","<img src=""stim_listA/oppose3.gif""style=""height:400px;""></stim_listA>","is opposing","","","","","",""
"null","<div style=""font-size:60px;"">+</div>","","html-keyboard-response","357","1974383","0.0-19.0-0.3","52332","List2A","black","woman","","","","null","","","","","","","","",""
"null","<img src=""stim_listA/touch4.gif""style=""height:400px;""></stim_listA>","","html-keyboard-response","358","1976386","0.0-19.0-1.3","52332","List2A","black","woman","","","","null","","","","","","","","",""
"null","is being touched by","","html-keyboard-response","359","1978397","0.0-19.0-2.3","52332","List2A","black","woman","","","","null","","","","","","","","",""
"9460.199999928474","","","survey-text","360","1987860","0.0-19.0-3.3","52332","List2A","black","woman","","","","","{""Q0"":""beth is being touched by fred""}","<img src=""stim_listA/touch4.gif""style=""height:400px;""></stim_listA>","is being touched by","","","","","",""
"null","<div style=""font-size:60px;"">+</div>","","html-keyboard-response","361","1988367","0.0-19.0-0.4","52332","List2A","black","woman","","","","null","","","","","","","","",""
"null","<img src=""stim_listA/challenge1.gif""style=""height:400px;""></stim_listA>","","html-keyboard-response","362","1990379","0.0-19.0-1.4","52332","List2A","black","woman","","","","null","","","","","","","","",""
"null","is challenging","","html-keyboard-response","363","1992393","0.0-19.0-2.4","52332","List2A","black","woman","","","","null","","","","","","","","",""
"9188.200000047684","","","survey-text","364","2001583","0.0-19.0-3.4","52332","List2A","black","woman","","","","","{""Q0"":""ruth is challenging dave""}","<img src=""stim_listA/challenge1.gif""style=""height:400px;""></stim_listA>","is challenging","","","","","",""
"null","<div style=""font-size:60px;"">+</div>","","html-keyboard-response","365","2002091","0.0-19.0-0.5","52332","List2A","black","woman","","","","null","","","","","","","","",""
"null","<img src=""stim_listA/greet8.gif""style=""height:400px;""></stim_listA>","","html-keyboard-response","366","2004093","0.0-19.0-1.5","52332","List2A","black","woman","","","","null","","","","","","","","",""
"null","is being greeted by","","html-keyboard-response","367","2006102","0.0-19.0-2.5","52332","List2A","black","woman","","","","null","","","","","","","","",""
"12580","","","survey-text","368","2018685","0.0-19.0-3.5","52332","List2A","black","woman","","","","","{""Q0"":""kate is being greeted by ruth""}","<img src=""stim_listA/greet8.gif""style=""height:400px;""></stim_listA>","is being greeted by","","","","","",""
"null","<div style=""font-size:60px;"">+</div>","","html-keyboard-response","369","2019197","0.0-19.0-0.6","52332","List2A","black","woman","","","","null","","","","","","","","",""
"null","<img src=""stim_listA/challenge6.gif""style=""height:400px;""></stim_listA>","","html-keyboard-response","370","2021202","0.0-19.0-1.6","52332","List2A","black","woman","","","","null","","","","","","","","",""
"null","is being challenged by","","html-keyboard-response","371","2023203","0.0-19.0-2.6","52332","List2A","black","woman","","","","null","","","","","","","","",""
"10250.700000047684","","","survey-text","372","2033457","0.0-19.0-3.6","52332","List2A","black","woman","","","","","{""Q0"":""mike is being challenged by luke""}","<img src=""stim_listA/challenge6.gif""style=""height:400px;""></stim_listA>","is being challenged by","","","","","",""
"null","<div style=""font-size:60px;"">+</div>","","html-keyboard-response","373","2033962","0.0-19.0-0.7","52332","List2A","black","woman","","","","null","","","","","","","","",""
"null","<img src=""stim_listA/copy6.gif""style=""height:400px;""></stim_listA>","","html-keyboard-response","374","2035980","0.0-19.0-1.7","52332","List2A","black","woman","","","","null","","","","","","","","",""
"null","is being copied by","","html-keyboard-response","375","2037982","0.0-19.0-2.7","52332","List2A","black","woman","","","","null","","","","","","","","",""
"15223.300000071526","","","survey-text","376","2053208","0.0-19.0-3.7","52332","List2A","black","woman","","","","","{""Q0"":""luke is being copied by mike""}","<img src=""stim_listA/copy6.gif""style=""height:400px;""></stim_listA>","is being copied by","","","","","",""
"null","<div style=""font-size:60px;"">+</div>","","html-keyboard-response","377","2053714","0.0-19.0-0.8","52332","List2A","black","woman","","","","null","","","","","","","","",""
"null","<img src=""stim_listA/touch3.gif""style=""height:400px;""></stim_listA>","","html-keyboard-response","378","2055731","0.0-19.0-1.8","52332","List2A","black","woman","","","","null","","","","","","","","",""
"null","is touching","","html-keyboard-response","379","2057734","0.0-19.0-2.8","52332","List2A","black","woman","","","","null","","","","","","","","",""
"8093.899999976158","","","survey-text","380","2065830","0.0-19.0-3.8","52332","List2A","black","woman","","","","","{""Q0"":""kate is touching mike""}","<img src=""stim_listA/touch3.gif""style=""height:400px;""></stim_listA>","is touching","","","","","",""
"null","<div style=""font-size:60px;"">+</div>","","html-keyboard-response","381","2066340","0.0-19.0-0.9","52332","List2A","black","woman","","","","null","","","","","","","","",""
"null","<img src=""stim_listA/challenge4.gif""style=""height:400px;""></stim_listA>","","html-keyboard-response","382","2068344","0.0-19.0-1.9","52332","List2A","black","woman","","","","null","","","","","","","","",""
"null","is being challenged by","","html-keyboard-response","383","2070346","0.0-19.0-2.9","52332","List2A","black","woman","","","","null","","","","","","","","",""
"35865.5","","","survey-text","384","2106213","0.0-19.0-3.9","52332","List2A","black","woman","","","","","{""Q0"":""fred is being challeged by kate""}","<img src=""stim_listA/challenge4.gif""style=""height:400px;""></stim_listA>","is being challenged by","","","","","",""
"null","<div style=""font-size:60px;"">+</div>","","html-keyboard-response","385","2106723","0.0-19.0-0.10","52332","List2A","black","woman","","","","null","","","","","","","","",""
"null","<img src=""stim_listA/look3.gif""style=""height:400px;""></stim_listA>","","html-keyboard-response","386","2108729","0.0-19.0-1.10","52332","List2A","black","woman","","","","null","","","","","","","","",""
"null","is looking at","","html-keyboard-response","387","2110734","0.0-19.0-2.10","52332","List2A","black","woman","","","","null","","","","","","","","",""
"6918.399999976158","","","survey-text","388","2117655","0.0-19.0-3.10","52332","List2A","black","woman","","","","","{""Q0"":""beth is looking at fred""}","<img src=""stim_listA/look3.gif""style=""height:400px;""></stim_listA>","is looking at","","","","","",""
"null","<div style=""font-size:60px;"">+</div>","","html-keyboard-response","389","2118163","0.0-19.0-0.11","52332","List2A","black","woman","","","","null","","","","","","","","",""
"null","<img src=""stim_listA/oppose5.gif""style=""height:400px;""></stim_listA>","","html-keyboard-response","390","2120166","0.0-19.0-1.11","52332","List2A","black","woman","","","","null","","","","","","","","",""
"null","is opposing","","html-keyboard-response","391","2122173","0.0-19.0-2.11","52332","List2A","black","woman","","","","null","","","","","","","","",""
"10152.5","","","survey-text","392","2132328","0.0-19.0-3.11","52332","List2A","black","woman","","","","","{""Q0"":""dave is opposing mike""}","<img src=""stim_listA/oppose5.gif""style=""height:400px;""></stim_listA>","is opposing","","","","","",""
"null","<div style=""font-size:60px;"">+</div>","","html-keyboard-response","393","2132837","0.0-19.0-0.12","52332","List2A","black","woman","","","","null","","","","","","","","",""
"null","<img src=""stim_listA/seduce2.gif""style=""height:400px;""></stim_listA>","","html-keyboard-response","394","2134841","0.0-19.0-1.12","52332","List2A","black","woman","","","","null","","","","","","","","",""
"null","is being seduced by","","html-keyboard-response","395","2136854","0.0-19.0-2.12","52332","List2A","black","woman","","","","null","","","","","","","","",""
"8786.100000023842","","","survey-text","396","2145643","0.0-19.0-3.12","52332","List2A","black","woman","","","","","{""Q0"":""dave is being seduced by ruth""}","<img src=""stim_listA/seduce2.gif""style=""height:400px;""></stim_listA>","is being seduced by","","","","","",""
"null","<div style=""font-size:60px;"">+</div>","","html-keyboard-response","397","2146147","0.0-19.0-0.13","52332","List2A","black","woman","","","","null","","","","","","","","",""
"null","<img src=""stim_listA/hug8.gif""style=""height:400px;""></stim_listA>","","html-keyboard-response","398","2148164","0.0-19.0-1.13","52332","List2A","black","woman","","","","null","","","","","","","","",""
"null","is being hugged by","","html-keyboard-response","399","2150170","0.0-19.0-2.13","52332","List2A","black","woman","","","","null","","","","","","","","",""
"13099","","","survey-text","400","2163272","0.0-19.0-3.13","52332","List2A","black","woman","","","","","{""Q0"":""kate is being hugged by jane""}","<img src=""stim_listA/hug8.gif""style=""height:400px;""></stim_listA>","is being hugged by","","","","","",""
"null","<div style=""font-size:60px;"">+</div>","","html-keyboard-response","401","2163779","0.0-19.0-0.14","52332","List2A","black","woman","","","","null","","","","","","","","",""
"null","<img src=""stim_listA/seduce5.gif""style=""height:400px;""></stim_listA>","","html-keyboard-response","402","2165784","0.0-19.0-1.14","52332","List2A","black","woman","","","","null","","","","","","","","",""
"null","is seducing","","html-keyboard-response","403","2167786","0.0-19.0-2.14","52332","List2A","black","woman","","","","null","","","","","","","","",""
"8368","","","survey-text","404","2176156","0.0-19.0-3.14","52332","List2A","black","woman","","","","","{""Q0"":""luke is seducing mike""}","<img src=""stim_listA/seduce5.gif""style=""height:400px;""></stim_listA>","is seducing","","","","","",""
"null","<div style=""font-size:60px;"">+</div>","","html-keyboard-response","405","2176660","0.0-19.0-0.15","52332","List2A","black","woman","","","","null","","","","","","","","",""
"null","<img src=""stim_listA/seduce3.gif""style=""height:400px;""></stim_listA>","","html-keyboard-response","406","2178663","0.0-19.0-1.15","52332","List2A","black","woman","","","","null","","","","","","","","",""
"null","is seducing","","html-keyboard-response","407","2180674","0.0-19.0-2.15","52332","List2A","black","woman","","","","null","","","","","","","","",""
"9444.700000047684","","","survey-text","408","2190121","0.0-19.0-3.15","52332","List2A","black","woman","","","","","{""Q0"":""fred is seducing kate""}","<img src=""stim_listA/seduce3.gif""style=""height:400px;""></stim_listA>","is seducing","","","","","",""
"null","<div style=""font-size:60px;"">+</div>","","html-keyboard-response","409","2190624","0.0-19.0-0.16","52332","List2A","black","woman","","","","null","","","","","","","","",""
"null","<img src=""stim_listA/look8.gif""style=""height:400px;""></stim_listA>","","html-keyboard-response","410","2192626","0.0-19.0-1.16","52332","List2A","black","woman","","","","null","","","","","","","","",""
"null","is being looked at by","","html-keyboard-response","411","2194642","0.0-19.0-2.16","52332","List2A","black","woman","","","","null","","","","","","","","",""
"9100.399999976158","","","survey-text","412","2203744","0.0-19.0-3.16","52332","List2A","black","woman","","","","","{""Q0"":""kate is being looked at by jane""}","<img src=""stim_listA/look8.gif""style=""height:400px;""></stim_listA>","is being looked at by","","","","","",""
"null","<div style=""font-size:60px;"">+</div>","","html-keyboard-response","413","2204254","0.0-19.0-0.17","52332","List2A","black","woman","","","","null","","","","","","","","",""
"null","<img src=""stim_listA/hug2.gif""style=""height:400px;""></stim_listA>","","html-keyboard-response","414","2206263","0.0-19.0-1.17","52332","List2A","black","woman","","","","null","","","","","","","","",""
"null","is being hugged by","","html-keyboard-response","415","2208278","0.0-19.0-2.17","52332","List2A","black","woman","","","","null","","","","","","","","",""
"9313.199999928474","","","survey-text","416","2217593","0.0-19.0-3.17","52332","List2A","black","woman","","","","","{""Q0"":""dave is being hugged by jane""}","<img src=""stim_listA/hug2.gif""style=""height:400px;""></stim_listA>","is being hugged by","","","","","",""
"null","<div style=""font-size:60px;"">+</div>","","html-keyboard-response","417","2218098","0.0-19.0-0.18","52332","List2A","black","woman","","","","null","","","","","","","","",""
"null","<img src=""stim_listA/greet4.gif""style=""height:400px;""></stim_listA>","","html-keyboard-response","418","2220100","0.0-19.0-1.18","52332","List2A","black","woman","","","","null","","","","","","","","",""
"null","is being greeted by","","html-keyboard-response","419","2222105","0.0-19.0-2.18","52332","List2A","black","woman","","","","null","","","","","","","","",""
"14648.299999952316","","","survey-text","420","2236755","0.0-19.0-3.18","52332","List2A","black","woman","","","","","{""Q0"":""kate is being greeted by fred""}","<img src=""stim_listA/greet4.gif""style=""height:400px;""></stim_listA>","is being greeted by","","","","","",""
"null","<div style=""font-size:60px;"">+</div>","","html-keyboard-response","421","2237269","0.0-19.0-0.19","52332","List2A","black","woman","","","","null","","","","","","","","",""
"null","<img src=""stim_listA/copy8.gif""style=""height:400px;""></stim_listA>","","html-keyboard-response","422","2239274","0.0-19.0-1.19","52332","List2A","black","woman","","","","null","","","","","","","","",""
"null","is being copied by","","html-keyboard-response","423","2241278","0.0-19.0-2.19","52332","List2A","black","woman","","","","null","","","","","","","","",""
"14441.799999952316","","","survey-text","424","2255722","0.0-19.0-3.19","52332","List2A","black","woman","","","","","{""Q0"":""kate is being copied by ruth""}","<img src=""stim_listA/copy8.gif""style=""height:400px;""></stim_listA>","is being copied by","","","","","",""
"3615.5","<p>Thank you for completing that task.</p><p>The final part of this session is a questionnaire that will take about 4 minutes.</p><p>Press Continue.</p>","0","html-button-response","425","2259339","0.0-20.0","52332","List2A","black","woman","","","","","","","","","","","","",""
"45311","","","survey-text","426","2305661","0.0-21.0","52332","List2A","black","woman","","","","","{""Q0"":""20"",""Q1"":""english"",""Q2"":""english"",""Q3"":""United States"",""Q4"":""american"",""Q5"":""African"",""Q6"":""female""}","","","demographics","","","","",""
"1881.8000000715256","<p>Have you lived in the USA for the last 5 years or more?</p>","0","html-button-response","427","2307544","0.0-22.0","52332","List2A","black","woman","","","","","","","","fiveyears","","","","",""
"3187.899999976158","<p>Move the slider to show the extent to which you agree with the following statements.</p>","0","html-button-response","428","2311743","0.0-23.0","52332","List2A","black","woman","","","","","","","","","","","","",""
"5591.399999976158","","","html-slider-response","429","2318347","0.0-24.0-0.0-0.0","52332","List2A","black","woman","","","","","","","","survey_race","98","","","People my age have a lot in common with each other.","filler"
"2864.7999999523163","","","html-slider-response","430","2321213","0.0-24.0-0.0-0.1","52332","List2A","black","woman","","","","","","","","survey_race","100","","","I feel a bond with people the same age as me.","filler"
"3776.3000000715256","","","html-slider-response","431","2324991","0.0-24.0-0.0-0.2","52332","List2A","black","woman","","","","","","","","survey_race","72","","","It is pleasant to be my race.","pleasant"
"2554.9000000953674","","","html-slider-response","432","2327547","0.0-24.0-0.0-0.3","52332","List2A","black","woman","","","","","","","","survey_race","67","","","I feel a bond with my race.","bond"
"5808.5","","","html-slider-response","433","2333357","0.0-24.0-0.0-0.4","52332","List2A","black","woman","","","","","","","","survey_race","53","","","My age is not an important part of who I am.","filler"
"8868.899999976158","","","html-slider-response","434","2342228","0.0-24.0-0.0-0.5","52332","List2A","black","woman","","","","","","","","survey_race","72","","","I think that my race has a lot to be proud of.","proud"
"2453.4000000953674","","","html-slider-response","435","2344683","0.0-24.0-0.0-0.6","52332","List2A","black","woman","","","","","","","","survey_race","64","","","I enjoy being in large groups.","filler"
"4586.699999928474","","","html-slider-response","436","2349271","0.0-24.0-0.0-0.7","52332","List2A","black","woman","","","","","","","","survey_race","63","","","People of my race are very similar to each other.","verysimilar"
"2735.899999976158","","","html-slider-response","437","2352010","0.0-24.0-0.0-0.8","52332","List2A","black","woman","","","","","","","","survey_race","93","","","I feel solidarity with people the same age as me.","filler"
"1954.1000000238419","","","html-slider-response","438","2353965","0.0-24.0-0.0-0.9","52332","List2A","black","woman","","","","","","","","survey_race","79","","","I feel solidarity with my race.","solidarity"
"1986.5","","","html-slider-response","439","2355953","0.0-24.0-0.0-0.10","52332","List2A","black","woman","","","","","","","","survey_race","100","","","I am glad to be my age.","filler"
"3350.5","","","html-slider-response","440","2359305","0.0-24.0-0.0-0.11","52332","List2A","black","woman","","","","","","","","survey_race","100","","","I have a lot in common with people of a similar age to me.","filler"
"2442.899999976158","","","html-slider-response","441","2361749","0.0-24.0-0.0-0.12","52332","List2A","black","woman","","","","","","","","survey_race","100","","","People of my race have a lot in common with each other.","common"
"3689.2999999523163","","","html-slider-response","442","2365440","0.0-24.0-0.0-0.13","52332","List2A","black","woman","","","","","","","","survey_race","82","","","Being my race is an important part of how I see myself.","important"
"4290.600000023842","","","html-slider-response","443","2369733","0.0-24.0-0.0-0.14","52332","List2A","black","woman","","","","","","","","survey_race","87","","","I often think about the fact that I am my race.","often"
"2633.5","","","html-slider-response","444","2372368","0.0-24.0-0.0-0.15","52332","List2A","black","woman","","","","","","","","survey_race","100","","","I consider myself an introvert.","filler"
"2341.5999999046326","","","html-slider-response","445","2374711","0.0-24.0-0.0-0.16","52332","List2A","black","woman","","","","","","","","survey_race","34","","","I feel committed to my race.","committed"
"2233.8000000715256","","","html-slider-response","446","2376946","0.0-24.0-0.0-0.17","52332","List2A","black","woman","","","","","","","","survey_race","72","","","Being my age gives me a good feeling.","filler"
"2698.5","","","html-slider-response","447","2379647","0.0-24.0-0.0-0.18","52332","List2A","black","woman","","","","","","","","survey_race","90","","","I am similar to the average person of my race.","similar"
"2243.5","","","html-slider-response","448","2381892","0.0-24.0-0.0-0.19","52332","List2A","black","woman","","","","","","","","survey_race","100","","","I often think about the fact that I am my age.","filler"
"2843","","","html-slider-response","449","2384736","0.0-24.0-0.0-0.20","52332","List2A","black","woman","","","","","","","","survey_race","25","","","The older I get, the wiser I feel.","filler"
"3592.1999999284744","","","html-slider-response","450","2388330","0.0-24.0-0.0-0.21","52332","List2A","black","woman","","","","","","","","survey_race","24","","","Getting older does not worry me.","filler"
"3152","","","html-slider-response","451","2391484","0.0-24.0-0.0-0.22","52332","List2A","black","woman","","","","","","","","survey_race","0","","","I consider myself an extrovert.","filler"
"3218.399999976158","","","html-slider-response","452","2394704","0.0-24.0-0.0-0.23","52332","List2A","black","woman","","","","","","","","survey_race","74","","","Being my race gives me a good feeling.","feeling"
"2959.899999976158","","","html-slider-response","453","2397666","0.0-24.0-0.0-0.24","52332","List2A","black","woman","","","","","","","","survey_race","93","","","I have a lot in common with the average person of my race.","average"
"2136.600000023842","","","html-slider-response","454","2399804","0.0-24.0-0.0-0.25","52332","List2A","black","woman","","","","","","","","survey_race","100","","","I am glad to be my race.","glad"
"1726.2999999523163","","","html-slider-response","455","2401531","0.0-24.0-0.0-0.26","52332","List2A","black","woman","","","","","","","","survey_race","100","","","I am glad to be the age I am.","filler"
"4457.5","","","html-slider-response","456","2405990","0.0-24.0-0.0-0.27","52332","List2A","black","woman","","","","","","","","survey_race","84","","","The fact that I am my race is an important part of my identity.","identity"
"3920.600000023842","","","html-slider-response","457","2409912","0.0-24.0-1.0-0.0","52332","List2A","black","woman","","","","","","","","survey_gender","15","","","I often think about the fact that I am my gender.","often"
"1885.7000000476837","","","html-slider-response","458","2411799","0.0-24.0-1.0-0.1","52332","List2A","black","woman","","","","","","","","survey_gender","100","","","Being around my friends gives me a good feeling.","filler"
"1962.5999999046326","","","html-slider-response","459","2413763","0.0-24.0-1.0-0.2","52332","List2A","black","woman","","","","","","","","survey_gender","100","","","I feel a bond with my gender.","bond"
"2741","","","html-slider-response","460","2416505","0.0-24.0-1.0-0.3","52332","List2A","black","woman","","","","","","","","survey_gender","88","","","Being my gender gives me a good feeling.","feeling"
"2005.6000000238419","","","html-slider-response","461","2418511","0.0-24.0-1.0-0.4","52332","List2A","black","woman","","","","","","","","survey_gender","100","","","I think that my gender has a lot to be proud of.","proud"
"2316.899999976158","","","html-slider-response","462","2420829","0.0-24.0-1.0-0.5","52332","List2A","black","woman","","","","","","","","survey_gender","78","","","I feel solidarity with my gender.","solidarity"
"2496.5","","","html-slider-response","463","2423327","0.0-24.0-1.0-0.6","52332","List2A","black","woman","","","","","","","","survey_gender","90","","","I am similar to the average person of my gender.","similar"
"1934.6000000238419","","","html-slider-response","464","2425263","0.0-24.0-1.0-0.7","52332","List2A","black","woman","","","","","","","","survey_gender","100","","","I am glad to have the friends that I have.","filler"
"2891.899999976158","","","html-slider-response","465","2428155","0.0-24.0-1.0-0.8","52332","List2A","black","woman","","","","","","","","survey_gender","40","","","Being my gender is an important part of how I see myself.","important"
"2823.5","","","html-slider-response","466","2430980","0.0-24.0-1.0-0.9","52332","List2A","black","woman","","","","","","","","survey_gender","100","","","My friends understand me.","filler"
"1644","","","html-slider-response","467","2432625","0.0-24.0-1.0-0.10","52332","List2A","black","woman","","","","","","","","survey_gender","100","","","I have a lot in common with my friends.","filler"
"1968.7000000476837","","","html-slider-response","468","2434595","0.0-24.0-1.0-0.11","52332","List2A","black","woman","","","","","","","","survey_gender","100","","","It is pleasant to be my gender.","pleasant"
"4056.2999999523163","","","html-slider-response","469","2438652","0.0-24.0-1.0-0.12","52332","List2A","black","woman","","","","","","","","survey_gender","67","","","Most of the friends in my life are very similar to me.","filler"
"2254.600000023842","","","html-slider-response","470","2440908","0.0-24.0-1.0-0.13","52332","List2A","black","woman","","","","","","","","survey_gender","100","","","I often think about my actions.","filler"
"3348","","","html-slider-response","471","2444257","0.0-24.0-1.0-0.14","52332","List2A","black","woman","","","","","","","","survey_gender","31","","","People of my gender are very similar to each other.","verysimilar"
"2544.899999976158","","","html-slider-response","472","2446802","0.0-24.0-1.0-0.15","52332","List2A","black","woman","","","","","","","","survey_gender","65","","","I am glad to be my gender.","glad"
"2567.5","","","html-slider-response","473","2449371","0.0-24.0-1.0-0.16","52332","List2A","black","woman","","","","","","","","survey_gender","100","","","I have a lot in common with the average person of my gender.","average"
"1721","","","html-slider-response","474","2451093","0.0-24.0-1.0-0.17","52332","List2A","black","woman","","","","","","","","survey_gender","100","","","I feel solidarity with my friends.","filler"
