rt,stimulus,button_pressed,trial_type,trial_index,time_elapsed,internal_node_id,subject,list,ppt_race,ppt_gender,url,first_guess,correct,key_press,responses,image_type,phrase_type,test_part,response,stimulus1,stimulus2,question_type,survey_item
3702.4,Welcome to the experiment. Press Continue to begin.,0,html-button-response,0,3719,0.0-0.0,54362,List2A,white,man,,,,,,,,,,,,,
50090.2,,,external-html,1,55687,0.0-1.0,54362,List2A,white,man,consent.html,,,,,,,,,,,,
17692.5,"<p>On the next page, you will see portraits of 8 people and their names.</p><p>Your first task is to take a few minutes to memorise the names of these people.</p><p>You will have to recall their names during the rest of the experiment, so it is</p><p>essential that you try to memorise these people and their names as best as you can.</p><br><p><strong>You will then be tested on your memory of these names and portraits.</strong></p><br><p>The experiment will start after you have completed this memory test.</p><br><p>Ready?</p>",0,html-button-response,2,73385,0.0-2.0,54362,List2A,white,man,,,,,,,,,,,,,
30494.8,"<img src='img/portrait_matrix_list2.jpg' style='width:900px;height:500px;''></img><p>If you have memorised all the portraits and names and are ready to start, press Continue.</p><p><strong>Please note: Your memory of these faces will be tested 4 times during this experiment.</strong></p>",0,html-button-response,3,104895,0.0-3.0-0.0,54362,List2A,white,man,,,,,,,,,,,,,
7783.1,"<img src=""portrait/WM1.jpg""style=""height:400px;""></img>",6,html-button-response,4,113705,0.0-3.0-1.0,54362,List2A,white,man,,TRUE,6,,,,,,,,,,
null,CORRECT,,html-keyboard-response,5,115245,0.0-3.0-2.0-0.0,54362,List2A,white,man,,,,null,,,,,,,,,
6738.8,"<img src=""portrait/WW1.jpg""style=""height:400px;""></img>",1,html-button-response,6,121988,0.0-3.0-4.0,54362,List2A,white,man,,TRUE,1,,,,,,,,,,
null,CORRECT,,html-keyboard-response,7,123543,0.0-3.0-5.0-0.0,54362,List2A,white,man,,,,null,,,,,,,,,
6027.9,"<img src=""portrait/BM2.jpg""style=""height:400px;""></img>",5,html-button-response,8,129580,0.0-3.0-7.0,54362,List2A,white,man,,TRUE,5,,,,,,,,,,
null,CORRECT,,html-keyboard-response,9,131089,0.0-3.0-8.0-0.0,54362,List2A,white,man,,,,null,,,,,,,,,
9325.9,"<img src=""portrait/WM2.jpg""style=""height:400px;""></img>",7,html-button-response,10,140420,0.0-3.0-10.0,54362,List2A,white,man,,TRUE,7,,,,,,,,,,
null,CORRECT,,html-keyboard-response,11,141933,0.0-3.0-11.0-0.0,54362,List2A,white,man,,,,null,,,,,,,,,
1249.4,"<img src=""portrait/BM1.jpg""style=""height:400px;""></img>",7,html-button-response,12,143189,0.0-3.0-13.0,54362,List2A,white,man,,TRUE,4,,,,,,,,,,
5509,"<img src=""portrait/BM1.jpg""style=""height:400px;""></img>",4,html-button-response,13,149716,0.0-3.0-15.0-0.0,54362,List2A,white,man,,FALSE,4,,,,,,,,,,
null,CORRECT,,html-keyboard-response,14,151237,0.0-3.0-15.0-1.0-0.0,54362,List2A,white,man,,,,null,,,,,,,,,
5126.4,"<img src=""portrait/BW1.jpg""style=""height:400px;""></img>",0,html-button-response,15,156370,0.0-3.0-16.0,54362,List2A,white,man,,TRUE,0,,,,,,,,,,
null,CORRECT,,html-keyboard-response,16,157885,0.0-3.0-17.0-0.0,54362,List2A,white,man,,,,null,,,,,,,,,
5610.4,"<img src=""portrait/WW2.jpg""style=""height:400px;""></img>",3,html-button-response,17,163500,0.0-3.0-19.0,54362,List2A,white,man,,TRUE,3,,,,,,,,,,
null,CORRECT,,html-keyboard-response,18,165023,0.0-3.0-20.0-0.0,54362,List2A,white,man,,,,null,,,,,,,,,
4770.6,"<img src=""portrait/BW2.jpg""style=""height:400px;""></img>",2,html-button-response,19,169798,0.0-3.0-22.0,54362,List2A,white,man,,TRUE,2,,,,,,,,,,
null,CORRECT,,html-keyboard-response,20,171312,0.0-3.0-23.0-0.0,54362,List2A,white,man,,,,null,,,,,,,,,
9546.5,<p>You got 7 out of 8 right first time. Press Continue.</p>,0,html-button-response,21,180861,0.0-3.0-25.0,54362,List2A,white,man,,,,,,,,,,,,,
4460.9,"As you did not score 100%, the memory game will repeat. Press Continue.",0,html-button-response,22,186330,0.0-3.0-26.0-0.0,54362,List2A,white,man,,,,,,,,,,,,,
18133.5,"<img src='img/portrait_matrix_list2.jpg' style='width:900px;height:500px;''></img><p>If you have memorised all the portraits and names and are ready to start, press Continue.</p><p><strong>Please note: Your memory of these faces will be tested 4 times during this experiment.</strong></p>",0,html-button-response,23,205476,0.0-3.1-0.1,54362,List2A,white,man,,,,,,,,,,,,,
5625.6,"<img src=""portrait/WM1.jpg""style=""height:400px;""></img>",5,html-button-response,24,212119,0.0-3.1-1.1,54362,List2A,white,man,,TRUE,6,,,,,,,,,,
6153.2,"<img src=""portrait/WM1.jpg""style=""height:400px;""></img>",6,html-button-response,25,219286,0.0-3.1-3.1-0.1,54362,List2A,white,man,,FALSE,6,,,,,,,,,,
null,CORRECT,,html-keyboard-response,26,220813,0.0-3.1-3.1-1.1-0.1,54362,List2A,white,man,,,,null,,,,,,,,,
4974.1,"<img src=""portrait/WW1.jpg""style=""height:400px;""></img>",1,html-button-response,27,225791,0.0-3.1-4.1,54362,List2A,white,man,,TRUE,1,,,,,,,,,,
null,CORRECT,,html-keyboard-response,28,227326,0.0-3.1-5.1-0.1,54362,List2A,white,man,,,,null,,,,,,,,,
4309.7,"<img src=""portrait/BM2.jpg""style=""height:400px;""></img>",5,html-button-response,29,231639,0.0-3.1-7.1,54362,List2A,white,man,,TRUE,5,,,,,,,,,,
null,CORRECT,,html-keyboard-response,30,233176,0.0-3.1-8.1-0.1,54362,List2A,white,man,,,,null,,,,,,,,,
5164.5,"<img src=""portrait/WM2.jpg""style=""height:400px;""></img>",7,html-button-response,31,238347,0.0-3.1-10.1,54362,List2A,white,man,,TRUE,7,,,,,,,,,,
null,CORRECT,,html-keyboard-response,32,239884,0.0-3.1-11.1-0.1,54362,List2A,white,man,,,,null,,,,,,,,,
2775.1,"<img src=""portrait/BM1.jpg""style=""height:400px;""></img>",4,html-button-response,33,242666,0.0-3.1-13.1,54362,List2A,white,man,,TRUE,4,,,,,,,,,,
null,CORRECT,,html-keyboard-response,34,244203,0.0-3.1-14.1-0.1,54362,List2A,white,man,,,,null,,,,,,,,,
4190.7,"<img src=""portrait/BW1.jpg""style=""height:400px;""></img>",0,html-button-response,35,248401,0.0-3.1-16.1,54362,List2A,white,man,,TRUE,0,,,,,,,,,,
null,CORRECT,,html-keyboard-response,36,249939,0.0-3.1-17.1-0.1,54362,List2A,white,man,,,,null,,,,,,,,,
4796.7,"<img src=""portrait/WW2.jpg""style=""height:400px;""></img>",3,html-button-response,37,254743,0.0-3.1-19.1,54362,List2A,white,man,,TRUE,3,,,,,,,,,,
null,CORRECT,,html-keyboard-response,38,256258,0.0-3.1-20.1-0.1,54362,List2A,white,man,,,,null,,,,,,,,,
3189.8,"<img src=""portrait/BW2.jpg""style=""height:400px;""></img>",2,html-button-response,39,259455,0.0-3.1-22.1,54362,List2A,white,man,,TRUE,2,,,,,,,,,,
null,CORRECT,,html-keyboard-response,40,260986,0.0-3.1-23.1-0.1,54362,List2A,white,man,,,,null,,,,,,,,,
2623.8,<p>You got 7 out of 8 right first time. Press Continue.</p>,0,html-button-response,41,263618,0.0-3.1-25.1,54362,List2A,white,man,,,,,,,,,,,,,
2096.7,"As you did not score 100%, the memory game will repeat. Press Continue.",0,html-button-response,42,266737,0.0-3.1-26.1-0.1,54362,List2A,white,man,,,,,,,,,,,,,
18618.1,"<img src='img/portrait_matrix_list2.jpg' style='width:900px;height:500px;''></img><p>If you have memorised all the portraits and names and are ready to start, press Continue.</p><p><strong>Please note: Your memory of these faces will be tested 4 times during this experiment.</strong></p>",0,html-button-response,43,286376,0.0-3.2-0.2,54362,List2A,white,man,,,,,,,,,,,,,
6232.7,"<img src=""portrait/WM1.jpg""style=""height:400px;""></img>",6,html-button-response,44,293631,0.0-3.2-1.2,54362,List2A,white,man,,TRUE,6,,,,,,,,,,
null,CORRECT,,html-keyboard-response,45,295150,0.0-3.2-2.2-0.2,54362,List2A,white,man,,,,null,,,,,,,,,
4696.4,"<img src=""portrait/WW1.jpg""style=""height:400px;""></img>",1,html-button-response,46,299855,0.0-3.2-4.2,54362,List2A,white,man,,TRUE,1,,,,,,,,,,
null,CORRECT,,html-keyboard-response,47,301387,0.0-3.2-5.2-0.2,54362,List2A,white,man,,,,null,,,,,,,,,
4844.4,"<img src=""portrait/BM2.jpg""style=""height:400px;""></img>",5,html-button-response,48,306240,0.0-3.2-7.2,54362,List2A,white,man,,TRUE,5,,,,,,,,,,
null,CORRECT,,html-keyboard-response,49,307773,0.0-3.2-8.2-0.2,54362,List2A,white,man,,,,null,,,,,,,,,
3234.9,"<img src=""portrait/WM2.jpg""style=""height:400px;""></img>",7,html-button-response,50,311016,0.0-3.2-10.2,54362,List2A,white,man,,TRUE,7,,,,,,,,,,
null,CORRECT,,html-keyboard-response,51,312536,0.0-3.2-11.2-0.2,54362,List2A,white,man,,,,null,,,,,,,,,
2800.7,"<img src=""portrait/BM1.jpg""style=""height:400px;""></img>",4,html-button-response,52,315346,0.0-3.2-13.2,54362,List2A,white,man,,TRUE,4,,,,,,,,,,
null,CORRECT,,html-keyboard-response,53,316879,0.0-3.2-14.2-0.2,54362,List2A,white,man,,,,null,,,,,,,,,
3743.7,"<img src=""portrait/BW1.jpg""style=""height:400px;""></img>",0,html-button-response,54,320627,0.0-3.2-16.2,54362,List2A,white,man,,TRUE,0,,,,,,,,,,
null,CORRECT,,html-keyboard-response,55,322163,0.0-3.2-17.2-0.2,54362,List2A,white,man,,,,null,,,,,,,,,
2346.7,"<img src=""portrait/WW2.jpg""style=""height:400px;""></img>",3,html-button-response,56,324516,0.0-3.2-19.2,54362,List2A,white,man,,TRUE,3,,,,,,,,,,
null,CORRECT,,html-keyboard-response,57,326046,0.0-3.2-20.2-0.2,54362,List2A,white,man,,,,null,,,,,,,,,
2817.9,"<img src=""portrait/BW2.jpg""style=""height:400px;""></img>",2,html-button-response,58,328870,0.0-3.2-22.2,54362,List2A,white,man,,TRUE,2,,,,,,,,,,
null,CORRECT,,html-keyboard-response,59,330382,0.0-3.2-23.2-0.2,54362,List2A,white,man,,,,null,,,,,,,,,
3248.4,<p>You got 8 out of 8 right first time. Press Continue.</p>,0,html-button-response,60,333637,0.0-3.2-25.2,54362,List2A,white,man,,,,,,,,,,,,,
67104.7,"<p>In this experiment, you will view photographs of the people from the memory game interacting.</p><p>By using the <strong>exact</strong> phrase given <i>after</i> the photograph appears and recalling the correct names of the people in the photographs, form a sentence describing the interaction. You do not need to capitalise names.</p><p>Type your answer in the space provided. Please complete every sentence before moving onto the next trial.</p><p>You will only have a few seconds to memorise each given photograph and phrase before you can respond, so try your best to focus.</p><p>An example is given below. Press 'Continue' when you are ready.</p><img src='img/speaking_example.jpg' style='width:800px;height:460px;''></img>",0,html-button-response,61,401769,0.0-4.0,54362,List2A,white,man,,,,,,,,,,,,,
5487,"<p>Before the experiment starts, you will watch two example trials. Press 'Continue'.</p>",0,html-button-response,62,408278,0.0-5.0,54362,List2A,white,man,,,,,,,,,,,,,
null,<img src='img/play_eg.gif' style='height:400px;''></img>,,html-keyboard-response,63,411297,0.0-6.0,54362,List2A,white,man,,,,null,,,,,,,,,
null,<p>is playing with</p>,,html-keyboard-response,64,413313,0.0-7.0,54362,List2A,white,man,,,,null,,,,,,,,,
14901.1,<p><b>Answer:</b> jane is playing with ruth</p>,0,html-button-response,65,428218,0.0-8.0,54362,List2A,white,man,,,,,,,,,,,,,
null,<img src='img/dance_eg.gif' style='height:400px;''></img>,,html-keyboard-response,66,431247,0.0-9.0,54362,List2A,white,man,,,,null,,,,,,,,,
null,<p>is being entertained by</p>,,html-keyboard-response,67,433254,0.0-10.0,54362,List2A,white,man,,,,null,,,,,,,,,
11990,<p><b>Answer:</b> fred is being entertained by mike</p>,0,html-button-response,68,445246,0.0-11.0,54362,List2A,white,man,,,,,,,,,,,,,
15044.8,"<p>Ready to start the experiment?</p><br><p><strong>Remember to describe the picture using a full sentence,</strong></p><p><strong>that combines the names of the people with the <i>exact</i> phrase given.</strong></p><p><strong>To receive full payment you must do this correctly.</strong></p><p><strong> You do not need to capitalise names or use punctuation.</strong></p><br><p>Press 'Continue' to begin.</p>",0,html-button-response,69,461307,0.0-12.0,54362,List2A,white,man,,,,,,,,,,,,,
null,"<div style=""font-size:60px;"">+</div>",,html-keyboard-response,70,462828,0.0-13.0-0.0,54362,List2A,white,man,,,,null,,,,,,,,,
null,"<img src=""stim_listA/look4.gif""style=""height:400px;""></stim_listA>",,html-keyboard-response,71,464841,0.0-13.0-1.0,54362,List2A,white,man,,,,null,,,,,,,,,
null,is being looked at by,,html-keyboard-response,72,466860,0.0-13.0-2.0,54362,List2A,white,man,,,,null,,,,,,,,,
38229.1,,,survey-text,73,505110,0.0-13.0-3.0,54362,List2A,white,man,,,,,"{""Q0"":""kate is being looked at by mike""}","<img src=""stim_listA/look4.gif""style=""height:400px;""></stim_listA>",is being looked at by,,,,,,
null,"<div style=""font-size:60px;"">+</div>",,html-keyboard-response,74,505617,0.0-13.0-0.1,54362,List2A,white,man,,,,null,,,,,,,,,
null,"<img src=""stim_listA/kiss5.gif""style=""height:400px;""></stim_listA>",,html-keyboard-response,75,507623,0.0-13.0-1.1,54362,List2A,white,man,,,,null,,,,,,,,,
null,is kissing,,html-keyboard-response,76,509631,0.0-13.0-2.1,54362,List2A,white,man,,,,null,,,,,,,,,
17742.9,,,survey-text,77,527388,0.0-13.0-3.1,54362,List2A,white,man,,,,,"{""Q0"":""fred is kissing luke""}","<img src=""stim_listA/kiss5.gif""style=""height:400px;""></stim_listA>",is kissing,,,,,,
null,"<div style=""font-size:60px;"">+</div>",,html-keyboard-response,78,527904,0.0-13.0-0.2,54362,List2A,white,man,,,,null,,,,,,,,,
null,"<img src=""stim_listA/shout1.gif""style=""height:400px;""></stim_listA>",,html-keyboard-response,79,529918,0.0-13.0-1.2,54362,List2A,white,man,,,,null,,,,,,,,,
null,is shouting at,,html-keyboard-response,80,531926,0.0-13.0-2.2,54362,List2A,white,man,,,,null,,,,,,,,,
19481.9,,,survey-text,81,551427,0.0-13.0-3.2,54362,List2A,white,man,,,,,"{""Q0"":""luke is shouting at ruth""}","<img src=""stim_listA/shout1.gif""style=""height:400px;""></stim_listA>",is shouting at,,,,,,
null,"<div style=""font-size:60px;"">+</div>",,html-keyboard-response,82,551942,0.0-13.0-0.3,54362,List2A,white,man,,,,null,,,,,,,,,
null,"<img src=""stim_listA/oppose4.gif""style=""height:400px;""></stim_listA>",,html-keyboard-response,83,553962,0.0-13.0-1.3,54362,List2A,white,man,,,,null,,,,,,,,,
null,is being opposed by,,html-keyboard-response,84,555966,0.0-13.0-2.3,54362,List2A,white,man,,,,null,,,,,,,,,
16980.5,,,survey-text,85,572953,0.0-13.0-3.3,54362,List2A,white,man,,,,,"{""Q0"":""beth                     ""}","<img src=""stim_listA/oppose4.gif""style=""height:400px;""></stim_listA>",is being opposed by,,,,,,
null,"<div style=""font-size:60px;"">+</div>",,html-keyboard-response,86,573459,0.0-13.0-0.4,54362,List2A,white,man,,,,null,,,,,,,,,
null,"<img src=""stim_listA/copy3.gif""style=""height:400px;""></stim_listA>",,html-keyboard-response,87,575477,0.0-13.0-1.4,54362,List2A,white,man,,,,null,,,,,,,,,
null,is copying,,html-keyboard-response,88,577496,0.0-13.0-2.4,54362,List2A,white,man,,,,null,,,,,,,,,
18914.1,,,survey-text,89,596459,0.0-13.0-3.4,54362,List2A,white,man,,,,,"{""Q0"":""beth is copying mike""}","<img src=""stim_listA/copy3.gif""style=""height:400px;""></stim_listA>",is copying,,,,,,
null,"<div style=""font-size:60px;"">+</div>",,html-keyboard-response,90,596969,0.0-13.0-0.5,54362,List2A,white,man,,,,null,,,,,,,,,
null,"<img src=""stim_listA/look1.gif""style=""height:400px;""></stim_listA>",,html-keyboard-response,91,598992,0.0-13.0-1.5,54362,List2A,white,man,,,,null,,,,,,,,,
null,is looking at,,html-keyboard-response,92,601004,0.0-13.0-2.5,54362,List2A,white,man,,,,null,,,,,,,,,
11925.7,,,survey-text,93,612947,0.0-13.0-3.5,54362,List2A,white,man,,,,,"{""Q0"":""luke is looking at ruth""}","<img src=""stim_listA/look1.gif""style=""height:400px;""></stim_listA>",is looking at,,,,,,
null,"<div style=""font-size:60px;"">+</div>",,html-keyboard-response,94,613464,0.0-13.0-0.6,54362,List2A,white,man,,,,null,,,,,,,,,
null,"<img src=""stim_listA/hug7.gif""style=""height:400px;""></stim_listA>",,html-keyboard-response,95,615479,0.0-13.0-1.6,54362,List2A,white,man,,,,null,,,,,,,,,
null,is hugging,,html-keyboard-response,96,617483,0.0-13.0-2.6,54362,List2A,white,man,,,,null,,,,,,,,,
14736.6,,,survey-text,97,632226,0.0-13.0-3.6,54362,List2A,white,man,,,,,"{""Q0"":""beth is hugging ruth""}","<img src=""stim_listA/hug7.gif""style=""height:400px;""></stim_listA>",is hugging,,,,,,
null,"<div style=""font-size:60px;"">+</div>",,html-keyboard-response,98,632742,0.0-13.0-0.7,54362,List2A,white,man,,,,null,,,,,,,,,
null,"<img src=""stim_listA/shout5.gif""style=""height:400px;""></stim_listA>",,html-keyboard-response,99,634768,0.0-13.0-1.7,54362,List2A,white,man,,,,null,,,,,,,,,
null,is shouting at,,html-keyboard-response,100,636774,0.0-13.0-2.7,54362,List2A,white,man,,,,null,,,,,,,,,
29311.4,,,survey-text,101,666099,0.0-13.0-3.7,54362,List2A,white,man,,,,,"{""Q0"":""fred is shouting at luke""}","<img src=""stim_listA/shout5.gif""style=""height:400px;""></stim_listA>",is shouting at,,,,,,
null,"<div style=""font-size:60px;"">+</div>",,html-keyboard-response,102,666619,0.0-13.0-0.8,54362,List2A,white,man,,,,null,,,,,,,,,
null,"<img src=""stim_listA/kiss8.gif""style=""height:400px;""></stim_listA>",,html-keyboard-response,103,668642,0.0-13.0-1.8,54362,List2A,white,man,,,,null,,,,,,,,,
null,is being kissed by,,html-keyboard-response,104,670648,0.0-13.0-2.8,54362,List2A,white,man,,,,null,,,,,,,,,
19595.1,,,survey-text,105,690261,0.0-13.0-3.8,54362,List2A,white,man,,,,,"{""Q0"":""jane is being kissed by kate""}","<img src=""stim_listA/kiss8.gif""style=""height:400px;""></stim_listA>",is being kissed by,,,,,,
null,"<div style=""font-size:60px;"">+</div>",,html-keyboard-response,106,690769,0.0-13.0-0.9,54362,List2A,white,man,,,,null,,,,,,,,,
null,"<img src=""stim_listA/challenge7.gif""style=""height:400px;""></stim_listA>",,html-keyboard-response,107,692795,0.0-13.0-1.9,54362,List2A,white,man,,,,null,,,,,,,,,
null,is challenging,,html-keyboard-response,108,694802,0.0-13.0-2.9,54362,List2A,white,man,,,,null,,,,,,,,,
17250.6,,,survey-text,109,712071,0.0-13.0-3.9,54362,List2A,white,man,,,,,"{""Q0"":""beth is challenging kate""}","<img src=""stim_listA/challenge7.gif""style=""height:400px;""></stim_listA>",is challenging,,,,,,
null,"<div style=""font-size:60px;"">+</div>",,html-keyboard-response,110,712590,0.0-13.0-0.10,54362,List2A,white,man,,,,null,,,,,,,,,
null,"<img src=""stim_listA/seduce3.gif""style=""height:400px;""></stim_listA>",,html-keyboard-response,111,714601,0.0-13.0-1.10,54362,List2A,white,man,,,,null,,,,,,,,,
null,is seducing,,html-keyboard-response,112,716610,0.0-13.0-2.10,54362,List2A,white,man,,,,null,,,,,,,,,
19623.7,,,survey-text,113,736250,0.0-13.0-3.10,54362,List2A,white,man,,,,,"{""Q0"":""fred is seducing kate""}","<img src=""stim_listA/seduce3.gif""style=""height:400px;""></stim_listA>",is seducing,,,,,,
null,"<div style=""font-size:60px;"">+</div>",,html-keyboard-response,114,736762,0.0-13.0-0.11,54362,List2A,white,man,,,,null,,,,,,,,,
null,"<img src=""stim_listA/oppose3.gif""style=""height:400px;""></stim_listA>",,html-keyboard-response,115,738793,0.0-13.0-1.11,54362,List2A,white,man,,,,null,,,,,,,,,
null,is opposing,,html-keyboard-response,116,740807,0.0-13.0-2.11,54362,List2A,white,man,,,,null,,,,,,,,,
43235.7,,,survey-text,117,784057,0.0-13.0-3.11,54362,List2A,white,man,,,,,"{""Q0"":""mike is opposing beth""}","<img src=""stim_listA/oppose3.gif""style=""height:400px;""></stim_listA>",is opposing,,,,,,
null,"<div style=""font-size:60px;"">+</div>",,html-keyboard-response,118,784574,0.0-13.0-0.12,54362,List2A,white,man,,,,null,,,,,,,,,
null,"<img src=""stim_listA/seduce4.gif""style=""height:400px;""></stim_listA>",,html-keyboard-response,119,786583,0.0-13.0-1.12,54362,List2A,white,man,,,,null,,,,,,,,,
null,is being seduced by,,html-keyboard-response,120,788600,0.0-13.0-2.12,54362,List2A,white,man,,,,null,,,,,,,,,
80981.8,,,survey-text,121,869598,0.0-13.0-3.12,54362,List2A,white,man,,,,,"{""Q0"":""mike is being seduced by beth""}","<img src=""stim_listA/seduce4.gif""style=""height:400px;""></stim_listA>",is being seduced by,,,,,,
null,"<div style=""font-size:60px;"">+</div>",,html-keyboard-response,122,870107,0.0-13.0-0.13,54362,List2A,white,man,,,,null,,,,,,,,,
null,"<img src=""stim_listA/greet4.gif""style=""height:400px;""></stim_listA>",,html-keyboard-response,123,872119,0.0-13.0-1.13,54362,List2A,white,man,,,,null,,,,,,,,,
null,is being greeted by,,html-keyboard-response,124,874129,0.0-13.0-2.13,54362,List2A,white,man,,,,null,,,,,,,,,
18252.4,,,survey-text,125,892407,0.0-13.0-3.13,54362,List2A,white,man,,,,,"{""Q0"":""fred is being greeted by beth""}","<img src=""stim_listA/greet4.gif""style=""height:400px;""></stim_listA>",is being greeted by,,,,,,
null,"<div style=""font-size:60px;"">+</div>",,html-keyboard-response,126,892912,0.0-13.0-0.14,54362,List2A,white,man,,,,null,,,,,,,,,
null,"<img src=""stim_listA/hug6.gif""style=""height:400px;""></stim_listA>",,html-keyboard-response,127,894928,0.0-13.0-1.14,54362,List2A,white,man,,,,null,,,,,,,,,
null,is being hugged by,,html-keyboard-response,128,896933,0.0-13.0-2.14,54362,List2A,white,man,,,,null,,,,,,,,,
17272.4,,,survey-text,129,914210,0.0-13.0-3.14,54362,List2A,white,man,,,,,"{""Q0"":""mike is being hugged by dave""}","<img src=""stim_listA/hug6.gif""style=""height:400px;""></stim_listA>",is being hugged by,,,,,,
null,"<div style=""font-size:60px;"">+</div>",,html-keyboard-response,130,914726,0.0-13.0-0.15,54362,List2A,white,man,,,,null,,,,,,,,,
null,"<img src=""stim_listA/look3.gif""style=""height:400px;""></stim_listA>",,html-keyboard-response,131,916750,0.0-13.0-1.15,54362,List2A,white,man,,,,null,,,,,,,,,
null,is looking at,,html-keyboard-response,132,918771,0.0-13.0-2.15,54362,List2A,white,man,,,,null,,,,,,,,,
9863.4,,,survey-text,133,928662,0.0-13.0-3.15,54362,List2A,white,man,,,,,"{""Q0"":""beth is looking at fred""}","<img src=""stim_listA/look3.gif""style=""height:400px;""></stim_listA>",is looking at,,,,,,
null,"<div style=""font-size:60px;"">+</div>",,html-keyboard-response,134,929176,0.0-13.0-0.16,54362,List2A,white,man,,,,null,,,,,,,,,
null,"<img src=""stim_listA/copy8.gif""style=""height:400px;""></stim_listA>",,html-keyboard-response,135,931186,0.0-13.0-1.16,54362,List2A,white,man,,,,null,,,,,,,,,
null,is being copied by,,html-keyboard-response,136,933199,0.0-13.0-2.16,54362,List2A,white,man,,,,null,,,,,,,,,
22967.6,,,survey-text,137,956176,0.0-13.0-3.16,54362,List2A,white,man,,,,,"{""Q0"":""ruth is being copied by kate""}","<img src=""stim_listA/copy8.gif""style=""height:400px;""></stim_listA>",is being copied by,,,,,,
null,"<div style=""font-size:60px;"">+</div>",,html-keyboard-response,138,956691,0.0-13.0-0.17,54362,List2A,white,man,,,,null,,,,,,,,,
null,"<img src=""stim_listA/hug2.gif""style=""height:400px;""></stim_listA>",,html-keyboard-response,139,958712,0.0-13.0-1.17,54362,List2A,white,man,,,,null,,,,,,,,,
null,is being hugged by,,html-keyboard-response,140,960735,0.0-13.0-2.17,54362,List2A,white,man,,,,null,,,,,,,,,
15202,,,survey-text,141,975954,0.0-13.0-3.17,54362,List2A,white,man,,,,,"{""Q0"":""jane is being hugged by dave""}","<img src=""stim_listA/hug2.gif""style=""height:400px;""></stim_listA>",is being hugged by,,,,,,
null,"<div style=""font-size:60px;"">+</div>",,html-keyboard-response,142,976467,0.0-13.0-0.18,54362,List2A,white,man,,,,null,,,,,,,,,
null,"<img src=""stim_listA/touch2.gif""style=""height:400px;""></stim_listA>",,html-keyboard-response,143,978480,0.0-13.0-1.18,54362,List2A,white,man,,,,null,,,,,,,,,
null,is being touched by,,html-keyboard-response,144,980487,0.0-13.0-2.18,54362,List2A,white,man,,,,null,,,,,,,,,
18603.4,,,survey-text,145,999125,0.0-13.0-3.18,54362,List2A,white,man,,,,,"{""Q0"":""ruth is being touched luke""}","<img src=""stim_listA/touch2.gif""style=""height:400px;""></stim_listA>",is being touched by,,,,,,
null,"<div style=""font-size:60px;"">+</div>",,html-keyboard-response,146,999645,0.0-13.0-0.19,54362,List2A,white,man,,,,null,,,,,,,,,
null,"<img src=""stim_listA/shout6.gif""style=""height:400px;""></stim_listA>",,html-keyboard-response,147,1001658,0.0-13.0-1.19,54362,List2A,white,man,,,,null,,,,,,,,,
null,is being shouted at by,,html-keyboard-response,148,1003666,0.0-13.0-2.19,54362,List2A,white,man,,,,null,,,,,,,,,
38287.3,,,survey-text,149,1041985,0.0-13.0-3.19,54362,List2A,white,man,,,,,"{""Q0"":"" luke  is being shouted at by mike""}","<img src=""stim_listA/shout6.gif""style=""height:400px;""></stim_listA>",is being shouted at by,,,,,,
11121.3,"<img src='img/portrait_matrix_list2.jpg' style='width:900px;height:500px;''></img><p>If you have memorised all the portraits and names and are ready to start, press Continue.</p><p><strong>Please note: Your memory of these faces will be tested 4 times during this experiment.</strong></p>",0,html-button-response,150,1053112,0.0-14.0-0.0,54362,List2A,white,man,,,,,,,,,,,,,
7422,"<img src=""portrait/WM1.jpg""style=""height:400px;""></img>",6,html-button-response,151,1061561,0.0-14.0-1.0,54362,List2A,white,man,,TRUE,6,,,,,,,,,,
null,CORRECT,,html-keyboard-response,152,1063100,0.0-14.0-2.0-0.0,54362,List2A,white,man,,,,null,,,,,,,,,
4535.4,"<img src=""portrait/WW2.jpg""style=""height:400px;""></img>",3,html-button-response,153,1067644,0.0-14.0-4.0,54362,List2A,white,man,,TRUE,3,,,,,,,,,,
null,CORRECT,,html-keyboard-response,154,1069168,0.0-14.0-5.0-0.0,54362,List2A,white,man,,,,null,,,,,,,,,
3194.7,"<img src=""portrait/BM1.jpg""style=""height:400px;""></img>",4,html-button-response,155,1072370,0.0-14.0-7.0,54362,List2A,white,man,,TRUE,4,,,,,,,,,,
null,CORRECT,,html-keyboard-response,156,1073899,0.0-14.0-8.0-0.0,54362,List2A,white,man,,,,null,,,,,,,,,
4680.2,"<img src=""portrait/BM2.jpg""style=""height:400px;""></img>",5,html-button-response,157,1078584,0.0-14.0-10.0,54362,List2A,white,man,,TRUE,5,,,,,,,,,,
null,CORRECT,,html-keyboard-response,158,1080119,0.0-14.0-11.0-0.0,54362,List2A,white,man,,,,null,,,,,,,,,
8385.1,"<img src=""portrait/WM2.jpg""style=""height:400px;""></img>",7,html-button-response,159,1088513,0.0-14.0-13.0,54362,List2A,white,man,,TRUE,7,,,,,,,,,,
null,CORRECT,,html-keyboard-response,160,1090041,0.0-14.0-14.0-0.0,54362,List2A,white,man,,,,null,,,,,,,,,
4915.9,"<img src=""portrait/WW1.jpg""style=""height:400px;""></img>",1,html-button-response,161,1094964,0.0-14.0-16.0,54362,List2A,white,man,,TRUE,1,,,,,,,,,,
null,CORRECT,,html-keyboard-response,162,1096481,0.0-14.0-17.0-0.0,54362,List2A,white,man,,,,null,,,,,,,,,
4337.2,"<img src=""portrait/BW2.jpg""style=""height:400px;""></img>",2,html-button-response,163,1100828,0.0-14.0-19.0,54362,List2A,white,man,,TRUE,2,,,,,,,,,,
null,CORRECT,,html-keyboard-response,164,1102353,0.0-14.0-20.0-0.0,54362,List2A,white,man,,,,null,,,,,,,,,
3461.9,"<img src=""portrait/BW1.jpg""style=""height:400px;""></img>",0,html-button-response,165,1105824,0.0-14.0-22.0,54362,List2A,white,man,,TRUE,0,,,,,,,,,,
null,CORRECT,,html-keyboard-response,166,1107347,0.0-14.0-23.0-0.0,54362,List2A,white,man,,,,null,,,,,,,,,
2882.4,<p>You got 8 out of 8 right first time. Press Continue.</p>,0,html-button-response,167,1110233,0.0-14.0-25.0,54362,List2A,white,man,,,,,,,,,,,,,
null,"<div style=""font-size:60px;"">+</div>",,html-keyboard-response,168,1111738,0.0-15.0-0.0,54362,List2A,white,man,,,,null,,,,,,,,,
null,"<img src=""stim_listA/oppose6.gif""style=""height:400px;""></stim_listA>",,html-keyboard-response,169,1113758,0.0-15.0-1.0,54362,List2A,white,man,,,,null,,,,,,,,,
null,is being opposed by,,html-keyboard-response,170,1115777,0.0-15.0-2.0,54362,List2A,white,man,,,,null,,,,,,,,,
73646.8,,,survey-text,171,1189440,0.0-15.0-3.0,54362,List2A,white,man,,,,,"{""Q0"":""luke is being opposed by fred""}","<img src=""stim_listA/oppose6.gif""style=""height:400px;""></stim_listA>",is being opposed by,,,,,,
null,"<div style=""font-size:60px;"">+</div>",,html-keyboard-response,172,1189955,0.0-15.0-0.1,54362,List2A,white,man,,,,null,,,,,,,,,
null,"<img src=""stim_listA/copy5.gif""style=""height:400px;""></stim_listA>",,html-keyboard-response,173,1191961,0.0-15.0-1.1,54362,List2A,white,man,,,,null,,,,,,,,,
null,is copying,,html-keyboard-response,174,1193967,0.0-15.0-2.1,54362,List2A,white,man,,,,null,,,,,,,,,
20847.4,,,survey-text,175,1214822,0.0-15.0-3.1,54362,List2A,white,man,,,,,"{""Q0"":""fred is copying dave""}","<img src=""stim_listA/copy5.gif""style=""height:400px;""></stim_listA>",is copying,,,,,,
null,"<div style=""font-size:60px;"">+</div>",,html-keyboard-response,176,1215338,0.0-15.0-0.2,54362,List2A,white,man,,,,null,,,,,,,,,
null,"<img src=""stim_listA/copy7.gif""style=""height:400px;""></stim_listA>",,html-keyboard-response,177,1217349,0.0-15.0-1.2,54362,List2A,white,man,,,,null,,,,,,,,,
null,is copying,,html-keyboard-response,178,1219355,0.0-15.0-2.2,54362,List2A,white,man,,,,null,,,,,,,,,
37743.5,,,survey-text,179,1257116,0.0-15.0-3.2,54362,List2A,white,man,,,,,"{""Q0"":""beth is copying kate""}","<img src=""stim_listA/copy7.gif""style=""height:400px;""></stim_listA>",is copying,,,,,,
null,"<div style=""font-size:60px;"">+</div>",,html-keyboard-response,180,1257627,0.0-15.0-0.3,54362,List2A,white,man,,,,null,,,,,,,,,
null,"<img src=""stim_listA/shout2.gif""style=""height:400px;""></stim_listA>",,html-keyboard-response,181,1259641,0.0-15.0-1.3,54362,List2A,white,man,,,,null,,,,,,,,,
null,is being shouted at by,,html-keyboard-response,182,1261646,0.0-15.0-2.3,54362,List2A,white,man,,,,null,,,,,,,,,
20467.1,,,survey-text,183,1282162,0.0-15.0-3.3,54362,List2A,white,man,,,,,"{""Q0"":""dave is being shouted at by jane""}","<img src=""stim_listA/shout2.gif""style=""height:400px;""></stim_listA>",is being shouted at by,,,,,,
null,"<div style=""font-size:60px;"">+</div>",,html-keyboard-response,184,1282669,0.0-15.0-0.4,54362,List2A,white,man,,,,null,,,,,,,,,
null,"<img src=""stim_listA/challenge8.gif""style=""height:400px;""></stim_listA>",,html-keyboard-response,185,1284684,0.0-15.0-1.4,54362,List2A,white,man,,,,null,,,,,,,,,
null,is being challenged by,,html-keyboard-response,186,1286700,0.0-15.0-2.4,54362,List2A,white,man,,,,null,,,,,,,,,
24765.6,,,survey-text,187,1311499,0.0-15.0-3.4,54362,List2A,white,man,,,,,"{""Q0"":""jane is being challenged by ruth""}","<img src=""stim_listA/challenge8.gif""style=""height:400px;""></stim_listA>",is being challenged by,,,,,,
null,"<div style=""font-size:60px;"">+</div>",,html-keyboard-response,188,1312017,0.0-15.0-0.5,54362,List2A,white,man,,,,null,,,,,,,,,
null,"<img src=""stim_listA/copy2.gif""style=""height:400px;""></stim_listA>",,html-keyboard-response,189,1314032,0.0-15.0-1.5,54362,List2A,white,man,,,,null,,,,,,,,,
null,is being copied by,,html-keyboard-response,190,1316039,0.0-15.0-2.5,54362,List2A,white,man,,,,null,,,,,,,,,
43878.4,,,survey-text,191,1359933,0.0-15.0-3.5,54362,List2A,white,man,,,,,"{""Q0"":""ruth is copying dave""}","<img src=""stim_listA/copy2.gif""style=""height:400px;""></stim_listA>",is being copied by,,,,,,
null,"<div style=""font-size:60px;"">+</div>",,html-keyboard-response,192,1360440,0.0-15.0-0.6,54362,List2A,white,man,,,,null,,,,,,,,,
null,"<img src=""stim_listA/challenge6.gif""style=""height:400px;""></stim_listA>",,html-keyboard-response,193,1362464,0.0-15.0-1.6,54362,List2A,white,man,,,,null,,,,,,,,,
null,is being challenged by,,html-keyboard-response,194,1364472,0.0-15.0-2.6,54362,List2A,white,man,,,,null,,,,,,,,,
20094.9,,,survey-text,195,1384583,0.0-15.0-3.6,54362,List2A,white,man,,,,,"{""Q0"":""mike is being challenged by luke""}","<img src=""stim_listA/challenge6.gif""style=""height:400px;""></stim_listA>",is being challenged by,,,,,,
null,"<div style=""font-size:60px;"">+</div>",,html-keyboard-response,196,1385089,0.0-15.0-0.7,54362,List2A,white,man,,,,null,,,,,,,,,
null,"<img src=""stim_listA/greet3.gif""style=""height:400px;""></stim_listA>",,html-keyboard-response,197,1387101,0.0-15.0-1.7,54362,List2A,white,man,,,,null,,,,,,,,,
null,is greeting,,html-keyboard-response,198,1389117,0.0-15.0-2.7,54362,List2A,white,man,,,,null,,,,,,,,,
15585.3,,,survey-text,199,1404719,0.0-15.0-3.7,54362,List2A,white,man,,,,,"{""Q0"":""mike is greeting beth""}","<img src=""stim_listA/greet3.gif""style=""height:400px;""></stim_listA>",is greeting,,,,,,
null,"<div style=""font-size:60px;"">+</div>",,html-keyboard-response,200,1405241,0.0-15.0-0.8,54362,List2A,white,man,,,,null,,,,,,,,,
null,"<img src=""stim_listA/shout7.gif""style=""height:400px;""></stim_listA>",,html-keyboard-response,201,1407248,0.0-15.0-1.8,54362,List2A,white,man,,,,null,,,,,,,,,
null,is shouting at,,html-keyboard-response,202,1409254,0.0-15.0-2.8,54362,List2A,white,man,,,,null,,,,,,,,,
14481.8,,,survey-text,203,1423737,0.0-15.0-3.8,54362,List2A,white,man,,,,,"{""Q0"":""beth is shouting ruth""}","<img src=""stim_listA/shout7.gif""style=""height:400px;""></stim_listA>",is shouting at,,,,,,
null,"<div style=""font-size:60px;"">+</div>",,html-keyboard-response,204,1424253,0.0-15.0-0.9,54362,List2A,white,man,,,,null,,,,,,,,,
null,"<img src=""stim_listA/oppose8.gif""style=""height:400px;""></stim_listA>",,html-keyboard-response,205,1426266,0.0-15.0-1.9,54362,List2A,white,man,,,,null,,,,,,,,,
null,is being opposed by,,html-keyboard-response,206,1428272,0.0-15.0-2.9,54362,List2A,white,man,,,,null,,,,,,,,,
36372.9,,,survey-text,207,1464660,0.0-15.0-3.9,54362,List2A,white,man,,,,,"{""Q0"":""beth is being opposed by ruth""}","<img src=""stim_listA/oppose8.gif""style=""height:400px;""></stim_listA>",is being opposed by,,,,,,
null,"<div style=""font-size:60px;"">+</div>",,html-keyboard-response,208,1465179,0.0-15.0-0.10,54362,List2A,white,man,,,,null,,,,,,,,,
null,"<img src=""stim_listA/copy1.gif""style=""height:400px;""></stim_listA>",,html-keyboard-response,209,1467194,0.0-15.0-1.10,54362,List2A,white,man,,,,null,,,,,,,,,
null,is copying,,html-keyboard-response,210,1469202,0.0-15.0-2.10,54362,List2A,white,man,,,,null,,,,,,,,,
35875.3,,,survey-text,211,1505099,0.0-15.0-3.10,54362,List2A,white,man,,,,,"{""Q0"":""ruth is copying dave  ""}","<img src=""stim_listA/copy1.gif""style=""height:400px;""></stim_listA>",is copying,,,,,,
null,"<div style=""font-size:60px;"">+</div>",,html-keyboard-response,212,1505620,0.0-15.0-0.11,54362,List2A,white,man,,,,null,,,,,,,,,
null,"<img src=""stim_listA/look2.gif""style=""height:400px;""></stim_listA>",,html-keyboard-response,213,1507643,0.0-15.0-1.11,54362,List2A,white,man,,,,null,,,,,,,,,
null,is being looked at by,,html-keyboard-response,214,1509650,0.0-15.0-2.11,54362,List2A,white,man,,,,null,,,,,,,,,
27058.3,,,survey-text,215,1536725,0.0-15.0-3.11,54362,List2A,white,man,,,,,"{""Q0"":""jane is being looked at by dave""}","<img src=""stim_listA/look2.gif""style=""height:400px;""></stim_listA>",is being looked at by,,,,,,
null,"<div style=""font-size:60px;"">+</div>",,html-keyboard-response,216,1537241,0.0-15.0-0.12,54362,List2A,white,man,,,,null,,,,,,,,,
null,"<img src=""stim_listA/kiss3.gif""style=""height:400px;""></stim_listA>",,html-keyboard-response,217,1539251,0.0-15.0-1.12,54362,List2A,white,man,,,,null,,,,,,,,,
null,is kissing,,html-keyboard-response,218,1541268,0.0-15.0-2.12,54362,List2A,white,man,,,,null,,,,,,,,,
26585.8,,,survey-text,219,1567867,0.0-15.0-3.12,54362,List2A,white,man,,,,,"{""Q0"":""beth is kissing fred""}","<img src=""stim_listA/kiss3.gif""style=""height:400px;""></stim_listA>",is kissing,,,,,,
null,"<div style=""font-size:60px;"">+</div>",,html-keyboard-response,220,1568389,0.0-15.0-0.13,54362,List2A,white,man,,,,null,,,,,,,,,
null,"<img src=""stim_listA/copy6.gif""style=""height:400px;""></stim_listA>",,html-keyboard-response,221,1570409,0.0-15.0-1.13,54362,List2A,white,man,,,,null,,,,,,,,,
null,is being copied by,,html-keyboard-response,222,1572414,0.0-15.0-2.13,54362,List2A,white,man,,,,null,,,,,,,,,
16818.4,,,survey-text,223,1589249,0.0-15.0-3.13,54362,List2A,white,man,,,,,"{""Q0"":""mike is being copied by luke""}","<img src=""stim_listA/copy6.gif""style=""height:400px;""></stim_listA>",is being copied by,,,,,,
null,"<div style=""font-size:60px;"">+</div>",,html-keyboard-response,224,1589765,0.0-15.0-0.14,54362,List2A,white,man,,,,null,,,,,,,,,
null,"<img src=""stim_listA/seduce8.gif""style=""height:400px;""></stim_listA>",,html-keyboard-response,225,1591775,0.0-15.0-1.14,54362,List2A,white,man,,,,null,,,,,,,,,
null,is being seduced by,,html-keyboard-response,226,1593782,0.0-15.0-2.14,54362,List2A,white,man,,,,null,,,,,,,,,
16292.5,,,survey-text,227,1610085,0.0-15.0-3.14,54362,List2A,white,man,,,,,"{""Q0"":""jane is being seduced by beth""}","<img src=""stim_listA/seduce8.gif""style=""height:400px;""></stim_listA>",is being seduced by,,,,,,
null,"<div style=""font-size:60px;"">+</div>",,html-keyboard-response,228,1610596,0.0-15.0-0.15,54362,List2A,white,man,,,,null,,,,,,,,,
null,"<img src=""stim_listA/touch6.gif""style=""height:400px;""></stim_listA>",,html-keyboard-response,229,1612620,0.0-15.0-1.15,54362,List2A,white,man,,,,null,,,,,,,,,
null,is being touched by,,html-keyboard-response,230,1614642,0.0-15.0-2.15,54362,List2A,white,man,,,,null,,,,,,,,,
13690,,,survey-text,231,1628349,0.0-15.0-3.15,54362,List2A,white,man,,,,,"{""Q0"":""luke is being touched by fred""}","<img src=""stim_listA/touch6.gif""style=""height:400px;""></stim_listA>",is being touched by,,,,,,
null,"<div style=""font-size:60px;"">+</div>",,html-keyboard-response,232,1628865,0.0-15.0-0.16,54362,List2A,white,man,,,,null,,,,,,,,,
null,"<img src=""stim_listA/challenge1.gif""style=""height:400px;""></stim_listA>",,html-keyboard-response,233,1630877,0.0-15.0-1.16,54362,List2A,white,man,,,,null,,,,,,,,,
null,is challenging,,html-keyboard-response,234,1632884,0.0-15.0-2.16,54362,List2A,white,man,,,,null,,,,,,,,,
44531.4,,,survey-text,235,1677428,0.0-15.0-3.16,54362,List2A,white,man,,,,,"{""Q0"":""ruth is being challenged by dave""}","<img src=""stim_listA/challenge1.gif""style=""height:400px;""></stim_listA>",is challenging,,,,,,
null,"<div style=""font-size:60px;"">+</div>",,html-keyboard-response,236,1677944,0.0-15.0-0.17,54362,List2A,white,man,,,,null,,,,,,,,,
null,"<img src=""stim_listA/touch4.gif""style=""height:400px;""></stim_listA>",,html-keyboard-response,237,1679967,0.0-15.0-1.17,54362,List2A,white,man,,,,null,,,,,,,,,
null,is being touched by,,html-keyboard-response,238,1681988,0.0-15.0-2.17,54362,List2A,white,man,,,,null,,,,,,,,,
13909.2,,,survey-text,239,1695914,0.0-15.0-3.17,54362,List2A,white,man,,,,,"{""Q0"":""fred is being touched by beth""}","<img src=""stim_listA/touch4.gif""style=""height:400px;""></stim_listA>",is being touched by,,,,,,
null,"<div style=""font-size:60px;"">+</div>",,html-keyboard-response,240,1696422,0.0-15.0-0.18,54362,List2A,white,man,,,,null,,,,,,,,,
null,"<img src=""stim_listA/shout4.gif""style=""height:400px;""></stim_listA>",,html-keyboard-response,241,1698445,0.0-15.0-1.18,54362,List2A,white,man,,,,null,,,,,,,,,
null,is being shouted at by,,html-keyboard-response,242,1700451,0.0-15.0-2.18,54362,List2A,white,man,,,,null,,,,,,,,,
34725.2,,,survey-text,243,1735195,0.0-15.0-3.18,54362,List2A,white,man,,,,,"{""Q0"":""mike is being shouted at by ruth""}","<img src=""stim_listA/shout4.gif""style=""height:400px;""></stim_listA>",is being shouted at by,,,,,,
null,"<div style=""font-size:60px;"">+</div>",,html-keyboard-response,244,1735704,0.0-15.0-0.19,54362,List2A,white,man,,,,null,,,,,,,,,
null,"<img src=""stim_listA/touch3.gif""style=""height:400px;""></stim_listA>",,html-keyboard-response,245,1737718,0.0-15.0-1.19,54362,List2A,white,man,,,,null,,,,,,,,,
null,is touching,,html-keyboard-response,246,1739726,0.0-15.0-2.19,54362,List2A,white,man,,,,null,,,,,,,,,
13596.4,,,survey-text,247,1753338,0.0-15.0-3.19,54362,List2A,white,man,,,,,"{""Q0"":""kate is touching mike""}","<img src=""stim_listA/touch3.gif""style=""height:400px;""></stim_listA>",is touching,,,,,,
25333.1,"<img src='img/portrait_matrix_list2.jpg' style='width:900px;height:500px;''></img><p>If you have memorised all the portraits and names and are ready to start, press Continue.</p><p><strong>Please note: Your memory of these faces will be tested 4 times during this experiment.</strong></p>",0,html-button-response,248,1778679,0.0-16.0-0.0,54362,List2A,white,man,,,,,,,,,,,,,
8009.8,"<img src=""portrait/WM1.jpg""style=""height:400px;""></img>",6,html-button-response,249,1787702,0.0-16.0-1.0,54362,List2A,white,man,,TRUE,6,,,,,,,,,,
null,CORRECT,,html-keyboard-response,250,1789233,0.0-16.0-2.0-0.0,54362,List2A,white,man,,,,null,,,,,,,,,
6720.4,"<img src=""portrait/BW1.jpg""style=""height:400px;""></img>",0,html-button-response,251,1795962,0.0-16.0-4.0,54362,List2A,white,man,,TRUE,0,,,,,,,,,,
null,CORRECT,,html-keyboard-response,252,1797488,0.0-16.0-5.0-0.0,54362,List2A,white,man,,,,null,,,,,,,,,
3397.7,"<img src=""portrait/BW2.jpg""style=""height:400px;""></img>",2,html-button-response,253,1800893,0.0-16.0-7.0,54362,List2A,white,man,,TRUE,2,,,,,,,,,,
null,CORRECT,,html-keyboard-response,254,1802408,0.0-16.0-8.0-0.0,54362,List2A,white,man,,,,null,,,,,,,,,
2532.3,"<img src=""portrait/BM1.jpg""style=""height:400px;""></img>",4,html-button-response,255,1804950,0.0-16.0-10.0,54362,List2A,white,man,,TRUE,4,,,,,,,,,,
null,CORRECT,,html-keyboard-response,256,1806472,0.0-16.0-11.0-0.0,54362,List2A,white,man,,,,null,,,,,,,,,
3296.3,"<img src=""portrait/WM2.jpg""style=""height:400px;""></img>",7,html-button-response,257,1809775,0.0-16.0-13.0,54362,List2A,white,man,,TRUE,7,,,,,,,,,,
null,CORRECT,,html-keyboard-response,258,1811297,0.0-16.0-14.0-0.0,54362,List2A,white,man,,,,null,,,,,,,,,
2476.8,"<img src=""portrait/BM2.jpg""style=""height:400px;""></img>",5,html-button-response,259,1813782,0.0-16.0-16.0,54362,List2A,white,man,,TRUE,5,,,,,,,,,,
null,CORRECT,,html-keyboard-response,260,1815311,0.0-16.0-17.0-0.0,54362,List2A,white,man,,,,null,,,,,,,,,
3260.8,"<img src=""portrait/WW2.jpg""style=""height:400px;""></img>",3,html-button-response,261,1818579,0.0-16.0-19.0,54362,List2A,white,man,,TRUE,3,,,,,,,,,,
null,CORRECT,,html-keyboard-response,262,1820112,0.0-16.0-20.0-0.0,54362,List2A,white,man,,,,null,,,,,,,,,
4701.4,"<img src=""portrait/WW1.jpg""style=""height:400px;""></img>",1,html-button-response,263,1824820,0.0-16.0-22.0,54362,List2A,white,man,,TRUE,1,,,,,,,,,,
null,CORRECT,,html-keyboard-response,264,1826343,0.0-16.0-23.0-0.0,54362,List2A,white,man,,,,null,,,,,,,,,
2102.8,<p>You got 8 out of 8 right first time. Press Continue.</p>,0,html-button-response,265,1828453,0.0-16.0-25.0,54362,List2A,white,man,,,,,,,,,,,,,
null,"<div style=""font-size:60px;"">+</div>",,html-keyboard-response,266,1829984,0.0-17.0-0.0,54362,List2A,white,man,,,,null,,,,,,,,,
null,"<img src=""stim_listA/touch5.gif""style=""height:400px;""></stim_listA>",,html-keyboard-response,267,1832004,0.0-17.0-1.0,54362,List2A,white,man,,,,null,,,,,,,,,
null,is touching,,html-keyboard-response,268,1834017,0.0-17.0-2.0,54362,List2A,white,man,,,,null,,,,,,,,,
15440.5,,,survey-text,269,1849475,0.0-17.0-3.0,54362,List2A,white,man,,,,,"{""Q0"":""mike is touching dave""}","<img src=""stim_listA/touch5.gif""style=""height:400px;""></stim_listA>",is touching,,,,,,
null,"<div style=""font-size:60px;"">+</div>",,html-keyboard-response,270,1849984,0.0-17.0-0.1,54362,List2A,white,man,,,,null,,,,,,,,,
null,"<img src=""stim_listA/touch7.gif""style=""height:400px;""></stim_listA>",,html-keyboard-response,271,1852008,0.0-17.0-1.1,54362,List2A,white,man,,,,null,,,,,,,,,
null,is touching,,html-keyboard-response,272,1854016,0.0-17.0-2.1,54362,List2A,white,man,,,,null,,,,,,,,,
24382.1,,,survey-text,273,1878427,0.0-17.0-3.1,54362,List2A,white,man,,,,,"{""Q0"":""jane is touching kate""}","<img src=""stim_listA/touch7.gif""style=""height:400px;""></stim_listA>",is touching,,,,,,
null,"<div style=""font-size:60px;"">+</div>",,html-keyboard-response,274,1878942,0.0-17.0-0.2,54362,List2A,white,man,,,,null,,,,,,,,,
null,"<img src=""stim_listA/hug8.gif""style=""height:400px;""></stim_listA>",,html-keyboard-response,275,1880964,0.0-17.0-1.2,54362,List2A,white,man,,,,null,,,,,,,,,
null,is being hugged by,,html-keyboard-response,276,1882973,0.0-17.0-2.2,54362,List2A,white,man,,,,null,,,,,,,,,
15006.5,,,survey-text,277,1898015,0.0-17.0-3.2,54362,List2A,white,man,,,,,"{""Q0"":""jane is being hugged by kate""}","<img src=""stim_listA/hug8.gif""style=""height:400px;""></stim_listA>",is being hugged by,,,,,,
null,"<div style=""font-size:60px;"">+</div>",,html-keyboard-response,278,1898522,0.0-17.0-0.3,54362,List2A,white,man,,,,null,,,,,,,,,
null,"<img src=""stim_listA/greet2.gif""style=""height:400px;""></stim_listA>",,html-keyboard-response,279,1900536,0.0-17.0-1.3,54362,List2A,white,man,,,,null,,,,,,,,,
null,is being greeted by,,html-keyboard-response,280,1902555,0.0-17.0-2.3,54362,List2A,white,man,,,,null,,,,,,,,,
19047.8,,,survey-text,281,1921622,0.0-17.0-3.3,54362,List2A,white,man,,,,,"{""Q0"":""luke is being greeted by jane""}","<img src=""stim_listA/greet2.gif""style=""height:400px;""></stim_listA>",is being greeted by,,,,,,
null,"<div style=""font-size:60px;"">+</div>",,html-keyboard-response,282,1922143,0.0-17.0-0.4,54362,List2A,white,man,,,,null,,,,,,,,,
null,"<img src=""stim_listA/greet1.gif""style=""height:400px;""></stim_listA>",,html-keyboard-response,283,1924154,0.0-17.0-1.4,54362,List2A,white,man,,,,null,,,,,,,,,
null,is greeting,,html-keyboard-response,284,1926166,0.0-17.0-2.4,54362,List2A,white,man,,,,null,,,,,,,,,
12620.5,,,survey-text,285,1938791,0.0-17.0-3.4,54362,List2A,white,man,,,,,"{""Q0"":""ruth is greeting dave ""}","<img src=""stim_listA/greet1.gif""style=""height:400px;""></stim_listA>",is greeting,,,,,,
null,"<div style=""font-size:60px;"">+</div>",,html-keyboard-response,286,1939308,0.0-17.0-0.5,54362,List2A,white,man,,,,null,,,,,,,,,
null,"<img src=""stim_listA/kiss1.gif""style=""height:400px;""></stim_listA>",,html-keyboard-response,287,1941321,0.0-17.0-1.5,54362,List2A,white,man,,,,null,,,,,,,,,
null,is kissing,,html-keyboard-response,288,1943326,0.0-17.0-2.5,54362,List2A,white,man,,,,null,,,,,,,,,
9935.1,,,survey-text,289,1953278,0.0-17.0-3.5,54362,List2A,white,man,,,,,"{""Q0"":""luke is kissing ruth""}","<img src=""stim_listA/kiss1.gif""style=""height:400px;""></stim_listA>",is kissing,,,,,,
null,"<div style=""font-size:60px;"">+</div>",,html-keyboard-response,290,1953793,0.0-17.0-0.6,54362,List2A,white,man,,,,null,,,,,,,,,
null,"<img src=""stim_listA/hug3.gif""style=""height:400px;""></stim_listA>",,html-keyboard-response,291,1955811,0.0-17.0-1.6,54362,List2A,white,man,,,,null,,,,,,,,,
null,is hugging,,html-keyboard-response,292,1957820,0.0-17.0-2.6,54362,List2A,white,man,,,,null,,,,,,,,,
9719.5,,,survey-text,293,1967548,0.0-17.0-3.6,54362,List2A,white,man,,,,,"{""Q0"":""beth is hugging fred""}","<img src=""stim_listA/hug3.gif""style=""height:400px;""></stim_listA>",is hugging,,,,,,
null,"<div style=""font-size:60px;"">+</div>",,html-keyboard-response,294,1968055,0.0-17.0-0.7,54362,List2A,white,man,,,,null,,,,,,,,,
null,"<img src=""stim_listA/kiss4.gif""style=""height:400px;""></stim_listA>",,html-keyboard-response,295,1970066,0.0-17.0-1.7,54362,List2A,white,man,,,,null,,,,,,,,,
null,is being kissed by,,html-keyboard-response,296,1972080,0.0-17.0-2.7,54362,List2A,white,man,,,,null,,,,,,,,,
12229.4,,,survey-text,297,1984322,0.0-17.0-3.7,54362,List2A,white,man,,,,,"{""Q0"":""mike is being kissed by kate""}","<img src=""stim_listA/kiss4.gif""style=""height:400px;""></stim_listA>",is being kissed by,,,,,,
null,"<div style=""font-size:60px;"">+</div>",,html-keyboard-response,298,1984836,0.0-17.0-0.8,54362,List2A,white,man,,,,null,,,,,,,,,
null,"<img src=""stim_listA/hug5.gif""style=""height:400px;""></stim_listA>",,html-keyboard-response,299,1986851,0.0-17.0-1.8,54362,List2A,white,man,,,,null,,,,,,,,,
null,is hugging,,html-keyboard-response,300,1988859,0.0-17.0-2.8,54362,List2A,white,man,,,,null,,,,,,,,,
7821.6,,,survey-text,301,1996733,0.0-17.0-3.8,54362,List2A,white,man,,,,,"{""Q0"":""fred is hugging luke""}","<img src=""stim_listA/hug5.gif""style=""height:400px;""></stim_listA>",is hugging,,,,,,
null,"<div style=""font-size:60px;"">+</div>",,html-keyboard-response,302,1997249,0.0-17.0-0.9,54362,List2A,white,man,,,,null,,,,,,,,,
null,"<img src=""stim_listA/kiss2.gif""style=""height:400px;""></stim_listA>",,html-keyboard-response,303,1999262,0.0-17.0-1.9,54362,List2A,white,man,,,,null,,,,,,,,,
null,is being kissed by,,html-keyboard-response,304,2001270,0.0-17.0-2.9,54362,List2A,white,man,,,,null,,,,,,,,,
15175.2,,,survey-text,305,2016462,0.0-17.0-3.9,54362,List2A,white,man,,,,,"{""Q0"":""dave is being kissed by jane""}","<img src=""stim_listA/kiss2.gif""style=""height:400px;""></stim_listA>",is being kissed by,,,,,,
null,"<div style=""font-size:60px;"">+</div>",,html-keyboard-response,306,2016977,0.0-17.0-0.10,54362,List2A,white,man,,,,null,,,,,,,,,
null,"<img src=""stim_listA/greet5.gif""style=""height:400px;""></stim_listA>",,html-keyboard-response,307,2018991,0.0-17.0-1.10,54362,List2A,white,man,,,,null,,,,,,,,,
null,is greeting,,html-keyboard-response,308,2021002,0.0-17.0-2.10,54362,List2A,white,man,,,,null,,,,,,,,,
9023.1,,,survey-text,309,2030044,0.0-17.0-3.10,54362,List2A,white,man,,,,,"{""Q0"":""fred is greeting dave""}","<img src=""stim_listA/greet5.gif""style=""height:400px;""></stim_listA>",is greeting,,,,,,
null,"<div style=""font-size:60px;"">+</div>",,html-keyboard-response,310,2030566,0.0-17.0-0.11,54362,List2A,white,man,,,,null,,,,,,,,,
null,"<img src=""stim_listA/look7.gif""style=""height:400px;""></stim_listA>",,html-keyboard-response,311,2032590,0.0-17.0-1.11,54362,List2A,white,man,,,,null,,,,,,,,,
null,is looking at,,html-keyboard-response,312,2034611,0.0-17.0-2.11,54362,List2A,white,man,,,,null,,,,,,,,,
23095.7,,,survey-text,313,2057756,0.0-17.0-3.11,54362,List2A,white,man,,,,,"{""Q0"":""beth is looking at ruth""}","<img src=""stim_listA/look7.gif""style=""height:400px;""></stim_listA>",is looking at,,,,,,
null,"<div style=""font-size:60px;"">+</div>",,html-keyboard-response,314,2058277,0.0-17.0-0.12,54362,List2A,white,man,,,,null,,,,,,,,,
null,"<img src=""stim_listA/seduce1.gif""style=""height:400px;""></stim_listA>",,html-keyboard-response,315,2060300,0.0-17.0-1.12,54362,List2A,white,man,,,,null,,,,,,,,,
null,is seducing,,html-keyboard-response,316,2062307,0.0-17.0-2.12,54362,List2A,white,man,,,,null,,,,,,,,,
22799.2,,,survey-text,317,2085116,0.0-17.0-3.12,54362,List2A,white,man,,,,,"{""Q0"":""jane is seducing dave""}","<img src=""stim_listA/seduce1.gif""style=""height:400px;""></stim_listA>",is seducing,,,,,,
null,"<div style=""font-size:60px;"">+</div>",,html-keyboard-response,318,2085636,0.0-17.0-0.13,54362,List2A,white,man,,,,null,,,,,,,,,
null,"<img src=""stim_listA/kiss6.gif""style=""height:400px;""></stim_listA>",,html-keyboard-response,319,2087653,0.0-17.0-1.13,54362,List2A,white,man,,,,null,,,,,,,,,
null,is being kissed by,,html-keyboard-response,320,2089661,0.0-17.0-2.13,54362,List2A,white,man,,,,null,,,,,,,,,
11798.5,,,survey-text,321,2101476,0.0-17.0-3.13,54362,List2A,white,man,,,,,"{""Q0"":""mike is being kissed dave""}","<img src=""stim_listA/kiss6.gif""style=""height:400px;""></stim_listA>",is being kissed by,,,,,,
null,"<div style=""font-size:60px;"">+</div>",,html-keyboard-response,322,2101982,0.0-17.0-0.14,54362,List2A,white,man,,,,null,,,,,,,,,
null,"<img src=""stim_listA/oppose7.gif""style=""height:400px;""></stim_listA>",,html-keyboard-response,323,2104006,0.0-17.0-1.14,54362,List2A,white,man,,,,null,,,,,,,,,
null,is opposing,,html-keyboard-response,324,2106018,0.0-17.0-2.14,54362,List2A,white,man,,,,null,,,,,,,,,
9909.6,,,survey-text,325,2115946,0.0-17.0-3.14,54362,List2A,white,man,,,,,"{""Q0"":""jane is opposing kate""}","<img src=""stim_listA/oppose7.gif""style=""height:400px;""></stim_listA>",is opposing,,,,,,
null,"<div style=""font-size:60px;"">+</div>",,html-keyboard-response,326,2116452,0.0-17.0-0.15,54362,List2A,white,man,,,,null,,,,,,,,,
null,"<img src=""stim_listA/shout8.gif""style=""height:400px;""></stim_listA>",,html-keyboard-response,327,2118466,0.0-17.0-1.15,54362,List2A,white,man,,,,null,,,,,,,,,
null,is being shouted at by,,html-keyboard-response,328,2120484,0.0-17.0-2.15,54362,List2A,white,man,,,,null,,,,,,,,,
12688.8,,,survey-text,329,2133190,0.0-17.0-3.15,54362,List2A,white,man,,,,,"{""Q0"":""jane is being shouted at by kate""}","<img src=""stim_listA/shout8.gif""style=""height:400px;""></stim_listA>",is being shouted at by,,,,,,
null,"<div style=""font-size:60px;"">+</div>",,html-keyboard-response,330,2133696,0.0-17.0-0.16,54362,List2A,white,man,,,,null,,,,,,,,,
null,"<img src=""stim_listA/oppose2.gif""style=""height:400px;""></stim_listA>",,html-keyboard-response,331,2135705,0.0-17.0-1.16,54362,List2A,white,man,,,,null,,,,,,,,,
null,is being opposed by,,html-keyboard-response,332,2137717,0.0-17.0-2.16,54362,List2A,white,man,,,,null,,,,,,,,,
17010.4,,,survey-text,333,2154737,0.0-17.0-3.16,54362,List2A,white,man,,,,,"{""Q0"":""luke is being opposed by ruth""}","<img src=""stim_listA/oppose2.gif""style=""height:400px;""></stim_listA>",is being opposed by,,,,,,
null,"<div style=""font-size:60px;"">+</div>",,html-keyboard-response,334,2155243,0.0-17.0-0.17,54362,List2A,white,man,,,,null,,,,,,,,,
null,"<img src=""stim_listA/look5.gif""style=""height:400px;""></stim_listA>",,html-keyboard-response,335,2157255,0.0-17.0-1.17,54362,List2A,white,man,,,,null,,,,,,,,,
null,is looking at,,html-keyboard-response,336,2159265,0.0-17.0-2.17,54362,List2A,white,man,,,,null,,,,,,,,,
14696,,,survey-text,337,2173979,0.0-17.0-3.17,54362,List2A,white,man,,,,,"{""Q0"":""fred is looking at luke""}","<img src=""stim_listA/look5.gif""style=""height:400px;""></stim_listA>",is looking at,,,,,,
null,"<div style=""font-size:60px;"">+</div>",,html-keyboard-response,338,2174498,0.0-17.0-0.18,54362,List2A,white,man,,,,null,,,,,,,,,
null,"<img src=""stim_listA/kiss7.gif""style=""height:400px;""></stim_listA>",,html-keyboard-response,339,2176516,0.0-17.0-1.18,54362,List2A,white,man,,,,null,,,,,,,,,
null,is kissing,,html-keyboard-response,340,2178525,0.0-17.0-2.18,54362,List2A,white,man,,,,null,,,,,,,,,
11486.4,,,survey-text,341,2190057,0.0-17.0-3.18,54362,List2A,white,man,,,,,"{""Q0"":""beth is kissing ruth""}","<img src=""stim_listA/kiss7.gif""style=""height:400px;""></stim_listA>",is kissing,,,,,,
null,"<div style=""font-size:60px;"">+</div>",,html-keyboard-response,342,2190570,0.0-17.0-0.19,54362,List2A,white,man,,,,null,,,,,,,,,
null,"<img src=""stim_listA/seduce5.gif""style=""height:400px;""></stim_listA>",,html-keyboard-response,343,2192580,0.0-17.0-1.19,54362,List2A,white,man,,,,null,,,,,,,,,
null,is seducing,,html-keyboard-response,344,2194591,0.0-17.0-2.19,54362,List2A,white,man,,,,null,,,,,,,,,
11757.8,,,survey-text,345,2206366,0.0-17.0-3.19,54362,List2A,white,man,,,,,"{""Q0"":""mike is seducing luke""}","<img src=""stim_listA/seduce5.gif""style=""height:400px;""></stim_listA>",is seducing,,,,,,
10856.6,"<img src='img/portrait_matrix_list2.jpg' style='width:900px;height:500px;''></img><p>If you have memorised all the portraits and names and are ready to start, press Continue.</p><p><strong>Please note: Your memory of these faces will be tested 4 times during this experiment.</strong></p>",0,html-button-response,346,2217228,0.0-18.0-0.0,54362,List2A,white,man,,,,,,,,,,,,,
13740,"<img src=""portrait/WW2.jpg""style=""height:400px;""></img>",3,html-button-response,347,2231984,0.0-18.0-1.0,54362,List2A,white,man,,TRUE,3,,,,,,,,,,
null,CORRECT,,html-keyboard-response,348,2233501,0.0-18.0-2.0-0.0,54362,List2A,white,man,,,,null,,,,,,,,,
4002.9,"<img src=""portrait/BW2.jpg""style=""height:400px;""></img>",2,html-button-response,349,2237512,0.0-18.0-4.0,54362,List2A,white,man,,TRUE,2,,,,,,,,,,
null,CORRECT,,html-keyboard-response,350,2239022,0.0-18.0-5.0-0.0,54362,List2A,white,man,,,,null,,,,,,,,,
2642.7,"<img src=""portrait/WM2.jpg""style=""height:400px;""></img>",7,html-button-response,351,2241674,0.0-18.0-7.0,54362,List2A,white,man,,TRUE,7,,,,,,,,,,
null,CORRECT,,html-keyboard-response,352,2243204,0.0-18.0-8.0-0.0,54362,List2A,white,man,,,,null,,,,,,,,,
5889.6,"<img src=""portrait/WW1.jpg""style=""height:400px;""></img>",1,html-button-response,353,2249102,0.0-18.0-10.0,54362,List2A,white,man,,TRUE,1,,,,,,,,,,
null,CORRECT,,html-keyboard-response,354,2250622,0.0-18.0-11.0-0.0,54362,List2A,white,man,,,,null,,,,,,,,,
2640.9,"<img src=""portrait/BM1.jpg""style=""height:400px;""></img>",4,html-button-response,355,2253271,0.0-18.0-13.0,54362,List2A,white,man,,TRUE,4,,,,,,,,,,
null,CORRECT,,html-keyboard-response,356,2254795,0.0-18.0-14.0-0.0,54362,List2A,white,man,,,,null,,,,,,,,,
3151.7,"<img src=""portrait/BW1.jpg""style=""height:400px;""></img>",0,html-button-response,357,2257954,0.0-18.0-16.0,54362,List2A,white,man,,TRUE,0,,,,,,,,,,
null,CORRECT,,html-keyboard-response,358,2259476,0.0-18.0-17.0-0.0,54362,List2A,white,man,,,,null,,,,,,,,,
3302.7,"<img src=""portrait/BM2.jpg""style=""height:400px;""></img>",5,html-button-response,359,2262792,0.0-18.0-19.0,54362,List2A,white,man,,TRUE,5,,,,,,,,,,
null,CORRECT,,html-keyboard-response,360,2264326,0.0-18.0-20.0-0.0,54362,List2A,white,man,,,,null,,,,,,,,,
6497.7,"<img src=""portrait/WM1.jpg""style=""height:400px;""></img>",6,html-button-response,361,2270830,0.0-18.0-22.0,54362,List2A,white,man,,TRUE,6,,,,,,,,,,
null,CORRECT,,html-keyboard-response,362,2272363,0.0-18.0-23.0-0.0,54362,List2A,white,man,,,,null,,,,,,,,,
2493.4,<p>You got 8 out of 8 right first time. Press Continue.</p>,0,html-button-response,363,2274864,0.0-18.0-25.0,54362,List2A,white,man,,,,,,,,,,,,,
null,"<div style=""font-size:60px;"">+</div>",,html-keyboard-response,364,2276398,0.0-19.0-0.0,54362,List2A,white,man,,,,null,,,,,,,,,
null,"<img src=""stim_listA/oppose1.gif""style=""height:400px;""></stim_listA>",,html-keyboard-response,365,2278416,0.0-19.0-1.0,54362,List2A,white,man,,,,null,,,,,,,,,
null,is opposing,,html-keyboard-response,366,2280425,0.0-19.0-2.0,54362,List2A,white,man,,,,null,,,,,,,,,
20897.7,,,survey-text,367,2301341,0.0-19.0-3.0,54362,List2A,white,man,,,,,"{""Q0"":""jane is opposing dave""}","<img src=""stim_listA/oppose1.gif""style=""height:400px;""></stim_listA>",is opposing,,,,,,
null,"<div style=""font-size:60px;"">+</div>",,html-keyboard-response,368,2301858,0.0-19.0-0.1,54362,List2A,white,man,,,,null,,,,,,,,,
null,"<img src=""stim_listA/seduce6.gif""style=""height:400px;""></stim_listA>",,html-keyboard-response,369,2303864,0.0-19.0-1.1,54362,List2A,white,man,,,,null,,,,,,,,,
null,is being seduced by,,html-keyboard-response,370,2305871,0.0-19.0-2.1,54362,List2A,white,man,,,,null,,,,,,,,,
22560.8,,,survey-text,371,2328439,0.0-19.0-3.1,54362,List2A,white,man,,,,,"{""Q0"":""fred is being seduced by dave""}","<img src=""stim_listA/seduce6.gif""style=""height:400px;""></stim_listA>",is being seduced by,,,,,,
null,"<div style=""font-size:60px;"">+</div>",,html-keyboard-response,372,2328982,0.0-19.0-0.2,54362,List2A,white,man,,,,null,,,,,,,,,
null,"<img src=""stim_listA/look6.gif""style=""height:400px;""></stim_listA>",,html-keyboard-response,373,2330994,0.0-19.0-1.2,54362,List2A,white,man,,,,null,,,,,,,,,
null,is being looked at by,,html-keyboard-response,374,2333010,0.0-19.0-2.2,54362,List2A,white,man,,,,null,,,,,,,,,
27139.3,,,survey-text,375,2360176,0.0-19.0-3.2,54362,List2A,white,man,,,,,"{""Q0"":""dave is being looked at by mike""}","<img src=""stim_listA/look6.gif""style=""height:400px;""></stim_listA>",is being looked at by,,,,,,
null,"<div style=""font-size:60px;"">+</div>",,html-keyboard-response,376,2360693,0.0-19.0-0.3,54362,List2A,white,man,,,,null,,,,,,,,,
null,"<img src=""stim_listA/shout3.gif""style=""height:400px;""></stim_listA>",,html-keyboard-response,377,2362711,0.0-19.0-1.3,54362,List2A,white,man,,,,null,,,,,,,,,
null,is shouting at,,html-keyboard-response,378,2364716,0.0-19.0-2.3,54362,List2A,white,man,,,,null,,,,,,,,,
15213.4,,,survey-text,379,2379946,0.0-19.0-3.3,54362,List2A,white,man,,,,,"{""Q0"":""fred is shouting at beth""}","<img src=""stim_listA/shout3.gif""style=""height:400px;""></stim_listA>",is shouting at,,,,,,
null,"<div style=""font-size:60px;"">+</div>",,html-keyboard-response,380,2380450,0.0-19.0-0.4,54362,List2A,white,man,,,,null,,,,,,,,,
null,"<img src=""stim_listA/challenge4.gif""style=""height:400px;""></stim_listA>",,html-keyboard-response,381,2382469,0.0-19.0-1.4,54362,List2A,white,man,,,,null,,,,,,,,,
null,is being challenged by,,html-keyboard-response,382,2384476,0.0-19.0-2.4,54362,List2A,white,man,,,,null,,,,,,,,,
12987.8,,,survey-text,383,2397481,0.0-19.0-3.4,54362,List2A,white,man,,,,,"{""Q0"":""fred is being challenged by kate""}","<img src=""stim_listA/challenge4.gif""style=""height:400px;""></stim_listA>",is being challenged by,,,,,,
null,"<div style=""font-size:60px;"">+</div>",,html-keyboard-response,384,2398006,0.0-19.0-0.5,54362,List2A,white,man,,,,null,,,,,,,,,
null,"<img src=""stim_listA/challenge2.gif""style=""height:400px;""></stim_listA>",,html-keyboard-response,385,2400020,0.0-19.0-1.5,54362,List2A,white,man,,,,null,,,,,,,,,
null,is being challenged by,,html-keyboard-response,386,2402031,0.0-19.0-2.5,54362,List2A,white,man,,,,null,,,,,,,,,
40235.6,,,survey-text,387,2442302,0.0-19.0-3.5,54362,List2A,white,man,,,,,"{""Q0"":""luke is being challenged by jane""}","<img src=""stim_listA/challenge2.gif""style=""height:400px;""></stim_listA>",is being challenged by,,,,,,
null,"<div style=""font-size:60px;"">+</div>",,html-keyboard-response,388,2442818,0.0-19.0-0.6,54362,List2A,white,man,,,,null,,,,,,,,,
null,"<img src=""stim_listA/copy4.gif""style=""height:400px;""></stim_listA>",,html-keyboard-response,389,2444839,0.0-19.0-1.6,54362,List2A,white,man,,,,null,,,,,,,,,
null,is being copied by,,html-keyboard-response,390,2446852,0.0-19.0-2.6,54362,List2A,white,man,,,,null,,,,,,,,,
18063.1,,,survey-text,391,2464970,0.0-19.0-3.6,54362,List2A,white,man,,,,,"{""Q0"":""fred is being copied by kate""}","<img src=""stim_listA/copy4.gif""style=""height:400px;""></stim_listA>",is being copied by,,,,,,
null,"<div style=""font-size:60px;"">+</div>",,html-keyboard-response,392,2465480,0.0-19.0-0.7,54362,List2A,white,man,,,,null,,,,,,,,,
null,"<img src=""stim_listA/seduce7.gif""style=""height:400px;""></stim_listA>",,html-keyboard-response,393,2467506,0.0-19.0-1.7,54362,List2A,white,man,,,,null,,,,,,,,,
null,is seducing,,html-keyboard-response,394,2469524,0.0-19.0-2.7,54362,List2A,white,man,,,,null,,,,,,,,,
10294.8,,,survey-text,395,2479830,0.0-19.0-3.7,54362,List2A,white,man,,,,,"{""Q0"":""kate is seducing ruth""}","<img src=""stim_listA/seduce7.gif""style=""height:400px;""></stim_listA>",is seducing,,,,,,
null,"<div style=""font-size:60px;"">+</div>",,html-keyboard-response,396,2480336,0.0-19.0-0.8,54362,List2A,white,man,,,,null,,,,,,,,,
null,"<img src=""stim_listA/challenge5.gif""style=""height:400px;""></stim_listA>",,html-keyboard-response,397,2482355,0.0-19.0-1.8,54362,List2A,white,man,,,,null,,,,,,,,,
null,is challenging,,html-keyboard-response,398,2484368,0.0-19.0-2.8,54362,List2A,white,man,,,,null,,,,,,,,,
17616.8,,,survey-text,399,2502003,0.0-19.0-3.8,54362,List2A,white,man,,,,,"{""Q0"":""dave is challenging fred""}","<img src=""stim_listA/challenge5.gif""style=""height:400px;""></stim_listA>",is challenging,,,,,,
null,"<div style=""font-size:60px;"">+</div>",,html-keyboard-response,400,2502521,0.0-19.0-0.9,54362,List2A,white,man,,,,null,,,,,,,,,
null,"<img src=""stim_listA/touch1.gif""style=""height:400px;""></stim_listA>",,html-keyboard-response,401,2504544,0.0-19.0-1.9,54362,List2A,white,man,,,,null,,,,,,,,,
null,is touching,,html-keyboard-response,402,2506551,0.0-19.0-2.9,54362,List2A,white,man,,,,null,,,,,,,,,
10881.2,,,survey-text,403,2517447,0.0-19.0-3.9,54362,List2A,white,man,,,,,"{""Q0"":""jane is touching dave""}","<img src=""stim_listA/touch1.gif""style=""height:400px;""></stim_listA>",is touching,,,,,,
null,"<div style=""font-size:60px;"">+</div>",,html-keyboard-response,404,2517953,0.0-19.0-0.10,54362,List2A,white,man,,,,null,,,,,,,,,
null,"<img src=""stim_listA/hug4.gif""style=""height:400px;""></stim_listA>",,html-keyboard-response,405,2519979,0.0-19.0-1.10,54362,List2A,white,man,,,,null,,,,,,,,,
null,is being hugged by,,html-keyboard-response,406,2521985,0.0-19.0-2.10,54362,List2A,white,man,,,,null,,,,,,,,,
11524.8,,,survey-text,407,2533520,0.0-19.0-3.10,54362,List2A,white,man,,,,,"{""Q0"":""kate is being hugged by mike""}","<img src=""stim_listA/hug4.gif""style=""height:400px;""></stim_listA>",is being hugged by,,,,,,
null,"<div style=""font-size:60px;"">+</div>",,html-keyboard-response,408,2534041,0.0-19.0-0.11,54362,List2A,white,man,,,,null,,,,,,,,,
null,"<img src=""stim_listA/challenge3.gif""style=""height:400px;""></stim_listA>",,html-keyboard-response,409,2536063,0.0-19.0-1.11,54362,List2A,white,man,,,,null,,,,,,,,,
null,is challenging,,html-keyboard-response,410,2538077,0.0-19.0-2.11,54362,List2A,white,man,,,,null,,,,,,,,,
9785.7,,,survey-text,411,2547880,0.0-19.0-3.11,54362,List2A,white,man,,,,,"{""Q0"":""beth is challenging mike""}","<img src=""stim_listA/challenge3.gif""style=""height:400px;""></stim_listA>",is challenging,,,,,,
null,"<div style=""font-size:60px;"">+</div>",,html-keyboard-response,412,2548386,0.0-19.0-0.12,54362,List2A,white,man,,,,null,,,,,,,,,
null,"<img src=""stim_listA/oppose5.gif""style=""height:400px;""></stim_listA>",,html-keyboard-response,413,2550404,0.0-19.0-1.12,54362,List2A,white,man,,,,null,,,,,,,,,
null,is opposing,,html-keyboard-response,414,2552412,0.0-19.0-2.12,54362,List2A,white,man,,,,null,,,,,,,,,
9993.5,,,survey-text,415,2562413,0.0-19.0-3.12,54362,List2A,white,man,,,,,"{""Q0"":""dave is opposing mike""}","<img src=""stim_listA/oppose5.gif""style=""height:400px;""></stim_listA>",is opposing,,,,,,
null,"<div style=""font-size:60px;"">+</div>",,html-keyboard-response,416,2562933,0.0-19.0-0.13,54362,List2A,white,man,,,,null,,,,,,,,,
null,"<img src=""stim_listA/seduce2.gif""style=""height:400px;""></stim_listA>",,html-keyboard-response,417,2564953,0.0-19.0-1.13,54362,List2A,white,man,,,,null,,,,,,,,,
null,is being seduced by,,html-keyboard-response,418,2566972,0.0-19.0-2.13,54362,List2A,white,man,,,,null,,,,,,,,,
13636.6,,,survey-text,419,2580617,0.0-19.0-3.13,54362,List2A,white,man,,,,,"{""Q0"":""ruth is being seduced by dave""}","<img src=""stim_listA/seduce2.gif""style=""height:400px;""></stim_listA>",is being seduced by,,,,,,
null,"<div style=""font-size:60px;"">+</div>",,html-keyboard-response,420,2581133,0.0-19.0-0.14,54362,List2A,white,man,,,,null,,,,,,,,,
null,"<img src=""stim_listA/greet8.gif""style=""height:400px;""></stim_listA>",,html-keyboard-response,421,2583156,0.0-19.0-1.14,54362,List2A,white,man,,,,null,,,,,,,,,
null,is being greeted by,,html-keyboard-response,422,2585164,0.0-19.0-2.14,54362,List2A,white,man,,,,null,,,,,,,,,
12847.6,,,survey-text,423,2598031,0.0-19.0-3.14,54362,List2A,white,man,,,,,"{""Q0"":""ruth is being greeted by kate""}","<img src=""stim_listA/greet8.gif""style=""height:400px;""></stim_listA>",is being greeted by,,,,,,
null,"<div style=""font-size:60px;"">+</div>",,html-keyboard-response,424,2598546,0.0-19.0-0.15,54362,List2A,white,man,,,,null,,,,,,,,,
null,"<img src=""stim_listA/touch8.gif""style=""height:400px;""></stim_listA>",,html-keyboard-response,425,2600568,0.0-19.0-1.15,54362,List2A,white,man,,,,null,,,,,,,,,
null,is being touched by,,html-keyboard-response,426,2602574,0.0-19.0-2.15,54362,List2A,white,man,,,,null,,,,,,,,,
11526.3,,,survey-text,427,2614117,0.0-19.0-3.15,54362,List2A,white,man,,,,,"{""Q0"":""beth is being touched by ruth""}","<img src=""stim_listA/touch8.gif""style=""height:400px;""></stim_listA>",is being touched by,,,,,,
null,"<div style=""font-size:60px;"">+</div>",,html-keyboard-response,428,2614638,0.0-19.0-0.16,54362,List2A,white,man,,,,null,,,,,,,,,
null,"<img src=""stim_listA/hug1.gif""style=""height:400px;""></stim_listA>",,html-keyboard-response,429,2616650,0.0-19.0-1.16,54362,List2A,white,man,,,,null,,,,,,,,,
null,is hugging,,html-keyboard-response,430,2618667,0.0-19.0-2.16,54362,List2A,white,man,,,,null,,,,,,,,,
20912.4,,,survey-text,431,2639584,0.0-19.0-3.16,54362,List2A,white,man,,,,,"{""Q0"":""luke is hugging ruth""}","<img src=""stim_listA/hug1.gif""style=""height:400px;""></stim_listA>",is hugging,,,,,,
null,"<div style=""font-size:60px;"">+</div>",,html-keyboard-response,432,2640100,0.0-19.0-0.17,54362,List2A,white,man,,,,null,,,,,,,,,
null,"<img src=""stim_listA/greet6.gif""style=""height:400px;""></stim_listA>",,html-keyboard-response,433,2642117,0.0-19.0-1.17,54362,List2A,white,man,,,,null,,,,,,,,,
null,is being greeted by,,html-keyboard-response,434,2644134,0.0-19.0-2.17,54362,List2A,white,man,,,,null,,,,,,,,,
17419.6,,,survey-text,435,2661560,0.0-19.0-3.17,54362,List2A,white,man,,,,,"{""Q0"":""luke is being greeted by mike""}","<img src=""stim_listA/greet6.gif""style=""height:400px;""></stim_listA>",is being greeted by,,,,,,
null,"<div style=""font-size:60px;"">+</div>",,html-keyboard-response,436,2662078,0.0-19.0-0.18,54362,List2A,white,man,,,,null,,,,,,,,,
null,"<img src=""stim_listA/look8.gif""style=""height:400px;""></stim_listA>",,html-keyboard-response,437,2664105,0.0-19.0-1.18,54362,List2A,white,man,,,,null,,,,,,,,,
null,is being looked at by,,html-keyboard-response,438,2666119,0.0-19.0-2.18,54362,List2A,white,man,,,,null,,,,,,,,,
15469.8,,,survey-text,439,2681605,0.0-19.0-3.18,54362,List2A,white,man,,,,,"{""Q0"":""jane is being looked at by kate""}","<img src=""stim_listA/look8.gif""style=""height:400px;""></stim_listA>",is being looked at by,,,,,,
null,"<div style=""font-size:60px;"">+</div>",,html-keyboard-response,440,2682120,0.0-19.0-0.19,54362,List2A,white,man,,,,null,,,,,,,,,
null,"<img src=""stim_listA/greet7.gif""style=""height:400px;""></stim_listA>",,html-keyboard-response,441,2684136,0.0-19.0-1.19,54362,List2A,white,man,,,,null,,,,,,,,,
null,is greeting,,html-keyboard-response,442,2686143,0.0-19.0-2.19,54362,List2A,white,man,,,,null,,,,,,,,,
45852.1,,,survey-text,443,2732012,0.0-19.0-3.19,54362,List2A,white,man,,,,,"{""Q0"":""beth is greeting jane""}","<img src=""stim_listA/greet7.gif""style=""height:400px;""></stim_listA>",is greeting,,,,,,
5338,<p>Thank you for completing that task.</p><p>The final part of this session is a questionnaire that will take about 4 minutes.</p><p>Press Continue.</p>,0,html-button-response,444,2737357,0.0-20.0,54362,List2A,white,man,,,,,,,,,,,,,
66941.9,,,survey-text,445,2805356,0.0-21.0,54362,List2A,white,man,,,,,"{""Q0"":""19"",""Q1"":""english"",""Q2"":""english"",""Q3"":""United States Of America"",""Q4"":""American"",""Q5"":""White"",""Q6"":""male""}",,,demographics,,,,,
6367.7,<p>Have you lived in the USA for the last 5 years or more?</p>,0,html-button-response,446,2811726,0.0-22.0,54362,List2A,white,man,,,,,,,,fiveyears,,,,,
7249.9,<p>Move the slider to show the extent to which you agree with the following statements.</p>,0,html-button-response,447,2819990,0.0-23.0,54362,List2A,white,man,,,,,,,,,,,,,
12414.7,,,html-slider-response,448,2833439,0.0-24.0-0.0-0.0,54362,List2A,white,man,,,,,,,,survey_race,6,,,My age is not an important part of who I am.,filler
12722.5,,,html-slider-response,449,2846169,0.0-24.0-0.0-0.1,54362,List2A,white,man,,,,,,,,survey_race,58,,,People of my race are very similar to each other.,verysimilar
9647.3,,,html-slider-response,450,2855823,0.0-24.0-0.0-0.2,54362,List2A,white,man,,,,,,,,survey_race,65,,,I have a lot in common with people of a similar age to me.,filler
6776.7,,,html-slider-response,451,2862605,0.0-24.0-0.0-0.3,54362,List2A,white,man,,,,,,,,survey_race,77,,,Being my age gives me a good feeling.,filler
4035.9,,,html-slider-response,452,2866650,0.0-24.0-0.0-0.4,54362,List2A,white,man,,,,,,,,survey_race,76,,,I feel committed to my race.,committed
4279.4,,,html-slider-response,453,2870943,0.0-24.0-0.0-0.5,54362,List2A,white,man,,,,,,,,survey_race,70,,,I am glad to be the age I am.,filler
4301.1,,,html-slider-response,454,2875250,0.0-24.0-0.0-0.6,54362,List2A,white,man,,,,,,,,survey_race,86,,,It is pleasant to be my race.,pleasant
4381.9,,,html-slider-response,455,2879640,0.0-24.0-0.0-0.7,54362,List2A,white,man,,,,,,,,survey_race,86,,,Being my race gives me a good feeling.,feeling
8150.1,,,html-slider-response,456,2887795,0.0-24.0-0.0-0.8,54362,List2A,white,man,,,,,,,,survey_race,83,,,I consider myself an extrovert.,filler
6368.1,,,html-slider-response,457,2894170,0.0-24.0-0.0-0.9,54362,List2A,white,man,,,,,,,,survey_race,74,,,I have a lot in common with the average person of my race.,average
4940.2,,,html-slider-response,458,2899117,0.0-24.0-0.0-0.10,54362,List2A,white,man,,,,,,,,survey_race,84,,,I feel a bond with people the same age as me.,filler
4458.3,,,html-slider-response,459,2903584,0.0-24.0-0.0-0.11,54362,List2A,white,man,,,,,,,,survey_race,100,,,I feel a bond with my race.,bond
5847.2,,,html-slider-response,460,2909438,0.0-24.0-0.0-0.12,54362,List2A,white,man,,,,,,,,survey_race,83,,,People my age have a lot in common with each other.,filler
3972.9,,,html-slider-response,461,2913417,0.0-24.0-0.0-0.13,54362,List2A,white,man,,,,,,,,survey_race,84,,,I feel solidarity with my race.,solidarity
5126.8,,,html-slider-response,462,2918552,0.0-24.0-0.0-0.14,54362,List2A,white,man,,,,,,,,survey_race,78,,,Getting older does not worry me.,filler
4207.5,,,html-slider-response,463,2922770,0.0-24.0-0.0-0.15,54362,List2A,white,man,,,,,,,,survey_race,85,,,I am similar to the average person of my race.,similar
4413.8,,,html-slider-response,464,2927195,0.0-24.0-0.0-0.16,54362,List2A,white,man,,,,,,,,survey_race,6,,,I consider myself an introvert.,filler
4791.6,,,html-slider-response,465,2931990,0.0-24.0-0.0-0.17,54362,List2A,white,man,,,,,,,,survey_race,100,,,I am glad to be my race.,glad
8952.1,,,html-slider-response,466,2940951,0.0-24.0-0.0-0.18,54362,List2A,white,man,,,,,,,,survey_race,84,,,I enjoy being in large groups.,filler
5793.3,,,html-slider-response,467,2946753,0.0-24.0-0.0-0.19,54362,List2A,white,man,,,,,,,,survey_race,77,,,Being my race is an important part of how I see myself.,important
8115.7,,,html-slider-response,468,2954875,0.0-24.0-0.0-0.20,54362,List2A,white,man,,,,,,,,survey_race,20,,,I often think about the fact that I am my age.,filler
5496.4,,,html-slider-response,469,2960377,0.0-24.0-0.0-0.21,54362,List2A,white,man,,,,,,,,survey_race,81,,,"The older I get, the wiser I feel.",filler
4642.2,,,html-slider-response,470,2965028,0.0-24.0-0.0-0.22,54362,List2A,white,man,,,,,,,,survey_race,96,,,I think that my race has a lot to be proud of.,proud
5644.2,,,html-slider-response,471,2970680,0.0-24.0-0.0-0.23,54362,List2A,white,man,,,,,,,,survey_race,80,,,People of my race have a lot in common with each other.,common
4189.1,,,html-slider-response,472,2974879,0.0-24.0-0.0-0.24,54362,List2A,white,man,,,,,,,,survey_race,89,,,I feel solidarity with people the same age as me.,filler
4653.5,,,html-slider-response,473,2979545,0.0-24.0-0.0-0.25,54362,List2A,white,man,,,,,,,,survey_race,80,,,I am glad to be my age.,filler
5191.6,,,html-slider-response,474,2984746,0.0-24.0-0.0-0.26,54362,List2A,white,man,,,,,,,,survey_race,22,,,I often think about the fact that I am my race.,often
7001.7,,,html-slider-response,475,2991750,0.0-24.0-0.0-0.27,54362,List2A,white,man,,,,,,,,survey_race,78,,,The fact that I am my race is an important part of my identity.,identity
5561.3,,,html-slider-response,476,2997321,0.0-24.0-1.0-0.0,54362,List2A,white,man,,,,,,,,survey_gender,71,,,I often think about my actions.,filler
7350.7,,,html-slider-response,477,3004680,0.0-24.0-1.0-0.1,54362,List2A,white,man,,,,,,,,survey_gender,14,,,Being around my friends gives me a good feeling.,filler
4105.2,,,html-slider-response,478,3008792,0.0-24.0-1.0-0.2,54362,List2A,white,man,,,,,,,,survey_gender,75,,,I feel committed to my gender.,committed
8613.8,,,html-slider-response,479,3017415,0.0-24.0-1.0-0.3,54362,List2A,white,man,,,,,,,,survey_gender,8,,,I am glad to have the friends that I have.,filler
4631.7,,,html-slider-response,480,3022055,0.0-24.0-1.0-0.4,54362,List2A,white,man,,,,,,,,survey_gender,72,,,Being my gender gives me a good feeling.,feeling
6447.5,,,html-slider-response,481,3028508,0.0-24.0-1.0-0.5,54362,List2A,white,man,,,,,,,,survey_gender,83,,,The fact that I am my gender is an important part of my identity.,identity
5230.2,,,html-slider-response,482,3033745,0.0-24.0-1.0-0.6,54362,List2A,white,man,,,,,,,,survey_gender,22,,,Most of the friends in my life are very similar to me.,filler
4962.1,,,html-slider-response,483,3038713,0.0-24.0-1.0-0.7,54362,List2A,white,man,,,,,,,,survey_gender,67,,,People of my gender are very similar to each other.,verysimilar
4263.1,,,html-slider-response,484,3042982,0.0-24.0-1.0-0.8,54362,List2A,white,man,,,,,,,,survey_gender,25,,,I feel solidarity with my friends.,filler
4012.4,,,html-slider-response,485,3047001,0.0-24.0-1.0-0.9,54362,List2A,white,man,,,,,,,,survey_gender,75,,,Routine is not important to me.,filler
4278.6,,,html-slider-response,486,3051291,0.0-24.0-1.0-0.10,54362,List2A,white,man,,,,,,,,survey_gender,11,,,I would say I am an animal person.,filler
4839.5,,,html-slider-response,487,3056136,0.0-24.0-1.0-0.11,54362,List2A,white,man,,,,,,,,survey_gender,70,,,I think that my gender has a lot to be proud of.,proud
4653.2,,,html-slider-response,488,3060796,0.0-24.0-1.0-0.12,54362,List2A,white,man,,,,,,,,survey_gender,73,,,It is pleasant to be my gender.,pleasant
3818.1,,,html-slider-response,489,3064620,0.0-24.0-1.0-0.13,54362,List2A,white,man,,,,,,,,survey_gender,85,,,I feel a bond with my gender.,bond
3919,,,html-slider-response,490,3068547,0.0-24.0-1.0-0.14,54362,List2A,white,man,,,,,,,,survey_gender,79,,,I am glad to be my gender.,glad
4984.1,,,html-slider-response,491,3073537,0.0-24.0-1.0-0.15,54362,List2A,white,man,,,,,,,,survey_gender,24,,,I have a lot in common with my friends.,filler
6711.1,,,html-slider-response,492,3080254,0.0-24.0-1.0-0.16,54362,List2A,white,man,,,,,,,,survey_gender,22,,,I often think about the fact that I am my gender.,often
4258.6,,,html-slider-response,493,3084521,0.0-24.0-1.0-0.17,54362,List2A,white,man,,,,,,,,survey_gender,75,,,I consider myself a highly empathetic person.,filler
5660.7,,,html-slider-response,494,3090191,0.0-24.0-1.0-0.18,54362,List2A,white,man,,,,,,,,survey_gender,71,,,I have a lot in common with the average person of my gender.,average
5055.3,,,html-slider-response,495,3095253,0.0-24.0-1.0-0.19,54362,List2A,white,man,,,,,,,,survey_gender,70,,,My friends have a lot in common with each other.,filler
4411.2,,,html-slider-response,496,3099670,0.0-24.0-1.0-0.20,54362,List2A,white,man,,,,,,,,survey_gender,68,,,People of my gender have a lot in common with each other.,common
5722.7,,,html-slider-response,497,3105400,0.0-24.0-1.0-0.21,54362,List2A,white,man,,,,,,,,survey_gender,77,,,Family is not more important to me than friendship.,filler
5429.4,,,html-slider-response,498,3110836,0.0-24.0-1.0-0.22,54362,List2A,white,man,,,,,,,,survey_gender,91,,,Being my gender is an important part of how I see myself.,important
4671.2,,,html-slider-response,499,3115513,0.0-24.0-1.0-0.23,54362,List2A,white,man,,,,,,,,survey_gender,18,,,I feel a bond with my friends.,filler
5768.4,,,html-slider-response,500,3121289,0.0-24.0-1.0-0.24,54362,List2A,white,man,,,,,,,,survey_gender,78,,,It is not always easy for people to know what I am thinking.,filler
4137.9,,,html-slider-response,501,3125433,0.0-24.0-1.0-0.25,54362,List2A,white,man,,,,,,,,survey_gender,100,,,I feel solidarity with my gender.,solidarity
5267.5,,,html-slider-response,502,3130709,0.0-24.0-1.0-0.26,54362,List2A,white,man,,,,,,,,survey_gender,15,,,My friends understand me.,filler
3581.9,,,html-slider-response,503,3134297,0.0-24.0-1.0-0.27,54362,List2A,white,man,,,,,,,,survey_gender,76,,,I am similar to the average person of my gender.,similar
25952,,,survey-text,504,3160266,0.0-25.0,54362,List2A,white,man,,,,,"{""Q0"":""ccc""}",,,worker_id,,,,,
7595,,,external-html,505,3170027,0.0-26.0,54362,List2A,white,man,debrief.html,,,,,,,,,,,,
