rt,stimulus,button_pressed,trial_type,trial_index,time_elapsed,internal_node_id,subject,list,ppt_race,ppt_gender,url,first_guess,correct,key_press,responses,image_type,phrase_type,test_part,response,stimulus1,stimulus2,question_type,survey_item
13454.3,Welcome to the experiment. Press Continue to begin.,0,html-button-response,0,13458,0.0-0.0,54428,List1A,black,woman,,,,,,,,,,,,,
27365.7,,,external-html,1,42171,0.0-1.0,54428,List1A,black,woman,consent.html,,,,,,,,,,,,
12382,"<p>On the next page, you will see portraits of 8 people and their names.</p><p>Your first task is to take a few minutes to memorise the names of these people.</p><p>You will have to recall their names during the rest of the experiment, so it is</p><p>essential that you try to memorise these people and their names as best as you can.</p><br><p><strong>You will then be tested on your memory of these names and portraits.</strong></p><br><p>The experiment will start after you have completed this memory test.</p><br><p>Ready?</p>",0,html-button-response,2,54555,0.0-2.0,54428,List1A,black,woman,,,,,,,,,,,,,
13223,"<img src='img/portrait_matrix_list1.jpg' style='width:900px;height:500px;''></img><p>If you have memorised all the portraits and names and are ready to start, press Continue.</p><p><strong>Please note: Your memory of these faces will be tested 4 times during this experiment.</strong></p>",0,html-button-response,3,68781,0.0-3.0-0.0,54428,List1A,black,woman,,,,,,,,,,,,,
13646.3,"<img src=""portrait/BM2.jpg""style=""height:400px;""></img>",5,html-button-response,4,83443,0.0-3.0-1.0,54428,List1A,black,woman,,TRUE,5,,,,,,,,,,
null,CORRECT,,html-keyboard-response,5,84956,0.0-3.0-2.0-0.0,54428,List1A,black,woman,,,,null,,,,,,,,,
4156.8,"<img src=""portrait/WW1.jpg""style=""height:400px;""></img>",1,html-button-response,6,89115,0.0-3.0-4.0,54428,List1A,black,woman,,TRUE,1,,,,,,,,,,
null,CORRECT,,html-keyboard-response,7,90640,0.0-3.0-5.0-0.0,54428,List1A,black,woman,,,,null,,,,,,,,,
5117.4,"<img src=""portrait/BM1.jpg""style=""height:400px;""></img>",4,html-button-response,8,95759,0.0-3.0-7.0,54428,List1A,black,woman,,TRUE,4,,,,,,,,,,
null,CORRECT,,html-keyboard-response,9,97287,0.0-3.0-8.0-0.0,54428,List1A,black,woman,,,,null,,,,,,,,,
5197.7,"<img src=""portrait/WM1.jpg""style=""height:400px;""></img>",6,html-button-response,10,102487,0.0-3.0-10.0,54428,List1A,black,woman,,TRUE,6,,,,,,,,,,
null,CORRECT,,html-keyboard-response,11,104003,0.0-3.0-11.0-0.0,54428,List1A,black,woman,,,,null,,,,,,,,,
6056.1,"<img src=""portrait/BW2.jpg""style=""height:400px;""></img>",2,html-button-response,12,110061,0.0-3.0-13.0,54428,List1A,black,woman,,TRUE,2,,,,,,,,,,
null,CORRECT,,html-keyboard-response,13,111571,0.0-3.0-14.0-0.0,54428,List1A,black,woman,,,,null,,,,,,,,,
4174.1,"<img src=""portrait/WW2.jpg""style=""height:400px;""></img>",3,html-button-response,14,115747,0.0-3.0-16.0,54428,List1A,black,woman,,TRUE,3,,,,,,,,,,
null,CORRECT,,html-keyboard-response,15,117270,0.0-3.0-17.0-0.0,54428,List1A,black,woman,,,,null,,,,,,,,,
5830.1,"<img src=""portrait/WM2.jpg""style=""height:400px;""></img>",7,html-button-response,16,123102,0.0-3.0-19.0,54428,List1A,black,woman,,TRUE,7,,,,,,,,,,
null,CORRECT,,html-keyboard-response,17,124619,0.0-3.0-20.0-0.0,54428,List1A,black,woman,,,,null,,,,,,,,,
8702.7,"<img src=""portrait/BW1.jpg""style=""height:400px;""></img>",0,html-button-response,18,133323,0.0-3.0-22.0,54428,List1A,black,woman,,TRUE,0,,,,,,,,,,
null,CORRECT,,html-keyboard-response,19,134846,0.0-3.0-23.0-0.0,54428,List1A,black,woman,,,,null,,,,,,,,,
1677.1,<p>You got 8 out of 8 right first time. Press Continue.</p>,0,html-button-response,20,136526,0.0-3.0-25.0,54428,List1A,black,woman,,,,,,,,,,,,,
25898.8,"<p>In this experiment, you will view photographs of the people from the memory game interacting.</p><p>By using the <strong>exact</strong> phrase given <i>after</i> the photograph appears and recalling the correct names of the people in the photographs, form a sentence describing the interaction. You do not need to capitalise names.</p><p>Type your answer in the space provided. Please complete every sentence before moving onto the next trial.</p><p>You will only have a few seconds to memorise each given photograph and phrase before you can respond, so try your best to focus.</p><p>An example is given below. Press 'Continue' when you are ready.</p><img src='img/speaking_example.jpg' style='width:800px;height:460px;''></img>",0,html-button-response,21,163442,0.0-4.0,54428,List1A,black,woman,,,,,,,,,,,,,
4741.3,"<p>Before the experiment starts, you will watch two example trials. Press 'Continue'.</p>",0,html-button-response,22,169194,0.0-5.0,54428,List1A,black,woman,,,,,,,,,,,,,
null,<img src='img/play_eg.gif' style='height:400px;''></img>,,html-keyboard-response,23,172217,0.0-6.0,54428,List1A,black,woman,,,,null,,,,,,,,,
null,<p>is playing with</p>,,html-keyboard-response,24,174233,0.0-7.0,54428,List1A,black,woman,,,,null,,,,,,,,,
3421.6,<p><b>Answer:</b> kate is playing with beth</p>,0,html-button-response,25,177656,0.0-8.0,54428,List1A,black,woman,,,,,,,,,,,,,
null,<img src='img/dance_eg.gif' style='height:400px;''></img>,,html-keyboard-response,26,180668,0.0-9.0,54428,List1A,black,woman,,,,null,,,,,,,,,
null,<p>is being entertained by</p>,,html-keyboard-response,27,182683,0.0-10.0,54428,List1A,black,woman,,,,null,,,,,,,,,
2677.7,<p><b>Answer:</b> luke is being entertained by dave</p>,0,html-button-response,28,185362,0.0-11.0,54428,List1A,black,woman,,,,,,,,,,,,,
8345.6,"<p>Ready to start the experiment?</p><br><p><strong>Remember to describe the picture using a full sentence,</strong></p><p><strong>that combines the names of the people with the <i>exact</i> phrase given.</strong></p><p><strong>To receive full payment you must do this correctly.</strong></p><p><strong> You do not need to capitalise names or use punctuation.</strong></p><br><p>Press 'Continue' to begin.</p>",0,html-button-response,29,194720,0.0-12.0,54428,List1A,black,woman,,,,,,,,,,,,,
null,"<div style=""font-size:60px;"">+</div>",,html-keyboard-response,30,196249,0.0-13.0-0.0,54428,List1A,black,woman,,,,null,,,,,,,,,
null,"<img src=""stim_listA/challenge7.gif""style=""height:400px;""></stim_listA>",,html-keyboard-response,31,198265,0.0-13.0-1.0,54428,List1A,black,woman,,,,null,,,,,,,,,
null,is challenging,,html-keyboard-response,32,200267,0.0-13.0-2.0,54428,List1A,black,woman,,,,null,,,,,,,,,
21851.9,,,survey-text,33,222188,0.0-13.0-3.0,54428,List1A,black,woman,,,,,"{""Q0"":""jane and kate""}","<img src=""stim_listA/challenge7.gif""style=""height:400px;""></stim_listA>",is challenging,,,,,,
null,"<div style=""font-size:60px;"">+</div>",,html-keyboard-response,34,222694,0.0-13.0-0.1,54428,List1A,black,woman,,,,null,,,,,,,,,
null,"<img src=""stim_listA/shout3.gif""style=""height:400px;""></stim_listA>",,html-keyboard-response,35,224700,0.0-13.0-1.1,54428,List1A,black,woman,,,,null,,,,,,,,,
null,is shouting at,,html-keyboard-response,36,226715,0.0-13.0-2.1,54428,List1A,black,woman,,,,null,,,,,,,,,
8851.4,,,survey-text,37,235570,0.0-13.0-3.1,54428,List1A,black,woman,,,,,"{""Q0"":""ruth and luke""}","<img src=""stim_listA/shout3.gif""style=""height:400px;""></stim_listA>",is shouting at,,,,,,
null,"<div style=""font-size:60px;"">+</div>",,html-keyboard-response,38,236081,0.0-13.0-0.2,54428,List1A,black,woman,,,,null,,,,,,,,,
null,"<img src=""stim_listA/copy7.gif""style=""height:400px;""></stim_listA>",,html-keyboard-response,39,238098,0.0-13.0-1.2,54428,List1A,black,woman,,,,null,,,,,,,,,
null,is copying,,html-keyboard-response,40,240114,0.0-13.0-2.2,54428,List1A,black,woman,,,,null,,,,,,,,,
10624.5,,,survey-text,41,250743,0.0-13.0-3.2,54428,List1A,black,woman,,,,,"{""Q0"":""ruth and kate""}","<img src=""stim_listA/copy7.gif""style=""height:400px;""></stim_listA>",is copying,,,,,,
null,"<div style=""font-size:60px;"">+</div>",,html-keyboard-response,42,251247,0.0-13.0-0.3,54428,List1A,black,woman,,,,null,,,,,,,,,
null,"<img src=""stim_listA/kiss8.gif""style=""height:400px;""></stim_listA>",,html-keyboard-response,43,253263,0.0-13.0-1.3,54428,List1A,black,woman,,,,null,,,,,,,,,
null,is being kissed by,,html-keyboard-response,44,255266,0.0-13.0-2.3,54428,List1A,black,woman,,,,null,,,,,,,,,
21239,,,survey-text,45,276507,0.0-13.0-3.3,54428,List1A,black,woman,,,,,"{""Q0"":""jane and kate""}","<img src=""stim_listA/kiss8.gif""style=""height:400px;""></stim_listA>",is being kissed by,,,,,,
null,"<div style=""font-size:60px;"">+</div>",,html-keyboard-response,46,277011,0.0-13.0-0.4,54428,List1A,black,woman,,,,null,,,,,,,,,
null,"<img src=""stim_listA/touch3.gif""style=""height:400px;""></stim_listA>",,html-keyboard-response,47,279029,0.0-13.0-1.4,54428,List1A,black,woman,,,,null,,,,,,,,,
null,is touching,,html-keyboard-response,48,281046,0.0-13.0-2.4,54428,List1A,black,woman,,,,null,,,,,,,,,
13340.4,,,survey-text,49,294390,0.0-13.0-3.4,54428,List1A,black,woman,,,,,"{""Q0"":""jane and dave""}","<img src=""stim_listA/touch3.gif""style=""height:400px;""></stim_listA>",is touching,,,,,,
null,"<div style=""font-size:60px;"">+</div>",,html-keyboard-response,50,294895,0.0-13.0-0.5,54428,List1A,black,woman,,,,null,,,,,,,,,
null,"<img src=""stim_listA/hug7.gif""style=""height:400px;""></stim_listA>",,html-keyboard-response,51,296911,0.0-13.0-1.5,54428,List1A,black,woman,,,,null,,,,,,,,,
null,is hugging,,html-keyboard-response,52,298928,0.0-13.0-2.5,54428,List1A,black,woman,,,,null,,,,,,,,,
6056.9,,,survey-text,53,304989,0.0-13.0-3.5,54428,List1A,black,woman,,,,,"{""Q0"":""ruth and beth""}","<img src=""stim_listA/hug7.gif""style=""height:400px;""></stim_listA>",is hugging,,,,,,
null,"<div style=""font-size:60px;"">+</div>",,html-keyboard-response,54,305513,0.0-13.0-0.6,54428,List1A,black,woman,,,,null,,,,,,,,,
null,"<img src=""stim_listA/challenge1.gif""style=""height:400px;""></stim_listA>",,html-keyboard-response,55,307528,0.0-13.0-1.6,54428,List1A,black,woman,,,,null,,,,,,,,,
null,is challenging,,html-keyboard-response,56,309544,0.0-13.0-2.6,54428,List1A,black,woman,,,,null,,,,,,,,,
10337.6,,,survey-text,57,319885,0.0-13.0-3.6,54428,List1A,black,woman,,,,,"{""Q0"":""beth and mike""}","<img src=""stim_listA/challenge1.gif""style=""height:400px;""></stim_listA>",is challenging,,,,,,
null,"<div style=""font-size:60px;"">+</div>",,html-keyboard-response,58,320397,0.0-13.0-0.7,54428,List1A,black,woman,,,,null,,,,,,,,,
null,"<img src=""stim_listA/challenge2.gif""style=""height:400px;""></stim_listA>",,html-keyboard-response,59,322410,0.0-13.0-1.7,54428,List1A,black,woman,,,,null,,,,,,,,,
null,is being challenged by,,html-keyboard-response,60,324414,0.0-13.0-2.7,54428,List1A,black,woman,,,,null,,,,,,,,,
16971.1,,,survey-text,61,341389,0.0-13.0-3.7,54428,List1A,black,woman,,,,,"{""Q0"":""mike and luke""}","<img src=""stim_listA/challenge2.gif""style=""height:400px;""></stim_listA>",is being challenged by,,,,,,
null,"<div style=""font-size:60px;"">+</div>",,html-keyboard-response,62,341894,0.0-13.0-0.8,54428,List1A,black,woman,,,,null,,,,,,,,,
null,"<img src=""stim_listA/challenge4.gif""style=""height:400px;""></stim_listA>",,html-keyboard-response,63,343909,0.0-13.0-1.8,54428,List1A,black,woman,,,,null,,,,,,,,,
null,is being challenged by,,html-keyboard-response,64,345911,0.0-13.0-2.8,54428,List1A,black,woman,,,,null,,,,,,,,,
7228.2,,,survey-text,65,353143,0.0-13.0-3.8,54428,List1A,black,woman,,,,,"{""Q0"":""luke and jane""}","<img src=""stim_listA/challenge4.gif""style=""height:400px;""></stim_listA>",is being challenged by,,,,,,
null,"<div style=""font-size:60px;"">+</div>",,html-keyboard-response,66,353659,0.0-13.0-0.9,54428,List1A,black,woman,,,,null,,,,,,,,,
null,"<img src=""stim_listA/shout8.gif""style=""height:400px;""></stim_listA>",,html-keyboard-response,67,355675,0.0-13.0-1.9,54428,List1A,black,woman,,,,null,,,,,,,,,
null,is being shouted at by,,html-keyboard-response,68,357692,0.0-13.0-2.9,54428,List1A,black,woman,,,,null,,,,,,,,,
9086.7,,,survey-text,69,366782,0.0-13.0-3.9,54428,List1A,black,woman,,,,,"{""Q0"":""kate and jane""}","<img src=""stim_listA/shout8.gif""style=""height:400px;""></stim_listA>",is being shouted at by,,,,,,
null,"<div style=""font-size:60px;"">+</div>",,html-keyboard-response,70,367297,0.0-13.0-0.10,54428,List1A,black,woman,,,,null,,,,,,,,,
null,"<img src=""stim_listA/copy4.gif""style=""height:400px;""></stim_listA>",,html-keyboard-response,71,369307,0.0-13.0-1.10,54428,List1A,black,woman,,,,null,,,,,,,,,
null,is being copied by,,html-keyboard-response,72,371308,0.0-13.0-2.10,54428,List1A,black,woman,,,,null,,,,,,,,,
10798.1,,,survey-text,73,382108,0.0-13.0-3.10,54428,List1A,black,woman,,,,,"{""Q0"":""luke and jane""}","<img src=""stim_listA/copy4.gif""style=""height:400px;""></stim_listA>",is being copied by,,,,,,
null,"<div style=""font-size:60px;"">+</div>",,html-keyboard-response,74,382617,0.0-13.0-0.11,54428,List1A,black,woman,,,,null,,,,,,,,,
null,"<img src=""stim_listA/shout2.gif""style=""height:400px;""></stim_listA>",,html-keyboard-response,75,384625,0.0-13.0-1.11,54428,List1A,black,woman,,,,null,,,,,,,,,
null,is being shouted at by,,html-keyboard-response,76,386633,0.0-13.0-2.11,54428,List1A,black,woman,,,,null,,,,,,,,,
7560.8,,,survey-text,77,394197,0.0-13.0-3.11,54428,List1A,black,woman,,,,,"{""Q0"":"" mike and kate""}","<img src=""stim_listA/shout2.gif""style=""height:400px;""></stim_listA>",is being shouted at by,,,,,,
null,"<div style=""font-size:60px;"">+</div>",,html-keyboard-response,78,394706,0.0-13.0-0.12,54428,List1A,black,woman,,,,null,,,,,,,,,
null,"<img src=""stim_listA/hug2.gif""style=""height:400px;""></stim_listA>",,html-keyboard-response,79,396722,0.0-13.0-1.12,54428,List1A,black,woman,,,,null,,,,,,,,,
null,is being hugged by,,html-keyboard-response,80,398724,0.0-13.0-2.12,54428,List1A,black,woman,,,,null,,,,,,,,,
5269.6,,,survey-text,81,403996,0.0-13.0-3.12,54428,List1A,black,woman,,,,,"{""Q0"":""mike and kate""}","<img src=""stim_listA/hug2.gif""style=""height:400px;""></stim_listA>",is being hugged by,,,,,,
null,"<div style=""font-size:60px;"">+</div>",,html-keyboard-response,82,404505,0.0-13.0-0.13,54428,List1A,black,woman,,,,null,,,,,,,,,
null,"<img src=""stim_listA/look6.gif""style=""height:400px;""></stim_listA>",,html-keyboard-response,83,406523,0.0-13.0-1.13,54428,List1A,black,woman,,,,null,,,,,,,,,
null,is being looked at by,,html-keyboard-response,84,408539,0.0-13.0-2.13,54428,List1A,black,woman,,,,null,,,,,,,,,
10176,,,survey-text,85,418719,0.0-13.0-3.13,54428,List1A,black,woman,,,,,"{""Q0"":""dave and mike""}","<img src=""stim_listA/look6.gif""style=""height:400px;""></stim_listA>",is being looked at by,,,,,,
null,"<div style=""font-size:60px;"">+</div>",,html-keyboard-response,86,419224,0.0-13.0-0.14,54428,List1A,black,woman,,,,null,,,,,,,,,
null,"<img src=""stim_listA/seduce3.gif""style=""height:400px;""></stim_listA>",,html-keyboard-response,87,421237,0.0-13.0-1.14,54428,List1A,black,woman,,,,null,,,,,,,,,
null,is seducing,,html-keyboard-response,88,423240,0.0-13.0-2.14,54428,List1A,black,woman,,,,null,,,,,,,,,
9016.3,,,survey-text,89,432260,0.0-13.0-3.14,54428,List1A,black,woman,,,,,"{""Q0"":""jane and luke""}","<img src=""stim_listA/seduce3.gif""style=""height:400px;""></stim_listA>",is seducing,,,,,,
null,"<div style=""font-size:60px;"">+</div>",,html-keyboard-response,90,432777,0.0-13.0-0.15,54428,List1A,black,woman,,,,null,,,,,,,,,
null,"<img src=""stim_listA/oppose5.gif""style=""height:400px;""></stim_listA>",,html-keyboard-response,91,434788,0.0-13.0-1.15,54428,List1A,black,woman,,,,null,,,,,,,,,
null,is opposing,,html-keyboard-response,92,436805,0.0-13.0-2.15,54428,List1A,black,woman,,,,null,,,,,,,,,
9300.1,,,survey-text,93,446109,0.0-13.0-3.15,54428,List1A,black,woman,,,,,"{""Q0"":""fred and dave""}","<img src=""stim_listA/oppose5.gif""style=""height:400px;""></stim_listA>",is opposing,,,,,,
null,"<div style=""font-size:60px;"">+</div>",,html-keyboard-response,94,446611,0.0-13.0-0.16,54428,List1A,black,woman,,,,null,,,,,,,,,
null,"<img src=""stim_listA/oppose1.gif""style=""height:400px;""></stim_listA>",,html-keyboard-response,95,448622,0.0-13.0-1.16,54428,List1A,black,woman,,,,null,,,,,,,,,
null,is opposing,,html-keyboard-response,96,450638,0.0-13.0-2.16,54428,List1A,black,woman,,,,null,,,,,,,,,
8710.5,,,survey-text,97,459352,0.0-13.0-3.16,54428,List1A,black,woman,,,,,"{""Q0"":""kate and mike""}","<img src=""stim_listA/oppose1.gif""style=""height:400px;""></stim_listA>",is opposing,,,,,,
null,"<div style=""font-size:60px;"">+</div>",,html-keyboard-response,98,459853,0.0-13.0-0.17,54428,List1A,black,woman,,,,null,,,,,,,,,
null,"<img src=""stim_listA/shout5.gif""style=""height:400px;""></stim_listA>",,html-keyboard-response,99,461870,0.0-13.0-1.17,54428,List1A,black,woman,,,,null,,,,,,,,,
null,is shouting at,,html-keyboard-response,100,463885,0.0-13.0-2.17,54428,List1A,black,woman,,,,null,,,,,,,,,
6903.3,,,survey-text,101,470792,0.0-13.0-3.17,54428,List1A,black,woman,,,,,"{""Q0"":""fred and luke""}","<img src=""stim_listA/shout5.gif""style=""height:400px;""></stim_listA>",is shouting at,,,,,,
null,"<div style=""font-size:60px;"">+</div>",,html-keyboard-response,102,471304,0.0-13.0-0.18,54428,List1A,black,woman,,,,null,,,,,,,,,
null,"<img src=""stim_listA/challenge5.gif""style=""height:400px;""></stim_listA>",,html-keyboard-response,103,473320,0.0-13.0-1.18,54428,List1A,black,woman,,,,null,,,,,,,,,
null,is challenging,,html-keyboard-response,104,475336,0.0-13.0-2.18,54428,List1A,black,woman,,,,null,,,,,,,,,
11978.5,,,survey-text,105,487316,0.0-13.0-3.18,54428,List1A,black,woman,,,,,"{""Q0"":""mike and luke""}","<img src=""stim_listA/challenge5.gif""style=""height:400px;""></stim_listA>",is challenging,,,,,,
null,"<div style=""font-size:60px;"">+</div>",,html-keyboard-response,106,487822,0.0-13.0-0.19,54428,List1A,black,woman,,,,null,,,,,,,,,
null,"<img src=""stim_listA/seduce8.gif""style=""height:400px;""></stim_listA>",,html-keyboard-response,107,489836,0.0-13.0-1.19,54428,List1A,black,woman,,,,null,,,,,,,,,
null,is being seduced by,,html-keyboard-response,108,491853,0.0-13.0-2.19,54428,List1A,black,woman,,,,null,,,,,,,,,
15923.4,,,survey-text,109,507780,0.0-13.0-3.19,54428,List1A,black,woman,,,,,"{""Q0"":""ruth and kate""}","<img src=""stim_listA/seduce8.gif""style=""height:400px;""></stim_listA>",is being seduced by,,,,,,
8970.1,"<img src='img/portrait_matrix_list1.jpg' style='width:900px;height:500px;''></img><p>If you have memorised all the portraits and names and are ready to start, press Continue.</p><p><strong>Please note: Your memory of these faces will be tested 4 times during this experiment.</strong></p>",0,html-button-response,110,516751,0.0-14.0-0.0,54428,List1A,black,woman,,,,,,,,,,,,,
4604.8,"<img src=""portrait/WW1.jpg""style=""height:400px;""></img>",1,html-button-response,111,522373,0.0-14.0-1.0,54428,List1A,black,woman,,TRUE,1,,,,,,,,,,
null,CORRECT,,html-keyboard-response,112,523886,0.0-14.0-2.0-0.0,54428,List1A,black,woman,,,,null,,,,,,,,,
3313.3,"<img src=""portrait/BW2.jpg""style=""height:400px;""></img>",2,html-button-response,113,527201,0.0-14.0-4.0,54428,List1A,black,woman,,TRUE,2,,,,,,,,,,
null,CORRECT,,html-keyboard-response,114,528717,0.0-14.0-5.0-0.0,54428,List1A,black,woman,,,,null,,,,,,,,,
2927.1,"<img src=""portrait/WM2.jpg""style=""height:400px;""></img>",7,html-button-response,115,531647,0.0-14.0-7.0,54428,List1A,black,woman,,TRUE,7,,,,,,,,,,
null,CORRECT,,html-keyboard-response,116,533167,0.0-14.0-8.0-0.0,54428,List1A,black,woman,,,,null,,,,,,,,,
4145.3,"<img src=""portrait/BW1.jpg""style=""height:400px;""></img>",0,html-button-response,117,537314,0.0-14.0-10.0,54428,List1A,black,woman,,TRUE,0,,,,,,,,,,
null,CORRECT,,html-keyboard-response,118,538832,0.0-14.0-11.0-0.0,54428,List1A,black,woman,,,,null,,,,,,,,,
3588.4,"<img src=""portrait/WW2.jpg""style=""height:400px;""></img>",3,html-button-response,119,542423,0.0-14.0-13.0,54428,List1A,black,woman,,TRUE,3,,,,,,,,,,
null,CORRECT,,html-keyboard-response,120,543934,0.0-14.0-14.0-0.0,54428,List1A,black,woman,,,,null,,,,,,,,,
2989.1,"<img src=""portrait/WM1.jpg""style=""height:400px;""></img>",6,html-button-response,121,546925,0.0-14.0-16.0,54428,List1A,black,woman,,TRUE,6,,,,,,,,,,
null,CORRECT,,html-keyboard-response,122,548435,0.0-14.0-17.0-0.0,54428,List1A,black,woman,,,,null,,,,,,,,,
4095.9,"<img src=""portrait/BM2.jpg""style=""height:400px;""></img>",5,html-button-response,123,552533,0.0-14.0-19.0,54428,List1A,black,woman,,TRUE,5,,,,,,,,,,
null,CORRECT,,html-keyboard-response,124,554051,0.0-14.0-20.0-0.0,54428,List1A,black,woman,,,,null,,,,,,,,,
3293.3,"<img src=""portrait/BM1.jpg""style=""height:400px;""></img>",4,html-button-response,125,557346,0.0-14.0-22.0,54428,List1A,black,woman,,TRUE,4,,,,,,,,,,
null,CORRECT,,html-keyboard-response,126,558856,0.0-14.0-23.0-0.0,54428,List1A,black,woman,,,,null,,,,,,,,,
2290.8,<p>You got 8 out of 8 right first time. Press Continue.</p>,0,html-button-response,127,561149,0.0-14.0-25.0,54428,List1A,black,woman,,,,,,,,,,,,,
null,"<div style=""font-size:60px;"">+</div>",,html-keyboard-response,128,562666,0.0-15.0-0.0,54428,List1A,black,woman,,,,null,,,,,,,,,
null,"<img src=""stim_listA/kiss4.gif""style=""height:400px;""></stim_listA>",,html-keyboard-response,129,564683,0.0-15.0-1.0,54428,List1A,black,woman,,,,null,,,,,,,,,
null,is being kissed by,,html-keyboard-response,130,566700,0.0-15.0-2.0,54428,List1A,black,woman,,,,null,,,,,,,,,
11473,,,survey-text,131,578177,0.0-15.0-3.0,54428,List1A,black,woman,,,,,"{""Q0"":""jane and dave""}","<img src=""stim_listA/kiss4.gif""style=""height:400px;""></stim_listA>",is being kissed by,,,,,,
null,"<div style=""font-size:60px;"">+</div>",,html-keyboard-response,132,578679,0.0-15.0-0.1,54428,List1A,black,woman,,,,null,,,,,,,,,
null,"<img src=""stim_listA/greet1.gif""style=""height:400px;""></stim_listA>",,html-keyboard-response,133,580698,0.0-15.0-1.1,54428,List1A,black,woman,,,,null,,,,,,,,,
null,is greeting,,html-keyboard-response,134,582704,0.0-15.0-2.1,54428,List1A,black,woman,,,,null,,,,,,,,,
11049.7,,,survey-text,135,593757,0.0-15.0-3.1,54428,List1A,black,woman,,,,,"{""Q0"":""beth and mike""}","<img src=""stim_listA/greet1.gif""style=""height:400px;""></stim_listA>",is greeting,,,,,,
null,"<div style=""font-size:60px;"">+</div>",,html-keyboard-response,136,594264,0.0-15.0-0.2,54428,List1A,black,woman,,,,null,,,,,,,,,
null,"<img src=""stim_listA/hug6.gif""style=""height:400px;""></stim_listA>",,html-keyboard-response,137,596266,0.0-15.0-1.2,54428,List1A,black,woman,,,,null,,,,,,,,,
null,is being hugged by,,html-keyboard-response,138,598280,0.0-15.0-2.2,54428,List1A,black,woman,,,,null,,,,,,,,,
6157.2,,,survey-text,139,604442,0.0-15.0-3.2,54428,List1A,black,woman,,,,,"{""Q0"":""mike and dave""}","<img src=""stim_listA/hug6.gif""style=""height:400px;""></stim_listA>",is being hugged by,,,,,,
null,"<div style=""font-size:60px;"">+</div>",,html-keyboard-response,140,604949,0.0-15.0-0.3,54428,List1A,black,woman,,,,null,,,,,,,,,
null,"<img src=""stim_listA/oppose7.gif""style=""height:400px;""></stim_listA>",,html-keyboard-response,141,606963,0.0-15.0-1.3,54428,List1A,black,woman,,,,null,,,,,,,,,
null,is opposing,,html-keyboard-response,142,608981,0.0-15.0-2.3,54428,List1A,black,woman,,,,null,,,,,,,,,
6975.9,,,survey-text,143,615959,0.0-15.0-3.3,54428,List1A,black,woman,,,,,"{""Q0"":""kate and jane""}","<img src=""stim_listA/oppose7.gif""style=""height:400px;""></stim_listA>",is opposing,,,,,,
null,"<div style=""font-size:60px;"">+</div>",,html-keyboard-response,144,616466,0.0-15.0-0.4,54428,List1A,black,woman,,,,null,,,,,,,,,
null,"<img src=""stim_listA/oppose8.gif""style=""height:400px;""></stim_listA>",,html-keyboard-response,145,618481,0.0-15.0-1.4,54428,List1A,black,woman,,,,null,,,,,,,,,
null,is being opposed by,,html-keyboard-response,146,620496,0.0-15.0-2.4,54428,List1A,black,woman,,,,null,,,,,,,,,
8133.8,,,survey-text,147,628633,0.0-15.0-3.4,54428,List1A,black,woman,,,,,"{""Q0"":""ruth and beth""}","<img src=""stim_listA/oppose8.gif""style=""height:400px;""></stim_listA>",is being opposed by,,,,,,
null,"<div style=""font-size:60px;"">+</div>",,html-keyboard-response,148,629145,0.0-15.0-0.5,54428,List1A,black,woman,,,,null,,,,,,,,,
null,"<img src=""stim_listA/touch1.gif""style=""height:400px;""></stim_listA>",,html-keyboard-response,149,631162,0.0-15.0-1.5,54428,List1A,black,woman,,,,null,,,,,,,,,
null,is touching,,html-keyboard-response,150,633179,0.0-15.0-2.5,54428,List1A,black,woman,,,,null,,,,,,,,,
11537.4,,,survey-text,151,644720,0.0-15.0-3.5,54428,List1A,black,woman,,,,,"{""Q0"":""kate and mike""}","<img src=""stim_listA/touch1.gif""style=""height:400px;""></stim_listA>",is touching,,,,,,
null,"<div style=""font-size:60px;"">+</div>",,html-keyboard-response,152,645229,0.0-15.0-0.6,54428,List1A,black,woman,,,,null,,,,,,,,,
null,"<img src=""stim_listA/copy2.gif""style=""height:400px;""></stim_listA>",,html-keyboard-response,153,647246,0.0-15.0-1.6,54428,List1A,black,woman,,,,null,,,,,,,,,
null,is being copied by,,html-keyboard-response,154,649263,0.0-15.0-2.6,54428,List1A,black,woman,,,,null,,,,,,,,,
7221.7,,,survey-text,155,656489,0.0-15.0-3.6,54428,List1A,black,woman,,,,,"{""Q0"":""fred and kate""}","<img src=""stim_listA/copy2.gif""style=""height:400px;""></stim_listA>",is being copied by,,,,,,
null,"<div style=""font-size:60px;"">+</div>",,html-keyboard-response,156,656996,0.0-15.0-0.7,54428,List1A,black,woman,,,,null,,,,,,,,,
null,"<img src=""stim_listA/seduce5.gif""style=""height:400px;""></stim_listA>",,html-keyboard-response,157,659010,0.0-15.0-1.7,54428,List1A,black,woman,,,,null,,,,,,,,,
null,is seducing,,html-keyboard-response,158,661026,0.0-15.0-2.7,54428,List1A,black,woman,,,,null,,,,,,,,,
7162.8,,,survey-text,159,668191,0.0-15.0-3.7,54428,List1A,black,woman,,,,,"{""Q0"":""fred and dave""}","<img src=""stim_listA/seduce5.gif""style=""height:400px;""></stim_listA>",is seducing,,,,,,
null,"<div style=""font-size:60px;"">+</div>",,html-keyboard-response,160,668695,0.0-15.0-0.8,54428,List1A,black,woman,,,,null,,,,,,,,,
null,"<img src=""stim_listA/oppose6.gif""style=""height:400px;""></stim_listA>",,html-keyboard-response,161,670712,0.0-15.0-1.8,54428,List1A,black,woman,,,,null,,,,,,,,,
null,is being opposed by,,html-keyboard-response,162,672728,0.0-15.0-2.8,54428,List1A,black,woman,,,,null,,,,,,,,,
11082,,,survey-text,163,683812,0.0-15.0-3.8,54428,List1A,black,woman,,,,,"{""Q0"":""fred and luke""}","<img src=""stim_listA/oppose6.gif""style=""height:400px;""></stim_listA>",is being opposed by,,,,,,
null,"<div style=""font-size:60px;"">+</div>",,html-keyboard-response,164,684326,0.0-15.0-0.9,54428,List1A,black,woman,,,,null,,,,,,,,,
null,"<img src=""stim_listA/copy6.gif""style=""height:400px;""></stim_listA>",,html-keyboard-response,165,686329,0.0-15.0-1.9,54428,List1A,black,woman,,,,null,,,,,,,,,
null,is being copied by,,html-keyboard-response,166,688343,0.0-15.0-2.9,54428,List1A,black,woman,,,,null,,,,,,,,,
9691.3,,,survey-text,167,698038,0.0-15.0-3.9,54428,List1A,black,woman,,,,,"{""Q0"":""luke and fred""}","<img src=""stim_listA/copy6.gif""style=""height:400px;""></stim_listA>",is being copied by,,,,,,
null,"<div style=""font-size:60px;"">+</div>",,html-keyboard-response,168,698546,0.0-15.0-0.10,54428,List1A,black,woman,,,,null,,,,,,,,,
null,"<img src=""stim_listA/kiss1.gif""style=""height:400px;""></stim_listA>",,html-keyboard-response,169,700560,0.0-15.0-1.10,54428,List1A,black,woman,,,,null,,,,,,,,,
null,is kissing,,html-keyboard-response,170,702575,0.0-15.0-2.10,54428,List1A,black,woman,,,,null,,,,,,,,,
6990.9,,,survey-text,171,709568,0.0-15.0-3.10,54428,List1A,black,woman,,,,,"{""Q0"":""beth and fred""}","<img src=""stim_listA/kiss1.gif""style=""height:400px;""></stim_listA>",is kissing,,,,,,
null,"<div style=""font-size:60px;"">+</div>",,html-keyboard-response,172,710075,0.0-15.0-0.11,54428,List1A,black,woman,,,,null,,,,,,,,,
null,"<img src=""stim_listA/touch2.gif""style=""height:400px;""></stim_listA>",,html-keyboard-response,173,712092,0.0-15.0-1.11,54428,List1A,black,woman,,,,null,,,,,,,,,
null,is being touched by,,html-keyboard-response,174,714109,0.0-15.0-2.11,54428,List1A,black,woman,,,,null,,,,,,,,,
16357.7,,,survey-text,175,730470,0.0-15.0-3.11,54428,List1A,black,woman,,,,,"{""Q0"":""beth is being touched by fred""}","<img src=""stim_listA/touch2.gif""style=""height:400px;""></stim_listA>",is being touched by,,,,,,
null,"<div style=""font-size:60px;"">+</div>",,html-keyboard-response,176,730976,0.0-15.0-0.12,54428,List1A,black,woman,,,,null,,,,,,,,,
null,"<img src=""stim_listA/touch4.gif""style=""height:400px;""></stim_listA>",,html-keyboard-response,177,732992,0.0-15.0-1.12,54428,List1A,black,woman,,,,null,,,,,,,,,
null,is being touched by,,html-keyboard-response,178,735008,0.0-15.0-2.12,54428,List1A,black,woman,,,,null,,,,,,,,,
7806.5,,,survey-text,179,742818,0.0-15.0-3.12,54428,List1A,black,woman,,,,,"{""Q0"":""ruth and luke""}","<img src=""stim_listA/touch4.gif""style=""height:400px;""></stim_listA>",is being touched by,,,,,,
null,"<div style=""font-size:60px;"">+</div>",,html-keyboard-response,180,743324,0.0-15.0-0.13,54428,List1A,black,woman,,,,null,,,,,,,,,
null,"<img src=""stim_listA/kiss5.gif""style=""height:400px;""></stim_listA>",,html-keyboard-response,181,745339,0.0-15.0-1.13,54428,List1A,black,woman,,,,null,,,,,,,,,
null,is kissing,,html-keyboard-response,182,747341,0.0-15.0-2.13,54428,List1A,black,woman,,,,null,,,,,,,,,
6868.3,,,survey-text,183,754213,0.0-15.0-3.13,54428,List1A,black,woman,,,,,"{""Q0"":""luke and fred""}","<img src=""stim_listA/kiss5.gif""style=""height:400px;""></stim_listA>",is kissing,,,,,,
null,"<div style=""font-size:60px;"">+</div>",,html-keyboard-response,184,754723,0.0-15.0-0.14,54428,List1A,black,woman,,,,null,,,,,,,,,
null,"<img src=""stim_listA/look4.gif""style=""height:400px;""></stim_listA>",,html-keyboard-response,185,756739,0.0-15.0-1.14,54428,List1A,black,woman,,,,null,,,,,,,,,
null,is being looked at by,,html-keyboard-response,186,758756,0.0-15.0-2.14,54428,List1A,black,woman,,,,null,,,,,,,,,
10649.3,,,survey-text,187,769410,0.0-15.0-3.14,54428,List1A,black,woman,,,,,"{""Q0"":""ruth and dave""}","<img src=""stim_listA/look4.gif""style=""height:400px;""></stim_listA>",is being looked at by,,,,,,
null,"<div style=""font-size:60px;"">+</div>",,html-keyboard-response,188,769921,0.0-15.0-0.15,54428,List1A,black,woman,,,,null,,,,,,,,,
null,"<img src=""stim_listA/shout4.gif""style=""height:400px;""></stim_listA>",,html-keyboard-response,189,771939,0.0-15.0-1.15,54428,List1A,black,woman,,,,null,,,,,,,,,
null,is being shouted at by,,html-keyboard-response,190,773955,0.0-15.0-2.15,54428,List1A,black,woman,,,,null,,,,,,,,,
10672,,,survey-text,191,784632,0.0-15.0-3.15,54428,List1A,black,woman,,,,,"{""Q0"":""dave and jane""}","<img src=""stim_listA/shout4.gif""style=""height:400px;""></stim_listA>",is being shouted at by,,,,,,
null,"<div style=""font-size:60px;"">+</div>",,html-keyboard-response,192,785139,0.0-15.0-0.16,54428,List1A,black,woman,,,,null,,,,,,,,,
null,"<img src=""stim_listA/shout6.gif""style=""height:400px;""></stim_listA>",,html-keyboard-response,193,787156,0.0-15.0-1.16,54428,List1A,black,woman,,,,null,,,,,,,,,
null,is being shouted at by,,html-keyboard-response,194,789168,0.0-15.0-2.16,54428,List1A,black,woman,,,,null,,,,,,,,,
14359.9,,,survey-text,195,803531,0.0-15.0-3.16,54428,List1A,black,woman,,,,,"{""Q0"":""mike is being shouted at dave""}","<img src=""stim_listA/shout6.gif""style=""height:400px;""></stim_listA>",is being shouted at by,,,,,,
null,"<div style=""font-size:60px;"">+</div>",,html-keyboard-response,196,804038,0.0-15.0-0.17,54428,List1A,black,woman,,,,null,,,,,,,,,
null,"<img src=""stim_listA/look3.gif""style=""height:400px;""></stim_listA>",,html-keyboard-response,197,806056,0.0-15.0-1.17,54428,List1A,black,woman,,,,null,,,,,,,,,
null,is looking at,,html-keyboard-response,198,808071,0.0-15.0-2.17,54428,List1A,black,woman,,,,null,,,,,,,,,
13924.2,,,survey-text,199,821999,0.0-15.0-3.17,54428,List1A,black,woman,,,,,"{""Q0"":""jane and dave""}","<img src=""stim_listA/look3.gif""style=""height:400px;""></stim_listA>",is looking at,,,,,,
null,"<div style=""font-size:60px;"">+</div>",,html-keyboard-response,200,822504,0.0-15.0-0.18,54428,List1A,black,woman,,,,null,,,,,,,,,
null,"<img src=""stim_listA/seduce2.gif""style=""height:400px;""></stim_listA>",,html-keyboard-response,201,824522,0.0-15.0-1.18,54428,List1A,black,woman,,,,null,,,,,,,,,
null,is being seduced by,,html-keyboard-response,202,826538,0.0-15.0-2.18,54428,List1A,black,woman,,,,null,,,,,,,,,
8692.7,,,survey-text,203,835234,0.0-15.0-3.18,54428,List1A,black,woman,,,,,"{""Q0"":""beth and mike""}","<img src=""stim_listA/seduce2.gif""style=""height:400px;""></stim_listA>",is being seduced by,,,,,,
null,"<div style=""font-size:60px;"">+</div>",,html-keyboard-response,204,835738,0.0-15.0-0.19,54428,List1A,black,woman,,,,null,,,,,,,,,
null,"<img src=""stim_listA/kiss2.gif""style=""height:400px;""></stim_listA>",,html-keyboard-response,205,837755,0.0-15.0-1.19,54428,List1A,black,woman,,,,null,,,,,,,,,
null,is being kissed by,,html-keyboard-response,206,839761,0.0-15.0-2.19,54428,List1A,black,woman,,,,null,,,,,,,,,
5507,,,survey-text,207,845271,0.0-15.0-3.19,54428,List1A,black,woman,,,,,"{""Q0"":"" mike and kate""}","<img src=""stim_listA/kiss2.gif""style=""height:400px;""></stim_listA>",is being kissed by,,,,,,
5606.3,"<img src='img/portrait_matrix_list1.jpg' style='width:900px;height:500px;''></img><p>If you have memorised all the portraits and names and are ready to start, press Continue.</p><p><strong>Please note: Your memory of these faces will be tested 4 times during this experiment.</strong></p>",0,html-button-response,208,850878,0.0-16.0-0.0,54428,List1A,black,woman,,,,,,,,,,,,,
5523.7,"<img src=""portrait/BM1.jpg""style=""height:400px;""></img>",4,html-button-response,209,857411,0.0-16.0-1.0,54428,List1A,black,woman,,TRUE,4,,,,,,,,,,
null,CORRECT,,html-keyboard-response,210,858936,0.0-16.0-2.0-0.0,54428,List1A,black,woman,,,,null,,,,,,,,,
3887,"<img src=""portrait/BM2.jpg""style=""height:400px;""></img>",5,html-button-response,211,862825,0.0-16.0-4.0,54428,List1A,black,woman,,TRUE,5,,,,,,,,,,
null,CORRECT,,html-keyboard-response,212,864352,0.0-16.0-5.0-0.0,54428,List1A,black,woman,,,,null,,,,,,,,,
3553.1,"<img src=""portrait/WW2.jpg""style=""height:400px;""></img>",3,html-button-response,213,867907,0.0-16.0-7.0,54428,List1A,black,woman,,TRUE,3,,,,,,,,,,
null,CORRECT,,html-keyboard-response,214,869435,0.0-16.0-8.0-0.0,54428,List1A,black,woman,,,,null,,,,,,,,,
3726.8,"<img src=""portrait/WM1.jpg""style=""height:400px;""></img>",6,html-button-response,215,873163,0.0-16.0-10.0,54428,List1A,black,woman,,TRUE,6,,,,,,,,,,
null,CORRECT,,html-keyboard-response,216,874669,0.0-16.0-11.0-0.0,54428,List1A,black,woman,,,,null,,,,,,,,,
4007.2,"<img src=""portrait/WW1.jpg""style=""height:400px;""></img>",1,html-button-response,217,878678,0.0-16.0-13.0,54428,List1A,black,woman,,TRUE,1,,,,,,,,,,
null,CORRECT,,html-keyboard-response,218,880202,0.0-16.0-14.0-0.0,54428,List1A,black,woman,,,,null,,,,,,,,,
3100.4,"<img src=""portrait/WM2.jpg""style=""height:400px;""></img>",7,html-button-response,219,883304,0.0-16.0-16.0,54428,List1A,black,woman,,TRUE,7,,,,,,,,,,
null,CORRECT,,html-keyboard-response,220,884819,0.0-16.0-17.0-0.0,54428,List1A,black,woman,,,,null,,,,,,,,,
4655.8,"<img src=""portrait/BW2.jpg""style=""height:400px;""></img>",2,html-button-response,221,889476,0.0-16.0-19.0,54428,List1A,black,woman,,TRUE,2,,,,,,,,,,
null,CORRECT,,html-keyboard-response,222,891001,0.0-16.0-20.0-0.0,54428,List1A,black,woman,,,,null,,,,,,,,,
4261.7,"<img src=""portrait/BW1.jpg""style=""height:400px;""></img>",0,html-button-response,223,895265,0.0-16.0-22.0,54428,List1A,black,woman,,TRUE,0,,,,,,,,,,
null,CORRECT,,html-keyboard-response,224,896783,0.0-16.0-23.0-0.0,54428,List1A,black,woman,,,,null,,,,,,,,,
1704,<p>You got 8 out of 8 right first time. Press Continue.</p>,0,html-button-response,225,898489,0.0-16.0-25.0,54428,List1A,black,woman,,,,,,,,,,,,,
null,"<div style=""font-size:60px;"">+</div>",,html-keyboard-response,226,900016,0.0-17.0-0.0,54428,List1A,black,woman,,,,null,,,,,,,,,
null,"<img src=""stim_listA/look7.gif""style=""height:400px;""></stim_listA>",,html-keyboard-response,227,902018,0.0-17.0-1.0,54428,List1A,black,woman,,,,null,,,,,,,,,
null,is looking at,,html-keyboard-response,228,904034,0.0-17.0-2.0,54428,List1A,black,woman,,,,null,,,,,,,,,
11560,,,survey-text,229,915598,0.0-17.0-3.0,54428,List1A,black,woman,,,,,"{""Q0"":""ruth is looking at beth""}","<img src=""stim_listA/look7.gif""style=""height:400px;""></stim_listA>",is looking at,,,,,,
null,"<div style=""font-size:60px;"">+</div>",,html-keyboard-response,230,916100,0.0-17.0-0.1,54428,List1A,black,woman,,,,null,,,,,,,,,
null,"<img src=""stim_listA/challenge3.gif""style=""height:400px;""></stim_listA>",,html-keyboard-response,231,918117,0.0-17.0-1.1,54428,List1A,black,woman,,,,null,,,,,,,,,
null,is challenging,,html-keyboard-response,232,920133,0.0-17.0-2.1,54428,List1A,black,woman,,,,null,,,,,,,,,
13465.4,,,survey-text,233,933603,0.0-17.0-3.1,54428,List1A,black,woman,,,,,"{""Q0"":""ruth is challenging dave""}","<img src=""stim_listA/challenge3.gif""style=""height:400px;""></stim_listA>",is challenging,,,,,,
null,"<div style=""font-size:60px;"">+</div>",,html-keyboard-response,234,934111,0.0-17.0-0.2,54428,List1A,black,woman,,,,null,,,,,,,,,
null,"<img src=""stim_listA/touch7.gif""style=""height:400px;""></stim_listA>",,html-keyboard-response,235,936128,0.0-17.0-1.2,54428,List1A,black,woman,,,,null,,,,,,,,,
null,is touching,,html-keyboard-response,236,938133,0.0-17.0-2.2,54428,List1A,black,woman,,,,null,,,,,,,,,
18330.8,,,survey-text,237,956467,0.0-17.0-3.2,54428,List1A,black,woman,,,,,"{""Q0"":""kate is touching jane""}","<img src=""stim_listA/touch7.gif""style=""height:400px;""></stim_listA>",is touching,,,,,,
null,"<div style=""font-size:60px;"">+</div>",,html-keyboard-response,238,956984,0.0-17.0-0.3,54428,List1A,black,woman,,,,null,,,,,,,,,
null,"<img src=""stim_listA/oppose4.gif""style=""height:400px;""></stim_listA>",,html-keyboard-response,239,958998,0.0-17.0-1.3,54428,List1A,black,woman,,,,null,,,,,,,,,
null,is being opposed by,,html-keyboard-response,240,961013,0.0-17.0-2.3,54428,List1A,black,woman,,,,null,,,,,,,,,
21787.8,,,survey-text,241,982803,0.0-17.0-3.3,54428,List1A,black,woman,,,,,"{""Q0"":""ruth is opposed to luke""}","<img src=""stim_listA/oppose4.gif""style=""height:400px;""></stim_listA>",is being opposed by,,,,,,
null,"<div style=""font-size:60px;"">+</div>",,html-keyboard-response,242,983309,0.0-17.0-0.4,54428,List1A,black,woman,,,,null,,,,,,,,,
null,"<img src=""stim_listA/seduce1.gif""style=""height:400px;""></stim_listA>",,html-keyboard-response,243,985313,0.0-17.0-1.4,54428,List1A,black,woman,,,,null,,,,,,,,,
null,is seducing,,html-keyboard-response,244,987329,0.0-17.0-2.4,54428,List1A,black,woman,,,,null,,,,,,,,,
11106.9,,,survey-text,245,998439,0.0-17.0-3.4,54428,List1A,black,woman,,,,,"{""Q0"":""kate is seducing fred""}","<img src=""stim_listA/seduce1.gif""style=""height:400px;""></stim_listA>",is seducing,,,,,,
null,"<div style=""font-size:60px;"">+</div>",,html-keyboard-response,246,998944,0.0-17.0-0.5,54428,List1A,black,woman,,,,null,,,,,,,,,
null,"<img src=""stim_listA/oppose2.gif""style=""height:400px;""></stim_listA>",,html-keyboard-response,247,1000963,0.0-17.0-1.5,54428,List1A,black,woman,,,,null,,,,,,,,,
null,is being opposed by,,html-keyboard-response,248,1002979,0.0-17.0-2.5,54428,List1A,black,woman,,,,null,,,,,,,,,
14898.5,,,survey-text,249,1017881,0.0-17.0-3.5,54428,List1A,black,woman,,,,,"{""Q0"":""beth is opposed to fred""}","<img src=""stim_listA/oppose2.gif""style=""height:400px;""></stim_listA>",is being opposed by,,,,,,
null,"<div style=""font-size:60px;"">+</div>",,html-keyboard-response,250,1018394,0.0-17.0-0.6,54428,List1A,black,woman,,,,null,,,,,,,,,
null,"<img src=""stim_listA/hug4.gif""style=""height:400px;""></stim_listA>",,html-keyboard-response,251,1020396,0.0-17.0-1.6,54428,List1A,black,woman,,,,null,,,,,,,,,
null,is being hugged by,,html-keyboard-response,252,1022410,0.0-17.0-2.6,54428,List1A,black,woman,,,,null,,,,,,,,,
9318.3,,,survey-text,253,1031732,0.0-17.0-3.6,54428,List1A,black,woman,,,,,"{""Q0"":""jane is hugged by davd""}","<img src=""stim_listA/hug4.gif""style=""height:400px;""></stim_listA>",is being hugged by,,,,,,
null,"<div style=""font-size:60px;"">+</div>",,html-keyboard-response,254,1032243,0.0-17.0-0.7,54428,List1A,black,woman,,,,null,,,,,,,,,
null,"<img src=""stim_listA/greet8.gif""style=""height:400px;""></stim_listA>",,html-keyboard-response,255,1034259,0.0-17.0-1.7,54428,List1A,black,woman,,,,null,,,,,,,,,
null,is being greeted by,,html-keyboard-response,256,1036260,0.0-17.0-2.7,54428,List1A,black,woman,,,,null,,,,,,,,,
17756.9,,,survey-text,257,1054021,0.0-17.0-3.7,54428,List1A,black,woman,,,,,"{""Q0"":""ruth and dave""}","<img src=""stim_listA/greet8.gif""style=""height:400px;""></stim_listA>",is being greeted by,,,,,,
null,"<div style=""font-size:60px;"">+</div>",,html-keyboard-response,258,1054525,0.0-17.0-0.8,54428,List1A,black,woman,,,,null,,,,,,,,,
null,"<img src=""stim_listA/oppose3.gif""style=""height:400px;""></stim_listA>",,html-keyboard-response,259,1056527,0.0-17.0-1.8,54428,List1A,black,woman,,,,null,,,,,,,,,
null,is opposing,,html-keyboard-response,260,1058532,0.0-17.0-2.8,54428,List1A,black,woman,,,,null,,,,,,,,,
15310.6,,,survey-text,261,1073847,0.0-17.0-3.8,54428,List1A,black,woman,,,,,"{""Q0"":""jane is opposed by dave""}","<img src=""stim_listA/oppose3.gif""style=""height:400px;""></stim_listA>",is opposing,,,,,,
null,"<div style=""font-size:60px;"">+</div>",,html-keyboard-response,262,1074358,0.0-17.0-0.9,54428,List1A,black,woman,,,,null,,,,,,,,,
null,"<img src=""stim_listA/copy8.gif""style=""height:400px;""></stim_listA>",,html-keyboard-response,263,1076361,0.0-17.0-1.9,54428,List1A,black,woman,,,,null,,,,,,,,,
null,is being copied by,,html-keyboard-response,264,1078374,0.0-17.0-2.9,54428,List1A,black,woman,,,,null,,,,,,,,,
15476.6,,,survey-text,265,1093855,0.0-17.0-3.9,54428,List1A,black,woman,,,,,"{""Q0"":""beth is copied by jane""}","<img src=""stim_listA/copy8.gif""style=""height:400px;""></stim_listA>",is being copied by,,,,,,
null,"<div style=""font-size:60px;"">+</div>",,html-keyboard-response,266,1094359,0.0-17.0-0.10,54428,List1A,black,woman,,,,null,,,,,,,,,
null,"<img src=""stim_listA/greet6.gif""style=""height:400px;""></stim_listA>",,html-keyboard-response,267,1096375,0.0-17.0-1.10,54428,List1A,black,woman,,,,null,,,,,,,,,
null,is being greeted by,,html-keyboard-response,268,1098392,0.0-17.0-2.10,54428,List1A,black,woman,,,,null,,,,,,,,,
14291.5,,,survey-text,269,1112687,0.0-17.0-3.10,54428,List1A,black,woman,,,,,"{""Q0"":""fred is being greeted by dave""}","<img src=""stim_listA/greet6.gif""style=""height:400px;""></stim_listA>",is being greeted by,,,,,,
null,"<div style=""font-size:60px;"">+</div>",,html-keyboard-response,270,1113197,0.0-17.0-0.11,54428,List1A,black,woman,,,,null,,,,,,,,,
null,"<img src=""stim_listA/greet7.gif""style=""height:400px;""></stim_listA>",,html-keyboard-response,271,1115206,0.0-17.0-1.11,54428,List1A,black,woman,,,,null,,,,,,,,,
null,is greeting,,html-keyboard-response,272,1117219,0.0-17.0-2.11,54428,List1A,black,woman,,,,null,,,,,,,,,
12077.7,,,survey-text,273,1129299,0.0-17.0-3.11,54428,List1A,black,woman,,,,,"{""Q0"":""ruth is greeting jane""}","<img src=""stim_listA/greet7.gif""style=""height:400px;""></stim_listA>",is greeting,,,,,,
null,"<div style=""font-size:60px;"">+</div>",,html-keyboard-response,274,1129805,0.0-17.0-0.12,54428,List1A,black,woman,,,,null,,,,,,,,,
null,"<img src=""stim_listA/look8.gif""style=""height:400px;""></stim_listA>",,html-keyboard-response,275,1131808,0.0-17.0-1.12,54428,List1A,black,woman,,,,null,,,,,,,,,
null,is being looked at by,,html-keyboard-response,276,1133822,0.0-17.0-2.12,54428,List1A,black,woman,,,,null,,,,,,,,,
18958.2,,,survey-text,277,1152783,0.0-17.0-3.12,54428,List1A,black,woman,,,,,"{""Q0"":""kate is looking at jane""}","<img src=""stim_listA/look8.gif""style=""height:400px;""></stim_listA>",is being looked at by,,,,,,
null,"<div style=""font-size:60px;"">+</div>",,html-keyboard-response,278,1153292,0.0-17.0-0.13,54428,List1A,black,woman,,,,null,,,,,,,,,
null,"<img src=""stim_listA/shout1.gif""style=""height:400px;""></stim_listA>",,html-keyboard-response,279,1155304,0.0-17.0-1.13,54428,List1A,black,woman,,,,null,,,,,,,,,
null,is shouting at,,html-keyboard-response,280,1157320,0.0-17.0-2.13,54428,List1A,black,woman,,,,null,,,,,,,,,
14302.3,,,survey-text,281,1171626,0.0-17.0-3.13,54428,List1A,black,woman,,,,,"{""Q0"":""beth is shouting at fred""}","<img src=""stim_listA/shout1.gif""style=""height:400px;""></stim_listA>",is shouting at,,,,,,
null,"<div style=""font-size:60px;"">+</div>",,html-keyboard-response,282,1172136,0.0-17.0-0.14,54428,List1A,black,woman,,,,null,,,,,,,,,
null,"<img src=""stim_listA/copy3.gif""style=""height:400px;""></stim_listA>",,html-keyboard-response,283,1174154,0.0-17.0-1.14,54428,List1A,black,woman,,,,null,,,,,,,,,
null,is copying,,html-keyboard-response,284,1176165,0.0-17.0-2.14,54428,List1A,black,woman,,,,null,,,,,,,,,
26897.7,,,survey-text,285,1203067,0.0-17.0-3.14,54428,List1A,black,woman,,,,,"{""Q0"":""jane is copying dave""}","<img src=""stim_listA/copy3.gif""style=""height:400px;""></stim_listA>",is copying,,,,,,
null,"<div style=""font-size:60px;"">+</div>",,html-keyboard-response,286,1203569,0.0-17.0-0.15,54428,List1A,black,woman,,,,null,,,,,,,,,
null,"<img src=""stim_listA/seduce7.gif""style=""height:400px;""></stim_listA>",,html-keyboard-response,287,1205586,0.0-17.0-1.15,54428,List1A,black,woman,,,,null,,,,,,,,,
null,is seducing,,html-keyboard-response,288,1207599,0.0-17.0-2.15,54428,List1A,black,woman,,,,null,,,,,,,,,
12061.4,,,survey-text,289,1219664,0.0-17.0-3.15,54428,List1A,black,woman,,,,,"{""Q0"":""beth and jane""}","<img src=""stim_listA/seduce7.gif""style=""height:400px;""></stim_listA>",is seducing,,,,,,
null,"<div style=""font-size:60px;"">+</div>",,html-keyboard-response,290,1220171,0.0-17.0-0.16,54428,List1A,black,woman,,,,null,,,,,,,,,
null,"<img src=""stim_listA/greet2.gif""style=""height:400px;""></stim_listA>",,html-keyboard-response,291,1222185,0.0-17.0-1.16,54428,List1A,black,woman,,,,null,,,,,,,,,
null,is being greeted by,,html-keyboard-response,292,1224202,0.0-17.0-2.16,54428,List1A,black,woman,,,,null,,,,,,,,,
16998.6,,,survey-text,293,1241204,0.0-17.0-3.16,54428,List1A,black,woman,,,,,"{""Q0"":""kate and fred""}","<img src=""stim_listA/greet2.gif""style=""height:400px;""></stim_listA>",is being greeted by,,,,,,
null,"<div style=""font-size:60px;"">+</div>",,html-keyboard-response,294,1241717,0.0-17.0-0.17,54428,List1A,black,woman,,,,null,,,,,,,,,
null,"<img src=""stim_listA/greet5.gif""style=""height:400px;""></stim_listA>",,html-keyboard-response,295,1243733,0.0-17.0-1.17,54428,List1A,black,woman,,,,null,,,,,,,,,
null,is greeting,,html-keyboard-response,296,1245735,0.0-17.0-2.17,54428,List1A,black,woman,,,,null,,,,,,,,,
20240.5,,,survey-text,297,1265980,0.0-17.0-3.17,54428,List1A,black,woman,,,,,"{""Q0"":""luke is greeting mike""}","<img src=""stim_listA/greet5.gif""style=""height:400px;""></stim_listA>",is greeting,,,,,,
null,"<div style=""font-size:60px;"">+</div>",,html-keyboard-response,298,1266485,0.0-17.0-0.18,54428,List1A,black,woman,,,,null,,,,,,,,,
null,"<img src=""stim_listA/challenge8.gif""style=""height:400px;""></stim_listA>",,html-keyboard-response,299,1268500,0.0-17.0-1.18,54428,List1A,black,woman,,,,null,,,,,,,,,
null,is being challenged by,,html-keyboard-response,300,1270516,0.0-17.0-2.18,54428,List1A,black,woman,,,,null,,,,,,,,,
12457.1,,,survey-text,301,1282978,0.0-17.0-3.18,54428,List1A,black,woman,,,,,"{""Q0"":""beth and jane""}","<img src=""stim_listA/challenge8.gif""style=""height:400px;""></stim_listA>",is being challenged by,,,,,,
null,"<div style=""font-size:60px;"">+</div>",,html-keyboard-response,302,1283480,0.0-17.0-0.19,54428,List1A,black,woman,,,,null,,,,,,,,,
null,"<img src=""stim_listA/hug3.gif""style=""height:400px;""></stim_listA>",,html-keyboard-response,303,1285485,0.0-17.0-1.19,54428,List1A,black,woman,,,,null,,,,,,,,,
null,is hugging,,html-keyboard-response,304,1287490,0.0-17.0-2.19,54428,List1A,black,woman,,,,null,,,,,,,,,
6585.1,,,survey-text,305,1294079,0.0-17.0-3.19,54428,List1A,black,woman,,,,,"{""Q0"":""ruth and luke""}","<img src=""stim_listA/hug3.gif""style=""height:400px;""></stim_listA>",is hugging,,,,,,
15863.3,"<img src='img/portrait_matrix_list1.jpg' style='width:900px;height:500px;''></img><p>If you have memorised all the portraits and names and are ready to start, press Continue.</p><p><strong>Please note: Your memory of these faces will be tested 4 times during this experiment.</strong></p>",0,html-button-response,306,1309944,0.0-18.0-0.0,54428,List1A,black,woman,,,,,,,,,,,,,
3938.2,"<img src=""portrait/WM1.jpg""style=""height:400px;""></img>",6,html-button-response,307,1314894,0.0-18.0-1.0,54428,List1A,black,woman,,TRUE,6,,,,,,,,,,
null,CORRECT,,html-keyboard-response,308,1316406,0.0-18.0-2.0-0.0,54428,List1A,black,woman,,,,null,,,,,,,,,
2910.5,"<img src=""portrait/WW2.jpg""style=""height:400px;""></img>",3,html-button-response,309,1319319,0.0-18.0-4.0,54428,List1A,black,woman,,TRUE,3,,,,,,,,,,
null,CORRECT,,html-keyboard-response,310,1320832,0.0-18.0-5.0-0.0,54428,List1A,black,woman,,,,null,,,,,,,,,
2294.1,"<img src=""portrait/WM2.jpg""style=""height:400px;""></img>",7,html-button-response,311,1323127,0.0-18.0-7.0,54428,List1A,black,woman,,TRUE,7,,,,,,,,,,
null,CORRECT,,html-keyboard-response,312,1324647,0.0-18.0-8.0-0.0,54428,List1A,black,woman,,,,null,,,,,,,,,
4303.8,"<img src=""portrait/BM2.jpg""style=""height:400px;""></img>",5,html-button-response,313,1328952,0.0-18.0-10.0,54428,List1A,black,woman,,TRUE,5,,,,,,,,,,
null,CORRECT,,html-keyboard-response,314,1330464,0.0-18.0-11.0-0.0,54428,List1A,black,woman,,,,null,,,,,,,,,
2590.5,"<img src=""portrait/BM1.jpg""style=""height:400px;""></img>",4,html-button-response,315,1333057,0.0-18.0-13.0,54428,List1A,black,woman,,TRUE,4,,,,,,,,,,
null,CORRECT,,html-keyboard-response,316,1334563,0.0-18.0-14.0-0.0,54428,List1A,black,woman,,,,null,,,,,,,,,
6505.5,"<img src=""portrait/BW2.jpg""style=""height:400px;""></img>",2,html-button-response,317,1341070,0.0-18.0-16.0,54428,List1A,black,woman,,TRUE,2,,,,,,,,,,
null,CORRECT,,html-keyboard-response,318,1342597,0.0-18.0-17.0-0.0,54428,List1A,black,woman,,,,null,,,,,,,,,
4218.3,"<img src=""portrait/BW1.jpg""style=""height:400px;""></img>",4,html-button-response,319,1346817,0.0-18.0-19.0,54428,List1A,black,woman,,TRUE,0,,,,,,,,,,
5857.9,"<img src=""portrait/BW1.jpg""style=""height:400px;""></img>",0,html-button-response,320,1353683,0.0-18.0-21.0-0.0,54428,List1A,black,woman,,FALSE,0,,,,,,,,,,
null,CORRECT,,html-keyboard-response,321,1355212,0.0-18.0-21.0-1.0-0.0,54428,List1A,black,woman,,,,null,,,,,,,,,
10344.1,"<img src=""portrait/WW1.jpg""style=""height:400px;""></img>",1,html-button-response,322,1365559,0.0-18.0-22.0,54428,List1A,black,woman,,TRUE,1,,,,,,,,,,
null,CORRECT,,html-keyboard-response,323,1367078,0.0-18.0-23.0-0.0,54428,List1A,black,woman,,,,null,,,,,,,,,
5140.6,<p>You got 7 out of 8 right first time. Press Continue.</p>,0,html-button-response,324,1372221,0.0-18.0-25.0,54428,List1A,black,woman,,,,,,,,,,,,,
5296.2,"As you did not score 100%, the memory game will repeat. Press Continue.",0,html-button-response,325,1378536,0.0-18.0-26.0-0.0,54428,List1A,black,woman,,,,,,,,,,,,,
2137.2,"<img src='img/portrait_matrix_list1.jpg' style='width:900px;height:500px;''></img><p>If you have memorised all the portraits and names and are ready to start, press Continue.</p><p><strong>Please note: Your memory of these faces will be tested 4 times during this experiment.</strong></p>",0,html-button-response,326,1381688,0.0-18.1-0.1,54428,List1A,black,woman,,,,,,,,,,,,,
4667.9,"<img src=""portrait/WM1.jpg""style=""height:400px;""></img>",6,html-button-response,327,1387364,0.0-18.1-1.1,54428,List1A,black,woman,,TRUE,6,,,,,,,,,,
null,CORRECT,,html-keyboard-response,328,1388880,0.0-18.1-2.1-0.1,54428,List1A,black,woman,,,,null,,,,,,,,,
2398.8,"<img src=""portrait/WW2.jpg""style=""height:400px;""></img>",3,html-button-response,329,1391280,0.0-18.1-4.1,54428,List1A,black,woman,,TRUE,3,,,,,,,,,,
null,CORRECT,,html-keyboard-response,330,1392794,0.0-18.1-5.1-0.1,54428,List1A,black,woman,,,,null,,,,,,,,,
5056.5,"<img src=""portrait/WM2.jpg""style=""height:400px;""></img>",7,html-button-response,331,1397853,0.0-18.1-7.1,54428,List1A,black,woman,,TRUE,7,,,,,,,,,,
null,CORRECT,,html-keyboard-response,332,1399377,0.0-18.1-8.1-0.1,54428,List1A,black,woman,,,,null,,,,,,,,,
3733.4,"<img src=""portrait/BM2.jpg""style=""height:400px;""></img>",5,html-button-response,333,1403112,0.0-18.1-10.1,54428,List1A,black,woman,,TRUE,5,,,,,,,,,,
null,CORRECT,,html-keyboard-response,334,1404628,0.0-18.1-11.1-0.1,54428,List1A,black,woman,,,,null,,,,,,,,,
2889.6,"<img src=""portrait/BM1.jpg""style=""height:400px;""></img>",4,html-button-response,335,1407521,0.0-18.1-13.1,54428,List1A,black,woman,,TRUE,4,,,,,,,,,,
null,CORRECT,,html-keyboard-response,336,1409044,0.0-18.1-14.1-0.1,54428,List1A,black,woman,,,,null,,,,,,,,,
2961.7,"<img src=""portrait/BW2.jpg""style=""height:400px;""></img>",2,html-button-response,337,1412009,0.0-18.1-16.1,54428,List1A,black,woman,,TRUE,2,,,,,,,,,,
null,CORRECT,,html-keyboard-response,338,1413525,0.0-18.1-17.1-0.1,54428,List1A,black,woman,,,,null,,,,,,,,,
6856.5,"<img src=""portrait/BW1.jpg""style=""height:400px;""></img>",0,html-button-response,339,1420384,0.0-18.1-19.1,54428,List1A,black,woman,,TRUE,0,,,,,,,,,,
null,CORRECT,,html-keyboard-response,340,1421893,0.0-18.1-20.1-0.1,54428,List1A,black,woman,,,,null,,,,,,,,,
2896.7,"<img src=""portrait/WW1.jpg""style=""height:400px;""></img>",1,html-button-response,341,1424792,0.0-18.1-22.1,54428,List1A,black,woman,,TRUE,1,,,,,,,,,,
null,CORRECT,,html-keyboard-response,342,1426309,0.0-18.1-23.1-0.1,54428,List1A,black,woman,,,,null,,,,,,,,,
2290,<p>You got 8 out of 8 right first time. Press Continue.</p>,0,html-button-response,343,1428601,0.0-18.1-25.1,54428,List1A,black,woman,,,,,,,,,,,,,
null,"<div style=""font-size:60px;"">+</div>",,html-keyboard-response,344,1430124,0.0-19.0-0.0,54428,List1A,black,woman,,,,null,,,,,,,,,
null,"<img src=""stim_listA/hug8.gif""style=""height:400px;""></stim_listA>",,html-keyboard-response,345,1432143,0.0-19.0-1.0,54428,List1A,black,woman,,,,null,,,,,,,,,
null,is being hugged by,,html-keyboard-response,346,1434151,0.0-19.0-2.0,54428,List1A,black,woman,,,,null,,,,,,,,,
11323.4,,,survey-text,347,1445478,0.0-19.0-3.0,54428,List1A,black,woman,,,,,"{""Q0"":""jane is bring hugged by kate""}","<img src=""stim_listA/hug8.gif""style=""height:400px;""></stim_listA>",is being hugged by,,,,,,
null,"<div style=""font-size:60px;"">+</div>",,html-keyboard-response,348,1445980,0.0-19.0-0.1,54428,List1A,black,woman,,,,null,,,,,,,,,
null,"<img src=""stim_listA/look2.gif""style=""height:400px;""></stim_listA>",,html-keyboard-response,349,1447992,0.0-19.0-1.1,54428,List1A,black,woman,,,,null,,,,,,,,,
null,is being looked at by,,html-keyboard-response,350,1449999,0.0-19.0-2.1,54428,List1A,black,woman,,,,null,,,,,,,,,
13395.4,,,survey-text,351,1463399,0.0-19.0-3.1,54428,List1A,black,woman,,,,,"{""Q0"":""mike is being looked at kate""}","<img src=""stim_listA/look2.gif""style=""height:400px;""></stim_listA>",is being looked at by,,,,,,
null,"<div style=""font-size:60px;"">+</div>",,html-keyboard-response,352,1463900,0.0-19.0-0.2,54428,List1A,black,woman,,,,null,,,,,,,,,
null,"<img src=""stim_listA/kiss7.gif""style=""height:400px;""></stim_listA>",,html-keyboard-response,353,1465907,0.0-19.0-1.2,54428,List1A,black,woman,,,,null,,,,,,,,,
null,is kissing,,html-keyboard-response,354,1467916,0.0-19.0-2.2,54428,List1A,black,woman,,,,null,,,,,,,,,
8678.9,,,survey-text,355,1476599,0.0-19.0-3.2,54428,List1A,black,woman,,,,,"{""Q0"":""beth is kissing ruth""}","<img src=""stim_listA/kiss7.gif""style=""height:400px;""></stim_listA>",is kissing,,,,,,
null,"<div style=""font-size:60px;"">+</div>",,html-keyboard-response,356,1477106,0.0-19.0-0.3,54428,List1A,black,woman,,,,null,,,,,,,,,
null,"<img src=""stim_listA/hug1.gif""style=""height:400px;""></stim_listA>",,html-keyboard-response,357,1479109,0.0-19.0-1.3,54428,List1A,black,woman,,,,null,,,,,,,,,
null,is hugging,,html-keyboard-response,358,1481124,0.0-19.0-2.3,54428,List1A,black,woman,,,,null,,,,,,,,,
15417.5,,,survey-text,359,1496546,0.0-19.0-3.3,54428,List1A,black,woman,,,,,"{""Q0"":""beth is hugging fred""}","<img src=""stim_listA/hug1.gif""style=""height:400px;""></stim_listA>",is hugging,,,,,,
null,"<div style=""font-size:60px;"">+</div>",,html-keyboard-response,360,1497056,0.0-19.0-0.4,54428,List1A,black,woman,,,,null,,,,,,,,,
null,"<img src=""stim_listA/touch5.gif""style=""height:400px;""></stim_listA>",,html-keyboard-response,361,1499073,0.0-19.0-1.4,54428,List1A,black,woman,,,,null,,,,,,,,,
null,is touching,,html-keyboard-response,362,1501090,0.0-19.0-2.4,54428,List1A,black,woman,,,,null,,,,,,,,,
10985,,,survey-text,363,1512079,0.0-19.0-3.4,54428,List1A,black,woman,,,,,"{""Q0"":""mike is touching dave""}","<img src=""stim_listA/touch5.gif""style=""height:400px;""></stim_listA>",is touching,,,,,,
null,"<div style=""font-size:60px;"">+</div>",,html-keyboard-response,364,1512589,0.0-19.0-0.5,54428,List1A,black,woman,,,,null,,,,,,,,,
null,"<img src=""stim_listA/kiss6.gif""style=""height:400px;""></stim_listA>",,html-keyboard-response,365,1514606,0.0-19.0-1.5,54428,List1A,black,woman,,,,null,,,,,,,,,
null,is being kissed by,,html-keyboard-response,366,1516609,0.0-19.0-2.5,54428,List1A,black,woman,,,,null,,,,,,,,,
17013.8,,,survey-text,367,1533626,0.0-19.0-3.5,54428,List1A,black,woman,,,,,"{""Q0"":""mike is kissing dave""}","<img src=""stim_listA/kiss6.gif""style=""height:400px;""></stim_listA>",is being kissed by,,,,,,
null,"<div style=""font-size:60px;"">+</div>",,html-keyboard-response,368,1534138,0.0-19.0-0.6,54428,List1A,black,woman,,,,null,,,,,,,,,
null,"<img src=""stim_listA/hug5.gif""style=""height:400px;""></stim_listA>",,html-keyboard-response,369,1536143,0.0-19.0-1.6,54428,List1A,black,woman,,,,null,,,,,,,,,
null,is hugging,,html-keyboard-response,370,1538154,0.0-19.0-2.6,54428,List1A,black,woman,,,,null,,,,,,,,,
18747.7,,,survey-text,371,1556906,0.0-19.0-3.6,54428,List1A,black,woman,,,,,"{""Q0"":""fred is hugging luke""}","<img src=""stim_listA/hug5.gif""style=""height:400px;""></stim_listA>",is hugging,,,,,,
null,"<div style=""font-size:60px;"">+</div>",,html-keyboard-response,372,1557419,0.0-19.0-0.7,54428,List1A,black,woman,,,,null,,,,,,,,,
null,"<img src=""stim_listA/look5.gif""style=""height:400px;""></stim_listA>",,html-keyboard-response,373,1559436,0.0-19.0-1.7,54428,List1A,black,woman,,,,null,,,,,,,,,
null,is looking at,,html-keyboard-response,374,1561453,0.0-19.0-2.7,54428,List1A,black,woman,,,,null,,,,,,,,,
10166.6,,,survey-text,375,1571623,0.0-19.0-3.7,54428,List1A,black,woman,,,,,"{""Q0"":""luke and fred""}","<img src=""stim_listA/look5.gif""style=""height:400px;""></stim_listA>",is looking at,,,,,,
null,"<div style=""font-size:60px;"">+</div>",,html-keyboard-response,376,1572136,0.0-19.0-0.8,54428,List1A,black,woman,,,,null,,,,,,,,,
null,"<img src=""stim_listA/touch8.gif""style=""height:400px;""></stim_listA>",,html-keyboard-response,377,1574153,0.0-19.0-1.8,54428,List1A,black,woman,,,,null,,,,,,,,,
null,is being touched by,,html-keyboard-response,378,1576170,0.0-19.0-2.8,54428,List1A,black,woman,,,,null,,,,,,,,,
6150.7,,,survey-text,379,1582325,0.0-19.0-3.8,54428,List1A,black,woman,,,,,"{""Q0"":""beth and ruth""}","<img src=""stim_listA/touch8.gif""style=""height:400px;""></stim_listA>",is being touched by,,,,,,
null,"<div style=""font-size:60px;"">+</div>",,html-keyboard-response,380,1582835,0.0-19.0-0.9,54428,List1A,black,woman,,,,null,,,,,,,,,
null,"<img src=""stim_listA/touch6.gif""style=""height:400px;""></stim_listA>",,html-keyboard-response,381,1584851,0.0-19.0-1.9,54428,List1A,black,woman,,,,null,,,,,,,,,
null,is being touched by,,html-keyboard-response,382,1586868,0.0-19.0-2.9,54428,List1A,black,woman,,,,null,,,,,,,,,
15049.8,,,survey-text,383,1601922,0.0-19.0-3.9,54428,List1A,black,woman,,,,,"{""Q0"":""ruth and dave""}","<img src=""stim_listA/touch6.gif""style=""height:400px;""></stim_listA>",is being touched by,,,,,,
null,"<div style=""font-size:60px;"">+</div>",,html-keyboard-response,384,1602434,0.0-19.0-0.10,54428,List1A,black,woman,,,,null,,,,,,,,,
null,"<img src=""stim_listA/seduce6.gif""style=""height:400px;""></stim_listA>",,html-keyboard-response,385,1604450,0.0-19.0-1.10,54428,List1A,black,woman,,,,null,,,,,,,,,
null,is being seduced by,,html-keyboard-response,386,1606452,0.0-19.0-2.10,54428,List1A,black,woman,,,,null,,,,,,,,,
24925.9,,,survey-text,387,1631384,0.0-19.0-3.10,54428,List1A,black,woman,,,,,"{""Q0"":""mike and luke""}","<img src=""stim_listA/seduce6.gif""style=""height:400px;""></stim_listA>",is being seduced by,,,,,,
null,"<div style=""font-size:60px;"">+</div>",,html-keyboard-response,388,1631899,0.0-19.0-0.11,54428,List1A,black,woman,,,,null,,,,,,,,,
null,"<img src=""stim_listA/kiss3.gif""style=""height:400px;""></stim_listA>",,html-keyboard-response,389,1633916,0.0-19.0-1.11,54428,List1A,black,woman,,,,null,,,,,,,,,
null,is kissing,,html-keyboard-response,390,1635917,0.0-19.0-2.11,54428,List1A,black,woman,,,,null,,,,,,,,,
28156,,,survey-text,391,1664075,0.0-19.0-3.11,54428,List1A,black,woman,,,,,"{""Q0"":""luke is kissing ruth""}","<img src=""stim_listA/kiss3.gif""style=""height:400px;""></stim_listA>",is kissing,,,,,,
null,"<div style=""font-size:60px;"">+</div>",,html-keyboard-response,392,1664581,0.0-19.0-0.12,54428,List1A,black,woman,,,,null,,,,,,,,,
null,"<img src=""stim_listA/seduce4.gif""style=""height:400px;""></stim_listA>",,html-keyboard-response,393,1666598,0.0-19.0-1.12,54428,List1A,black,woman,,,,null,,,,,,,,,
null,is being seduced by,,html-keyboard-response,394,1668602,0.0-19.0-2.12,54428,List1A,black,woman,,,,null,,,,,,,,,
23773,,,survey-text,395,1692378,0.0-19.0-3.12,54428,List1A,black,woman,,,,,"{""Q0"":""ruth is being seduces by dave""}","<img src=""stim_listA/seduce4.gif""style=""height:400px;""></stim_listA>",is being seduced by,,,,,,
null,"<div style=""font-size:60px;"">+</div>",,html-keyboard-response,396,1692882,0.0-19.0-0.13,54428,List1A,black,woman,,,,null,,,,,,,,,
null,"<img src=""stim_listA/greet4.gif""style=""height:400px;""></stim_listA>",,html-keyboard-response,397,1694897,0.0-19.0-1.13,54428,List1A,black,woman,,,,null,,,,,,,,,
null,is being greeted by,,html-keyboard-response,398,1696902,0.0-19.0-2.13,54428,List1A,black,woman,,,,null,,,,,,,,,
24069.7,,,survey-text,399,1720976,0.0-19.0-3.13,54428,List1A,black,woman,,,,,"{""Q0"":""ruth is greeting mike""}","<img src=""stim_listA/greet4.gif""style=""height:400px;""></stim_listA>",is being greeted by,,,,,,
null,"<div style=""font-size:60px;"">+</div>",,html-keyboard-response,400,1721481,0.0-19.0-0.14,54428,List1A,black,woman,,,,null,,,,,,,,,
null,"<img src=""stim_listA/look1.gif""style=""height:400px;""></stim_listA>",,html-keyboard-response,401,1723494,0.0-19.0-1.14,54428,List1A,black,woman,,,,null,,,,,,,,,
null,is looking at,,html-keyboard-response,402,1725509,0.0-19.0-2.14,54428,List1A,black,woman,,,,null,,,,,,,,,
9027.2,,,survey-text,403,1734537,0.0-19.0-3.14,54428,List1A,black,woman,,,,,"{""Q0"":""beth is lloking at fred""}","<img src=""stim_listA/look1.gif""style=""height:400px;""></stim_listA>",is looking at,,,,,,
null,"<div style=""font-size:60px;"">+</div>",,html-keyboard-response,404,1735044,0.0-19.0-0.15,54428,List1A,black,woman,,,,null,,,,,,,,,
null,"<img src=""stim_listA/copy5.gif""style=""height:400px;""></stim_listA>",,html-keyboard-response,405,1737061,0.0-19.0-1.15,54428,List1A,black,woman,,,,null,,,,,,,,,
null,is copying,,html-keyboard-response,406,1739063,0.0-19.0-2.15,54428,List1A,black,woman,,,,null,,,,,,,,,
8093.4,,,survey-text,407,1747160,0.0-19.0-3.15,54428,List1A,black,woman,,,,,"{""Q0"":""mike is copying luke""}","<img src=""stim_listA/copy5.gif""style=""height:400px;""></stim_listA>",is copying,,,,,,
null,"<div style=""font-size:60px;"">+</div>",,html-keyboard-response,408,1747677,0.0-19.0-0.16,54428,List1A,black,woman,,,,null,,,,,,,,,
null,"<img src=""stim_listA/greet3.gif""style=""height:400px;""></stim_listA>",,html-keyboard-response,409,1749680,0.0-19.0-1.16,54428,List1A,black,woman,,,,null,,,,,,,,,
null,is greeting,,html-keyboard-response,410,1751694,0.0-19.0-2.16,54428,List1A,black,woman,,,,null,,,,,,,,,
8444.6,,,survey-text,411,1760142,0.0-19.0-3.16,54428,List1A,black,woman,,,,,"{""Q0"":""ruth is greeting dave""}","<img src=""stim_listA/greet3.gif""style=""height:400px;""></stim_listA>",is greeting,,,,,,
null,"<div style=""font-size:60px;"">+</div>",,html-keyboard-response,412,1760646,0.0-19.0-0.17,54428,List1A,black,woman,,,,null,,,,,,,,,
null,"<img src=""stim_listA/copy1.gif""style=""height:400px;""></stim_listA>",,html-keyboard-response,413,1762660,0.0-19.0-1.17,54428,List1A,black,woman,,,,null,,,,,,,,,
null,is copying,,html-keyboard-response,414,1764677,0.0-19.0-2.17,54428,List1A,black,woman,,,,null,,,,,,,,,
8544.9,,,survey-text,415,1773226,0.0-19.0-3.17,54428,List1A,black,woman,,,,,"{""Q0"":""kate and dave""}","<img src=""stim_listA/copy1.gif""style=""height:400px;""></stim_listA>",is copying,,,,,,
null,"<div style=""font-size:60px;"">+</div>",,html-keyboard-response,416,1773728,0.0-19.0-0.18,54428,List1A,black,woman,,,,null,,,,,,,,,
null,"<img src=""stim_listA/shout7.gif""style=""height:400px;""></stim_listA>",,html-keyboard-response,417,1775744,0.0-19.0-1.18,54428,List1A,black,woman,,,,null,,,,,,,,,
null,is shouting at,,html-keyboard-response,418,1777745,0.0-19.0-2.18,54428,List1A,black,woman,,,,null,,,,,,,,,
11901,,,survey-text,419,1789650,0.0-19.0-3.18,54428,List1A,black,woman,,,,,"{""Q0"":""beth is shouting at ruth""}","<img src=""stim_listA/shout7.gif""style=""height:400px;""></stim_listA>",is shouting at,,,,,,
null,"<div style=""font-size:60px;"">+</div>",,html-keyboard-response,420,1790163,0.0-19.0-0.19,54428,List1A,black,woman,,,,null,,,,,,,,,
null,"<img src=""stim_listA/challenge6.gif""style=""height:400px;""></stim_listA>",,html-keyboard-response,421,1792177,0.0-19.0-1.19,54428,List1A,black,woman,,,,null,,,,,,,,,
null,is being challenged by,,html-keyboard-response,422,1794208,0.0-19.0-2.19,54428,List1A,black,woman,,,,null,,,,,,,,,
55819.2,,,survey-text,423,1850030,0.0-19.0-3.19,54428,List1A,black,woman,,,,,"{""Q0"":""dave is being challenged by ruth""}","<img src=""stim_listA/challenge6.gif""style=""height:400px;""></stim_listA>",is being challenged by,,,,,,
2729.4,<p>Thank you for completing that task.</p><p>The final part of this session is a questionnaire that will take about 4 minutes.</p><p>Press Continue.</p>,0,html-button-response,424,1852761,0.0-20.0,54428,List1A,black,woman,,,,,,,,,,,,,
51378.8,,,survey-text,425,1905160,0.0-21.0,54428,List1A,black,woman,,,,,"{""Q0"":""21"",""Q1"":""English"",""Q2"":""English"",""Q3"":""United States"",""Q4"":""United States"",""Q5"":""african american"",""Q6"":""female""}",,,demographics,,,,,
1838.8,<p>Have you lived in the USA for the last 5 years or more?</p>,0,html-button-response,426,1907001,0.0-22.0,54428,List1A,black,woman,,,,,,,,fiveyears,,,,,
2158.7,<p>Move the slider to show the extent to which you agree with the following statements.</p>,0,html-button-response,427,1910166,0.0-23.0,54428,List1A,black,woman,,,,,,,,,,,,,
7041.9,,,html-slider-response,428,1918218,0.0-24.0-0.0-0.0,54428,List1A,black,woman,,,,,,,,survey_race,40,,,I consider myself an introvert.,filler
2898,,,html-slider-response,429,1921118,0.0-24.0-0.0-0.1,54428,List1A,black,woman,,,,,,,,survey_race,64,,,I enjoy being in large groups.,filler
5123.1,,,html-slider-response,430,1926242,0.0-24.0-0.0-0.2,54428,List1A,black,woman,,,,,,,,survey_race,64,,,People of my race have a lot in common with each other.,common
22377.7,,,html-slider-response,431,1948621,0.0-24.0-0.0-0.3,54428,List1A,black,woman,,,,,,,,survey_race,91,,,I am glad to be my age.,filler
25350.5,,,html-slider-response,432,1973974,0.0-24.0-0.0-0.4,54428,List1A,black,woman,,,,,,,,survey_race,51,,,I feel committed to my race.,committed
6756.9,,,html-slider-response,433,1980733,0.0-24.0-0.0-0.5,54428,List1A,black,woman,,,,,,,,survey_race,80,,,I am glad to be my race.,glad
2723.7,,,html-slider-response,434,1983458,0.0-24.0-0.0-0.6,54428,List1A,black,woman,,,,,,,,survey_race,84,,,I feel solidarity with people the same age as me.,filler
2167.4,,,html-slider-response,435,1985627,0.0-24.0-0.0-0.7,54428,List1A,black,woman,,,,,,,,survey_race,84,,,The fact that I am my race is an important part of my identity.,identity
2999.5,,,html-slider-response,436,1988628,0.0-24.0-0.0-0.8,54428,List1A,black,woman,,,,,,,,survey_race,32,,,I consider myself an extrovert.,filler
2224,,,html-slider-response,437,1990854,0.0-24.0-0.0-0.9,54428,List1A,black,woman,,,,,,,,survey_race,88,,,I am similar to the average person of my race.,similar
2203.6,,,html-slider-response,438,1993059,0.0-24.0-0.0-0.10,54428,List1A,black,woman,,,,,,,,survey_race,84,,,It is pleasant to be my race.,pleasant
2131.5,,,html-slider-response,439,1995192,0.0-24.0-0.0-0.11,54428,List1A,black,woman,,,,,,,,survey_race,88,,,I am glad to be the age I am.,filler
3461.5,,,html-slider-response,440,1998655,0.0-24.0-0.0-0.12,54428,List1A,black,woman,,,,,,,,survey_race,72,,,I often think about the fact that I am my race.,often
2824.7,,,html-slider-response,441,2001481,0.0-24.0-0.0-0.13,54428,List1A,black,woman,,,,,,,,survey_race,83,,,Being my race is an important part of how I see myself.,important
2102.4,,,html-slider-response,442,2003585,0.0-24.0-0.0-0.14,54428,List1A,black,woman,,,,,,,,survey_race,84,,,I feel a bond with my race.,bond
1987,,,html-slider-response,443,2005573,0.0-24.0-0.0-0.15,54428,List1A,black,woman,,,,,,,,survey_race,82,,,I have a lot in common with the average person of my race.,average
1553.1,,,html-slider-response,444,2007127,0.0-24.0-0.0-0.16,54428,List1A,black,woman,,,,,,,,survey_race,83,,,"The older I get, the wiser I feel.",filler
1690.5,,,html-slider-response,445,2008819,0.0-24.0-0.0-0.17,54428,List1A,black,woman,,,,,,,,survey_race,79,,,I have a lot in common with people of a similar age to me.,filler
2095.1,,,html-slider-response,446,2010915,0.0-24.0-0.0-0.18,54428,List1A,black,woman,,,,,,,,survey_race,82,,,Being my race gives me a good feeling.,feeling
1950.7,,,html-slider-response,447,2012867,0.0-24.0-0.0-0.19,54428,List1A,black,woman,,,,,,,,survey_race,83,,,I feel solidarity with my race.,solidarity
2218.4,,,html-slider-response,448,2015086,0.0-24.0-0.0-0.20,54428,List1A,black,woman,,,,,,,,survey_race,85,,,People of my race are very similar to each other.,verysimilar
5095.3,,,html-slider-response,449,2020183,0.0-24.0-0.0-0.21,54428,List1A,black,woman,,,,,,,,survey_race,87,,,People my age have a lot in common with each other.,filler
3938.5,,,html-slider-response,450,2024123,0.0-24.0-0.0-0.22,54428,List1A,black,woman,,,,,,,,survey_race,39,,,My age is not an important part of who I am.,filler
4386.4,,,html-slider-response,451,2028512,0.0-24.0-0.0-0.23,54428,List1A,black,woman,,,,,,,,survey_race,87,,,Getting older does not worry me.,filler
55171.7,,,html-slider-response,452,2083685,0.0-24.0-0.0-0.24,54428,List1A,black,woman,,,,,,,,survey_race,40,,,I often think about the fact that I am my age.,filler
2283.4,,,html-slider-response,453,2085971,0.0-24.0-0.0-0.25,54428,List1A,black,woman,,,,,,,,survey_race,43,,,Being my age gives me a good feeling.,filler
2267.9,,,html-slider-response,454,2088240,0.0-24.0-0.0-0.26,54428,List1A,black,woman,,,,,,,,survey_race,74,,,I feel a bond with people the same age as me.,filler
1762.5,,,html-slider-response,455,2090003,0.0-24.0-0.0-0.27,54428,List1A,black,woman,,,,,,,,survey_race,84,,,I think that my race has a lot to be proud of.,proud
1734,,,html-slider-response,456,2091739,0.0-24.0-1.0-0.0,54428,List1A,black,woman,,,,,,,,survey_gender,79,,,My friends understand me.,filler
1907,,,html-slider-response,457,2093647,0.0-24.0-1.0-0.1,54428,List1A,black,woman,,,,,,,,survey_gender,81,,,I think that my gender has a lot to be proud of.,proud
138966.7,,,html-slider-response,458,2232615,0.0-24.0-1.0-0.2,54428,List1A,black,woman,,,,,,,,survey_gender,80,,,People of my gender have a lot in common with each other.,common
2817.6,,,html-slider-response,459,2235434,0.0-24.0-1.0-0.3,54428,List1A,black,woman,,,,,,,,survey_gender,23,,,It is pleasant to be my gender.,pleasant
4560.8,,,html-slider-response,460,2239997,0.0-24.0-1.0-0.4,54428,List1A,black,woman,,,,,,,,survey_gender,51,,,Family is not more important to me than friendship.,filler
3041.8,,,html-slider-response,461,2243040,0.0-24.0-1.0-0.5,54428,List1A,black,woman,,,,,,,,survey_gender,85,,,I feel a bond with my friends.,filler
1697,,,html-slider-response,462,2244739,0.0-24.0-1.0-0.6,54428,List1A,black,woman,,,,,,,,survey_gender,74,,,I feel solidarity with my gender.,solidarity
1545.8,,,html-slider-response,463,2246286,0.0-24.0-1.0-0.7,54428,List1A,black,woman,,,,,,,,survey_gender,84,,,The fact that I am my gender is an important part of my identity.,identity
2494.1,,,html-slider-response,464,2248782,0.0-24.0-1.0-0.8,54428,List1A,black,woman,,,,,,,,survey_gender,76,,,It is not always easy for people to know what I am thinking.,filler
2946.2,,,html-slider-response,465,2251730,0.0-24.0-1.0-0.9,54428,List1A,black,woman,,,,,,,,survey_gender,80,,,I have a lot in common with my friends.,filler
2962.8,,,html-slider-response,466,2254694,0.0-24.0-1.0-0.10,54428,List1A,black,woman,,,,,,,,survey_gender,80,,,I have a lot in common with the average person of my gender.,average
2254.1,,,html-slider-response,467,2256950,0.0-24.0-1.0-0.11,54428,List1A,black,woman,,,,,,,,survey_gender,71,,,Being my gender is an important part of how I see myself.,important
1971.6,,,html-slider-response,468,2258923,0.0-24.0-1.0-0.12,54428,List1A,black,woman,,,,,,,,survey_gender,81,,,Being around my friends gives me a good feeling.,filler
1647.1,,,html-slider-response,469,2260571,0.0-24.0-1.0-0.13,54428,List1A,black,woman,,,,,,,,survey_gender,76,,,My friends have a lot in common with each other.,filler
2608.4,,,html-slider-response,470,2263181,0.0-24.0-1.0-0.14,54428,List1A,black,woman,,,,,,,,survey_gender,77,,,Being my gender gives me a good feeling.,feeling
1979.4,,,html-slider-response,471,2265161,0.0-24.0-1.0-0.15,54428,List1A,black,woman,,,,,,,,survey_gender,75,,,Most of the friends in my life are very similar to me.,filler
2616,,,html-slider-response,472,2267779,0.0-24.0-1.0-0.16,54428,List1A,black,woman,,,,,,,,survey_gender,81,,,I feel a bond with my gender.,bond
1372.4,,,html-slider-response,473,2269152,0.0-24.0-1.0-0.17,54428,List1A,black,woman,,,,,,,,survey_gender,78,,,I feel solidarity with my friends.,filler
1567.5,,,html-slider-response,474,2270721,0.0-24.0-1.0-0.18,54428,List1A,black,woman,,,,,,,,survey_gender,73,,,I often think about my actions.,filler
1784.2,,,html-slider-response,475,2272506,0.0-24.0-1.0-0.19,54428,List1A,black,woman,,,,,,,,survey_gender,74,,,I feel committed to my gender.,committed
2528.3,,,html-slider-response,476,2275036,0.0-24.0-1.0-0.20,54428,List1A,black,woman,,,,,,,,survey_gender,74,,,I am glad to have the friends that I have.,filler
1806.5,,,html-slider-response,477,2276844,0.0-24.0-1.0-0.21,54428,List1A,black,woman,,,,,,,,survey_gender,76,,,I am similar to the average person of my gender.,similar
1300,,,html-slider-response,478,2278145,0.0-24.0-1.0-0.22,54428,List1A,black,woman,,,,,,,,survey_gender,79,,,I am glad to be my gender.,glad
2153.3,,,html-slider-response,479,2280300,0.0-24.0-1.0-0.23,54428,List1A,black,woman,,,,,,,,survey_gender,82,,,I often think about the fact that I am my gender.,often
2124.5,,,html-slider-response,480,2282426,0.0-24.0-1.0-0.24,54428,List1A,black,woman,,,,,,,,survey_gender,85,,,I consider myself a highly empathetic person.,filler
2642.8,,,html-slider-response,481,2285070,0.0-24.0-1.0-0.25,54428,List1A,black,woman,,,,,,,,survey_gender,33,,,Routine is not important to me.,filler
1949.8,,,html-slider-response,482,2287022,0.0-24.0-1.0-0.26,54428,List1A,black,woman,,,,,,,,survey_gender,77,,,I would say I am an animal person.,filler
1494.8,,,html-slider-response,483,2288517,0.0-24.0-1.0-0.27,54428,List1A,black,woman,,,,,,,,survey_gender,75,,,People of my gender are very similar to each other.,verysimilar
4097.7,,,survey-text,484,2292618,0.0-25.0,54428,List1A,black,woman,,,,,"{""Q0"":""ccc""}",,,worker_id,,,,,
4537,,,external-html,485,2297604,0.0-26.0,54428,List1A,black,woman,debrief.html,,,,,,,,,,,,
