"rt","stimulus","button_pressed","trial_type","trial_index","time_elapsed","internal_node_id","subject","list","ppt_race","ppt_gender","url","first_guess","correct","key_press","responses","image_type","phrase_type","test_part","response","stimulus1","stimulus2","question_type","survey_item"
"12686.799999952316","Welcome to the experiment. Press Continue to begin.","0","html-button-response","0","12703","0.0-0.0","54742","List2A","white","man","","","","","","","","","","","","",""
"5166.900000095367","","","external-html","1","23289","0.0-1.0","54742","List2A","white","man","consent.html","","","","","","","","","","","",""
"1569.8999999761581","<p>On the next page, you will see portraits of 8 people and their names.</p><p>Your first task is to take a few minutes to memorise the names of these people.</p><p>You will have to recall their names during the rest of the experiment, so it is</p><p>essential that you try to memorise these people and their names as best as you can.</p><br><p><strong>You will then be tested on your memory of these names and portraits.</strong></p><br><p>The experiment will start after you have completed this memory test.</p><br><p>Ready?</p>","0","html-button-response","2","24864","0.0-2.0","54742","List2A","white","man","","","","","","","","","","","","",""
"2571","<img src='img/portrait_matrix_list2.jpg' style='width:900px;height:500px;''></img><p>If you have memorised all the portraits and names and are ready to start, press Continue.</p><p><strong>Please note: Your memory of these faces will be tested 4 times during this experiment.</strong></p>","0","html-button-response","3","28442","0.0-3.0-0.0","54742","List2A","white","man","","","","","","","","","","","","",""
"15346.5","<img src=""portrait/WW2.jpg""style=""height:400px;""></img>","0","html-button-response","4","44796","0.0-3.0-1.0","54742","List2A","white","man","","true","3","","","","","","","","","",""
"1354.2999999523163","<img src=""portrait/WW2.jpg""style=""height:400px;""></img>","5","html-button-response","5","47173","0.0-3.0-3.0-0.0","54742","List2A","white","man","","false","3","","","","","","","","","",""
"null","INCORRECT","","html-keyboard-response","6","48692","0.0-3.0-3.0-2.0-0.0","54742","List2A","white","man","","","","null","","","","","","","","",""
"21575.5","<img src=""portrait/BW2.jpg""style=""height:400px;""></img>","2","html-button-response","7","70281","0.0-3.0-4.0","54742","List2A","white","man","","true","2","","","","","","","","","",""
"null","CORRECT","","html-keyboard-response","8","71888","0.0-3.0-5.0-0.0","54742","List2A","white","man","","","","null","","","","","","","","",""
"3925.2999999523163","<img src=""portrait/BW1.jpg""style=""height:400px;""></img>","0","html-button-response","9","75820","0.0-3.0-7.0","54742","List2A","white","man","","true","0","","","","","","","","","",""
"null","CORRECT","","html-keyboard-response","10","77330","0.0-3.0-8.0-0.0","54742","List2A","white","man","","","","null","","","","","","","","",""
"3258.5","<img src=""portrait/WM1.jpg""style=""height:400px;""></img>","6","html-button-response","11","80601","0.0-3.0-10.0","54742","List2A","white","man","","true","6","","","","","","","","","",""
"null","CORRECT","","html-keyboard-response","12","82109","0.0-3.0-11.0-0.0","54742","List2A","white","man","","","","null","","","","","","","","",""
"3209.2999999523163","<img src=""portrait/BM2.jpg""style=""height:400px;""></img>","5","html-button-response","13","85328","0.0-3.0-13.0","54742","List2A","white","man","","true","5","","","","","","","","","",""
"null","CORRECT","","html-keyboard-response","14","86834","0.0-3.0-14.0-0.0","54742","List2A","white","man","","","","null","","","","","","","","",""
"5043.100000023842","<img src=""portrait/BM1.jpg""style=""height:400px;""></img>","4","html-button-response","15","91884","0.0-3.0-16.0","54742","List2A","white","man","","true","4","","","","","","","","","",""
"null","CORRECT","","html-keyboard-response","16","93391","0.0-3.0-17.0-0.0","54742","List2A","white","man","","","","null","","","","","","","","",""
"3166","<img src=""portrait/WM2.jpg""style=""height:400px;""></img>","7","html-button-response","17","96568","0.0-3.0-19.0","54742","List2A","white","man","","true","7","","","","","","","","","",""
"null","CORRECT","","html-keyboard-response","18","98078","0.0-3.0-20.0-0.0","54742","List2A","white","man","","","","null","","","","","","","","",""
"3488.7000000476837","<img src=""portrait/WW1.jpg""style=""height:400px;""></img>","3","html-button-response","19","101575","0.0-3.0-22.0","54742","List2A","white","man","","true","1","","","","","","","","","",""
"1423.7999999523163","<img src=""portrait/WW1.jpg""style=""height:400px;""></img>","1","html-button-response","20","104014","0.0-3.0-24.0-0.0","54742","List2A","white","man","","false","1","","","","","","","","","",""
"null","CORRECT","","html-keyboard-response","21","105519","0.0-3.0-24.0-1.0-0.0","54742","List2A","white","man","","","","null","","","","","","","","",""
"1692.8999999761581","<p>You got 6 out of 8 right first time. Press Continue.</p>","0","html-button-response","22","107224","0.0-3.0-25.0","54742","List2A","white","man","","","","","","","","","","","","",""
"2155.399999976158","As you did not score 100%, the memory game will repeat. Press Continue.","0","html-button-response","23","110388","0.0-3.0-26.0-0.0","54742","List2A","white","man","","","","","","","","","","","","",""
"3268.7000000476837","<img src='img/portrait_matrix_list2.jpg' style='width:900px;height:500px;''></img><p>If you have memorised all the portraits and names and are ready to start, press Continue.</p><p><strong>Please note: Your memory of these faces will be tested 4 times during this experiment.</strong></p>","0","html-button-response","24","114673","0.0-3.1-0.1","54742","List2A","white","man","","","","","","","","","","","","",""
"3271.100000023842","<img src=""portrait/WW2.jpg""style=""height:400px;""></img>","3","html-button-response","25","118952","0.0-3.1-1.1","54742","List2A","white","man","","true","3","","","","","","","","","",""
"null","CORRECT","","html-keyboard-response","26","120465","0.0-3.1-2.1-0.1","54742","List2A","white","man","","","","null","","","","","","","","",""
"3347.8000000715256","<img src=""portrait/BW2.jpg""style=""height:400px;""></img>","2","html-button-response","27","123822","0.0-3.1-4.1","54742","List2A","white","man","","true","2","","","","","","","","","",""
"null","CORRECT","","html-keyboard-response","28","125332","0.0-3.1-5.1-0.1","54742","List2A","white","man","","","","null","","","","","","","","",""
"2124.1999999284744","<img src=""portrait/BW1.jpg""style=""height:400px;""></img>","0","html-button-response","29","127469","0.0-3.1-7.1","54742","List2A","white","man","","true","0","","","","","","","","","",""
"null","CORRECT","","html-keyboard-response","30","128977","0.0-3.1-8.1-0.1","54742","List2A","white","man","","","","null","","","","","","","","",""
"2173.3000000715256","<img src=""portrait/WM1.jpg""style=""height:400px;""></img>","6","html-button-response","31","131160","0.0-3.1-10.1","54742","List2A","white","man","","true","6","","","","","","","","","",""
"null","CORRECT","","html-keyboard-response","32","132668","0.0-3.1-11.1-0.1","54742","List2A","white","man","","","","null","","","","","","","","",""
"1926.7000000476837","<img src=""portrait/BM2.jpg""style=""height:400px;""></img>","5","html-button-response","33","134607","0.0-3.1-13.1","54742","List2A","white","man","","true","5","","","","","","","","","",""
"null","CORRECT","","html-keyboard-response","34","136119","0.0-3.1-14.1-0.1","54742","List2A","white","man","","","","null","","","","","","","","",""
"2400.7999999523163","<img src=""portrait/BM1.jpg""style=""height:400px;""></img>","4","html-button-response","35","138529","0.0-3.1-16.1","54742","List2A","white","man","","true","4","","","","","","","","","",""
"null","CORRECT","","html-keyboard-response","36","140040","0.0-3.1-17.1-0.1","54742","List2A","white","man","","","","null","","","","","","","","",""
"1804.8000000715256","<img src=""portrait/WM2.jpg""style=""height:400px;""></img>","7","html-button-response","37","141859","0.0-3.1-19.1","54742","List2A","white","man","","true","7","","","","","","","","","",""
"null","CORRECT","","html-keyboard-response","38","143367","0.0-3.1-20.1-0.1","54742","List2A","white","man","","","","null","","","","","","","","",""
"1919.5","<img src=""portrait/WW1.jpg""style=""height:400px;""></img>","1","html-button-response","39","145300","0.0-3.1-22.1","54742","List2A","white","man","","true","1","","","","","","","","","",""
"null","CORRECT","","html-keyboard-response","40","146812","0.0-3.1-23.1-0.1","54742","List2A","white","man","","","","null","","","","","","","","",""
"1434.1000000238419","<p>You got 8 out of 8 right first time. Press Continue.</p>","0","html-button-response","41","148258","0.0-3.1-25.1","54742","List2A","white","man","","","","","","","","","","","","",""
"8978.299999952316","<p>In this experiment, you will view photographs of the people from the memory game interacting.</p><p>By using the <strong>exact</strong> phrase given <i>after</i> the photograph appears and recalling the correct names of the people in the photographs, form a sentence describing the interaction. You do not need to capitalise names.</p><p>Type your answer in the space provided. Please complete every sentence before moving onto the next trial.</p><p>You will only have a few seconds to memorise each given photograph and phrase before you can respond, so try your best to focus.</p><p>An example is given below. Press 'Continue' when you are ready.</p><img src='img/speaking_example.jpg' style='width:800px;height:460px;''></img>","0","html-button-response","42","158250","0.0-4.0","54742","List2A","white","man","","","","","","","","","","","","",""
"2196.899999976158","<p>Before the experiment starts, you will watch two example trials. Press 'Continue'.</p>","0","html-button-response","43","161453","0.0-5.0","54742","List2A","white","man","","","","","","","","","","","","",""
"null","<img src='img/play_eg.gif' style='height:400px;''></img>","","html-keyboard-response","44","164466","0.0-6.0","54742","List2A","white","man","","","","null","","","","","","","","",""
"null","<p>is playing with</p>","","html-keyboard-response","45","166483","0.0-7.0","54742","List2A","white","man","","","","null","","","","","","","","",""
"4018.1999999284744","<p><b>Answer:</b> jane is playing with ruth</p>","0","html-button-response","46","170505","0.0-8.0","54742","List2A","white","man","","","","","","","","","","","","",""
"null","<img src='img/dance_eg.gif' style='height:400px;''></img>","","html-keyboard-response","47","173515","0.0-9.0","54742","List2A","white","man","","","","null","","","","","","","","",""
"null","<p>is being entertained by</p>","","html-keyboard-response","48","175523","0.0-10.0","54742","List2A","white","man","","","","null","","","","","","","","",""
"1222","<p><b>Answer:</b> fred is being entertained by mike</p>","0","html-button-response","49","176751","0.0-11.0","54742","List2A","white","man","","","","","","","","","","","","",""
"1123.1999999284744","<p>Ready to start the experiment?</p><br><p><strong>Remember to describe the picture using a full sentence,</strong></p><p><strong>that combines the names of the people with the <i>exact</i> phrase given.</strong></p><p><strong>To receive full payment you must do this correctly.</strong></p><p><strong> You do not need to capitalise names or use punctuation.</strong></p><br><p>Press 'Continue' to begin.</p>","0","html-button-response","50","178883","0.0-12.0","54742","List2A","white","man","","","","","","","","","","","","",""
"null","<div style=""font-size:60px;"">+</div>","","html-keyboard-response","51","180391","0.0-13.0-0.0","54742","List2A","white","man","","","","null","","","","","","","","",""
"null","<img src=""stim_listA/greet6.gif""style=""height:400px;""></stim_listA>","","html-keyboard-response","52","182408","0.0-13.0-1.0","54742","List2A","white","man","","","","null","","","","","","","","",""
"null","is being greeted by","","html-keyboard-response","53","184415","0.0-13.0-2.0","54742","List2A","white","man","","","","null","","","","","","","","",""
"3343.2999999523163","","","survey-text","54","187795","0.0-13.0-3.0","54742","List2A","white","man","","","","","{""Q0"":""Luke""}","<img src=""stim_listA/greet6.gif""style=""height:400px;""></stim_listA>","is being greeted by","","","","","",""
"null","<div style=""font-size:60px;"">+</div>","","html-keyboard-response","55","188303","0.0-13.0-0.1","54742","List2A","white","man","","","","null","","","","","","","","",""
"null","<img src=""stim_listA/oppose5.gif""style=""height:400px;""></stim_listA>","","html-keyboard-response","56","190312","0.0-13.0-1.1","54742","List2A","white","man","","","","null","","","","","","","","",""
"null","is opposing","","html-keyboard-response","57","192318","0.0-13.0-2.1","54742","List2A","white","man","","","","null","","","","","","","","",""
"2313.5","","","survey-text","58","194647","0.0-13.0-3.1","54742","List2A","white","man","","","","","{""Q0"":""Mike""}","<img src=""stim_listA/oppose5.gif""style=""height:400px;""></stim_listA>","is opposing","","","","","",""
"null","<div style=""font-size:60px;"">+</div>","","html-keyboard-response","59","195157","0.0-13.0-0.2","54742","List2A","white","man","","","","null","","","","","","","","",""
"null","<img src=""stim_listA/kiss1.gif""style=""height:400px;""></stim_listA>","","html-keyboard-response","60","197194","0.0-13.0-1.2","54742","List2A","white","man","","","","null","","","","","","","","",""
"null","is kissing","","html-keyboard-response","61","199202","0.0-13.0-2.2","54742","List2A","white","man","","","","null","","","","","","","","",""
"2935","","","survey-text","62","202160","0.0-13.0-3.2","54742","List2A","white","man","","","","","{""Q0"":""Luke""}","<img src=""stim_listA/kiss1.gif""style=""height:400px;""></stim_listA>","is kissing","","","","","",""
"null","<div style=""font-size:60px;"">+</div>","","html-keyboard-response","63","202667","0.0-13.0-0.3","54742","List2A","white","man","","","","null","","","","","","","","",""
"null","<img src=""stim_listA/hug8.gif""style=""height:400px;""></stim_listA>","","html-keyboard-response","64","204679","0.0-13.0-1.3","54742","List2A","white","man","","","","null","","","","","","","","",""
"null","is being hugged by","","html-keyboard-response","65","206684","0.0-13.0-2.3","54742","List2A","white","man","","","","null","","","","","","","","",""
"7883.100000023842","","","survey-text","66","214585","0.0-13.0-3.3","54742","List2A","white","man","","","","","{""Q0"":""Kate""}","<img src=""stim_listA/hug8.gif""style=""height:400px;""></stim_listA>","is being hugged by","","","","","",""
"null","<div style=""font-size:60px;"">+</div>","","html-keyboard-response","67","215090","0.0-13.0-0.4","54742","List2A","white","man","","","","null","","","","","","","","",""
"null","<img src=""stim_listA/touch2.gif""style=""height:400px;""></stim_listA>","","html-keyboard-response","68","217092","0.0-13.0-1.4","54742","List2A","white","man","","","","null","","","","","","","","",""
"null","is being touched by","","html-keyboard-response","69","219095","0.0-13.0-2.4","54742","List2A","white","man","","","","null","","","","","","","","",""
"8552.700000047684","","","survey-text","70","227659","0.0-13.0-3.4","54742","List2A","white","man","","","","","{""Q0"":""Beth""}","<img src=""stim_listA/touch2.gif""style=""height:400px;""></stim_listA>","is being touched by","","","","","",""
"null","<div style=""font-size:60px;"">+</div>","","html-keyboard-response","71","228167","0.0-13.0-0.5","54742","List2A","white","man","","","","null","","","","","","","","",""
"null","<img src=""stim_listA/oppose4.gif""style=""height:400px;""></stim_listA>","","html-keyboard-response","72","230177","0.0-13.0-1.5","54742","List2A","white","man","","","","null","","","","","","","","",""
"null","is being opposed by","","html-keyboard-response","73","232184","0.0-13.0-2.5","54742","List2A","white","man","","","","null","","","","","","","","",""
"6420.599999904633","","","survey-text","74","238628","0.0-13.0-3.5","54742","List2A","white","man","","","","","{""Q0"":""Jane""}","<img src=""stim_listA/oppose4.gif""style=""height:400px;""></stim_listA>","is being opposed by","","","","","",""
"null","<div style=""font-size:60px;"">+</div>","","html-keyboard-response","75","239134","0.0-13.0-0.6","54742","List2A","white","man","","","","null","","","","","","","","",""
"null","<img src=""stim_listA/greet4.gif""style=""height:400px;""></stim_listA>","","html-keyboard-response","76","241148","0.0-13.0-1.6","54742","List2A","white","man","","","","null","","","","","","","","",""
"null","is being greeted by","","html-keyboard-response","77","243154","0.0-13.0-2.6","54742","List2A","white","man","","","","null","","","","","","","","",""
"15184.899999976158","","","survey-text","78","258363","0.0-13.0-3.6","54742","List2A","white","man","","","","","{""Q0"":""Jane""}","<img src=""stim_listA/greet4.gif""style=""height:400px;""></stim_listA>","is being greeted by","","","","","",""
"null","<div style=""font-size:60px;"">+</div>","","html-keyboard-response","79","258870","0.0-13.0-0.7","54742","List2A","white","man","","","","null","","","","","","","","",""
"null","<img src=""stim_listA/copy7.gif""style=""height:400px;""></stim_listA>","","html-keyboard-response","80","260880","0.0-13.0-1.7","54742","List2A","white","man","","","","null","","","","","","","","",""
"null","is copying","","html-keyboard-response","81","262884","0.0-13.0-2.7","54742","List2A","white","man","","","","null","","","","","","","","",""
"3011.3000000715256","","","survey-text","82","265909","0.0-13.0-3.7","54742","List2A","white","man","","","","","{""Q0"":""Ruth""}","<img src=""stim_listA/copy7.gif""style=""height:400px;""></stim_listA>","is copying","","","","","",""
"null","<div style=""font-size:60px;"">+</div>","","html-keyboard-response","83","266415","0.0-13.0-0.8","54742","List2A","white","man","","","","null","","","","","","","","",""
"null","<img src=""stim_listA/look1.gif""style=""height:400px;""></stim_listA>","","html-keyboard-response","84","268424","0.0-13.0-1.8","54742","List2A","white","man","","","","null","","","","","","","","",""
"null","is looking at","","html-keyboard-response","85","270431","0.0-13.0-2.8","54742","List2A","white","man","","","","null","","","","","","","","",""
"3991.2000000476837","","","survey-text","86","274445","0.0-13.0-3.8","54742","List2A","white","man","","","","","{""Q0"":""Luke""}","<img src=""stim_listA/look1.gif""style=""height:400px;""></stim_listA>","is looking at","","","","","",""
"null","<div style=""font-size:60px;"">+</div>","","html-keyboard-response","87","274951","0.0-13.0-0.9","54742","List2A","white","man","","","","null","","","","","","","","",""
"null","<img src=""stim_listA/kiss3.gif""style=""height:400px;""></stim_listA>","","html-keyboard-response","88","276959","0.0-13.0-1.9","54742","List2A","white","man","","","","null","","","","","","","","",""
"null","is kissing","","html-keyboard-response","89","278966","0.0-13.0-2.9","54742","List2A","white","man","","","","null","","","","","","","","",""
"3584.8000000715256","","","survey-text","90","282580","0.0-13.0-3.9","54742","List2A","white","man","","","","","{""Q0"":""Fred""}","<img src=""stim_listA/kiss3.gif""style=""height:400px;""></stim_listA>","is kissing","","","","","",""
"null","<div style=""font-size:60px;"">+</div>","","html-keyboard-response","91","283087","0.0-13.0-0.10","54742","List2A","white","man","","","","null","","","","","","","","",""
"null","<img src=""stim_listA/greet7.gif""style=""height:400px;""></stim_listA>","","html-keyboard-response","92","285093","0.0-13.0-1.10","54742","List2A","white","man","","","","null","","","","","","","","",""
"null","is greeting","","html-keyboard-response","93","287098","0.0-13.0-2.10","54742","List2A","white","man","","","","null","","","","","","","","",""
"3325.5999999046326","","","survey-text","94","290443","0.0-13.0-3.10","54742","List2A","white","man","","","","","{""Q0"":""Jane""}","<img src=""stim_listA/greet7.gif""style=""height:400px;""></stim_listA>","is greeting","","","","","",""
"null","<div style=""font-size:60px;"">+</div>","","html-keyboard-response","95","290952","0.0-13.0-0.11","54742","List2A","white","man","","","","null","","","","","","","","",""
"null","<img src=""stim_listA/oppose3.gif""style=""height:400px;""></stim_listA>","","html-keyboard-response","96","292966","0.0-13.0-1.11","54742","List2A","white","man","","","","null","","","","","","","","",""
"null","is opposing","","html-keyboard-response","97","294974","0.0-13.0-2.11","54742","List2A","white","man","","","","null","","","","","","","","",""
"3269","","","survey-text","98","298270","0.0-13.0-3.11","54742","List2A","white","man","","","","","{""Q0"":""Luke""}","<img src=""stim_listA/oppose3.gif""style=""height:400px;""></stim_listA>","is opposing","","","","","",""
"null","<div style=""font-size:60px;"">+</div>","","html-keyboard-response","99","298782","0.0-13.0-0.12","54742","List2A","white","man","","","","null","","","","","","","","",""
"null","<img src=""stim_listA/copy3.gif""style=""height:400px;""></stim_listA>","","html-keyboard-response","100","300792","0.0-13.0-1.12","54742","List2A","white","man","","","","null","","","","","","","","",""
"null","is copying","","html-keyboard-response","101","302799","0.0-13.0-2.12","54742","List2A","white","man","","","","null","","","","","","","","",""
"1930.6999999284744","","","survey-text","102","304749","0.0-13.0-3.12","54742","List2A","white","man","","","","","{""Q0"":""Mike""}","<img src=""stim_listA/copy3.gif""style=""height:400px;""></stim_listA>","is copying","","","","","",""
"null","<div style=""font-size:60px;"">+</div>","","html-keyboard-response","103","305258","0.0-13.0-0.13","54742","List2A","white","man","","","","null","","","","","","","","",""
"null","<img src=""stim_listA/shout6.gif""style=""height:400px;""></stim_listA>","","html-keyboard-response","104","307271","0.0-13.0-1.13","54742","List2A","white","man","","","","null","","","","","","","","",""
"null","is being shouted at by","","html-keyboard-response","105","309278","0.0-13.0-2.13","54742","List2A","white","man","","","","null","","","","","","","","",""
"2277.7000000476837","","","survey-text","106","311584","0.0-13.0-3.13","54742","List2A","white","man","","","","","{""Q0"":""Dave""}","<img src=""stim_listA/shout6.gif""style=""height:400px;""></stim_listA>","is being shouted at by","","","","","",""
"null","<div style=""font-size:60px;"">+</div>","","html-keyboard-response","107","312094","0.0-13.0-0.14","54742","List2A","white","man","","","","null","","","","","","","","",""
"null","<img src=""stim_listA/challenge7.gif""style=""height:400px;""></stim_listA>","","html-keyboard-response","108","314105","0.0-13.0-1.14","54742","List2A","white","man","","","","null","","","","","","","","",""
"null","is challenging","","html-keyboard-response","109","316112","0.0-13.0-2.14","54742","List2A","white","man","","","","null","","","","","","","","",""
"2037.5","","","survey-text","110","318173","0.0-13.0-3.14","54742","List2A","white","man","","","","","{""Q0"":""Jane""}","<img src=""stim_listA/challenge7.gif""style=""height:400px;""></stim_listA>","is challenging","","","","","",""
"null","<div style=""font-size:60px;"">+</div>","","html-keyboard-response","111","318679","0.0-13.0-0.15","54742","List2A","white","man","","","","null","","","","","","","","",""
"null","<img src=""stim_listA/shout4.gif""style=""height:400px;""></stim_listA>","","html-keyboard-response","112","320689","0.0-13.0-1.15","54742","List2A","white","man","","","","null","","","","","","","","",""
"null","is being shouted at by","","html-keyboard-response","113","322697","0.0-13.0-2.15","54742","List2A","white","man","","","","null","","","","","","","","",""
"7211.100000023842","","","survey-text","114","329927","0.0-13.0-3.15","54742","List2A","white","man","","","","","{""Q0"":""Mike""}","<img src=""stim_listA/shout4.gif""style=""height:400px;""></stim_listA>","is being shouted at by","","","","","",""
"null","<div style=""font-size:60px;"">+</div>","","html-keyboard-response","115","330433","0.0-13.0-0.16","54742","List2A","white","man","","","","null","","","","","","","","",""
"null","<img src=""stim_listA/shout7.gif""style=""height:400px;""></stim_listA>","","html-keyboard-response","116","332447","0.0-13.0-1.16","54742","List2A","white","man","","","","null","","","","","","","","",""
"null","is shouting at","","html-keyboard-response","117","334456","0.0-13.0-2.16","54742","List2A","white","man","","","","null","","","","","","","","",""
"2907.4000000953674","","","survey-text","118","337392","0.0-13.0-3.16","54742","List2A","white","man","","","","","{""Q0"":""Ruth""}","<img src=""stim_listA/shout7.gif""style=""height:400px;""></stim_listA>","is shouting at","","","","","",""
"null","<div style=""font-size:60px;"">+</div>","","html-keyboard-response","119","337902","0.0-13.0-0.17","54742","List2A","white","man","","","","null","","","","","","","","",""
"null","<img src=""stim_listA/shout8.gif""style=""height:400px;""></stim_listA>","","html-keyboard-response","120","339911","0.0-13.0-1.17","54742","List2A","white","man","","","","null","","","","","","","","",""
"null","is being shouted at by","","html-keyboard-response","121","341917","0.0-13.0-2.17","54742","List2A","white","man","","","","null","","","","","","","","",""
"5324.899999976158","","","survey-text","122","347257","0.0-13.0-3.17","54742","List2A","white","man","","","","","{""Q0"":""Beth""}","<img src=""stim_listA/shout8.gif""style=""height:400px;""></stim_listA>","is being shouted at by","","","","","",""
"null","<div style=""font-size:60px;"">+</div>","","html-keyboard-response","123","347766","0.0-13.0-0.18","54742","List2A","white","man","","","","null","","","","","","","","",""
"null","<img src=""stim_listA/challenge8.gif""style=""height:400px;""></stim_listA>","","html-keyboard-response","124","349779","0.0-13.0-1.18","54742","List2A","white","man","","","","null","","","","","","","","",""
"null","is being challenged by","","html-keyboard-response","125","351787","0.0-13.0-2.18","54742","List2A","white","man","","","","null","","","","","","","","",""
"2521.5","","","survey-text","126","354332","0.0-13.0-3.18","54742","List2A","white","man","","","","","{""Q0"":""Ruth""}","<img src=""stim_listA/challenge8.gif""style=""height:400px;""></stim_listA>","is being challenged by","","","","","",""
"null","<div style=""font-size:60px;"">+</div>","","html-keyboard-response","127","354839","0.0-13.0-0.19","54742","List2A","white","man","","","","null","","","","","","","","",""
"null","<img src=""stim_listA/greet8.gif""style=""height:400px;""></stim_listA>","","html-keyboard-response","128","356853","0.0-13.0-1.19","54742","List2A","white","man","","","","null","","","","","","","","",""
"null","is being greeted by","","html-keyboard-response","129","358862","0.0-13.0-2.19","54742","List2A","white","man","","","","null","","","","","","","","",""
"4493.300000071526","","","survey-text","130","363384","0.0-13.0-3.19","54742","List2A","white","man","","","","","{""Q0"":""Luke""}","<img src=""stim_listA/greet8.gif""style=""height:400px;""></stim_listA>","is being greeted by","","","","","",""
"2115.100000023842","<img src='img/portrait_matrix_list2.jpg' style='width:900px;height:500px;''></img><p>If you have memorised all the portraits and names and are ready to start, press Continue.</p><p><strong>Please note: Your memory of these faces will be tested 4 times during this experiment.</strong></p>","0","html-button-response","131","365506","0.0-14.0-0.0","54742","List2A","white","man","","","","","","","","","","","","",""
"16611.299999952316","<img src=""portrait/WM1.jpg""style=""height:400px;""></img>","6","html-button-response","132","383127","0.0-14.0-1.0","54742","List2A","white","man","","true","6","","","","","","","","","",""
"null","CORRECT","","html-keyboard-response","133","384636","0.0-14.0-2.0-0.0","54742","List2A","white","man","","","","null","","","","","","","","",""
"4737.899999976158","<img src=""portrait/WM2.jpg""style=""height:400px;""></img>","7","html-button-response","134","389386","0.0-14.0-4.0","54742","List2A","white","man","","true","7","","","","","","","","","",""
"null","CORRECT","","html-keyboard-response","135","390896","0.0-14.0-5.0-0.0","54742","List2A","white","man","","","","null","","","","","","","","",""
"2623.7999999523163","<img src=""portrait/BM2.jpg""style=""height:400px;""></img>","5","html-button-response","136","393532","0.0-14.0-7.0","54742","List2A","white","man","","true","5","","","","","","","","","",""
"null","CORRECT","","html-keyboard-response","137","395042","0.0-14.0-8.0-0.0","54742","List2A","white","man","","","","null","","","","","","","","",""
"3908.7000000476837","<img src=""portrait/WW2.jpg""style=""height:400px;""></img>","3","html-button-response","138","398963","0.0-14.0-10.0","54742","List2A","white","man","","true","3","","","","","","","","","",""
"null","CORRECT","","html-keyboard-response","139","400473","0.0-14.0-11.0-0.0","54742","List2A","white","man","","","","null","","","","","","","","",""
"7207.199999928474","<img src=""portrait/WW1.jpg""style=""height:400px;""></img>","1","html-button-response","140","407688","0.0-14.0-13.0","54742","List2A","white","man","","true","1","","","","","","","","","",""
"null","CORRECT","","html-keyboard-response","141","409198","0.0-14.0-14.0-0.0","54742","List2A","white","man","","","","null","","","","","","","","",""
"8939.300000071526","<img src=""portrait/BW2.jpg""style=""height:400px;""></img>","2","html-button-response","142","418148","0.0-14.0-16.0","54742","List2A","white","man","","true","2","","","","","","","","","",""
"null","CORRECT","","html-keyboard-response","143","419657","0.0-14.0-17.0-0.0","54742","List2A","white","man","","","","null","","","","","","","","",""
"4348","<img src=""portrait/BW1.jpg""style=""height:400px;""></img>","0","html-button-response","144","424017","0.0-14.0-19.0","54742","List2A","white","man","","true","0","","","","","","","","","",""
"null","CORRECT","","html-keyboard-response","145","425526","0.0-14.0-20.0-0.0","54742","List2A","white","man","","","","null","","","","","","","","",""
"3031.7999999523163","<img src=""portrait/BM1.jpg""style=""height:400px;""></img>","4","html-button-response","146","428572","0.0-14.0-22.0","54742","List2A","white","man","","true","4","","","","","","","","","",""
"null","CORRECT","","html-keyboard-response","147","430082","0.0-14.0-23.0-0.0","54742","List2A","white","man","","","","null","","","","","","","","",""
"2505.2000000476837","<p>You got 8 out of 8 right first time. Press Continue.</p>","0","html-button-response","148","432600","0.0-14.0-25.0","54742","List2A","white","man","","","","","","","","","","","","",""
"null","<div style=""font-size:60px;"">+</div>","","html-keyboard-response","149","434113","0.0-15.0-0.0","54742","List2A","white","man","","","","null","","","","","","","","",""
"null","<img src=""stim_listA/touch5.gif""style=""height:400px;""></stim_listA>","","html-keyboard-response","150","436120","0.0-15.0-1.0","54742","List2A","white","man","","","","null","","","","","","","","",""
"null","is touching","","html-keyboard-response","151","438126","0.0-15.0-2.0","54742","List2A","white","man","","","","null","","","","","","","","",""
"4035.1999999284744","","","survey-text","152","442180","0.0-15.0-3.0","54742","List2A","white","man","","","","","{""Q0"":""Luke""}","<img src=""stim_listA/touch5.gif""style=""height:400px;""></stim_listA>","is touching","","","","","",""
"null","<div style=""font-size:60px;"">+</div>","","html-keyboard-response","153","442688","0.0-15.0-0.1","54742","List2A","white","man","","","","null","","","","","","","","",""
"null","<img src=""stim_listA/oppose1.gif""style=""height:400px;""></stim_listA>","","html-keyboard-response","154","444699","0.0-15.0-1.1","54742","List2A","white","man","","","","null","","","","","","","","",""
"null","is opposing","","html-keyboard-response","155","446702","0.0-15.0-2.1","54742","List2A","white","man","","","","null","","","","","","","","",""
"2266.0999999046326","","","survey-text","156","448991","0.0-15.0-3.1","54742","List2A","white","man","","","","","{""Q0"":""Jane""}","<img src=""stim_listA/oppose1.gif""style=""height:400px;""></stim_listA>","is opposing","","","","","",""
"null","<div style=""font-size:60px;"">+</div>","","html-keyboard-response","157","449499","0.0-15.0-0.2","54742","List2A","white","man","","","","null","","","","","","","","",""
"null","<img src=""stim_listA/touch3.gif""style=""height:400px;""></stim_listA>","","html-keyboard-response","158","451510","0.0-15.0-1.2","54742","List2A","white","man","","","","null","","","","","","","","",""
"null","is touching","","html-keyboard-response","159","453516","0.0-15.0-2.2","54742","List2A","white","man","","","","null","","","","","","","","",""
"1846.8999999761581","","","survey-text","160","455379","0.0-15.0-3.2","54742","List2A","white","man","","","","","{""Q0"":""Mike""}","<img src=""stim_listA/touch3.gif""style=""height:400px;""></stim_listA>","is touching","","","","","",""
"null","<div style=""font-size:60px;"">+</div>","","html-keyboard-response","161","455883","0.0-15.0-0.3","54742","List2A","white","man","","","","null","","","","","","","","",""
"null","<img src=""stim_listA/copy4.gif""style=""height:400px;""></stim_listA>","","html-keyboard-response","162","457892","0.0-15.0-1.3","54742","List2A","white","man","","","","null","","","","","","","","",""
"null","is being copied by","","html-keyboard-response","163","459899","0.0-15.0-2.3","54742","List2A","white","man","","","","null","","","","","","","","",""
"2125.2000000476837","","","survey-text","164","462052","0.0-15.0-3.3","54742","List2A","white","man","","","","","{""Q0"":""Kate""}","<img src=""stim_listA/copy4.gif""style=""height:400px;""></stim_listA>","is being copied by","","","","","",""
"null","<div style=""font-size:60px;"">+</div>","","html-keyboard-response","165","462562","0.0-15.0-0.4","54742","List2A","white","man","","","","null","","","","","","","","",""
"null","<img src=""stim_listA/shout1.gif""style=""height:400px;""></stim_listA>","","html-keyboard-response","166","464579","0.0-15.0-1.4","54742","List2A","white","man","","","","null","","","","","","","","",""
"null","is shouting at","","html-keyboard-response","167","466586","0.0-15.0-2.4","54742","List2A","white","man","","","","null","","","","","","","","",""
"6960.100000023842","","","survey-text","168","473578","0.0-15.0-3.4","54742","List2A","white","man","","","","","{""Q0"":""Luke""}","<img src=""stim_listA/shout1.gif""style=""height:400px;""></stim_listA>","is shouting at","","","","","",""
"null","<div style=""font-size:60px;"">+</div>","","html-keyboard-response","169","474088","0.0-15.0-0.5","54742","List2A","white","man","","","","null","","","","","","","","",""
"null","<img src=""stim_listA/copy2.gif""style=""height:400px;""></stim_listA>","","html-keyboard-response","170","476102","0.0-15.0-1.5","54742","List2A","white","man","","","","null","","","","","","","","",""
"null","is being copied by","","html-keyboard-response","171","478109","0.0-15.0-2.5","54742","List2A","white","man","","","","null","","","","","","","","",""
"1829.6999999284744","","","survey-text","172","479954","0.0-15.0-3.5","54742","List2A","white","man","","","","","{""Q0"":""Jane""}","<img src=""stim_listA/copy2.gif""style=""height:400px;""></stim_listA>","is being copied by","","","","","",""
"null","<div style=""font-size:60px;"">+</div>","","html-keyboard-response","173","480459","0.0-15.0-0.6","54742","List2A","white","man","","","","null","","","","","","","","",""
"null","<img src=""stim_listA/greet2.gif""style=""height:400px;""></stim_listA>","","html-keyboard-response","174","482469","0.0-15.0-1.6","54742","List2A","white","man","","","","null","","","","","","","","",""
"null","is being greeted by","","html-keyboard-response","175","484479","0.0-15.0-2.6","54742","List2A","white","man","","","","null","","","","","","","","",""
"2369.100000023842","","","survey-text","176","486878","0.0-15.0-3.6","54742","List2A","white","man","","","","","{""Q0"":""Luke""}","<img src=""stim_listA/greet2.gif""style=""height:400px;""></stim_listA>","is being greeted by","","","","","",""
"null","<div style=""font-size:60px;"">+</div>","","html-keyboard-response","177","487387","0.0-15.0-0.7","54742","List2A","white","man","","","","null","","","","","","","","",""
"null","<img src=""stim_listA/seduce7.gif""style=""height:400px;""></stim_listA>","","html-keyboard-response","178","489397","0.0-15.0-1.7","54742","List2A","white","man","","","","null","","","","","","","","",""
"null","is seducing","","html-keyboard-response","179","491405","0.0-15.0-2.7","54742","List2A","white","man","","","","null","","","","","","","","",""
"2979.9000000953674","","","survey-text","180","494398","0.0-15.0-3.7","54742","List2A","white","man","","","","","{""Q0"":""Luke""}","<img src=""stim_listA/seduce7.gif""style=""height:400px;""></stim_listA>","is seducing","","","","","",""
"null","<div style=""font-size:60px;"">+</div>","","html-keyboard-response","181","494903","0.0-15.0-0.8","54742","List2A","white","man","","","","null","","","","","","","","",""
"null","<img src=""stim_listA/look8.gif""style=""height:400px;""></stim_listA>","","html-keyboard-response","182","496917","0.0-15.0-1.8","54742","List2A","white","man","","","","null","","","","","","","","",""
"null","is being looked at by","","html-keyboard-response","183","498925","0.0-15.0-2.8","54742","List2A","white","man","","","","null","","","","","","","","",""
"2153.399999976158","","","survey-text","184","501090","0.0-15.0-3.8","54742","List2A","white","man","","","","","{""Q0"":""Kate""}","<img src=""stim_listA/look8.gif""style=""height:400px;""></stim_listA>","is being looked at by","","","","","",""
"null","<div style=""font-size:60px;"">+</div>","","html-keyboard-response","185","501599","0.0-15.0-0.9","54742","List2A","white","man","","","","null","","","","","","","","",""
"null","<img src=""stim_listA/oppose6.gif""style=""height:400px;""></stim_listA>","","html-keyboard-response","186","503607","0.0-15.0-1.9","54742","List2A","white","man","","","","null","","","","","","","","",""
"null","is being opposed by","","html-keyboard-response","187","505617","0.0-15.0-2.9","54742","List2A","white","man","","","","null","","","","","","","","",""
"2227.6999999284744","","","survey-text","188","507873","0.0-15.0-3.9","54742","List2A","white","man","","","","","{""Q0"":""Luke""}","<img src=""stim_listA/oppose6.gif""style=""height:400px;""></stim_listA>","is being opposed by","","","","","",""
"null","<div style=""font-size:60px;"">+</div>","","html-keyboard-response","189","508380","0.0-15.0-0.10","54742","List2A","white","man","","","","null","","","","","","","","",""
"null","<img src=""stim_listA/kiss2.gif""style=""height:400px;""></stim_listA>","","html-keyboard-response","190","510389","0.0-15.0-1.10","54742","List2A","white","man","","","","null","","","","","","","","",""
"null","is being kissed by","","html-keyboard-response","191","512395","0.0-15.0-2.10","54742","List2A","white","man","","","","null","","","","","","","","",""
"3741.3000000715256","","","survey-text","192","516155","0.0-15.0-3.10","54742","List2A","white","man","","","","","{""Q0"":""Kate""}","<img src=""stim_listA/kiss2.gif""style=""height:400px;""></stim_listA>","is being kissed by","","","","","",""
"null","<div style=""font-size:60px;"">+</div>","","html-keyboard-response","193","516665","0.0-15.0-0.11","54742","List2A","white","man","","","","null","","","","","","","","",""
"null","<img src=""stim_listA/challenge5.gif""style=""height:400px;""></stim_listA>","","html-keyboard-response","194","518677","0.0-15.0-1.11","54742","List2A","white","man","","","","null","","","","","","","","",""
"null","is challenging","","html-keyboard-response","195","520686","0.0-15.0-2.11","54742","List2A","white","man","","","","null","","","","","","","","",""
"16957.700000047684","","","survey-text","196","537676","0.0-15.0-3.11","54742","List2A","white","man","","","","","{""Q0"":""Luke""}","<img src=""stim_listA/challenge5.gif""style=""height:400px;""></stim_listA>","is challenging","","","","","",""
"null","<div style=""font-size:60px;"">+</div>","","html-keyboard-response","197","538185","0.0-15.0-0.12","54742","List2A","white","man","","","","null","","","","","","","","",""
"null","<img src=""stim_listA/hug1.gif""style=""height:400px;""></stim_listA>","","html-keyboard-response","198","540194","0.0-15.0-1.12","54742","List2A","white","man","","","","null","","","","","","","","",""
"null","is hugging","","html-keyboard-response","199","542203","0.0-15.0-2.12","54742","List2A","white","man","","","","null","","","","","","","","",""
"2392.600000023842","","","survey-text","200","544623","0.0-15.0-3.12","54742","List2A","white","man","","","","","{""Q0"":""Luke""}","<img src=""stim_listA/hug1.gif""style=""height:400px;""></stim_listA>","is hugging","","","","","",""
"null","<div style=""font-size:60px;"">+</div>","","html-keyboard-response","201","545131","0.0-15.0-0.13","54742","List2A","white","man","","","","null","","","","","","","","",""
"null","<img src=""stim_listA/seduce3.gif""style=""height:400px;""></stim_listA>","","html-keyboard-response","202","547141","0.0-15.0-1.13","54742","List2A","white","man","","","","null","","","","","","","","",""
"null","is seducing","","html-keyboard-response","203","549149","0.0-15.0-2.13","54742","List2A","white","man","","","","null","","","","","","","","",""
"2210.7999999523163","","","survey-text","204","551387","0.0-15.0-3.13","54742","List2A","white","man","","","","","{""Q0"":""Mike""}","<img src=""stim_listA/seduce3.gif""style=""height:400px;""></stim_listA>","is seducing","","","","","",""
"null","<div style=""font-size:60px;"">+</div>","","html-keyboard-response","205","551893","0.0-15.0-0.14","54742","List2A","white","man","","","","null","","","","","","","","",""
"null","<img src=""stim_listA/seduce5.gif""style=""height:400px;""></stim_listA>","","html-keyboard-response","206","553899","0.0-15.0-1.14","54742","List2A","white","man","","","","null","","","","","","","","",""
"null","is seducing","","html-keyboard-response","207","555905","0.0-15.0-2.14","54742","List2A","white","man","","","","null","","","","","","","","",""
"2032.1000000238419","","","survey-text","208","557958","0.0-15.0-3.14","54742","List2A","white","man","","","","","{""Q0"":""Luke""}","<img src=""stim_listA/seduce5.gif""style=""height:400px;""></stim_listA>","is seducing","","","","","",""
"null","<div style=""font-size:60px;"">+</div>","","html-keyboard-response","209","558463","0.0-15.0-0.15","54742","List2A","white","man","","","","null","","","","","","","","",""
"null","<img src=""stim_listA/challenge6.gif""style=""height:400px;""></stim_listA>","","html-keyboard-response","210","560468","0.0-15.0-1.15","54742","List2A","white","man","","","","null","","","","","","","","",""
"null","is being challenged by","","html-keyboard-response","211","562476","0.0-15.0-2.15","54742","List2A","white","man","","","","null","","","","","","","","",""
"1941.7000000476837","","","survey-text","212","564442","0.0-15.0-3.15","54742","List2A","white","man","","","","","{""Q0"":""Luke""}","<img src=""stim_listA/challenge6.gif""style=""height:400px;""></stim_listA>","is being challenged by","","","","","",""
"null","<div style=""font-size:60px;"">+</div>","","html-keyboard-response","213","564949","0.0-15.0-0.16","54742","List2A","white","man","","","","null","","","","","","","","",""
"null","<img src=""stim_listA/kiss5.gif""style=""height:400px;""></stim_listA>","","html-keyboard-response","214","566961","0.0-15.0-1.16","54742","List2A","white","man","","","","null","","","","","","","","",""
"null","is kissing","","html-keyboard-response","215","568969","0.0-15.0-2.16","54742","List2A","white","man","","","","null","","","","","","","","",""
"2504.7999999523163","","","survey-text","216","571499","0.0-15.0-3.16","54742","List2A","white","man","","","","","{""Q0"":""Luke""}","<img src=""stim_listA/kiss5.gif""style=""height:400px;""></stim_listA>","is kissing","","","","","",""
"null","<div style=""font-size:60px;"">+</div>","","html-keyboard-response","217","572006","0.0-15.0-0.17","54742","List2A","white","man","","","","null","","","","","","","","",""
"null","<img src=""stim_listA/look4.gif""style=""height:400px;""></stim_listA>","","html-keyboard-response","218","574014","0.0-15.0-1.17","54742","List2A","white","man","","","","null","","","","","","","","",""
"null","is being looked at by","","html-keyboard-response","219","576021","0.0-15.0-2.17","54742","List2A","white","man","","","","null","","","","","","","","",""
"3038","","","survey-text","220","579086","0.0-15.0-3.17","54742","List2A","white","man","","","","","{""Q0"":""Kate""}","<img src=""stim_listA/look4.gif""style=""height:400px;""></stim_listA>","is being looked at by","","","","","",""
"null","<div style=""font-size:60px;"">+</div>","","html-keyboard-response","221","579592","0.0-15.0-0.18","54742","List2A","white","man","","","","null","","","","","","","","",""
"null","<img src=""stim_listA/look6.gif""style=""height:400px;""></stim_listA>","","html-keyboard-response","222","581601","0.0-15.0-1.18","54742","List2A","white","man","","","","null","","","","","","","","",""
"null","is being looked at by","","html-keyboard-response","223","583609","0.0-15.0-2.18","54742","List2A","white","man","","","","null","","","","","","","","",""
"1903.3999999761581","","","survey-text","224","585529","0.0-15.0-3.18","54742","List2A","white","man","","","","","{""Q0"":""Mike""}","<img src=""stim_listA/look6.gif""style=""height:400px;""></stim_listA>","is being looked at by","","","","","",""
"null","<div style=""font-size:60px;"">+</div>","","html-keyboard-response","225","586037","0.0-15.0-0.19","54742","List2A","white","man","","","","null","","","","","","","","",""
"null","<img src=""stim_listA/seduce4.gif""style=""height:400px;""></stim_listA>","","html-keyboard-response","226","588046","0.0-15.0-1.19","54742","List2A","white","man","","","","null","","","","","","","","",""
"null","is being seduced by","","html-keyboard-response","227","590053","0.0-15.0-2.19","54742","List2A","white","man","","","","null","","","","","","","","",""
"12355.200000047684","","","survey-text","228","602420","0.0-15.0-3.19","54742","List2A","white","man","","","","","{""Q0"":""Beth""}","<img src=""stim_listA/seduce4.gif""style=""height:400px;""></stim_listA>","is being seduced by","","","","","",""
"1518.6999999284744","<img src='img/portrait_matrix_list2.jpg' style='width:900px;height:500px;''></img><p>If you have memorised all the portraits and names and are ready to start, press Continue.</p><p><strong>Please note: Your memory of these faces will be tested 4 times during this experiment.</strong></p>","0","html-button-response","229","603946","0.0-16.0-0.0","54742","List2A","white","man","","","","","","","","","","","","",""
"4795.5","<img src=""portrait/WW1.jpg""style=""height:400px;""></img>","1","html-button-response","230","609756","0.0-16.0-1.0","54742","List2A","white","man","","true","1","","","","","","","","","",""
"null","CORRECT","","html-keyboard-response","231","611260","0.0-16.0-2.0-0.0","54742","List2A","white","man","","","","null","","","","","","","","",""
"3982","<img src=""portrait/BM1.jpg""style=""height:400px;""></img>","4","html-button-response","232","615252","0.0-16.0-4.0","54742","List2A","white","man","","true","4","","","","","","","","","",""
"null","CORRECT","","html-keyboard-response","233","616761","0.0-16.0-5.0-0.0","54742","List2A","white","man","","","","null","","","","","","","","",""
"7854.099999904633","<img src=""portrait/WM1.jpg""style=""height:400px;""></img>","6","html-button-response","234","624630","0.0-16.0-7.0","54742","List2A","white","man","","true","6","","","","","","","","","",""
"null","CORRECT","","html-keyboard-response","235","626137","0.0-16.0-8.0-0.0","54742","List2A","white","man","","","","null","","","","","","","","",""
"2366","<img src=""portrait/BW2.jpg""style=""height:400px;""></img>","2","html-button-response","236","628509","0.0-16.0-10.0","54742","List2A","white","man","","true","2","","","","","","","","","",""
"null","CORRECT","","html-keyboard-response","237","630019","0.0-16.0-11.0-0.0","54742","List2A","white","man","","","","null","","","","","","","","",""
"5627.199999928474","<img src=""portrait/BW1.jpg""style=""height:400px;""></img>","0","html-button-response","238","635660","0.0-16.0-13.0","54742","List2A","white","man","","true","0","","","","","","","","","",""
"null","CORRECT","","html-keyboard-response","239","637180","0.0-16.0-14.0-0.0","54742","List2A","white","man","","","","null","","","","","","","","",""
"5804.899999976158","<img src=""portrait/BM2.jpg""style=""height:400px;""></img>","5","html-button-response","240","642997","0.0-16.0-16.0","54742","List2A","white","man","","true","5","","","","","","","","","",""
"null","CORRECT","","html-keyboard-response","241","644508","0.0-16.0-17.0-0.0","54742","List2A","white","man","","","","null","","","","","","","","",""
"3694.9000000953674","<img src=""portrait/WW2.jpg""style=""height:400px;""></img>","3","html-button-response","242","648218","0.0-16.0-19.0","54742","List2A","white","man","","true","3","","","","","","","","","",""
"null","CORRECT","","html-keyboard-response","243","649729","0.0-16.0-20.0-0.0","54742","List2A","white","man","","","","null","","","","","","","","",""
"1833.6000000238419","<img src=""portrait/WM2.jpg""style=""height:400px;""></img>","7","html-button-response","244","651581","0.0-16.0-22.0","54742","List2A","white","man","","true","7","","","","","","","","","",""
"null","CORRECT","","html-keyboard-response","245","653093","0.0-16.0-23.0-0.0","54742","List2A","white","man","","","","null","","","","","","","","",""
"1297.6000000238419","<p>You got 8 out of 8 right first time. Press Continue.</p>","0","html-button-response","246","654403","0.0-16.0-25.0","54742","List2A","white","man","","","","","","","","","","","","",""
"null","<div style=""font-size:60px;"">+</div>","","html-keyboard-response","247","655914","0.0-17.0-0.0","54742","List2A","white","man","","","","null","","","","","","","","",""
"null","<img src=""stim_listA/copy6.gif""style=""height:400px;""></stim_listA>","","html-keyboard-response","248","657923","0.0-17.0-1.0","54742","List2A","white","man","","","","null","","","","","","","","",""
"null","is being copied by","","html-keyboard-response","249","659929","0.0-17.0-2.0","54742","List2A","white","man","","","","null","","","","","","","","",""
"2592.5","","","survey-text","250","662550","0.0-17.0-3.0","54742","List2A","white","man","","","","","{""Q0"":""Luke""}","<img src=""stim_listA/copy6.gif""style=""height:400px;""></stim_listA>","is being copied by","","","","","",""
"null","<div style=""font-size:60px;"">+</div>","","html-keyboard-response","251","663061","0.0-17.0-0.1","54742","List2A","white","man","","","","null","","","","","","","","",""
"null","<img src=""stim_listA/touch1.gif""style=""height:400px;""></stim_listA>","","html-keyboard-response","252","665068","0.0-17.0-1.1","54742","List2A","white","man","","","","null","","","","","","","","",""
"null","is touching","","html-keyboard-response","253","667076","0.0-17.0-2.1","54742","List2A","white","man","","","","null","","","","","","","","",""
"2135.6999999284744","","","survey-text","254","669229","0.0-17.0-3.1","54742","List2A","white","man","","","","","{""Q0"":""Jane""}","<img src=""stim_listA/touch1.gif""style=""height:400px;""></stim_listA>","is touching","","","","","",""
"null","<div style=""font-size:60px;"">+</div>","","html-keyboard-response","255","669734","0.0-17.0-0.2","54742","List2A","white","man","","","","null","","","","","","","","",""
"null","<img src=""stim_listA/hug7.gif""style=""height:400px;""></stim_listA>","","html-keyboard-response","256","671745","0.0-17.0-1.2","54742","List2A","white","man","","","","null","","","","","","","","",""
"null","is hugging","","html-keyboard-response","257","673754","0.0-17.0-2.2","54742","List2A","white","man","","","","null","","","","","","","","",""
"4009.8000000715256","","","survey-text","258","677787","0.0-17.0-3.2","54742","List2A","white","man","","","","","{""Q0"":""Jane""}","<img src=""stim_listA/hug7.gif""style=""height:400px;""></stim_listA>","is hugging","","","","","",""
"null","<div style=""font-size:60px;"">+</div>","","html-keyboard-response","259","678296","0.0-17.0-0.3","54742","List2A","white","man","","","","null","","","","","","","","",""
"null","<img src=""stim_listA/touch8.gif""style=""height:400px;""></stim_listA>","","html-keyboard-response","260","680310","0.0-17.0-1.3","54742","List2A","white","man","","","","null","","","","","","","","",""
"null","is being touched by","","html-keyboard-response","261","682316","0.0-17.0-2.3","54742","List2A","white","man","","","","null","","","","","","","","",""
"2674.1999999284744","","","survey-text","262","685018","0.0-17.0-3.3","54742","List2A","white","man","","","","","{""Q0"":""Ruth""}","<img src=""stim_listA/touch8.gif""style=""height:400px;""></stim_listA>","is being touched by","","","","","",""
"null","<div style=""font-size:60px;"">+</div>","","html-keyboard-response","263","685523","0.0-17.0-0.4","54742","List2A","white","man","","","","null","","","","","","","","",""
"null","<img src=""stim_listA/greet1.gif""style=""height:400px;""></stim_listA>","","html-keyboard-response","264","687534","0.0-17.0-1.4","54742","List2A","white","man","","","","null","","","","","","","","",""
"null","is greeting","","html-keyboard-response","265","689542","0.0-17.0-2.4","54742","List2A","white","man","","","","null","","","","","","","","",""
"2410.8000000715256","","","survey-text","266","691972","0.0-17.0-3.4","54742","List2A","white","man","","","","","{""Q0"":""Ruth""}","<img src=""stim_listA/greet1.gif""style=""height:400px;""></stim_listA>","is greeting","","","","","",""
"null","<div style=""font-size:60px;"">+</div>","","html-keyboard-response","267","692480","0.0-17.0-0.5","54742","List2A","white","man","","","","null","","","","","","","","",""
"null","<img src=""stim_listA/look2.gif""style=""height:400px;""></stim_listA>","","html-keyboard-response","268","694490","0.0-17.0-1.5","54742","List2A","white","man","","","","null","","","","","","","","",""
"null","is being looked at by","","html-keyboard-response","269","696500","0.0-17.0-2.5","54742","List2A","white","man","","","","null","","","","","","","","",""
"2009.6000000238419","","","survey-text","270","698538","0.0-17.0-3.5","54742","List2A","white","man","","","","","{""Q0"":""Jane""}","<img src=""stim_listA/look2.gif""style=""height:400px;""></stim_listA>","is being looked at by","","","","","",""
"null","<div style=""font-size:60px;"">+</div>","","html-keyboard-response","271","699047","0.0-17.0-0.6","54742","List2A","white","man","","","","null","","","","","","","","",""
"null","<img src=""stim_listA/greet5.gif""style=""height:400px;""></stim_listA>","","html-keyboard-response","272","701058","0.0-17.0-1.6","54742","List2A","white","man","","","","null","","","","","","","","",""
"null","is greeting","","html-keyboard-response","273","703068","0.0-17.0-2.6","54742","List2A","white","man","","","","null","","","","","","","","",""
"2949.5999999046326","","","survey-text","274","706034","0.0-17.0-3.6","54742","List2A","white","man","","","","","{""Q0"":""Fred""}","<img src=""stim_listA/greet5.gif""style=""height:400px;""></stim_listA>","is greeting","","","","","",""
"null","<div style=""font-size:60px;"">+</div>","","html-keyboard-response","275","706542","0.0-17.0-0.7","54742","List2A","white","man","","","","null","","","","","","","","",""
"null","<img src=""stim_listA/oppose8.gif""style=""height:400px;""></stim_listA>","","html-keyboard-response","276","708553","0.0-17.0-1.7","54742","List2A","white","man","","","","null","","","","","","","","",""
"null","is being opposed by","","html-keyboard-response","277","710562","0.0-17.0-2.7","54742","List2A","white","man","","","","null","","","","","","","","",""
"3350.899999976158","","","survey-text","278","713929","0.0-17.0-3.7","54742","List2A","white","man","","","","","{""Q0"":""Ruth""}","<img src=""stim_listA/oppose8.gif""style=""height:400px;""></stim_listA>","is being opposed by","","","","","",""
"null","<div style=""font-size:60px;"">+</div>","","html-keyboard-response","279","714440","0.0-17.0-0.8","54742","List2A","white","man","","","","null","","","","","","","","",""
"null","<img src=""stim_listA/touch6.gif""style=""height:400px;""></stim_listA>","","html-keyboard-response","280","716449","0.0-17.0-1.8","54742","List2A","white","man","","","","null","","","","","","","","",""
"null","is being touched by","","html-keyboard-response","281","718454","0.0-17.0-2.8","54742","List2A","white","man","","","","null","","","","","","","","",""
"2247.100000023842","","","survey-text","282","720728","0.0-17.0-3.8","54742","List2A","white","man","","","","","{""Q0"":""Luke""}","<img src=""stim_listA/touch6.gif""style=""height:400px;""></stim_listA>","is being touched by","","","","","",""
"null","<div style=""font-size:60px;"">+</div>","","html-keyboard-response","283","721237","0.0-17.0-0.9","54742","List2A","white","man","","","","null","","","","","","","","",""
"null","<img src=""stim_listA/hug2.gif""style=""height:400px;""></stim_listA>","","html-keyboard-response","284","723250","0.0-17.0-1.9","54742","List2A","white","man","","","","null","","","","","","","","",""
"null","is being hugged by","","html-keyboard-response","285","725259","0.0-17.0-2.9","54742","List2A","white","man","","","","null","","","","","","","","",""
"2150.5","","","survey-text","286","727439","0.0-17.0-3.9","54742","List2A","white","man","","","","","{""Q0"":""Dave""}","<img src=""stim_listA/hug2.gif""style=""height:400px;""></stim_listA>","is being hugged by","","","","","",""
"null","<div style=""font-size:60px;"">+</div>","","html-keyboard-response","287","727949","0.0-17.0-0.10","54742","List2A","white","man","","","","null","","","","","","","","",""
"null","<img src=""stim_listA/oppose7.gif""style=""height:400px;""></stim_listA>","","html-keyboard-response","288","729959","0.0-17.0-1.10","54742","List2A","white","man","","","","null","","","","","","","","",""
"null","is opposing","","html-keyboard-response","289","731968","0.0-17.0-2.10","54742","List2A","white","man","","","","null","","","","","","","","",""
"1808","","","survey-text","290","733805","0.0-17.0-3.10","54742","List2A","white","man","","","","","{""Q0"":""Jane""}","<img src=""stim_listA/oppose7.gif""style=""height:400px;""></stim_listA>","is opposing","","","","","",""
"null","<div style=""font-size:60px;"">+</div>","","html-keyboard-response","291","734313","0.0-17.0-0.11","54742","List2A","white","man","","","","null","","","","","","","","",""
"null","<img src=""stim_listA/hug3.gif""style=""height:400px;""></stim_listA>","","html-keyboard-response","292","736324","0.0-17.0-1.11","54742","List2A","white","man","","","","null","","","","","","","","",""
"null","is hugging","","html-keyboard-response","293","738333","0.0-17.0-2.11","54742","List2A","white","man","","","","null","","","","","","","","",""
"3458.7000000476837","","","survey-text","294","741812","0.0-17.0-3.11","54742","List2A","white","man","","","","","{""Q0"":""Kate""}","<img src=""stim_listA/hug3.gif""style=""height:400px;""></stim_listA>","is hugging","","","","","",""
"null","<div style=""font-size:60px;"">+</div>","","html-keyboard-response","295","742320","0.0-17.0-0.12","54742","List2A","white","man","","","","null","","","","","","","","",""
"null","<img src=""stim_listA/kiss8.gif""style=""height:400px;""></stim_listA>","","html-keyboard-response","296","744333","0.0-17.0-1.12","54742","List2A","white","man","","","","null","","","","","","","","",""
"null","is being kissed by","","html-keyboard-response","297","746340","0.0-17.0-2.12","54742","List2A","white","man","","","","null","","","","","","","","",""
"1738.4000000953674","","","survey-text","298","748102","0.0-17.0-3.12","54742","List2A","white","man","","","","","{""Q0"":""Jane""}","<img src=""stim_listA/kiss8.gif""style=""height:400px;""></stim_listA>","is being kissed by","","","","","",""
"null","<div style=""font-size:60px;"">+</div>","","html-keyboard-response","299","748609","0.0-17.0-0.13","54742","List2A","white","man","","","","null","","","","","","","","",""
"null","<img src=""stim_listA/challenge2.gif""style=""height:400px;""></stim_listA>","","html-keyboard-response","300","750618","0.0-17.0-1.13","54742","List2A","white","man","","","","null","","","","","","","","",""
"null","is being challenged by","","html-keyboard-response","301","752626","0.0-17.0-2.13","54742","List2A","white","man","","","","null","","","","","","","","",""
"2080.6999999284744","","","survey-text","302","754729","0.0-17.0-3.13","54742","List2A","white","man","","","","","{""Q0"":""Luke""}","<img src=""stim_listA/challenge2.gif""style=""height:400px;""></stim_listA>","is being challenged by","","","","","",""
"null","<div style=""font-size:60px;"">+</div>","","html-keyboard-response","303","755237","0.0-17.0-0.14","54742","List2A","white","man","","","","null","","","","","","","","",""
"null","<img src=""stim_listA/shout2.gif""style=""height:400px;""></stim_listA>","","html-keyboard-response","304","757248","0.0-17.0-1.14","54742","List2A","white","man","","","","null","","","","","","","","",""
"null","is being shouted at by","","html-keyboard-response","305","759255","0.0-17.0-2.14","54742","List2A","white","man","","","","null","","","","","","","","",""
"1905.1000000238419","","","survey-text","306","761184","0.0-17.0-3.14","54742","List2A","white","man","","","","","{""Q0"":""Dave""}","<img src=""stim_listA/shout2.gif""style=""height:400px;""></stim_listA>","is being shouted at by","","","","","",""
"null","<div style=""font-size:60px;"">+</div>","","html-keyboard-response","307","761690","0.0-17.0-0.15","54742","List2A","white","man","","","","null","","","","","","","","",""
"null","<img src=""stim_listA/shout5.gif""style=""height:400px;""></stim_listA>","","html-keyboard-response","308","763700","0.0-17.0-1.15","54742","List2A","white","man","","","","null","","","","","","","","",""
"null","is shouting at","","html-keyboard-response","309","765707","0.0-17.0-2.15","54742","List2A","white","man","","","","null","","","","","","","","",""
"2136.600000023842","","","survey-text","310","767869","0.0-17.0-3.15","54742","List2A","white","man","","","","","{""Q0"":""Luke""}","<img src=""stim_listA/shout5.gif""style=""height:400px;""></stim_listA>","is shouting at","","","","","",""
"null","<div style=""font-size:60px;"">+</div>","","html-keyboard-response","311","768376","0.0-17.0-0.16","54742","List2A","white","man","","","","null","","","","","","","","",""
"null","<img src=""stim_listA/challenge4.gif""style=""height:400px;""></stim_listA>","","html-keyboard-response","312","770382","0.0-17.0-1.16","54742","List2A","white","man","","","","null","","","","","","","","",""
"null","is being challenged by","","html-keyboard-response","313","772393","0.0-17.0-2.16","54742","List2A","white","man","","","","null","","","","","","","","",""
"4829.699999928474","","","survey-text","314","777247","0.0-17.0-3.16","54742","List2A","white","man","","","","","{""Q0"":""Fred""}","<img src=""stim_listA/challenge4.gif""style=""height:400px;""></stim_listA>","is being challenged by","","","","","",""
"null","<div style=""font-size:60px;"">+</div>","","html-keyboard-response","315","777755","0.0-17.0-0.17","54742","List2A","white","man","","","","null","","","","","","","","",""
"null","<img src=""stim_listA/challenge1.gif""style=""height:400px;""></stim_listA>","","html-keyboard-response","316","779769","0.0-17.0-1.17","54742","List2A","white","man","","","","null","","","","","","","","",""
"null","is challenging","","html-keyboard-response","317","781777","0.0-17.0-2.17","54742","List2A","white","man","","","","null","","","","","","","","",""
"9004","","","survey-text","318","790794","0.0-17.0-3.17","54742","List2A","white","man","","","","","{""Q0"":""Jane""}","<img src=""stim_listA/challenge1.gif""style=""height:400px;""></stim_listA>","is challenging","","","","","",""
"null","<div style=""font-size:60px;"">+</div>","","html-keyboard-response","319","791301","0.0-17.0-0.18","54742","List2A","white","man","","","","null","","","","","","","","",""
"null","<img src=""stim_listA/shout3.gif""style=""height:400px;""></stim_listA>","","html-keyboard-response","320","793310","0.0-17.0-1.18","54742","List2A","white","man","","","","null","","","","","","","","",""
"null","is shouting at","","html-keyboard-response","321","795317","0.0-17.0-2.18","54742","List2A","white","man","","","","null","","","","","","","","",""
"2122","","","survey-text","322","797462","0.0-17.0-3.18","54742","List2A","white","man","","","","","{""Q0"":""Luke""}","<img src=""stim_listA/shout3.gif""style=""height:400px;""></stim_listA>","is shouting at","","","","","",""
"null","<div style=""font-size:60px;"">+</div>","","html-keyboard-response","323","797968","0.0-17.0-0.19","54742","List2A","white","man","","","","null","","","","","","","","",""
"null","<img src=""stim_listA/kiss6.gif""style=""height:400px;""></stim_listA>","","html-keyboard-response","324","799975","0.0-17.0-1.19","54742","List2A","white","man","","","","null","","","","","","","","",""
"null","is being kissed by","","html-keyboard-response","325","801983","0.0-17.0-2.19","54742","List2A","white","man","","","","null","","","","","","","","",""
"1961.3999999761581","","","survey-text","326","803961","0.0-17.0-3.19","54742","List2A","white","man","","","","","{""Q0"":""Mike""}","<img src=""stim_listA/kiss6.gif""style=""height:400px;""></stim_listA>","is being kissed by","","","","","",""
"1720.7000000476837","<img src='img/portrait_matrix_list2.jpg' style='width:900px;height:500px;''></img><p>If you have memorised all the portraits and names and are ready to start, press Continue.</p><p><strong>Please note: Your memory of these faces will be tested 4 times during this experiment.</strong></p>","0","html-button-response","327","805691","0.0-18.0-0.0","54742","List2A","white","man","","","","","","","","","","","","",""
"3228.100000023842","<img src=""portrait/WM1.jpg""style=""height:400px;""></img>","6","html-button-response","328","809935","0.0-18.0-1.0","54742","List2A","white","man","","true","6","","","","","","","","","",""
"null","CORRECT","","html-keyboard-response","329","811453","0.0-18.0-2.0-0.0","54742","List2A","white","man","","","","null","","","","","","","","",""
"1962.4000000953674","<img src=""portrait/WW1.jpg""style=""height:400px;""></img>","1","html-button-response","330","813424","0.0-18.0-4.0","54742","List2A","white","man","","true","1","","","","","","","","","",""
"null","CORRECT","","html-keyboard-response","331","814930","0.0-18.0-5.0-0.0","54742","List2A","white","man","","","","null","","","","","","","","",""
"1827.8000000715256","<img src=""portrait/BW1.jpg""style=""height:400px;""></img>","0","html-button-response","332","816762","0.0-18.0-7.0","54742","List2A","white","man","","true","0","","","","","","","","","",""
"null","CORRECT","","html-keyboard-response","333","818271","0.0-18.0-8.0-0.0","54742","List2A","white","man","","","","null","","","","","","","","",""
"3328.7999999523163","<img src=""portrait/BW2.jpg""style=""height:400px;""></img>","2","html-button-response","334","821612","0.0-18.0-10.0","54742","List2A","white","man","","true","2","","","","","","","","","",""
"null","CORRECT","","html-keyboard-response","335","823118","0.0-18.0-11.0-0.0","54742","List2A","white","man","","","","null","","","","","","","","",""
"3401.899999976158","<img src=""portrait/WM2.jpg""style=""height:400px;""></img>","7","html-button-response","336","826526","0.0-18.0-13.0","54742","List2A","white","man","","true","7","","","","","","","","","",""
"null","CORRECT","","html-keyboard-response","337","828034","0.0-18.0-14.0-0.0","54742","List2A","white","man","","","","null","","","","","","","","",""
"2140.600000023842","<img src=""portrait/WW2.jpg""style=""height:400px;""></img>","3","html-button-response","338","830187","0.0-18.0-16.0","54742","List2A","white","man","","true","3","","","","","","","","","",""
"null","CORRECT","","html-keyboard-response","339","831701","0.0-18.0-17.0-0.0","54742","List2A","white","man","","","","null","","","","","","","","",""
"1941.5","<img src=""portrait/BM2.jpg""style=""height:400px;""></img>","5","html-button-response","340","833650","0.0-18.0-19.0","54742","List2A","white","man","","true","5","","","","","","","","","",""
"null","CORRECT","","html-keyboard-response","341","835161","0.0-18.0-20.0-0.0","54742","List2A","white","man","","","","null","","","","","","","","",""
"2111.0999999046326","<img src=""portrait/BM1.jpg""style=""height:400px;""></img>","4","html-button-response","342","837282","0.0-18.0-22.0","54742","List2A","white","man","","true","4","","","","","","","","","",""
"null","CORRECT","","html-keyboard-response","343","838797","0.0-18.0-23.0-0.0","54742","List2A","white","man","","","","null","","","","","","","","",""
"1237.7000000476837","<p>You got 8 out of 8 right first time. Press Continue.</p>","0","html-button-response","344","840045","0.0-18.0-25.0","54742","List2A","white","man","","","","","","","","","","","","",""
"null","<div style=""font-size:60px;"">+</div>","","html-keyboard-response","345","841562","0.0-19.0-0.0","54742","List2A","white","man","","","","null","","","","","","","","",""
"null","<img src=""stim_listA/challenge3.gif""style=""height:400px;""></stim_listA>","","html-keyboard-response","346","843578","0.0-19.0-1.0","54742","List2A","white","man","","","","null","","","","","","","","",""
"null","is challenging","","html-keyboard-response","347","845583","0.0-19.0-2.0","54742","List2A","white","man","","","","null","","","","","","","","",""
"2177","","","survey-text","348","847776","0.0-19.0-3.0","54742","List2A","white","man","","","","","{""Q0"":""Mike""}","<img src=""stim_listA/challenge3.gif""style=""height:400px;""></stim_listA>","is challenging","","","","","",""
"null","<div style=""font-size:60px;"">+</div>","","html-keyboard-response","349","848283","0.0-19.0-0.1","54742","List2A","white","man","","","","null","","","","","","","","",""
"null","<img src=""stim_listA/seduce1.gif""style=""height:400px;""></stim_listA>","","html-keyboard-response","350","850293","0.0-19.0-1.1","54742","List2A","white","man","","","","null","","","","","","","","",""
"null","is seducing","","html-keyboard-response","351","852302","0.0-19.0-2.1","54742","List2A","white","man","","","","null","","","","","","","","",""
"2087.399999976158","","","survey-text","352","854412","0.0-19.0-3.1","54742","List2A","white","man","","","","","{""Q0"":""Luke""}","<img src=""stim_listA/seduce1.gif""style=""height:400px;""></stim_listA>","is seducing","","","","","",""
"null","<div style=""font-size:60px;"">+</div>","","html-keyboard-response","353","854921","0.0-19.0-0.2","54742","List2A","white","man","","","","null","","","","","","","","",""
"null","<img src=""stim_listA/hug4.gif""style=""height:400px;""></stim_listA>","","html-keyboard-response","354","856936","0.0-19.0-1.2","54742","List2A","white","man","","","","null","","","","","","","","",""
"null","is being hugged by","","html-keyboard-response","355","858944","0.0-19.0-2.2","54742","List2A","white","man","","","","null","","","","","","","","",""
"1931.4000000953674","","","survey-text","356","860894","0.0-19.0-3.2","54742","List2A","white","man","","","","","{""Q0"":""Mike""}","<img src=""stim_listA/hug4.gif""style=""height:400px;""></stim_listA>","is being hugged by","","","","","",""
"null","<div style=""font-size:60px;"">+</div>","","html-keyboard-response","357","861408","0.0-19.0-0.3","54742","List2A","white","man","","","","null","","","","","","","","",""
"null","<img src=""stim_listA/look7.gif""style=""height:400px;""></stim_listA>","","html-keyboard-response","358","863416","0.0-19.0-1.3","54742","List2A","white","man","","","","null","","","","","","","","",""
"null","is looking at","","html-keyboard-response","359","865425","0.0-19.0-2.3","54742","List2A","white","man","","","","null","","","","","","","","",""
"2094.9000000953674","","","survey-text","360","867542","0.0-19.0-3.3","54742","List2A","white","man","","","","","{""Q0"":""Beth""}","<img src=""stim_listA/look7.gif""style=""height:400px;""></stim_listA>","is looking at","","","","","",""
"null","<div style=""font-size:60px;"">+</div>","","html-keyboard-response","361","868052","0.0-19.0-0.4","54742","List2A","white","man","","","","null","","","","","","","","",""
"null","<img src=""stim_listA/kiss4.gif""style=""height:400px;""></stim_listA>","","html-keyboard-response","362","870063","0.0-19.0-1.4","54742","List2A","white","man","","","","null","","","","","","","","",""
"null","is being kissed by","","html-keyboard-response","363","872070","0.0-19.0-2.4","54742","List2A","white","man","","","","null","","","","","","","","",""
"1806.0999999046326","","","survey-text","364","873895","0.0-19.0-3.4","54742","List2A","white","man","","","","","{""Q0"":""Mike""}","<img src=""stim_listA/kiss4.gif""style=""height:400px;""></stim_listA>","is being kissed by","","","","","",""
"null","<div style=""font-size:60px;"">+</div>","","html-keyboard-response","365","874403","0.0-19.0-0.5","54742","List2A","white","man","","","","null","","","","","","","","",""
"null","<img src=""stim_listA/copy1.gif""style=""height:400px;""></stim_listA>","","html-keyboard-response","366","876414","0.0-19.0-1.5","54742","List2A","white","man","","","","null","","","","","","","","",""
"null","is copying","","html-keyboard-response","367","878424","0.0-19.0-2.5","54742","List2A","white","man","","","","null","","","","","","","","",""
"2035.1000000238419","","","survey-text","368","880489","0.0-19.0-3.5","54742","List2A","white","man","","","","","{""Q0"":""Dave""}","<img src=""stim_listA/copy1.gif""style=""height:400px;""></stim_listA>","is copying","","","","","",""
"null","<div style=""font-size:60px;"">+</div>","","html-keyboard-response","369","880996","0.0-19.0-0.6","54742","List2A","white","man","","","","null","","","","","","","","",""
"null","<img src=""stim_listA/hug6.gif""style=""height:400px;""></stim_listA>","","html-keyboard-response","370","883025","0.0-19.0-1.6","54742","List2A","white","man","","","","null","","","","","","","","",""
"null","is being hugged by","","html-keyboard-response","371","885040","0.0-19.0-2.6","54742","List2A","white","man","","","","null","","","","","","","","",""
"1874","","","survey-text","372","886929","0.0-19.0-3.6","54742","List2A","white","man","","","","","{""Q0"":""Dave""}","<img src=""stim_listA/hug6.gif""style=""height:400px;""></stim_listA>","is being hugged by","","","","","",""
"null","<div style=""font-size:60px;"">+</div>","","html-keyboard-response","373","887434","0.0-19.0-0.7","54742","List2A","white","man","","","","null","","","","","","","","",""
"null","<img src=""stim_listA/seduce6.gif""style=""height:400px;""></stim_listA>","","html-keyboard-response","374","889442","0.0-19.0-1.7","54742","List2A","white","man","","","","null","","","","","","","","",""
"null","is being seduced by","","html-keyboard-response","375","891452","0.0-19.0-2.7","54742","List2A","white","man","","","","null","","","","","","","","",""
"1934.5","","","survey-text","376","893407","0.0-19.0-3.7","54742","List2A","white","man","","","","","{""Q0"":""Dave""}","<img src=""stim_listA/seduce6.gif""style=""height:400px;""></stim_listA>","is being seduced by","","","","","",""
"null","<div style=""font-size:60px;"">+</div>","","html-keyboard-response","377","893915","0.0-19.0-0.8","54742","List2A","white","man","","","","null","","","","","","","","",""
"null","<img src=""stim_listA/look5.gif""style=""height:400px;""></stim_listA>","","html-keyboard-response","378","895926","0.0-19.0-1.8","54742","List2A","white","man","","","","null","","","","","","","","",""
"null","is looking at","","html-keyboard-response","379","897936","0.0-19.0-2.8","54742","List2A","white","man","","","","null","","","","","","","","",""
"2615.5999999046326","","","survey-text","380","900581","0.0-19.0-3.8","54742","List2A","white","man","","","","","{""Q0"":""Luje""}","<img src=""stim_listA/look5.gif""style=""height:400px;""></stim_listA>","is looking at","","","","","",""
"null","<div style=""font-size:60px;"">+</div>","","html-keyboard-response","381","901093","0.0-19.0-0.9","54742","List2A","white","man","","","","null","","","","","","","","",""
"null","<img src=""stim_listA/copy8.gif""style=""height:400px;""></stim_listA>","","html-keyboard-response","382","903109","0.0-19.0-1.9","54742","List2A","white","man","","","","null","","","","","","","","",""
"null","is being copied by","","html-keyboard-response","383","905119","0.0-19.0-2.9","54742","List2A","white","man","","","","null","","","","","","","","",""
"4079.8000000715256","","","survey-text","384","909230","0.0-19.0-3.9","54742","List2A","white","man","","","","","{""Q0"":""Ruth""}","<img src=""stim_listA/copy8.gif""style=""height:400px;""></stim_listA>","is being copied by","","","","","",""
"null","<div style=""font-size:60px;"">+</div>","","html-keyboard-response","385","909738","0.0-19.0-0.10","54742","List2A","white","man","","","","null","","","","","","","","",""
"null","<img src=""stim_listA/copy5.gif""style=""height:400px;""></stim_listA>","","html-keyboard-response","386","911762","0.0-19.0-1.10","54742","List2A","white","man","","","","null","","","","","","","","",""
"null","is copying","","html-keyboard-response","387","913769","0.0-19.0-2.10","54742","List2A","white","man","","","","null","","","","","","","","",""
"5489.699999928474","","","survey-text","388","919275","0.0-19.0-3.10","54742","List2A","white","man","","","","","{""Q0"":""Ruth""}","<img src=""stim_listA/copy5.gif""style=""height:400px;""></stim_listA>","is copying","","","","","",""
"null","<div style=""font-size:60px;"">+</div>","","html-keyboard-response","389","919782","0.0-19.0-0.11","54742","List2A","white","man","","","","null","","","","","","","","",""
"null","<img src=""stim_listA/oppose2.gif""style=""height:400px;""></stim_listA>","","html-keyboard-response","390","921799","0.0-19.0-1.11","54742","List2A","white","man","","","","null","","","","","","","","",""
"null","is being opposed by","","html-keyboard-response","391","923807","0.0-19.0-2.11","54742","List2A","white","man","","","","null","","","","","","","","",""
"2380.6999999284744","","","survey-text","392","926213","0.0-19.0-3.11","54742","List2A","white","man","","","","","{""Q0"":""Luke""}","<img src=""stim_listA/oppose2.gif""style=""height:400px;""></stim_listA>","is being opposed by","","","","","",""
"null","<div style=""font-size:60px;"">+</div>","","html-keyboard-response","393","926721","0.0-19.0-0.12","54742","List2A","white","man","","","","null","","","","","","","","",""
"null","<img src=""stim_listA/touch4.gif""style=""height:400px;""></stim_listA>","","html-keyboard-response","394","928731","0.0-19.0-1.12","54742","List2A","white","man","","","","null","","","","","","","","",""
"null","is being touched by","","html-keyboard-response","395","930738","0.0-19.0-2.12","54742","List2A","white","man","","","","null","","","","","","","","",""
"2040.3000000715256","","","survey-text","396","932794","0.0-19.0-3.12","54742","List2A","white","man","","","","","{""Q0"":""Kate""}","<img src=""stim_listA/touch4.gif""style=""height:400px;""></stim_listA>","is being touched by","","","","","",""
"null","<div style=""font-size:60px;"">+</div>","","html-keyboard-response","397","933302","0.0-19.0-0.13","54742","List2A","white","man","","","","null","","","","","","","","",""
"null","<img src=""stim_listA/kiss7.gif""style=""height:400px;""></stim_listA>","","html-keyboard-response","398","935314","0.0-19.0-1.13","54742","List2A","white","man","","","","null","","","","","","","","",""
"null","is kissing","","html-keyboard-response","399","937320","0.0-19.0-2.13","54742","List2A","white","man","","","","null","","","","","","","","",""
"2657","","","survey-text","400","940008","0.0-19.0-3.13","54742","List2A","white","man","","","","","{""Q0"":""Luke""}","<img src=""stim_listA/kiss7.gif""style=""height:400px;""></stim_listA>","is kissing","","","","","",""
"null","<div style=""font-size:60px;"">+</div>","","html-keyboard-response","401","940514","0.0-19.0-0.14","54742","List2A","white","man","","","","null","","","","","","","","",""
"null","<img src=""stim_listA/seduce2.gif""style=""height:400px;""></stim_listA>","","html-keyboard-response","402","942524","0.0-19.0-1.14","54742","List2A","white","man","","","","null","","","","","","","","",""
"null","is being seduced by","","html-keyboard-response","403","944532","0.0-19.0-2.14","54742","List2A","white","man","","","","null","","","","","","","","",""
"2229.7000000476837","","","survey-text","404","946777","0.0-19.0-3.14","54742","List2A","white","man","","","","","{""Q0"":""Ruth""}","<img src=""stim_listA/seduce2.gif""style=""height:400px;""></stim_listA>","is being seduced by","","","","","",""
"null","<div style=""font-size:60px;"">+</div>","","html-keyboard-response","405","947283","0.0-19.0-0.15","54742","List2A","white","man","","","","null","","","","","","","","",""
"null","<img src=""stim_listA/touch7.gif""style=""height:400px;""></stim_listA>","","html-keyboard-response","406","949296","0.0-19.0-1.15","54742","List2A","white","man","","","","null","","","","","","","","",""
"null","is touching","","html-keyboard-response","407","951303","0.0-19.0-2.15","54742","List2A","white","man","","","","null","","","","","","","","",""
"2289.899999976158","","","survey-text","408","953618","0.0-19.0-3.15","54742","List2A","white","man","","","","","{""Q0"":""Jane""}","<img src=""stim_listA/touch7.gif""style=""height:400px;""></stim_listA>","is touching","","","","","",""
"null","<div style=""font-size:60px;"">+</div>","","html-keyboard-response","409","954125","0.0-19.0-0.16","54742","List2A","white","man","","","","null","","","","","","","","",""
"null","<img src=""stim_listA/hug5.gif""style=""height:400px;""></stim_listA>","","html-keyboard-response","410","956133","0.0-19.0-1.16","54742","List2A","white","man","","","","null","","","","","","","","",""
"null","is hugging","","html-keyboard-response","411","958139","0.0-19.0-2.16","54742","List2A","white","man","","","","null","","","","","","","","",""
"2255.8000000715256","","","survey-text","412","960410","0.0-19.0-3.16","54742","List2A","white","man","","","","","{""Q0"":""Luke""}","<img src=""stim_listA/hug5.gif""style=""height:400px;""></stim_listA>","is hugging","","","","","",""
"null","<div style=""font-size:60px;"">+</div>","","html-keyboard-response","413","960921","0.0-19.0-0.17","54742","List2A","white","man","","","","null","","","","","","","","",""
"null","<img src=""stim_listA/greet3.gif""style=""height:400px;""></stim_listA>","","html-keyboard-response","414","962927","0.0-19.0-1.17","54742","List2A","white","man","","","","null","","","","","","","","",""
"null","is greeting","","html-keyboard-response","415","964932","0.0-19.0-2.17","54742","List2A","white","man","","","","null","","","","","","","","",""
"2854.3000000715256","","","survey-text","416","967813","0.0-19.0-3.17","54742","List2A","white","man","","","","","{""Q0"":""Mike""}","<img src=""stim_listA/greet3.gif""style=""height:400px;""></stim_listA>","is greeting","","","","","",""
"null","<div style=""font-size:60px;"">+</div>","","html-keyboard-response","417","968320","0.0-19.0-0.18","54742","List2A","white","man","","","","null","","","","","","","","",""
"null","<img src=""stim_listA/seduce8.gif""style=""height:400px;""></stim_listA>","","html-keyboard-response","418","970325","0.0-19.0-1.18","54742","List2A","white","man","","","","null","","","","","","","","",""
"null","is being seduced by","","html-keyboard-response","419","972331","0.0-19.0-2.18","54742","List2A","white","man","","","","null","","","","","","","","",""
"4004.600000023842","","","survey-text","420","976356","0.0-19.0-3.18","54742","List2A","white","man","","","","","{""Q0"":""Beth""}","<img src=""stim_listA/seduce8.gif""style=""height:400px;""></stim_listA>","is being seduced by","","","","","",""
"null","<div style=""font-size:60px;"">+</div>","","html-keyboard-response","421","976862","0.0-19.0-0.19","54742","List2A","white","man","","","","null","","","","","","","","",""
"null","<img src=""stim_listA/look3.gif""style=""height:400px;""></stim_listA>","","html-keyboard-response","422","978876","0.0-19.0-1.19","54742","List2A","white","man","","","","null","","","","","","","","",""
"null","is looking at","","html-keyboard-response","423","980883","0.0-19.0-2.19","54742","List2A","white","man","","","","null","","","","","","","","",""
"2081","","","survey-text","424","982988","0.0-19.0-3.19","54742","List2A","white","man","","","","","{""Q0"":""Kate""}","<img src=""stim_listA/look3.gif""style=""height:400px;""></stim_listA>","is looking at","","","","","",""
"20509.399999976158","<p>Thank you for completing that task.</p><p>The final part of this session is a questionnaire that will take about 4 minutes.</p><p>Press Continue.</p>","0","html-button-response","425","1003505","0.0-20.0","54742","List2A","white","man","","","","","","","","","","","","",""
"40435.5","","","survey-text","426","1045009","0.0-21.0","54742","List2A","white","man","","","","","{""Q0"":""54"",""Q1"":""English "",""Q2"":""English "",""Q3"":""United States"",""Q4"":""United States of America"",""Q5"":""White"",""Q6"":""Male""}","","","demographics","","","","",""
"2201.399999976158","<p>Have you lived in the USA for the last 5 years or more?</p>","0","html-button-response","427","1047220","0.0-22.0","54742","List2A","white","man","","","","","","","","fiveyears","","","","",""
"7890.800000071526","<p>Move the slider to show the extent to which you agree with the following statements.</p>","0","html-button-response","428","1056122","0.0-23.0","54742","List2A","white","man","","","","","","","","","","","","",""
"1513.5","","","html-slider-response","429","1058663","0.0-24.0-0.0-0.0","54742","List2A","white","man","","","","","","","","survey_race","68","","","I am glad to be my age.","filler"
"2393","","","html-slider-response","430","1061062","0.0-24.0-0.0-0.1","54742","List2A","white","man","","","","","","","","survey_race","42","","","Being my age gives me a good feeling.","filler"
"3582.899999976158","","","html-slider-response","431","1064650","0.0-24.0-0.0-0.2","54742","List2A","white","man","","","","","","","","survey_race","37","","","I am glad to be the age I am.","filler"
"2674.100000023842","","","html-slider-response","432","1067329","0.0-24.0-0.0-0.3","54742","List2A","white","man","","","","","","","","survey_race","40","","","Being my race gives me a good feeling.","feeling"
"4838.100000023842","","","html-slider-response","433","1072174","0.0-24.0-0.0-0.4","54742","List2A","white","man","","","","","","","","survey_race","79","","","I often think about the fact that I am my race.","often"
"3979.2000000476837","","","html-slider-response","434","1076160","0.0-24.0-0.0-0.5","54742","List2A","white","man","","","","","","","","survey_race","19","","","I think that my race has a lot to be proud of.","proud"
"1332","","","html-slider-response","435","1077499","0.0-24.0-0.0-0.6","54742","List2A","white","man","","","","","","","","survey_race","76","","","I feel committed to my race.","committed"
"1099.3000000715256","","","html-slider-response","436","1078603","0.0-24.0-0.0-0.7","54742","List2A","white","man","","","","","","","","survey_race","81","","","I feel solidarity with my race.","solidarity"
"1075.7999999523163","","","html-slider-response","437","1079685","0.0-24.0-0.0-0.8","54742","List2A","white","man","","","","","","","","survey_race","45","","","I feel a bond with my race.","bond"
"12416.199999928474","","","html-slider-response","438","1092107","0.0-24.0-0.0-0.9","54742","List2A","white","man","","","","","","","","survey_race","21","","","I feel a bond with people the same age as me.","filler"
"1066.6000000238419","","","html-slider-response","439","1093181","0.0-24.0-0.0-0.10","54742","List2A","white","man","","","","","","","","survey_race","82","","","Being my race is an important part of how I see myself.","important"
"1059.5","","","html-slider-response","440","1094246","0.0-24.0-0.0-0.11","54742","List2A","white","man","","","","","","","","survey_race","61","","","Getting older does not worry me.","filler"
"2327.4000000953674","","","html-slider-response","441","1096578","0.0-24.0-0.0-0.12","54742","List2A","white","man","","","","","","","","survey_race","18","","","I am glad to be my race.","glad"
"1004.2999999523163","","","html-slider-response","442","1097586","0.0-24.0-0.0-0.13","54742","List2A","white","man","","","","","","","","survey_race","85","","","I am similar to the average person of my race.","similar"
"947.4000000953674","","","html-slider-response","443","1098536","0.0-24.0-0.0-0.14","54742","List2A","white","man","","","","","","","","survey_race","25","","","I have a lot in common with the average person of my race.","average"
"765.4000000953674","","","html-slider-response","444","1099307","0.0-24.0-0.0-0.15","54742","List2A","white","man","","","","","","","","survey_race","89","","","I consider myself an extrovert.","filler"
"1564.3000000715256","","","html-slider-response","445","1100876","0.0-24.0-0.0-0.16","54742","List2A","white","man","","","","","","","","survey_race","18","","","People my age have a lot in common with each other.","filler"
"757","","","html-slider-response","446","1101639","0.0-24.0-0.0-0.17","54742","List2A","white","man","","","","","","","","survey_race","83","","","I often think about the fact that I am my age.","filler"
"1854.2999999523163","","","html-slider-response","447","1103498","0.0-24.0-0.0-0.18","54742","List2A","white","man","","","","","","","","survey_race","55","","","People of my race have a lot in common with each other.","common"
"1268.2999999523163","","","html-slider-response","448","1104772","0.0-24.0-0.0-0.19","54742","List2A","white","man","","","","","","","","survey_race","24","","","People of my race are very similar to each other.","verysimilar"
"2603.7999999523163","","","html-slider-response","449","1107380","0.0-24.0-0.0-0.20","54742","List2A","white","man","","","","","","","","survey_race","80","","","My age is not an important part of who I am.","filler"
"1444.8999999761581","","","html-slider-response","450","1108829","0.0-24.0-0.0-0.21","54742","List2A","white","man","","","","","","","","survey_race","68","","","It is pleasant to be my race.","pleasant"
"1243.2999999523163","","","html-slider-response","451","1110078","0.0-24.0-0.0-0.22","54742","List2A","white","man","","","","","","","","survey_race","23","","","I enjoy being in large groups.","filler"
"1168.5","","","html-slider-response","452","1111252","0.0-24.0-0.0-0.23","54742","List2A","white","man","","","","","","","","survey_race","76","","","I consider myself an introvert.","filler"
"1135.5","","","html-slider-response","453","1112392","0.0-24.0-0.0-0.24","54742","List2A","white","man","","","","","","","","survey_race","76","","","The older I get, the wiser I feel.","filler"
"1005.6000000238419","","","html-slider-response","454","1113403","0.0-24.0-0.0-0.25","54742","List2A","white","man","","","","","","","","survey_race","83","","","I have a lot in common with people of a similar age to me.","filler"
"2874","","","html-slider-response","455","1116283","0.0-24.0-0.0-0.26","54742","List2A","white","man","","","","","","","","survey_race","60","","","The fact that I am my race is an important part of my identity.","identity"
"1790.6000000238419","","","html-slider-response","456","1118080","0.0-24.0-0.0-0.27","54742","List2A","white","man","","","","","","","","survey_race","82","","","I feel solidarity with people the same age as me.","filler"
"1248.1999999284744","","","html-slider-response","457","1119333","0.0-24.0-1.0-0.0","54742","List2A","white","man","","","","","","","","survey_gender","24","","","Being my gender is an important part of how I see myself.","important"
"1259.2000000476837","","","html-slider-response","458","1120597","0.0-24.0-1.0-0.1","54742","List2A","white","man","","","","","","","","survey_gender","75","","","I consider myself a highly empathetic person.","filler"
"1690.1000000238419","","","html-slider-response","459","1122292","0.0-24.0-1.0-0.2","54742","List2A","white","man","","","","","","","","survey_gender","68","","","I feel a bond with my friends.","filler"
"751.1000000238419","","","html-slider-response","460","1123048","0.0-24.0-1.0-0.3","54742","List2A","white","man","","","","","","","","survey_gender","19","","","Most of the friends in my life are very similar to me.","filler"
"664","","","html-slider-response","461","1123716","0.0-24.0-1.0-0.4","54742","List2A","white","man","","","","","","","","survey_gender","75","","","Family is not more important to me than friendship.","filler"
"1222.4000000953674","","","html-slider-response","462","1124943","0.0-24.0-1.0-0.5","54742","List2A","white","man","","","","","","","","survey_gender","24","","","People of my gender are very similar to each other.","verysimilar"
"1305.8999999761581","","","html-slider-response","463","1126254","0.0-24.0-1.0-0.6","54742","List2A","white","man","","","","","","","","survey_gender","30","","","Routine is not important to me.","filler"
"1729.8999999761581","","","html-slider-response","464","1127990","0.0-24.0-1.0-0.7","54742","List2A","white","man","","","","","","","","survey_gender","20","","","Being my gender gives me a good feeling.","feeling"
"1388","","","html-slider-response","465","1129383","0.0-24.0-1.0-0.8","54742","List2A","white","man","","","","","","","","survey_gender","23","","","I feel solidarity with my gender.","solidarity"
"981.2000000476837","","","html-slider-response","466","1130369","0.0-24.0-1.0-0.9","54742","List2A","white","man","","","","","","","","survey_gender","30","","","I would say I am an animal person.","filler"
"1163.1000000238419","","","html-slider-response","467","1131538","0.0-24.0-1.0-0.10","54742","List2A","white","man","","","","","","","","survey_gender","23","","","I often think about my actions.","filler"
"1198.7999999523163","","","html-slider-response","468","1132741","0.0-24.0-1.0-0.11","54742","List2A","white","man","","","","","","","","survey_gender","75","","","It is pleasant to be my gender.","pleasant"
"10419.600000023842","","","html-slider-response","469","1143164","0.0-24.0-1.0-0.12","54742","List2A","white","man","","","","","","","","survey_gender","80","","","I am similar to the average person of my gender.","similar"
"5388.600000023842","","","html-slider-response","470","1148560","0.0-24.0-1.0-0.13","54742","List2A","white","man","","","","","","","","survey_gender","74","","","It is not always easy for people to know what I am thinking.","filler"
"2328.5","","","html-slider-response","471","1150895","0.0-24.0-1.0-0.14","54742","List2A","white","man","","","","","","","","survey_gender","70","","","My friends understand me.","filler"
"2089.600000023842","","","html-slider-response","472","1152989","0.0-24.0-1.0-0.15","54742","List2A","white","man","","","","","","","","survey_gender","71","","","I often think about the fact that I am my gender.","often"
"2168.7999999523163","","","html-slider-response","473","1155161","0.0-24.0-1.0-0.16","54742","List2A","white","man","","","","","","","","survey_gender","65","","","I feel committed to my gender.","committed"
"2717","","","html-slider-response","474","1157883","0.0-24.0-1.0-0.17","54742","List2A","white","man","","","","","","","","survey_gender","25","","","I have a lot in common with the average person of my gender.","average"
"3023.899999976158","","","html-slider-response","475","1160914","0.0-24.0-1.0-0.18","54742","List2A","white","man","","","","","","","","survey_gender","24","","","I am glad to have the friends that I have.","filler"
"4960.5","","","html-slider-response","476","1165880","0.0-24.0-1.0-0.19","54742","List2A","white","man","","","","","","","","survey_gender","36","","","I am glad to be my gender.","glad"
"2863.5","","","html-slider-response","477","1168749","0.0-24.0-1.0-0.20","54742","List2A","white","man","","","","","","","","survey_gender","74","","","I have a lot in common with my friends.","filler"
"1306.4000000953674","","","html-slider-response","478","1170059","0.0-24.0-1.0-0.21","54742","List2A","white","man","","","","","","","","survey_gender","70","","","The fact that I am my gender is an important part of my identity.","identity"
"1167.6000000238419","","","html-slider-response","479","1171232","0.0-24.0-1.0-0.22","54742","List2A","white","man","","","","","","","","survey_gender","71","","","People of my gender have a lot in common with each other.","common"
"1261.5","","","html-slider-response","480","1172498","0.0-24.0-1.0-0.23","54742","List2A","white","man","","","","","","","","survey_gender","45","","","I feel a bond with my gender.","bond"
"1143.5","","","html-slider-response","481","1173647","0.0-24.0-1.0-0.24","54742","List2A","white","man","","","","","","","","survey_gender","70","","","My friends have a lot in common with each other.","filler"
"1193.3999999761581","","","html-slider-response","482","1174845","0.0-24.0-1.0-0.25","54742","List2A","white","man","","","","","","","","survey_gender","60","","","Being around my friends gives me a good feeling.","filler"
"1060.6000000238419","","","html-slider-response","483","1175911","0.0-24.0-1.0-0.26","54742","List2A","white","man","","","","","","","","survey_gender","72","","","I feel solidarity with my friends.","filler"
"1085.6000000238419","","","html-slider-response","484","1177002","0.0-24.0-1.0-0.27","54742","List2A","white","man","","","","","","","","survey_gender","73","","","I think that my gender has a lot to be proud of.","proud"
"25477.899999976158","","","survey-text","485","1202490","0.0-25.0","54742","List2A","white","man","","","","","{""Q0"":""61643af1590fab1b602d1e14""}","","","worker_id","","","","",""
"5266.399999976158","","","external-html","486","1208259","0.0-26.0","54742","List2A","white","man","debrief.html","","","","","","","","","","","",""
