"rt","stimulus","button_pressed","trial_type","trial_index","time_elapsed","internal_node_id","subject","list","ppt_race","ppt_gender","url","first_guess","correct","key_press","responses","image_type","phrase_type","test_part","response","stimulus1","stimulus2","question_type","survey_item"
"5075.699999999255","Welcome to the experiment. Press Continue to begin.","0","html-button-response","0","5078","0.0-0.0","54928","List1B","white","man","","","","","","","","","","","","",""
"118368.10000000056","","","external-html","1","125143","0.0-1.0","54928","List1B","white","man","consent.html","","","","","","","","","","","",""
"21277.5","<p>On the next page, you will see portraits of 8 people and their names.</p><p>Your first task is to take a few minutes to memorise the names of these people.</p><p>You will have to recall their names during the rest of the experiment, so it is</p><p>essential that you try to memorise these people and their names as best as you can.</p><br><p><strong>You will then be tested on your memory of these names and portraits.</strong></p><br><p>The experiment will start after you have completed this memory test.</p><br><p>Ready?</p>","0","html-button-response","2","146423","0.0-2.0","54928","List1B","white","man","","","","","","","","","","","","",""
"305559.0999999996","<img src='img/portrait_matrix_list1.jpg' style='width:900px;height:500px;''></img><p>If you have memorised all the portraits and names and are ready to start, press Continue.</p><p><strong>Please note: Your memory of these faces will be tested 4 times during this experiment.</strong></p>","0","html-button-response","3","452986","0.0-3.0-0.0","54928","List1B","white","man","","","","","","","","","","","","",""
"20212.299999999814","<img src=""portrait/WW2.jpg""style=""height:400px;""></img>","3","html-button-response","4","474202","0.0-3.0-1.0","54928","List1B","white","man","","true","3","","","","","","","","","",""
"null","CORRECT","","html-keyboard-response","5","475710","0.0-3.0-2.0-0.0","54928","List1B","white","man","","","","null","","","","","","","","",""
"13900.5","<img src=""portrait/BW2.jpg""style=""height:400px;""></img>","2","html-button-response","6","489614","0.0-3.0-4.0","54928","List1B","white","man","","true","2","","","","","","","","","",""
"null","CORRECT","","html-keyboard-response","7","491120","0.0-3.0-5.0-0.0","54928","List1B","white","man","","","","null","","","","","","","","",""
"14976.199999999255","<img src=""portrait/BM2.jpg""style=""height:400px;""></img>","5","html-button-response","8","506098","0.0-3.0-7.0","54928","List1B","white","man","","true","5","","","","","","","","","",""
"null","CORRECT","","html-keyboard-response","9","507602","0.0-3.0-8.0-0.0","54928","List1B","white","man","","","","null","","","","","","","","",""
"15985.699999999255","<img src=""portrait/BW1.jpg""style=""height:400px;""></img>","0","html-button-response","10","523589","0.0-3.0-10.0","54928","List1B","white","man","","true","0","","","","","","","","","",""
"null","CORRECT","","html-keyboard-response","11","525092","0.0-3.0-11.0-0.0","54928","List1B","white","man","","","","null","","","","","","","","",""
"12082.599999999627","<img src=""portrait/BM1.jpg""style=""height:400px;""></img>","4","html-button-response","12","537177","0.0-3.0-13.0","54928","List1B","white","man","","true","4","","","","","","","","","",""
"null","CORRECT","","html-keyboard-response","13","538680","0.0-3.0-14.0-0.0","54928","List1B","white","man","","","","null","","","","","","","","",""
"7728.5","<img src=""portrait/WW1.jpg""style=""height:400px;""></img>","1","html-button-response","14","546409","0.0-3.0-16.0","54928","List1B","white","man","","true","1","","","","","","","","","",""
"null","CORRECT","","html-keyboard-response","15","547913","0.0-3.0-17.0-0.0","54928","List1B","white","man","","","","null","","","","","","","","",""
"10501.600000000559","<img src=""portrait/WM1.jpg""style=""height:400px;""></img>","6","html-button-response","16","558417","0.0-3.0-19.0","54928","List1B","white","man","","true","6","","","","","","","","","",""
"null","CORRECT","","html-keyboard-response","17","559920","0.0-3.0-20.0-0.0","54928","List1B","white","man","","","","null","","","","","","","","",""
"9534.899999999441","<img src=""portrait/WM2.jpg""style=""height:400px;""></img>","7","html-button-response","18","569457","0.0-3.0-22.0","54928","List1B","white","man","","true","7","","","","","","","","","",""
"null","CORRECT","","html-keyboard-response","19","570960","0.0-3.0-23.0-0.0","54928","List1B","white","man","","","","null","","","","","","","","",""
"9037.300000000745","<p>You got 8 out of 8 right first time. Press Continue.</p>","0","html-button-response","20","580001","0.0-3.0-25.0","54928","List1B","white","man","","","","","","","","","","","","",""
"104184.89999999944","<p>In this experiment, you will view photographs of the people from the memory game interacting.</p><p>By using the <strong>exact</strong> phrase given <i>after</i> the photograph appears and recalling the correct names of the people in the photographs, form a sentence describing the interaction. You do not need to capitalise names.</p><p>Type your answer in the space provided. Please complete every sentence before moving onto the next trial.</p><p>You will only have a few seconds to memorise each given photograph and phrase before you can respond, so try your best to focus.</p><p>An example is given below. Press 'Continue' when you are ready.</p><img src='img/speaking_example.jpg' style='width:800px;height:460px;''></img>","0","html-button-response","21","685191","0.0-4.0","54928","List1B","white","man","","","","","","","","","","","","",""
"6213.9000000003725","<p>Before the experiment starts, you will watch two example trials. Press 'Continue'.</p>","0","html-button-response","22","692407","0.0-5.0","54928","List1B","white","man","","","","","","","","","","","","",""
"null","<img src='img/play_eg.gif' style='height:400px;''></img>","","html-keyboard-response","23","695423","0.0-6.0","54928","List1B","white","man","","","","null","","","","","","","","",""
"null","<p>is playing with</p>","","html-keyboard-response","24","697426","0.0-7.0","54928","List1B","white","man","","","","null","","","","","","","","",""
"11836.800000000745","<p><b>Answer:</b> kate is playing with beth</p>","0","html-button-response","25","709264","0.0-8.0","54928","List1B","white","man","","","","","","","","","","","","",""
"null","<img src='img/dance_eg.gif' style='height:400px;''></img>","","html-keyboard-response","26","712272","0.0-9.0","54928","List1B","white","man","","","","null","","","","","","","","",""
"null","<p>is being entertained by</p>","","html-keyboard-response","27","714280","0.0-10.0","54928","List1B","white","man","","","","null","","","","","","","","",""
"37921.299999999814","<p><b>Answer:</b> luke is being entertained by dave</p>","0","html-button-response","28","752203","0.0-11.0","54928","List1B","white","man","","","","","","","","","","","","",""
"25745.799999999814","<p>Ready to start the experiment?</p><br><p><strong>Remember to describe the picture using a full sentence,</strong></p><p><strong>that combines the names of the people with the <i>exact</i> phrase given.</strong></p><p><strong>To receive full payment you must do this correctly.</strong></p><p><strong> You do not need to capitalise names or use punctuation.</strong></p><br><p>Press 'Continue' to begin.</p>","0","html-button-response","29","778963","0.0-12.0","54928","List1B","white","man","","","","","","","","","","","","",""
"null","<div style=""font-size:60px;"">+</div>","","html-keyboard-response","30","780479","0.0-13.0-0.0","54928","List1B","white","man","","","","null","","","","","","","","",""
"null","<img src=""stim_listB/hug2.gif""style=""height:400px;""></stim_listB>","","html-keyboard-response","31","782488","0.0-13.0-1.0","54928","List1B","white","man","","","","null","","","","","","","","",""
"null","is being hugged by","","html-keyboard-response","32","784494","0.0-13.0-2.0","54928","List1B","white","man","","","","null","","","","","","","","",""
"24470.099999999627","","","survey-text","33","808971","0.0-13.0-3.0","54928","List1B","white","man","","","","","{""Q0"":""hugging""}","<img src=""stim_listB/hug2.gif""style=""height:400px;""></stim_listB>","is being hugged by","","","","","",""
"null","<div style=""font-size:60px;"">+</div>","","html-keyboard-response","34","809472","0.0-13.0-0.1","54928","List1B","white","man","","","","null","","","","","","","","",""
"null","<img src=""stim_listB/kiss2.gif""style=""height:400px;""></stim_listB>","","html-keyboard-response","35","811476","0.0-13.0-1.1","54928","List1B","white","man","","","","null","","","","","","","","",""
"null","is being kissed by","","html-keyboard-response","36","813492","0.0-13.0-2.1","54928","List1B","white","man","","","","null","","","","","","","","",""
"15854.599999999627","","","survey-text","37","829350","0.0-13.0-3.1","54928","List1B","white","man","","","","","{""Q0"":""dave""}","<img src=""stim_listB/kiss2.gif""style=""height:400px;""></stim_listB>","is being kissed by","","","","","",""
"null","<div style=""font-size:60px;"">+</div>","","html-keyboard-response","38","829866","0.0-13.0-0.2","54928","List1B","white","man","","","","null","","","","","","","","",""
"null","<img src=""stim_listB/hug4.gif""style=""height:400px;""></stim_listB>","","html-keyboard-response","39","831873","0.0-13.0-1.2","54928","List1B","white","man","","","","null","","","","","","","","",""
"null","is being hugged by","","html-keyboard-response","40","833884","0.0-13.0-2.2","54928","List1B","white","man","","","","null","","","","","","","","",""
"27630","","","survey-text","41","861518","0.0-13.0-3.2","54928","List1B","white","man","","","","","{""Q0"":""dave""}","<img src=""stim_listB/hug4.gif""style=""height:400px;""></stim_listB>","is being hugged by","","","","","",""
"null","<div style=""font-size:60px;"">+</div>","","html-keyboard-response","42","862032","0.0-13.0-0.3","54928","List1B","white","man","","","","null","","","","","","","","",""
"null","<img src=""stim_listB/challenge4.gif""style=""height:400px;""></stim_listB>","","html-keyboard-response","43","864045","0.0-13.0-1.3","54928","List1B","white","man","","","","null","","","","","","","","",""
"null","is being challenged by","","html-keyboard-response","44","866060","0.0-13.0-2.3","54928","List1B","white","man","","","","null","","","","","","","","",""
"16957.099999999627","","","survey-text","45","883022","0.0-13.0-3.3","54928","List1B","white","man","","","","","{""Q0"":""luke""}","<img src=""stim_listB/challenge4.gif""style=""height:400px;""></stim_listB>","is being challenged by","","","","","",""
"null","<div style=""font-size:60px;"">+</div>","","html-keyboard-response","46","883537","0.0-13.0-0.4","54928","List1B","white","man","","","","null","","","","","","","","",""
"null","<img src=""stim_listB/copy8.gif""style=""height:400px;""></stim_listB>","","html-keyboard-response","47","885554","0.0-13.0-1.4","54928","List1B","white","man","","","","null","","","","","","","","",""
"null","is being copied by","","html-keyboard-response","48","887570","0.0-13.0-2.4","54928","List1B","white","man","","","","null","","","","","","","","",""
"10451.799999999814","","","survey-text","49","898026","0.0-13.0-3.4","54928","List1B","white","man","","","","","{""Q0"":""beth""}","<img src=""stim_listB/copy8.gif""style=""height:400px;""></stim_listB>","is being copied by","","","","","",""
"null","<div style=""font-size:60px;"">+</div>","","html-keyboard-response","50","898536","0.0-13.0-0.5","54928","List1B","white","man","","","","null","","","","","","","","",""
"null","<img src=""stim_listB/kiss4.gif""style=""height:400px;""></stim_listB>","","html-keyboard-response","51","900546","0.0-13.0-1.5","54928","List1B","white","man","","","","null","","","","","","","","",""
"null","is being kissed by","","html-keyboard-response","52","902553","0.0-13.0-2.5","54928","List1B","white","man","","","","null","","","","","","","","",""
"11324.200000000186","","","survey-text","53","913881","0.0-13.0-3.5","54928","List1B","white","man","","","","","{""Q0"":""dave""}","<img src=""stim_listB/kiss4.gif""style=""height:400px;""></stim_listB>","is being kissed by","","","","","",""
"null","<div style=""font-size:60px;"">+</div>","","html-keyboard-response","54","914397","0.0-13.0-0.6","54928","List1B","white","man","","","","null","","","","","","","","",""
"null","<img src=""stim_listB/hug5.gif""style=""height:400px;""></stim_listB>","","html-keyboard-response","55","916410","0.0-13.0-1.6","54928","List1B","white","man","","","","null","","","","","","","","",""
"null","is hugging","","html-keyboard-response","56","918425","0.0-13.0-2.6","54928","List1B","white","man","","","","null","","","","","","","","",""
"13803.700000000186","","","survey-text","57","932233","0.0-13.0-3.6","54928","List1B","white","man","","","","","{""Q0"":""fred and luke""}","<img src=""stim_listB/hug5.gif""style=""height:400px;""></stim_listB>","is hugging","","","","","",""
"null","<div style=""font-size:60px;"">+</div>","","html-keyboard-response","58","932742","0.0-13.0-0.7","54928","List1B","white","man","","","","null","","","","","","","","",""
"null","<img src=""stim_listB/hug6.gif""style=""height:400px;""></stim_listB>","","html-keyboard-response","59","934758","0.0-13.0-1.7","54928","List1B","white","man","","","","null","","","","","","","","",""
"null","is being hugged by","","html-keyboard-response","60","936775","0.0-13.0-2.7","54928","List1B","white","man","","","","null","","","","","","","","",""
"24052.800000000745","","","survey-text","61","960832","0.0-13.0-3.7","54928","List1B","white","man","","","","","{""Q0"":""dave is hugging mike""}","<img src=""stim_listB/hug6.gif""style=""height:400px;""></stim_listB>","is being hugged by","","","","","",""
"null","<div style=""font-size:60px;"">+</div>","","html-keyboard-response","62","961335","0.0-13.0-0.8","54928","List1B","white","man","","","","null","","","","","","","","",""
"null","<img src=""stim_listB/look2.gif""style=""height:400px;""></stim_listB>","","html-keyboard-response","63","963345","0.0-13.0-1.8","54928","List1B","white","man","","","","null","","","","","","","","",""
"null","is being looked at by","","html-keyboard-response","64","965361","0.0-13.0-2.8","54928","List1B","white","man","","","","null","","","","","","","","",""
"35742.39999999944","","","survey-text","65","1001107","0.0-13.0-3.8","54928","List1B","white","man","","","","","{""Q0"":""mike is looking beth""}","<img src=""stim_listB/look2.gif""style=""height:400px;""></stim_listB>","is being looked at by","","","","","",""
"null","<div style=""font-size:60px;"">+</div>","","html-keyboard-response","66","1001624","0.0-13.0-0.9","54928","List1B","white","man","","","","null","","","","","","","","",""
"null","<img src=""stim_listB/copy7.gif""style=""height:400px;""></stim_listB>","","html-keyboard-response","67","1003628","0.0-13.0-1.9","54928","List1B","white","man","","","","null","","","","","","","","",""
"null","is copying","","html-keyboard-response","68","1005645","0.0-13.0-2.9","54928","List1B","white","man","","","","null","","","","","","","","",""
"26085.700000000186","","","survey-text","69","1031735","0.0-13.0-3.9","54928","List1B","white","man","","","","","{""Q0"":""jane and ruth""}","<img src=""stim_listB/copy7.gif""style=""height:400px;""></stim_listB>","is copying","","","","","",""
"null","<div style=""font-size:60px;"">+</div>","","html-keyboard-response","70","1032251","0.0-13.0-0.10","54928","List1B","white","man","","","","null","","","","","","","","",""
"null","<img src=""stim_listB/challenge3.gif""style=""height:400px;""></stim_listB>","","html-keyboard-response","71","1034269","0.0-13.0-1.10","54928","List1B","white","man","","","","null","","","","","","","","",""
"null","is challenging","","html-keyboard-response","72","1036285","0.0-13.0-2.10","54928","List1B","white","man","","","","null","","","","","","","","",""
"20145.89999999944","","","survey-text","73","1056436","0.0-13.0-3.10","54928","List1B","white","man","","","","","{""Q0"":""dave""}","<img src=""stim_listB/challenge3.gif""style=""height:400px;""></stim_listB>","is challenging","","","","","",""
"null","<div style=""font-size:60px;"">+</div>","","html-keyboard-response","74","1056941","0.0-13.0-0.11","54928","List1B","white","man","","","","null","","","","","","","","",""
"null","<img src=""stim_listB/copy1.gif""style=""height:400px;""></stim_listB>","","html-keyboard-response","75","1058954","0.0-13.0-1.11","54928","List1B","white","man","","","","null","","","","","","","","",""
"null","is copying","","html-keyboard-response","76","1060970","0.0-13.0-2.11","54928","List1B","white","man","","","","null","","","","","","","","",""
"10849","","","survey-text","77","1071823","0.0-13.0-3.11","54928","List1B","white","man","","","","","{""Q0"":""mike""}","<img src=""stim_listB/copy1.gif""style=""height:400px;""></stim_listB>","is copying","","","","","",""
"null","<div style=""font-size:60px;"">+</div>","","html-keyboard-response","78","1072339","0.0-13.0-0.12","54928","List1B","white","man","","","","null","","","","","","","","",""
"null","<img src=""stim_listB/kiss3.gif""style=""height:400px;""></stim_listB>","","html-keyboard-response","79","1074356","0.0-13.0-1.12","54928","List1B","white","man","","","","null","","","","","","","","",""
"null","is kissing","","html-keyboard-response","80","1076371","0.0-13.0-2.12","54928","List1B","white","man","","","","null","","","","","","","","",""
"20523.400000000373","","","survey-text","81","1096899","0.0-13.0-3.12","54928","List1B","white","man","","","","","{""Q0"":""luke and ruth kissing""}","<img src=""stim_listB/kiss3.gif""style=""height:400px;""></stim_listB>","is kissing","","","","","",""
"null","<div style=""font-size:60px;"">+</div>","","html-keyboard-response","82","1097413","0.0-13.0-0.13","54928","List1B","white","man","","","","null","","","","","","","","",""
"null","<img src=""stim_listB/seduce8.gif""style=""height:400px;""></stim_listB>","","html-keyboard-response","83","1099429","0.0-13.0-1.13","54928","List1B","white","man","","","","null","","","","","","","","",""
"null","is being seduced by","","html-keyboard-response","84","1101440","0.0-13.0-2.13","54928","List1B","white","man","","","","null","","","","","","","","",""
"34390","","","survey-text","85","1135834","0.0-13.0-3.13","54928","List1B","white","man","","","","","{""Q0"":""ruth is seducing kate""}","<img src=""stim_listB/seduce8.gif""style=""height:400px;""></stim_listB>","is being seduced by","","","","","",""
"null","<div style=""font-size:60px;"">+</div>","","html-keyboard-response","86","1136336","0.0-13.0-0.14","54928","List1B","white","man","","","","null","","","","","","","","",""
"null","<img src=""stim_listB/look3.gif""style=""height:400px;""></stim_listB>","","html-keyboard-response","87","1138351","0.0-13.0-1.14","54928","List1B","white","man","","","","null","","","","","","","","",""
"null","is looking at","","html-keyboard-response","88","1140366","0.0-13.0-2.14","54928","List1B","white","man","","","","null","","","","","","","","",""
"29271.700000000186","","","survey-text","89","1169642","0.0-13.0-3.14","54928","List1B","white","man","","","","","{""Q0"":""luke is looking at ruth""}","<img src=""stim_listB/look3.gif""style=""height:400px;""></stim_listB>","is looking at","","","","","",""
"null","<div style=""font-size:60px;"">+</div>","","html-keyboard-response","90","1170158","0.0-13.0-0.15","54928","List1B","white","man","","","","null","","","","","","","","",""
"null","<img src=""stim_listB/copy3.gif""style=""height:400px;""></stim_listB>","","html-keyboard-response","91","1172166","0.0-13.0-1.15","54928","List1B","white","man","","","","null","","","","","","","","",""
"null","is copying","","html-keyboard-response","92","1174182","0.0-13.0-2.15","54928","List1B","white","man","","","","null","","","","","","","","",""
"26467.89999999944","","","survey-text","93","1200654","0.0-13.0-3.15","54928","List1B","white","man","","","","","{""Q0"":""ruth is coping dave""}","<img src=""stim_listB/copy3.gif""style=""height:400px;""></stim_listB>","is copying","","","","","",""
"null","<div style=""font-size:60px;"">+</div>","","html-keyboard-response","94","1201165","0.0-13.0-0.16","54928","List1B","white","man","","","","null","","","","","","","","",""
"null","<img src=""stim_listB/greet4.gif""style=""height:400px;""></stim_listB>","","html-keyboard-response","95","1203182","0.0-13.0-1.16","54928","List1B","white","man","","","","null","","","","","","","","",""
"null","is being greeted by","","html-keyboard-response","96","1205198","0.0-13.0-2.16","54928","List1B","white","man","","","","null","","","","","","","","",""
"13499","","","survey-text","97","1218701","0.0-13.0-3.16","54928","List1B","white","man","","","","","{""Q0"":""ruth""}","<img src=""stim_listB/greet4.gif""style=""height:400px;""></stim_listB>","is being greeted by","","","","","",""
"null","<div style=""font-size:60px;"">+</div>","","html-keyboard-response","98","1219217","0.0-13.0-0.17","54928","List1B","white","man","","","","null","","","","","","","","",""
"null","<img src=""stim_listB/touch7.gif""style=""height:400px;""></stim_listB>","","html-keyboard-response","99","1221235","0.0-13.0-1.17","54928","List1B","white","man","","","","null","","","","","","","","",""
"null","is touching","","html-keyboard-response","100","1223243","0.0-13.0-2.17","54928","List1B","white","man","","","","null","","","","","","","","",""
"19817.900000000373","","","survey-text","101","1243065","0.0-13.0-3.17","54928","List1B","white","man","","","","","{""Q0"":""kate""}","<img src=""stim_listB/touch7.gif""style=""height:400px;""></stim_listB>","is touching","","","","","",""
"null","<div style=""font-size:60px;"">+</div>","","html-keyboard-response","102","1243580","0.0-13.0-0.18","54928","List1B","white","man","","","","null","","","","","","","","",""
"null","<img src=""stim_listB/shout3.gif""style=""height:400px;""></stim_listB>","","html-keyboard-response","103","1245599","0.0-13.0-1.18","54928","List1B","white","man","","","","null","","","","","","","","",""
"null","is shouting at","","html-keyboard-response","104","1247615","0.0-13.0-2.18","54928","List1B","white","man","","","","null","","","","","","","","",""
"5997.899999999441","","","survey-text","105","1253617","0.0-13.0-3.18","54928","List1B","white","man","","","","","{""Q0"":""luke""}","<img src=""stim_listB/shout3.gif""style=""height:400px;""></stim_listB>","is shouting at","","","","","",""
"null","<div style=""font-size:60px;"">+</div>","","html-keyboard-response","106","1254133","0.0-13.0-0.19","54928","List1B","white","man","","","","null","","","","","","","","",""
"null","<img src=""stim_listB/greet8.gif""style=""height:400px;""></stim_listB>","","html-keyboard-response","107","1256137","0.0-13.0-1.19","54928","List1B","white","man","","","","null","","","","","","","","",""
"null","is being greeted by","","html-keyboard-response","108","1258139","0.0-13.0-2.19","54928","List1B","white","man","","","","null","","","","","","","","",""
"14482.100000000559","","","survey-text","109","1272625","0.0-13.0-3.19","54928","List1B","white","man","","","","","{""Q0"":""jane""}","<img src=""stim_listB/greet8.gif""style=""height:400px;""></stim_listB>","is being greeted by","","","","","",""
"80897.70000000019","<img src='img/portrait_matrix_list1.jpg' style='width:900px;height:500px;''></img><p>If you have memorised all the portraits and names and are ready to start, press Continue.</p><p><strong>Please note: Your memory of these faces will be tested 4 times during this experiment.</strong></p>","0","html-button-response","110","1353523","0.0-14.0-0.0","54928","List1B","white","man","","","","","","","","","","","","",""
"11564.900000000373","<img src=""portrait/BW1.jpg""style=""height:400px;""></img>","0","html-button-response","111","1366091","0.0-14.0-1.0","54928","List1B","white","man","","true","0","","","","","","","","","",""
"null","CORRECT","","html-keyboard-response","112","1367594","0.0-14.0-2.0-0.0","54928","List1B","white","man","","","","null","","","","","","","","",""
"7390.100000000559","<img src=""portrait/BW2.jpg""style=""height:400px;""></img>","2","html-button-response","113","1374987","0.0-14.0-4.0","54928","List1B","white","man","","true","2","","","","","","","","","",""
"null","CORRECT","","html-keyboard-response","114","1376490","0.0-14.0-5.0-0.0","54928","List1B","white","man","","","","null","","","","","","","","",""
"10322","<img src=""portrait/WW2.jpg""style=""height:400px;""></img>","3","html-button-response","115","1386815","0.0-14.0-7.0","54928","List1B","white","man","","true","3","","","","","","","","","",""
"null","CORRECT","","html-keyboard-response","116","1388318","0.0-14.0-8.0-0.0","54928","List1B","white","man","","","","null","","","","","","","","",""
"9053.699999999255","<img src=""portrait/WM1.jpg""style=""height:400px;""></img>","6","html-button-response","117","1397375","0.0-14.0-10.0","54928","List1B","white","man","","true","6","","","","","","","","","",""
"null","CORRECT","","html-keyboard-response","118","1398893","0.0-14.0-11.0-0.0","54928","List1B","white","man","","","","null","","","","","","","","",""
"7262.700000000186","<img src=""portrait/WM2.jpg""style=""height:400px;""></img>","7","html-button-response","119","1406158","0.0-14.0-13.0","54928","List1B","white","man","","true","7","","","","","","","","","",""
"null","CORRECT","","html-keyboard-response","120","1407669","0.0-14.0-14.0-0.0","54928","List1B","white","man","","","","null","","","","","","","","",""
"31533.799999999814","<img src=""portrait/WW1.jpg""style=""height:400px;""></img>","1","html-button-response","121","1439206","0.0-14.0-16.0","54928","List1B","white","man","","true","1","","","","","","","","","",""
"null","CORRECT","","html-keyboard-response","122","1440709","0.0-14.0-17.0-0.0","54928","List1B","white","man","","","","null","","","","","","","","",""
"13846.200000000186","<img src=""portrait/BM2.jpg""style=""height:400px;""></img>","5","html-button-response","123","1454558","0.0-14.0-19.0","54928","List1B","white","man","","true","5","","","","","","","","","",""
"null","CORRECT","","html-keyboard-response","124","1456061","0.0-14.0-20.0-0.0","54928","List1B","white","man","","","","null","","","","","","","","",""
"8731.100000000559","<img src=""portrait/BM1.jpg""style=""height:400px;""></img>","4","html-button-response","125","1464794","0.0-14.0-22.0","54928","List1B","white","man","","true","4","","","","","","","","","",""
"null","CORRECT","","html-keyboard-response","126","1466297","0.0-14.0-23.0-0.0","54928","List1B","white","man","","","","null","","","","","","","","",""
"6630.4000000003725","<p>You got 8 out of 8 right first time. Press Continue.</p>","0","html-button-response","127","1472929","0.0-14.0-25.0","54928","List1B","white","man","","","","","","","","","","","","",""
"null","<div style=""font-size:60px;"">+</div>","","html-keyboard-response","128","1474461","0.0-15.0-0.0","54928","List1B","white","man","","","","null","","","","","","","","",""
"null","<img src=""stim_listB/seduce4.gif""style=""height:400px;""></stim_listB>","","html-keyboard-response","129","1476468","0.0-15.0-1.0","54928","List1B","white","man","","","","null","","","","","","","","",""
"null","is being seduced by","","html-keyboard-response","130","1478483","0.0-15.0-2.0","54928","List1B","white","man","","","","null","","","","","","","","",""
"12897.799999999814","","","survey-text","131","1491385","0.0-15.0-3.0","54928","List1B","white","man","","","","","{""Q0"":""ruth""}","<img src=""stim_listB/seduce4.gif""style=""height:400px;""></stim_listB>","is being seduced by","","","","","",""
"null","<div style=""font-size:60px;"">+</div>","","html-keyboard-response","132","1491887","0.0-15.0-0.1","54928","List1B","white","man","","","","null","","","","","","","","",""
"null","<img src=""stim_listB/shout6.gif""style=""height:400px;""></stim_listB>","","html-keyboard-response","133","1493904","0.0-15.0-1.1","54928","List1B","white","man","","","","null","","","","","","","","",""
"null","is being shouted at by","","html-keyboard-response","134","1495918","0.0-15.0-2.1","54928","List1B","white","man","","","","null","","","","","","","","",""
"12151","","","survey-text","135","1508073","0.0-15.0-3.1","54928","List1B","white","man","","","","","{""Q0"":""fred""}","<img src=""stim_listB/shout6.gif""style=""height:400px;""></stim_listB>","is being shouted at by","","","","","",""
"null","<div style=""font-size:60px;"">+</div>","","html-keyboard-response","136","1508584","0.0-15.0-0.2","54928","List1B","white","man","","","","null","","","","","","","","",""
"null","<img src=""stim_listB/seduce6.gif""style=""height:400px;""></stim_listB>","","html-keyboard-response","137","1510602","0.0-15.0-1.2","54928","List1B","white","man","","","","null","","","","","","","","",""
"null","is being seduced by","","html-keyboard-response","138","1512617","0.0-15.0-2.2","54928","List1B","white","man","","","","null","","","","","","","","",""
"13539.799999999814","","","survey-text","139","1526161","0.0-15.0-3.2","54928","List1B","white","man","","","","","{""Q0"":""mike""}","<img src=""stim_listB/seduce6.gif""style=""height:400px;""></stim_listB>","is being seduced by","","","","","",""
"null","<div style=""font-size:60px;"">+</div>","","html-keyboard-response","140","1526662","0.0-15.0-0.3","54928","List1B","white","man","","","","null","","","","","","","","",""
"null","<img src=""stim_listB/greet3.gif""style=""height:400px;""></stim_listB>","","html-keyboard-response","141","1528672","0.0-15.0-1.3","54928","List1B","white","man","","","","null","","","","","","","","",""
"null","is greeting","","html-keyboard-response","142","1530688","0.0-15.0-2.3","54928","List1B","white","man","","","","null","","","","","","","","",""
"7600.9000000003725","","","survey-text","143","1538293","0.0-15.0-3.3","54928","List1B","white","man","","","","","{""Q0"":""dave""}","<img src=""stim_listB/greet3.gif""style=""height:400px;""></stim_listB>","is greeting","","","","","",""
"null","<div style=""font-size:60px;"">+</div>","","html-keyboard-response","144","1538795","0.0-15.0-0.4","54928","List1B","white","man","","","","null","","","","","","","","",""
"null","<img src=""stim_listB/oppose1.gif""style=""height:400px;""></stim_listB>","","html-keyboard-response","145","1540808","0.0-15.0-1.4","54928","List1B","white","man","","","","null","","","","","","","","",""
"null","is opposing","","html-keyboard-response","146","1542824","0.0-15.0-2.4","54928","List1B","white","man","","","","null","","","","","","","","",""
"10376.5","","","survey-text","147","1553205","0.0-15.0-3.4","54928","List1B","white","man","","","","","{""Q0"":""kate""}","<img src=""stim_listB/oppose1.gif""style=""height:400px;""></stim_listB>","is opposing","","","","","",""
"null","<div style=""font-size:60px;"">+</div>","","html-keyboard-response","148","1553706","0.0-15.0-0.5","54928","List1B","white","man","","","","null","","","","","","","","",""
"null","<img src=""stim_listB/touch1.gif""style=""height:400px;""></stim_listB>","","html-keyboard-response","149","1555724","0.0-15.0-1.5","54928","List1B","white","man","","","","null","","","","","","","","",""
"null","is touching","","html-keyboard-response","150","1557727","0.0-15.0-2.5","54928","List1B","white","man","","","","null","","","","","","","","",""
"6361.600000000559","","","survey-text","151","1564092","0.0-15.0-3.5","54928","List1B","white","man","","","","","{""Q0"":""mike""}","<img src=""stim_listB/touch1.gif""style=""height:400px;""></stim_listB>","is touching","","","","","",""
"null","<div style=""font-size:60px;"">+</div>","","html-keyboard-response","152","1564594","0.0-15.0-0.6","54928","List1B","white","man","","","","null","","","","","","","","",""
"null","<img src=""stim_listB/greet7.gif""style=""height:400px;""></stim_listB>","","html-keyboard-response","153","1566597","0.0-15.0-1.6","54928","List1B","white","man","","","","null","","","","","","","","",""
"null","is greeting","","html-keyboard-response","154","1568599","0.0-15.0-2.6","54928","List1B","white","man","","","","null","","","","","","","","",""
"12056.400000000373","","","survey-text","155","1580660","0.0-15.0-3.6","54928","List1B","white","man","","","","","{""Q0"":""ruth""}","<img src=""stim_listB/greet7.gif""style=""height:400px;""></stim_listB>","is greeting","","","","","",""
"null","<div style=""font-size:60px;"">+</div>","","html-keyboard-response","156","1581166","0.0-15.0-0.7","54928","List1B","white","man","","","","null","","","","","","","","",""
"null","<img src=""stim_listB/seduce3.gif""style=""height:400px;""></stim_listB>","","html-keyboard-response","157","1583184","0.0-15.0-1.7","54928","List1B","white","man","","","","null","","","","","","","","",""
"null","is seducing","","html-keyboard-response","158","1585198","0.0-15.0-2.7","54928","List1B","white","man","","","","null","","","","","","","","",""
"13577.800000000745","","","survey-text","159","1598780","0.0-15.0-3.7","54928","List1B","white","man","","","","","{""Q0"":""jane""}","<img src=""stim_listB/seduce3.gif""style=""height:400px;""></stim_listB>","is seducing","","","","","",""
"null","<div style=""font-size:60px;"">+</div>","","html-keyboard-response","160","1599287","0.0-15.0-0.8","54928","List1B","white","man","","","","null","","","","","","","","",""
"null","<img src=""stim_listB/shout2.gif""style=""height:400px;""></stim_listB>","","html-keyboard-response","161","1601302","0.0-15.0-1.8","54928","List1B","white","man","","","","null","","","","","","","","",""
"null","is being shouted at by","","html-keyboard-response","162","1603318","0.0-15.0-2.8","54928","List1B","white","man","","","","null","","","","","","","","",""
"7649.699999999255","","","survey-text","163","1610972","0.0-15.0-3.8","54928","List1B","white","man","","","","","{""Q0"":""mike""}","<img src=""stim_listB/shout2.gif""style=""height:400px;""></stim_listB>","is being shouted at by","","","","","",""
"null","<div style=""font-size:60px;"">+</div>","","html-keyboard-response","164","1611479","0.0-15.0-0.9","54928","List1B","white","man","","","","null","","","","","","","","",""
"null","<img src=""stim_listB/shout8.gif""style=""height:400px;""></stim_listB>","","html-keyboard-response","165","1613492","0.0-15.0-1.9","54928","List1B","white","man","","","","null","","","","","","","","",""
"null","is being shouted at by","","html-keyboard-response","166","1615508","0.0-15.0-2.9","54928","List1B","white","man","","","","null","","","","","","","","",""
"7611","","","survey-text","167","1623124","0.0-15.0-3.9","54928","List1B","white","man","","","","","{""Q0"":""jane""}","<img src=""stim_listB/shout8.gif""style=""height:400px;""></stim_listB>","is being shouted at by","","","","","",""
"null","<div style=""font-size:60px;"">+</div>","","html-keyboard-response","168","1623626","0.0-15.0-0.10","54928","List1B","white","man","","","","null","","","","","","","","",""
"null","<img src=""stim_listB/hug3.gif""style=""height:400px;""></stim_listB>","","html-keyboard-response","169","1625644","0.0-15.0-1.10","54928","List1B","white","man","","","","null","","","","","","","","",""
"null","is hugging","","html-keyboard-response","170","1627646","0.0-15.0-2.10","54928","List1B","white","man","","","","null","","","","","","","","",""
"8052.700000000186","","","survey-text","171","1635703","0.0-15.0-3.10","54928","List1B","white","man","","","","","{""Q0"":""luke""}","<img src=""stim_listB/hug3.gif""style=""height:400px;""></stim_listB>","is hugging","","","","","",""
"null","<div style=""font-size:60px;"">+</div>","","html-keyboard-response","172","1636205","0.0-15.0-0.11","54928","List1B","white","man","","","","null","","","","","","","","",""
"null","<img src=""stim_listB/touch3.gif""style=""height:400px;""></stim_listB>","","html-keyboard-response","173","1638224","0.0-15.0-1.11","54928","List1B","white","man","","","","null","","","","","","","","",""
"null","is touching","","html-keyboard-response","174","1640227","0.0-15.0-2.11","54928","List1B","white","man","","","","null","","","","","","","","",""
"5952.200000000186","","","survey-text","175","1646183","0.0-15.0-3.11","54928","List1B","white","man","","","","","{""Q0"":""dave""}","<img src=""stim_listB/touch3.gif""style=""height:400px;""></stim_listB>","is touching","","","","","",""
"null","<div style=""font-size:60px;"">+</div>","","html-keyboard-response","176","1646694","0.0-15.0-0.12","54928","List1B","white","man","","","","null","","","","","","","","",""
"null","<img src=""stim_listB/oppose2.gif""style=""height:400px;""></stim_listB>","","html-keyboard-response","177","1648705","0.0-15.0-1.12","54928","List1B","white","man","","","","null","","","","","","","","",""
"null","is being opposed by","","html-keyboard-response","178","1650712","0.0-15.0-2.12","54928","List1B","white","man","","","","null","","","","","","","","",""
"9459.200000000186","","","survey-text","179","1660175","0.0-15.0-3.12","54928","List1B","white","man","","","","","{""Q0"":""kate""}","<img src=""stim_listB/oppose2.gif""style=""height:400px;""></stim_listB>","is being opposed by","","","","","",""
"null","<div style=""font-size:60px;"">+</div>","","html-keyboard-response","180","1660678","0.0-15.0-0.13","54928","List1B","white","man","","","","null","","","","","","","","",""
"null","<img src=""stim_listB/seduce7.gif""style=""height:400px;""></stim_listB>","","html-keyboard-response","181","1662683","0.0-15.0-1.13","54928","List1B","white","man","","","","null","","","","","","","","",""
"null","is seducing","","html-keyboard-response","182","1664696","0.0-15.0-2.13","54928","List1B","white","man","","","","null","","","","","","","","",""
"19826.89999999944","","","survey-text","183","1684527","0.0-15.0-3.13","54928","List1B","white","man","","","","","{""Q0"":""beth""}","<img src=""stim_listB/seduce7.gif""style=""height:400px;""></stim_listB>","is seducing","","","","","",""
"null","<div style=""font-size:60px;"">+</div>","","html-keyboard-response","184","1685028","0.0-15.0-0.14","54928","List1B","white","man","","","","null","","","","","","","","",""
"null","<img src=""stim_listB/seduce5.gif""style=""height:400px;""></stim_listB>","","html-keyboard-response","185","1687046","0.0-15.0-1.14","54928","List1B","white","man","","","","null","","","","","","","","",""
"null","is seducing","","html-keyboard-response","186","1689058","0.0-15.0-2.14","54928","List1B","white","man","","","","null","","","","","","","","",""
"6356.5","","","survey-text","187","1695419","0.0-15.0-3.14","54928","List1B","white","man","","","","","{""Q0"":""fred""}","<img src=""stim_listB/seduce5.gif""style=""height:400px;""></stim_listB>","is seducing","","","","","",""
"null","<div style=""font-size:60px;"">+</div>","","html-keyboard-response","188","1695920","0.0-15.0-0.15","54928","List1B","white","man","","","","null","","","","","","","","",""
"null","<img src=""stim_listB/seduce2.gif""style=""height:400px;""></stim_listB>","","html-keyboard-response","189","1697938","0.0-15.0-1.15","54928","List1B","white","man","","","","null","","","","","","","","",""
"null","is being seduced by","","html-keyboard-response","190","1699940","0.0-15.0-2.15","54928","List1B","white","man","","","","null","","","","","","","","",""
"6418.300000000745","","","survey-text","191","1706363","0.0-15.0-3.15","54928","List1B","white","man","","","","","{""Q0"":""beth""}","<img src=""stim_listB/seduce2.gif""style=""height:400px;""></stim_listB>","is being seduced by","","","","","",""
"null","<div style=""font-size:60px;"">+</div>","","html-keyboard-response","192","1706864","0.0-15.0-0.16","54928","List1B","white","man","","","","null","","","","","","","","",""
"null","<img src=""stim_listB/copy6.gif""style=""height:400px;""></stim_listB>","","html-keyboard-response","193","1708878","0.0-15.0-1.16","54928","List1B","white","man","","","","null","","","","","","","","",""
"null","is being copied by","","html-keyboard-response","194","1710880","0.0-15.0-2.16","54928","List1B","white","man","","","","null","","","","","","","","",""
"11047.099999999627","","","survey-text","195","1721931","0.0-15.0-3.16","54928","List1B","white","man","","","","","{""Q0"":""dave coping fred""}","<img src=""stim_listB/copy6.gif""style=""height:400px;""></stim_listB>","is being copied by","","","","","",""
"null","<div style=""font-size:60px;"">+</div>","","html-keyboard-response","196","1722441","0.0-15.0-0.17","54928","List1B","white","man","","","","null","","","","","","","","",""
"null","<img src=""stim_listB/touch5.gif""style=""height:400px;""></stim_listB>","","html-keyboard-response","197","1724460","0.0-15.0-1.17","54928","List1B","white","man","","","","null","","","","","","","","",""
"null","is touching","","html-keyboard-response","198","1726461","0.0-15.0-2.17","54928","List1B","white","man","","","","null","","","","","","","","",""
"9793","","","survey-text","199","1736259","0.0-15.0-3.17","54928","List1B","white","man","","","","","{""Q0"":""fred""}","<img src=""stim_listB/touch5.gif""style=""height:400px;""></stim_listB>","is touching","","","","","",""
"null","<div style=""font-size:60px;"">+</div>","","html-keyboard-response","200","1736760","0.0-15.0-0.18","54928","List1B","white","man","","","","null","","","","","","","","",""
"null","<img src=""stim_listB/greet5.gif""style=""height:400px;""></stim_listB>","","html-keyboard-response","201","1738776","0.0-15.0-1.18","54928","List1B","white","man","","","","null","","","","","","","","",""
"null","is greeting","","html-keyboard-response","202","1740791","0.0-15.0-2.18","54928","List1B","white","man","","","","null","","","","","","","","",""
"13954.5","","","survey-text","203","1754750","0.0-15.0-3.18","54928","List1B","white","man","","","","","{""Q0"":""luke is greeting fred""}","<img src=""stim_listB/greet5.gif""style=""height:400px;""></stim_listB>","is greeting","","","","","",""
"null","<div style=""font-size:60px;"">+</div>","","html-keyboard-response","204","1755251","0.0-15.0-0.19","54928","List1B","white","man","","","","null","","","","","","","","",""
"null","<img src=""stim_listB/kiss5.gif""style=""height:400px;""></stim_listB>","","html-keyboard-response","205","1757269","0.0-15.0-1.19","54928","List1B","white","man","","","","null","","","","","","","","",""
"null","is kissing","","html-keyboard-response","206","1759276","0.0-15.0-2.19","54928","List1B","white","man","","","","null","","","","","","","","",""
"14117.599999999627","","","survey-text","207","1773398","0.0-15.0-3.19","54928","List1B","white","man","","","","","{""Q0"":""dave""}","<img src=""stim_listB/kiss5.gif""style=""height:400px;""></stim_listB>","is kissing","","","","","",""
"30910.200000000186","<img src='img/portrait_matrix_list1.jpg' style='width:900px;height:500px;''></img><p>If you have memorised all the portraits and names and are ready to start, press Continue.</p><p><strong>Please note: Your memory of these faces will be tested 4 times during this experiment.</strong></p>","0","html-button-response","208","1804310","0.0-16.0-0.0","54928","List1B","white","man","","","","","","","","","","","","",""
"7652.9000000003725","<img src=""portrait/WM2.jpg""style=""height:400px;""></img>","7","html-button-response","209","1812966","0.0-16.0-1.0","54928","List1B","white","man","","true","7","","","","","","","","","",""
"null","CORRECT","","html-keyboard-response","210","1814473","0.0-16.0-2.0-0.0","54928","List1B","white","man","","","","null","","","","","","","","",""
"2450.2999999998137","<img src=""portrait/BM2.jpg""style=""height:400px;""></img>","5","html-button-response","211","1816926","0.0-16.0-4.0","54928","List1B","white","man","","true","5","","","","","","","","","",""
"null","CORRECT","","html-keyboard-response","212","1818439","0.0-16.0-5.0-0.0","54928","List1B","white","man","","","","null","","","","","","","","",""
"6620.0999999996275","<img src=""portrait/WW1.jpg""style=""height:400px;""></img>","1","html-button-response","213","1825062","0.0-16.0-7.0","54928","List1B","white","man","","true","1","","","","","","","","","",""
"null","CORRECT","","html-keyboard-response","214","1826568","0.0-16.0-8.0-0.0","54928","List1B","white","man","","","","null","","","","","","","","",""
"3975","<img src=""portrait/BW2.jpg""style=""height:400px;""></img>","2","html-button-response","215","1830546","0.0-16.0-10.0","54928","List1B","white","man","","true","2","","","","","","","","","",""
"null","CORRECT","","html-keyboard-response","216","1832049","0.0-16.0-11.0-0.0","54928","List1B","white","man","","","","null","","","","","","","","",""
"4778.200000000186","<img src=""portrait/WW2.jpg""style=""height:400px;""></img>","3","html-button-response","217","1836830","0.0-16.0-13.0","54928","List1B","white","man","","true","3","","","","","","","","","",""
"null","CORRECT","","html-keyboard-response","218","1838338","0.0-16.0-14.0-0.0","54928","List1B","white","man","","","","null","","","","","","","","",""
"2412.9000000003725","<img src=""portrait/BM1.jpg""style=""height:400px;""></img>","4","html-button-response","219","1840753","0.0-16.0-16.0","54928","List1B","white","man","","true","4","","","","","","","","","",""
"null","CORRECT","","html-keyboard-response","220","1842257","0.0-16.0-17.0-0.0","54928","List1B","white","man","","","","null","","","","","","","","",""
"5613.300000000745","<img src=""portrait/BW1.jpg""style=""height:400px;""></img>","0","html-button-response","221","1847873","0.0-16.0-19.0","54928","List1B","white","man","","true","0","","","","","","","","","",""
"null","CORRECT","","html-keyboard-response","222","1849391","0.0-16.0-20.0-0.0","54928","List1B","white","man","","","","null","","","","","","","","",""
"4567.299999999814","<img src=""portrait/WM1.jpg""style=""height:400px;""></img>","6","html-button-response","223","1853961","0.0-16.0-22.0","54928","List1B","white","man","","true","6","","","","","","","","","",""
"null","CORRECT","","html-keyboard-response","224","1855465","0.0-16.0-23.0-0.0","54928","List1B","white","man","","","","null","","","","","","","","",""
"2125","<p>You got 8 out of 8 right first time. Press Continue.</p>","0","html-button-response","225","1857593","0.0-16.0-25.0","54928","List1B","white","man","","","","","","","","","","","","",""
"null","<div style=""font-size:60px;"">+</div>","","html-keyboard-response","226","1859104","0.0-17.0-0.0","54928","List1B","white","man","","","","null","","","","","","","","",""
"null","<img src=""stim_listB/touch4.gif""style=""height:400px;""></stim_listB>","","html-keyboard-response","227","1861111","0.0-17.0-1.0","54928","List1B","white","man","","","","null","","","","","","","","",""
"null","is being touched by","","html-keyboard-response","228","1863114","0.0-17.0-2.0","54928","List1B","white","man","","","","null","","","","","","","","",""
"19994.60000000056","","","survey-text","229","1883114","0.0-17.0-3.0","54928","List1B","white","man","","","","","{""Q0"":""luke is touching ruth""}","<img src=""stim_listB/touch4.gif""style=""height:400px;""></stim_listB>","is being touched by","","","","","",""
"null","<div style=""font-size:60px;"">+</div>","","html-keyboard-response","230","1883624","0.0-17.0-0.1","54928","List1B","white","man","","","","null","","","","","","","","",""
"null","<img src=""stim_listB/challenge7.gif""style=""height:400px;""></stim_listB>","","html-keyboard-response","231","1885633","0.0-17.0-1.1","54928","List1B","white","man","","","","null","","","","","","","","",""
"null","is challenging","","html-keyboard-response","232","1887639","0.0-17.0-2.1","54928","List1B","white","man","","","","null","","","","","","","","",""
"22396.799999999814","","","survey-text","233","1910041","0.0-17.0-3.1","54928","List1B","white","man","","","","","{""Q0"":""ruth is challenging kate""}","<img src=""stim_listB/challenge7.gif""style=""height:400px;""></stim_listB>","is challenging","","","","","",""
"null","<div style=""font-size:60px;"">+</div>","","html-keyboard-response","234","1910556","0.0-17.0-0.2","54928","List1B","white","man","","","","null","","","","","","","","",""
"null","<img src=""stim_listB/look6.gif""style=""height:400px;""></stim_listB>","","html-keyboard-response","235","1912573","0.0-17.0-1.2","54928","List1B","white","man","","","","null","","","","","","","","",""
"null","is being looked at by","","html-keyboard-response","236","1914589","0.0-17.0-2.2","54928","List1B","white","man","","","","null","","","","","","","","",""
"13739.299999999814","","","survey-text","237","1928332","0.0-17.0-3.2","54928","List1B","white","man","","","","","{""Q0"":""fred is looking at dave""}","<img src=""stim_listB/look6.gif""style=""height:400px;""></stim_listB>","is being looked at by","","","","","",""
"null","<div style=""font-size:60px;"">+</div>","","html-keyboard-response","238","1928838","0.0-17.0-0.3","54928","List1B","white","man","","","","null","","","","","","","","",""
"null","<img src=""stim_listB/oppose6.gif""style=""height:400px;""></stim_listB>","","html-keyboard-response","239","1930851","0.0-17.0-1.3","54928","List1B","white","man","","","","null","","","","","","","","",""
"null","is being opposed by","","html-keyboard-response","240","1932865","0.0-17.0-2.3","54928","List1B","white","man","","","","null","","","","","","","","",""
"6150.9000000003725","","","survey-text","241","1939020","0.0-17.0-3.3","54928","List1B","white","man","","","","","{""Q0"":""luke""}","<img src=""stim_listB/oppose6.gif""style=""height:400px;""></stim_listB>","is being opposed by","","","","","",""
"null","<div style=""font-size:60px;"">+</div>","","html-keyboard-response","242","1939522","0.0-17.0-0.4","54928","List1B","white","man","","","","null","","","","","","","","",""
"null","<img src=""stim_listB/challenge1.gif""style=""height:400px;""></stim_listB>","","html-keyboard-response","243","1941525","0.0-17.0-1.4","54928","List1B","white","man","","","","null","","","","","","","","",""
"null","is challenging","","html-keyboard-response","244","1943527","0.0-17.0-2.4","54928","List1B","white","man","","","","null","","","","","","","","",""
"9521.099999999627","","","survey-text","245","1953052","0.0-17.0-3.4","54928","List1B","white","man","","","","","{""Q0"":""kate""}","<img src=""stim_listB/challenge1.gif""style=""height:400px;""></stim_listB>","is challenging","","","","","",""
"null","<div style=""font-size:60px;"">+</div>","","html-keyboard-response","246","1953562","0.0-17.0-0.5","54928","List1B","white","man","","","","null","","","","","","","","",""
"null","<img src=""stim_listB/look8.gif""style=""height:400px;""></stim_listB>","","html-keyboard-response","247","1955572","0.0-17.0-1.5","54928","List1B","white","man","","","","null","","","","","","","","",""
"null","is being looked at by","","html-keyboard-response","248","1957574","0.0-17.0-2.5","54928","List1B","white","man","","","","null","","","","","","","","",""
"18546","","","survey-text","249","1976124","0.0-17.0-3.5","54928","List1B","white","man","","","","","{""Q0"":""jane is looking kate""}","<img src=""stim_listB/look8.gif""style=""height:400px;""></stim_listB>","is being looked at by","","","","","",""
"null","<div style=""font-size:60px;"">+</div>","","html-keyboard-response","250","1976629","0.0-17.0-0.6","54928","List1B","white","man","","","","null","","","","","","","","",""
"null","<img src=""stim_listB/touch2.gif""style=""height:400px;""></stim_listB>","","html-keyboard-response","251","1978636","0.0-17.0-1.6","54928","List1B","white","man","","","","null","","","","","","","","",""
"null","is being touched by","","html-keyboard-response","252","1980650","0.0-17.0-2.6","54928","List1B","white","man","","","","null","","","","","","","","",""
"18953.400000000373","","","survey-text","253","1999607","0.0-17.0-3.6","54928","List1B","white","man","","","","","{""Q0"":""fred is touching beth""}","<img src=""stim_listB/touch2.gif""style=""height:400px;""></stim_listB>","is being touched by","","","","","",""
"null","<div style=""font-size:60px;"">+</div>","","html-keyboard-response","254","2000109","0.0-17.0-0.7","54928","List1B","white","man","","","","null","","","","","","","","",""
"null","<img src=""stim_listB/oppose3.gif""style=""height:400px;""></stim_listB>","","html-keyboard-response","255","2002121","0.0-17.0-1.7","54928","List1B","white","man","","","","null","","","","","","","","",""
"null","is opposing","","html-keyboard-response","256","2004137","0.0-17.0-2.7","54928","List1B","white","man","","","","null","","","","","","","","",""
"14626.099999999627","","","survey-text","257","2018768","0.0-17.0-3.7","54928","List1B","white","man","","","","","{""Q0"":""jane is opposing dave""}","<img src=""stim_listB/oppose3.gif""style=""height:400px;""></stim_listB>","is opposing","","","","","",""
"null","<div style=""font-size:60px;"">+</div>","","html-keyboard-response","258","2019270","0.0-17.0-0.8","54928","List1B","white","man","","","","null","","","","","","","","",""
"null","<img src=""stim_listB/shout4.gif""style=""height:400px;""></stim_listB>","","html-keyboard-response","259","2021287","0.0-17.0-1.8","54928","List1B","white","man","","","","null","","","","","","","","",""
"null","is being shouted at by","","html-keyboard-response","260","2023291","0.0-17.0-2.8","54928","List1B","white","man","","","","null","","","","","","","","",""
"10175.899999999441","","","survey-text","261","2033471","0.0-17.0-3.8","54928","List1B","white","man","","","","","{""Q0"":""jane""}","<img src=""stim_listB/shout4.gif""style=""height:400px;""></stim_listB>","is being shouted at by","","","","","",""
"null","<div style=""font-size:60px;"">+</div>","","html-keyboard-response","262","2033977","0.0-17.0-0.9","54928","List1B","white","man","","","","null","","","","","","","","",""
"null","<img src=""stim_listB/greet1.gif""style=""height:400px;""></stim_listB>","","html-keyboard-response","263","2035981","0.0-17.0-1.9","54928","List1B","white","man","","","","null","","","","","","","","",""
"null","is greeting","","html-keyboard-response","264","2037997","0.0-17.0-2.9","54928","List1B","white","man","","","","null","","","","","","","","",""
"8452.900000000373","","","survey-text","265","2046455","0.0-17.0-3.9","54928","List1B","white","man","","","","","{""Q0"":""mike ""}","<img src=""stim_listB/greet1.gif""style=""height:400px;""></stim_listB>","is greeting","","","","","",""
"null","<div style=""font-size:60px;"">+</div>","","html-keyboard-response","266","2046957","0.0-17.0-0.10","54928","List1B","white","man","","","","null","","","","","","","","",""
"null","<img src=""stim_listB/challenge5.gif""style=""height:400px;""></stim_listB>","","html-keyboard-response","267","2048971","0.0-17.0-1.10","54928","List1B","white","man","","","","null","","","","","","","","",""
"null","is challenging","","html-keyboard-response","268","2050984","0.0-17.0-2.10","54928","List1B","white","man","","","","null","","","","","","","","",""
"22935.099999999627","","","survey-text","269","2073923","0.0-17.0-3.10","54928","List1B","white","man","","","","","{""Q0"":""luke is challenging mike""}","<img src=""stim_listB/challenge5.gif""style=""height:400px;""></stim_listB>","is challenging","","","","","",""
"null","<div style=""font-size:60px;"">+</div>","","html-keyboard-response","270","2074430","0.0-17.0-0.11","54928","List1B","white","man","","","","null","","","","","","","","",""
"null","<img src=""stim_listB/hug7.gif""style=""height:400px;""></stim_listB>","","html-keyboard-response","271","2076445","0.0-17.0-1.11","54928","List1B","white","man","","","","null","","","","","","","","",""
"null","is hugging","","html-keyboard-response","272","2078461","0.0-17.0-2.11","54928","List1B","white","man","","","","null","","","","","","","","",""
"17360.799999999814","","","survey-text","273","2095826","0.0-17.0-3.11","54928","List1B","white","man","","","","","{""Q0"":""ruth is hugging beth""}","<img src=""stim_listB/hug7.gif""style=""height:400px;""></stim_listB>","is hugging","","","","","",""
"null","<div style=""font-size:60px;"">+</div>","","html-keyboard-response","274","2096341","0.0-17.0-0.12","54928","List1B","white","man","","","","null","","","","","","","","",""
"null","<img src=""stim_listB/kiss6.gif""style=""height:400px;""></stim_listB>","","html-keyboard-response","275","2098359","0.0-17.0-1.12","54928","List1B","white","man","","","","null","","","","","","","","",""
"null","is being kissed by","","html-keyboard-response","276","2100365","0.0-17.0-2.12","54928","List1B","white","man","","","","null","","","","","","","","",""
"14360.599999999627","","","survey-text","277","2114730","0.0-17.0-3.12","54928","List1B","white","man","","","","","{""Q0"":""dave is kissing mike""}","<img src=""stim_listB/kiss6.gif""style=""height:400px;""></stim_listB>","is being kissed by","","","","","",""
"null","<div style=""font-size:60px;"">+</div>","","html-keyboard-response","278","2115232","0.0-17.0-0.13","54928","List1B","white","man","","","","null","","","","","","","","",""
"null","<img src=""stim_listB/oppose5.gif""style=""height:400px;""></stim_listB>","","html-keyboard-response","279","2117250","0.0-17.0-1.13","54928","List1B","white","man","","","","null","","","","","","","","",""
"null","is opposing","","html-keyboard-response","280","2119261","0.0-17.0-2.13","54928","List1B","white","man","","","","null","","","","","","","","",""
"19980.700000000186","","","survey-text","281","2139246","0.0-17.0-3.13","54928","List1B","white","man","","","","","{""Q0"":""dave is opposing mike""}","<img src=""stim_listB/oppose5.gif""style=""height:400px;""></stim_listB>","is opposing","","","","","",""
"null","<div style=""font-size:60px;"">+</div>","","html-keyboard-response","282","2139747","0.0-17.0-0.14","54928","List1B","white","man","","","","null","","","","","","","","",""
"null","<img src=""stim_listB/greet6.gif""style=""height:400px;""></stim_listB>","","html-keyboard-response","283","2141765","0.0-17.0-1.14","54928","List1B","white","man","","","","null","","","","","","","","",""
"null","is being greeted by","","html-keyboard-response","284","2143778","0.0-17.0-2.14","54928","List1B","white","man","","","","null","","","","","","","","",""
"9935","","","survey-text","285","2153718","0.0-17.0-3.14","54928","List1B","white","man","","","","","{""Q0"":""dave is greeting fred""}","<img src=""stim_listB/greet6.gif""style=""height:400px;""></stim_listB>","is being greeted by","","","","","",""
"null","<div style=""font-size:60px;"">+</div>","","html-keyboard-response","286","2154219","0.0-17.0-0.15","54928","List1B","white","man","","","","null","","","","","","","","",""
"null","<img src=""stim_listB/look7.gif""style=""height:400px;""></stim_listB>","","html-keyboard-response","287","2156236","0.0-17.0-1.15","54928","List1B","white","man","","","","null","","","","","","","","",""
"null","is looking at","","html-keyboard-response","288","2158252","0.0-17.0-2.15","54928","List1B","white","man","","","","null","","","","","","","","",""
"18861.400000000373","","","survey-text","289","2177117","0.0-17.0-3.15","54928","List1B","white","man","","","","","{""Q0"":""ruth ""}","<img src=""stim_listB/look7.gif""style=""height:400px;""></stim_listB>","is looking at","","","","","",""
"null","<div style=""font-size:60px;"">+</div>","","html-keyboard-response","290","2177619","0.0-17.0-0.16","54928","List1B","white","man","","","","null","","","","","","","","",""
"null","<img src=""stim_listB/touch6.gif""style=""height:400px;""></stim_listB>","","html-keyboard-response","291","2179633","0.0-17.0-1.16","54928","List1B","white","man","","","","null","","","","","","","","",""
"null","is being touched by","","html-keyboard-response","292","2181635","0.0-17.0-2.16","54928","List1B","white","man","","","","null","","","","","","","","",""
"5862.299999999814","","","survey-text","293","2187501","0.0-17.0-3.16","54928","List1B","white","man","","","","","{""Q0"":""luke""}","<img src=""stim_listB/touch6.gif""style=""height:400px;""></stim_listB>","is being touched by","","","","","",""
"null","<div style=""font-size:60px;"">+</div>","","html-keyboard-response","294","2188003","0.0-17.0-0.17","54928","List1B","white","man","","","","null","","","","","","","","",""
"null","<img src=""stim_listB/look1.gif""style=""height:400px;""></stim_listB>","","html-keyboard-response","295","2190022","0.0-17.0-1.17","54928","List1B","white","man","","","","null","","","","","","","","",""
"null","is looking at","","html-keyboard-response","296","2192037","0.0-17.0-2.17","54928","List1B","white","man","","","","null","","","","","","","","",""
"7524.100000000559","","","survey-text","297","2199565","0.0-17.0-3.17","54928","List1B","white","man","","","","","{""Q0"":""beth""}","<img src=""stim_listB/look1.gif""style=""height:400px;""></stim_listB>","is looking at","","","","","",""
"null","<div style=""font-size:60px;"">+</div>","","html-keyboard-response","298","2200071","0.0-17.0-0.18","54928","List1B","white","man","","","","null","","","","","","","","",""
"null","<img src=""stim_listB/challenge2.gif""style=""height:400px;""></stim_listB>","","html-keyboard-response","299","2202088","0.0-17.0-1.18","54928","List1B","white","man","","","","null","","","","","","","","",""
"null","is being challenged by","","html-keyboard-response","300","2204090","0.0-17.0-2.18","54928","List1B","white","man","","","","null","","","","","","","","",""
"6714.5","","","survey-text","301","2210808","0.0-17.0-3.18","54928","List1B","white","man","","","","","{""Q0"":""beth""}","<img src=""stim_listB/challenge2.gif""style=""height:400px;""></stim_listB>","is being challenged by","","","","","",""
"null","<div style=""font-size:60px;"">+</div>","","html-keyboard-response","302","2211310","0.0-17.0-0.19","54928","List1B","white","man","","","","null","","","","","","","","",""
"null","<img src=""stim_listB/copy5.gif""style=""height:400px;""></stim_listB>","","html-keyboard-response","303","2213316","0.0-17.0-1.19","54928","List1B","white","man","","","","null","","","","","","","","",""
"null","is copying","","html-keyboard-response","304","2215319","0.0-17.0-2.19","54928","List1B","white","man","","","","null","","","","","","","","",""
"7492.600000000559","","","survey-text","305","2222816","0.0-17.0-3.19","54928","List1B","white","man","","","","","{""Q0"":""luke""}","<img src=""stim_listB/copy5.gif""style=""height:400px;""></stim_listB>","is copying","","","","","",""
"7566.299999999814","<img src='img/portrait_matrix_list1.jpg' style='width:900px;height:500px;''></img><p>If you have memorised all the portraits and names and are ready to start, press Continue.</p><p><strong>Please note: Your memory of these faces will be tested 4 times during this experiment.</strong></p>","0","html-button-response","306","2230384","0.0-18.0-0.0","54928","List1B","white","man","","","","","","","","","","","","",""
"15908.200000000186","<img src=""portrait/WW1.jpg""style=""height:400px;""></img>","1","html-button-response","307","2247296","0.0-18.0-1.0","54928","List1B","white","man","","true","1","","","","","","","","","",""
"null","CORRECT","","html-keyboard-response","308","2248800","0.0-18.0-2.0-0.0","54928","List1B","white","man","","","","null","","","","","","","","",""
"6812.899999999441","<img src=""portrait/WM1.jpg""style=""height:400px;""></img>","6","html-button-response","309","2255617","0.0-18.0-4.0","54928","List1B","white","man","","true","6","","","","","","","","","",""
"null","CORRECT","","html-keyboard-response","310","2257129","0.0-18.0-5.0-0.0","54928","List1B","white","man","","","","null","","","","","","","","",""
"6508","<img src=""portrait/BM2.jpg""style=""height:400px;""></img>","5","html-button-response","311","2263640","0.0-18.0-7.0","54928","List1B","white","man","","true","5","","","","","","","","","",""
"null","CORRECT","","html-keyboard-response","312","2265168","0.0-18.0-8.0-0.0","54928","List1B","white","man","","","","null","","","","","","","","",""
"11513.400000000373","<img src=""portrait/WW2.jpg""style=""height:400px;""></img>","3","html-button-response","313","2276684","0.0-18.0-10.0","54928","List1B","white","man","","true","3","","","","","","","","","",""
"null","CORRECT","","html-keyboard-response","314","2278202","0.0-18.0-11.0-0.0","54928","List1B","white","man","","","","null","","","","","","","","",""
"2723.4000000003725","<img src=""portrait/BM1.jpg""style=""height:400px;""></img>","4","html-button-response","315","2280928","0.0-18.0-13.0","54928","List1B","white","man","","true","4","","","","","","","","","",""
"null","CORRECT","","html-keyboard-response","316","2282445","0.0-18.0-14.0-0.0","54928","List1B","white","man","","","","null","","","","","","","","",""
"4892.399999999441","<img src=""portrait/WM2.jpg""style=""height:400px;""></img>","7","html-button-response","317","2287340","0.0-18.0-16.0","54928","List1B","white","man","","true","7","","","","","","","","","",""
"null","CORRECT","","html-keyboard-response","318","2288842","0.0-18.0-17.0-0.0","54928","List1B","white","man","","","","null","","","","","","","","",""
"5343.200000000186","<img src=""portrait/BW2.jpg""style=""height:400px;""></img>","2","html-button-response","319","2294188","0.0-18.0-19.0","54928","List1B","white","man","","true","2","","","","","","","","","",""
"null","CORRECT","","html-keyboard-response","320","2295711","0.0-18.0-20.0-0.0","54928","List1B","white","man","","","","null","","","","","","","","",""
"5082.399999999441","<img src=""portrait/BW1.jpg""style=""height:400px;""></img>","0","html-button-response","321","2300796","0.0-18.0-22.0","54928","List1B","white","man","","true","0","","","","","","","","","",""
"null","CORRECT","","html-keyboard-response","322","2302298","0.0-18.0-23.0-0.0","54928","List1B","white","man","","","","null","","","","","","","","",""
"2478.7999999998137","<p>You got 8 out of 8 right first time. Press Continue.</p>","0","html-button-response","323","2304780","0.0-18.0-25.0","54928","List1B","white","man","","","","","","","","","","","","",""
"null","<div style=""font-size:60px;"">+</div>","","html-keyboard-response","324","2306295","0.0-19.0-0.0","54928","List1B","white","man","","","","null","","","","","","","","",""
"null","<img src=""stim_listB/oppose7.gif""style=""height:400px;""></stim_listB>","","html-keyboard-response","325","2308305","0.0-19.0-1.0","54928","List1B","white","man","","","","null","","","","","","","","",""
"null","is opposing","","html-keyboard-response","326","2310308","0.0-19.0-2.0","54928","List1B","white","man","","","","null","","","","","","","","",""
"47127.39999999944","","","survey-text","327","2357439","0.0-19.0-3.0","54928","List1B","white","man","","","","","{""Q0"":""jane""}","<img src=""stim_listB/oppose7.gif""style=""height:400px;""></stim_listB>","is opposing","","","","","",""
"null","<div style=""font-size:60px;"">+</div>","","html-keyboard-response","328","2357941","0.0-19.0-0.1","54928","List1B","white","man","","","","null","","","","","","","","",""
"null","<img src=""stim_listB/challenge8.gif""style=""height:400px;""></stim_listB>","","html-keyboard-response","329","2359950","0.0-19.0-1.1","54928","List1B","white","man","","","","null","","","","","","","","",""
"null","is being challenged by","","html-keyboard-response","330","2361956","0.0-19.0-2.1","54928","List1B","white","man","","","","null","","","","","","","","",""
"8150.700000000186","","","survey-text","331","2370111","0.0-19.0-3.1","54928","List1B","white","man","","","","","{""Q0"":""jane""}","<img src=""stim_listB/challenge8.gif""style=""height:400px;""></stim_listB>","is being challenged by","","","","","",""
"null","<div style=""font-size:60px;"">+</div>","","html-keyboard-response","332","2370613","0.0-19.0-0.2","54928","List1B","white","man","","","","null","","","","","","","","",""
"null","<img src=""stim_listB/shout1.gif""style=""height:400px;""></stim_listB>","","html-keyboard-response","333","2372631","0.0-19.0-1.2","54928","List1B","white","man","","","","null","","","","","","","","",""
"null","is shouting at","","html-keyboard-response","334","2374647","0.0-19.0-2.2","54928","List1B","white","man","","","","null","","","","","","","","",""
"11275.100000000559","","","survey-text","335","2385927","0.0-19.0-3.2","54928","List1B","white","man","","","","","{""Q0"":""beth""}","<img src=""stim_listB/shout1.gif""style=""height:400px;""></stim_listB>","is shouting at","","","","","",""
"null","<div style=""font-size:60px;"">+</div>","","html-keyboard-response","336","2386429","0.0-19.0-0.3","54928","List1B","white","man","","","","null","","","","","","","","",""
"null","<img src=""stim_listB/greet2.gif""style=""height:400px;""></stim_listB>","","html-keyboard-response","337","2388447","0.0-19.0-1.3","54928","List1B","white","man","","","","null","","","","","","","","",""
"null","is being greeted by","","html-keyboard-response","338","2390456","0.0-19.0-2.3","54928","List1B","white","man","","","","null","","","","","","","","",""
"8273.700000000186","","","survey-text","339","2398735","0.0-19.0-3.3","54928","List1B","white","man","","","","","{""Q0"":""kate""}","<img src=""stim_listB/greet2.gif""style=""height:400px;""></stim_listB>","is being greeted by","","","","","",""
"null","<div style=""font-size:60px;"">+</div>","","html-keyboard-response","340","2399237","0.0-19.0-0.4","54928","List1B","white","man","","","","null","","","","","","","","",""
"null","<img src=""stim_listB/look4.gif""style=""height:400px;""></stim_listB>","","html-keyboard-response","341","2401255","0.0-19.0-1.4","54928","List1B","white","man","","","","null","","","","","","","","",""
"null","is being looked at by","","html-keyboard-response","342","2403258","0.0-19.0-2.4","54928","List1B","white","man","","","","null","","","","","","","","",""
"5464","","","survey-text","343","2408726","0.0-19.0-3.4","54928","List1B","white","man","","","","","{""Q0"":""dave""}","<img src=""stim_listB/look4.gif""style=""height:400px;""></stim_listB>","is being looked at by","","","","","",""
"null","<div style=""font-size:60px;"">+</div>","","html-keyboard-response","344","2409228","0.0-19.0-0.5","54928","List1B","white","man","","","","null","","","","","","","","",""
"null","<img src=""stim_listB/kiss8.gif""style=""height:400px;""></stim_listB>","","html-keyboard-response","345","2411242","0.0-19.0-1.5","54928","List1B","white","man","","","","null","","","","","","","","",""
"null","is being kissed by","","html-keyboard-response","346","2413245","0.0-19.0-2.5","54928","List1B","white","man","","","","null","","","","","","","","",""
"4593.200000000186","","","survey-text","347","2417842","0.0-19.0-3.5","54928","List1B","white","man","","","","","{""Q0"":""kate""}","<img src=""stim_listB/kiss8.gif""style=""height:400px;""></stim_listB>","is being kissed by","","","","","",""
"null","<div style=""font-size:60px;"">+</div>","","html-keyboard-response","348","2418344","0.0-19.0-0.6","54928","List1B","white","man","","","","null","","","","","","","","",""
"null","<img src=""stim_listB/hug8.gif""style=""height:400px;""></stim_listB>","","html-keyboard-response","349","2420349","0.0-19.0-1.6","54928","List1B","white","man","","","","null","","","","","","","","",""
"null","is being hugged by","","html-keyboard-response","350","2422352","0.0-19.0-2.6","54928","List1B","white","man","","","","null","","","","","","","","",""
"4293.200000000186","","","survey-text","351","2426650","0.0-19.0-3.6","54928","List1B","white","man","","","","","{""Q0"":""jane""}","<img src=""stim_listB/hug8.gif""style=""height:400px;""></stim_listB>","is being hugged by","","","","","",""
"null","<div style=""font-size:60px;"">+</div>","","html-keyboard-response","352","2427167","0.0-19.0-0.7","54928","List1B","white","man","","","","null","","","","","","","","",""
"null","<img src=""stim_listB/seduce1.gif""style=""height:400px;""></stim_listB>","","html-keyboard-response","353","2429174","0.0-19.0-1.7","54928","List1B","white","man","","","","null","","","","","","","","",""
"null","is seducing","","html-keyboard-response","354","2431190","0.0-19.0-2.7","54928","List1B","white","man","","","","null","","","","","","","","",""
"5360","","","survey-text","355","2436554","0.0-19.0-3.7","54928","List1B","white","man","","","","","{""Q0"":""kate""}","<img src=""stim_listB/seduce1.gif""style=""height:400px;""></stim_listB>","is seducing","","","","","",""
"null","<div style=""font-size:60px;"">+</div>","","html-keyboard-response","356","2437056","0.0-19.0-0.8","54928","List1B","white","man","","","","null","","","","","","","","",""
"null","<img src=""stim_listB/kiss1.gif""style=""height:400px;""></stim_listB>","","html-keyboard-response","357","2439061","0.0-19.0-1.8","54928","List1B","white","man","","","","null","","","","","","","","",""
"null","is kissing","","html-keyboard-response","358","2441063","0.0-19.0-2.8","54928","List1B","white","man","","","","null","","","","","","","","",""
"2797.800000000745","","","survey-text","359","2443866","0.0-19.0-3.8","54928","List1B","white","man","","","","","{""Q0"":""fred""}","<img src=""stim_listB/kiss1.gif""style=""height:400px;""></stim_listB>","is kissing","","","","","",""
"null","<div style=""font-size:60px;"">+</div>","","html-keyboard-response","360","2444378","0.0-19.0-0.9","54928","List1B","white","man","","","","null","","","","","","","","",""
"null","<img src=""stim_listB/touch8.gif""style=""height:400px;""></stim_listB>","","html-keyboard-response","361","2446383","0.0-19.0-1.9","54928","List1B","white","man","","","","null","","","","","","","","",""
"null","is being touched by","","html-keyboard-response","362","2448385","0.0-19.0-2.9","54928","List1B","white","man","","","","null","","","","","","","","",""
"6892.600000000559","","","survey-text","363","2455282","0.0-19.0-3.9","54928","List1B","white","man","","","","","{""Q0"":""ruth""}","<img src=""stim_listB/touch8.gif""style=""height:400px;""></stim_listB>","is being touched by","","","","","",""
"null","<div style=""font-size:60px;"">+</div>","","html-keyboard-response","364","2455794","0.0-19.0-0.10","54928","List1B","white","man","","","","null","","","","","","","","",""
"null","<img src=""stim_listB/challenge6.gif""style=""height:400px;""></stim_listB>","","html-keyboard-response","365","2457804","0.0-19.0-1.10","54928","List1B","white","man","","","","null","","","","","","","","",""
"null","is being challenged by","","html-keyboard-response","366","2459820","0.0-19.0-2.10","54928","List1B","white","man","","","","null","","","","","","","","",""
"5313.200000000186","","","survey-text","367","2465138","0.0-19.0-3.10","54928","List1B","white","man","","","","","{""Q0"":""dave""}","<img src=""stim_listB/challenge6.gif""style=""height:400px;""></stim_listB>","is being challenged by","","","","","",""
"null","<div style=""font-size:60px;"">+</div>","","html-keyboard-response","368","2465640","0.0-19.0-0.11","54928","List1B","white","man","","","","null","","","","","","","","",""
"null","<img src=""stim_listB/hug1.gif""style=""height:400px;""></stim_listB>","","html-keyboard-response","369","2467648","0.0-19.0-1.11","54928","List1B","white","man","","","","null","","","","","","","","",""
"null","is hugging","","html-keyboard-response","370","2469652","0.0-19.0-2.11","54928","List1B","white","man","","","","null","","","","","","","","",""
"5945.9000000003725","","","survey-text","371","2475602","0.0-19.0-3.11","54928","List1B","white","man","","","","","{""Q0"":""fred""}","<img src=""stim_listB/hug1.gif""style=""height:400px;""></stim_listB>","is hugging","","","","","",""
"null","<div style=""font-size:60px;"">+</div>","","html-keyboard-response","372","2476103","0.0-19.0-0.12","54928","List1B","white","man","","","","null","","","","","","","","",""
"null","<img src=""stim_listB/copy2.gif""style=""height:400px;""></stim_listB>","","html-keyboard-response","373","2478120","0.0-19.0-1.12","54928","List1B","white","man","","","","null","","","","","","","","",""
"null","is being copied by","","html-keyboard-response","374","2480136","0.0-19.0-2.12","54928","List1B","white","man","","","","null","","","","","","","","",""
"3756.7999999998137","","","survey-text","375","2483898","0.0-19.0-3.12","54928","List1B","white","man","","","","","{""Q0"":""fred""}","<img src=""stim_listB/copy2.gif""style=""height:400px;""></stim_listB>","is being copied by","","","","","",""
"null","<div style=""font-size:60px;"">+</div>","","html-keyboard-response","376","2484410","0.0-19.0-0.13","54928","List1B","white","man","","","","null","","","","","","","","",""
"null","<img src=""stim_listB/shout5.gif""style=""height:400px;""></stim_listB>","","html-keyboard-response","377","2486427","0.0-19.0-1.13","54928","List1B","white","man","","","","null","","","","","","","","",""
"null","is shouting at","","html-keyboard-response","378","2488429","0.0-19.0-2.13","54928","List1B","white","man","","","","null","","","","","","","","",""
"4847.699999999255","","","survey-text","379","2493282","0.0-19.0-3.13","54928","List1B","white","man","","","","","{""Q0"":""luke""}","<img src=""stim_listB/shout5.gif""style=""height:400px;""></stim_listB>","is shouting at","","","","","",""
"null","<div style=""font-size:60px;"">+</div>","","html-keyboard-response","380","2493783","0.0-19.0-0.14","54928","List1B","white","man","","","","null","","","","","","","","",""
"null","<img src=""stim_listB/kiss7.gif""style=""height:400px;""></stim_listB>","","html-keyboard-response","381","2495800","0.0-19.0-1.14","54928","List1B","white","man","","","","null","","","","","","","","",""
"null","is kissing","","html-keyboard-response","382","2497803","0.0-19.0-2.14","54928","List1B","white","man","","","","null","","","","","","","","",""
"3207.100000000559","","","survey-text","383","2501016","0.0-19.0-3.14","54928","List1B","white","man","","","","","{""Q0"":""ruth""}","<img src=""stim_listB/kiss7.gif""style=""height:400px;""></stim_listB>","is kissing","","","","","",""
"null","<div style=""font-size:60px;"">+</div>","","html-keyboard-response","384","2501518","0.0-19.0-0.15","54928","List1B","white","man","","","","null","","","","","","","","",""
"null","<img src=""stim_listB/oppose4.gif""style=""height:400px;""></stim_listB>","","html-keyboard-response","385","2503523","0.0-19.0-1.15","54928","List1B","white","man","","","","null","","","","","","","","",""
"null","is being opposed by","","html-keyboard-response","386","2505526","0.0-19.0-2.15","54928","List1B","white","man","","","","null","","","","","","","","",""
"10842.100000000559","","","survey-text","387","2516372","0.0-19.0-3.15","54928","List1B","white","man","","","","","{""Q0"":""luke""}","<img src=""stim_listB/oppose4.gif""style=""height:400px;""></stim_listB>","is being opposed by","","","","","",""
"null","<div style=""font-size:60px;"">+</div>","","html-keyboard-response","388","2516877","0.0-19.0-0.16","54928","List1B","white","man","","","","null","","","","","","","","",""
"null","<img src=""stim_listB/oppose8.gif""style=""height:400px;""></stim_listB>","","html-keyboard-response","389","2518885","0.0-19.0-1.16","54928","List1B","white","man","","","","null","","","","","","","","",""
"null","is being opposed by","","html-keyboard-response","390","2520901","0.0-19.0-2.16","54928","List1B","white","man","","","","null","","","","","","","","",""
"3937","","","survey-text","391","2524852","0.0-19.0-3.16","54928","List1B","white","man","","","","","{""Q0"":""beth""}","<img src=""stim_listB/oppose8.gif""style=""height:400px;""></stim_listB>","is being opposed by","","","","","",""
"null","<div style=""font-size:60px;"">+</div>","","html-keyboard-response","392","2525354","0.0-19.0-0.17","54928","List1B","white","man","","","","null","","","","","","","","",""
"null","<img src=""stim_listB/look5.gif""style=""height:400px;""></stim_listB>","","html-keyboard-response","393","2527358","0.0-19.0-1.17","54928","List1B","white","man","","","","null","","","","","","","","",""
"null","is looking at","","html-keyboard-response","394","2529361","0.0-19.0-2.17","54928","List1B","white","man","","","","null","","","","","","","","",""
"6551.0999999996275","","","survey-text","395","2535916","0.0-19.0-3.17","54928","List1B","white","man","","","","","{""Q0"":""luke""}","<img src=""stim_listB/look5.gif""style=""height:400px;""></stim_listB>","is looking at","","","","","",""
"null","<div style=""font-size:60px;"">+</div>","","html-keyboard-response","396","2536421","0.0-19.0-0.18","54928","List1B","white","man","","","","null","","","","","","","","",""
"null","<img src=""stim_listB/copy4.gif""style=""height:400px;""></stim_listB>","","html-keyboard-response","397","2538426","0.0-19.0-1.18","54928","List1B","white","man","","","","null","","","","","","","","",""
"null","is being copied by","","html-keyboard-response","398","2540434","0.0-19.0-2.18","54928","List1B","white","man","","","","null","","","","","","","","",""
"5253.299999999814","","","survey-text","399","2545692","0.0-19.0-3.18","54928","List1B","white","man","","","","","{""Q0"":""jane""}","<img src=""stim_listB/copy4.gif""style=""height:400px;""></stim_listB>","is being copied by","","","","","",""
"null","<div style=""font-size:60px;"">+</div>","","html-keyboard-response","400","2546193","0.0-19.0-0.19","54928","List1B","white","man","","","","null","","","","","","","","",""
"null","<img src=""stim_listB/shout7.gif""style=""height:400px;""></stim_listB>","","html-keyboard-response","401","2548198","0.0-19.0-1.19","54928","List1B","white","man","","","","null","","","","","","","","",""
"null","is shouting at","","html-keyboard-response","402","2550200","0.0-19.0-2.19","54928","List1B","white","man","","","","null","","","","","","","","",""
"5695.0999999996275","","","survey-text","403","2555900","0.0-19.0-3.19","54928","List1B","white","man","","","","","{""Q0"":""ruth""}","<img src=""stim_listB/shout7.gif""style=""height:400px;""></stim_listB>","is shouting at","","","","","",""
"9142.700000000186","<p>Thank you for completing that task.</p><p>The final part of this session is a questionnaire that will take about 4 minutes.</p><p>Press Continue.</p>","0","html-button-response","404","2565044","0.0-20.0","54928","List1B","white","man","","","","","","","","","","","","",""
"71390.70000000019","","","survey-text","405","2637455","0.0-21.0","54928","List1B","white","man","","","","","{""Q0"":""41"",""Q1"":""english"",""Q2"":""english"",""Q3"":""american"",""Q4"":""american"",""Q5"":""white"",""Q6"":""male""}","","","demographics","","","","",""
"9864.799999999814","<p>Have you lived in the USA for the last 5 years or more?</p>","0","html-button-response","406","2647323","0.0-22.0","54928","List1B","white","man","","","","","","","","fiveyears","","","","",""
"6300.600000000559","<p>Move the slider to show the extent to which you agree with the following statements.</p>","0","html-button-response","407","2654627","0.0-23.0","54928","List1B","white","man","","","","","","","","","","","","",""
"33377.10000000056","","","html-slider-response","408","2689010","0.0-24.0-0.0-0.0","54928","List1B","white","man","","","","","","","","survey_race","73","","","The older I get, the wiser I feel.","filler"
"28217.5","","","html-slider-response","409","2717230","0.0-24.0-0.0-0.1","54928","List1B","white","man","","","","","","","","survey_race","67","","","I consider myself an introvert.","filler"
"9077.899999999441","","","html-slider-response","410","2726310","0.0-24.0-0.0-0.2","54928","List1B","white","man","","","","","","","","survey_race","51","","","I am glad to be my race.","glad"
"14037.799999999814","","","html-slider-response","411","2740350","0.0-24.0-0.0-0.3","54928","List1B","white","man","","","","","","","","survey_race","64","","","I have a lot in common with people of a similar age to me.","filler"
"20365.700000000186","","","html-slider-response","412","2760718","0.0-24.0-0.0-0.4","54928","List1B","white","man","","","","","","","","survey_race","53","","","I feel solidarity with people the same age as me.","filler"
"7350.0999999996275","","","html-slider-response","413","2768070","0.0-24.0-0.0-0.5","54928","List1B","white","man","","","","","","","","survey_race","49","","","My age is not an important part of who I am.","filler"
"8254.200000000186","","","html-slider-response","414","2776325","0.0-24.0-0.0-0.6","54928","List1B","white","man","","","","","","","","survey_race","51","","","The fact that I am my race is an important part of my identity.","identity"
"9450.200000000186","","","html-slider-response","415","2785778","0.0-24.0-0.0-0.7","54928","List1B","white","man","","","","","","","","survey_race","52","","","I am similar to the average person of my race.","similar"
"8798","","","html-slider-response","416","2794577","0.0-24.0-0.0-0.8","54928","List1B","white","man","","","","","","","","survey_race","29","","","I consider myself an extrovert.","filler"
"8182.100000000559","","","html-slider-response","417","2802761","0.0-24.0-0.0-0.9","54928","List1B","white","man","","","","","","","","survey_race","54","","","People of my race are very similar to each other.","verysimilar"
"13525.799999999814","","","html-slider-response","418","2816289","0.0-24.0-0.0-0.10","54928","List1B","white","man","","","","","","","","survey_race","51","","","I often think about the fact that I am my age.","filler"
"8085.799999999814","","","html-slider-response","419","2824377","0.0-24.0-0.0-0.11","54928","List1B","white","man","","","","","","","","survey_race","54","","","I feel a bond with people the same age as me.","filler"
"10725.599999999627","","","html-slider-response","420","2835105","0.0-24.0-0.0-0.12","54928","List1B","white","man","","","","","","","","survey_race","45","","","I enjoy being in large groups.","filler"
"4925.9000000003725","","","html-slider-response","421","2840033","0.0-24.0-0.0-0.13","54928","List1B","white","man","","","","","","","","survey_race","55","","","I am glad to be the age I am.","filler"
"7877.899999999441","","","html-slider-response","422","2847913","0.0-24.0-0.0-0.14","54928","List1B","white","man","","","","","","","","survey_race","57","","","People my age have a lot in common with each other.","filler"
"7050","","","html-slider-response","423","2854964","0.0-24.0-0.0-0.15","54928","List1B","white","man","","","","","","","","survey_race","54","","","It is pleasant to be my race.","pleasant"
"5698.199999999255","","","html-slider-response","424","2860665","0.0-24.0-0.0-0.16","54928","List1B","white","man","","","","","","","","survey_race","54","","","Being my race gives me a good feeling.","feeling"
"5046.0999999996275","","","html-slider-response","425","2865713","0.0-24.0-0.0-0.17","54928","List1B","white","man","","","","","","","","survey_race","54","","","I often think about the fact that I am my race.","often"
"6010.200000000186","","","html-slider-response","426","2871724","0.0-24.0-0.0-0.18","54928","List1B","white","man","","","","","","","","survey_race","59","","","I think that my race has a lot to be proud of.","proud"
"5766.200000000186","","","html-slider-response","427","2877492","0.0-24.0-0.0-0.19","54928","List1B","white","man","","","","","","","","survey_race","59","","","People of my race have a lot in common with each other.","common"
"11814.100000000559","","","html-slider-response","428","2889308","0.0-24.0-0.0-0.20","54928","List1B","white","man","","","","","","","","survey_race","57","","","Getting older does not worry me.","filler"
"6102.100000000559","","","html-slider-response","429","2895412","0.0-24.0-0.0-0.21","54928","List1B","white","man","","","","","","","","survey_race","61","","","I have a lot in common with the average person of my race.","average"
"3254.100000000559","","","html-slider-response","430","2898668","0.0-24.0-0.0-0.22","54928","List1B","white","man","","","","","","","","survey_race","57","","","I feel committed to my race.","committed"
"5198.5","","","html-slider-response","431","2903868","0.0-24.0-0.0-0.23","54928","List1B","white","man","","","","","","","","survey_race","55","","","Being my age gives me a good feeling.","filler"
"3717.800000000745","","","html-slider-response","432","2907588","0.0-24.0-0.0-0.24","54928","List1B","white","man","","","","","","","","survey_race","53","","","I feel solidarity with my race.","solidarity"
"4078.2000000001863","","","html-slider-response","433","2911668","0.0-24.0-0.0-0.25","54928","List1B","white","man","","","","","","","","survey_race","58","","","Being my race is an important part of how I see myself.","important"
"4134","","","html-slider-response","434","2915804","0.0-24.0-0.0-0.26","54928","List1B","white","man","","","","","","","","survey_race","56","","","I feel a bond with my race.","bond"
"7058.299999999814","","","html-slider-response","435","2922863","0.0-24.0-0.0-0.27","54928","List1B","white","man","","","","","","","","survey_race","58","","","I am glad to be my age.","filler"
"4098.399999999441","","","html-slider-response","436","2926963","0.0-24.0-1.0-0.0","54928","List1B","white","man","","","","","","","","survey_gender","61","","","I feel a bond with my friends.","filler"
"9542.100000000559","","","html-slider-response","437","2936507","0.0-24.0-1.0-0.1","54928","List1B","white","man","","","","","","","","survey_gender","52","","","I feel committed to my gender.","committed"
"11353.700000000186","","","html-slider-response","438","2947863","0.0-24.0-1.0-0.2","54928","List1B","white","man","","","","","","","","survey_gender","52","","","I consider myself a highly empathetic person.","filler"
"5030","","","html-slider-response","439","2952895","0.0-24.0-1.0-0.3","54928","List1B","white","man","","","","","","","","survey_gender","55","","","I often think about my actions.","filler"
"8046.100000000559","","","html-slider-response","440","2960943","0.0-24.0-1.0-0.4","54928","List1B","white","man","","","","","","","","survey_gender","53","","","I am glad to be my gender.","glad"
"8301.600000000559","","","html-slider-response","441","2969246","0.0-24.0-1.0-0.5","54928","List1B","white","man","","","","","","","","survey_gender","51","","","Being my gender gives me a good feeling.","feeling"
"4941.9000000003725","","","html-slider-response","442","2974190","0.0-24.0-1.0-0.6","54928","List1B","white","man","","","","","","","","survey_gender","58","","","My friends have a lot in common with each other.","filler"
"3726.100000000559","","","html-slider-response","443","2977918","0.0-24.0-1.0-0.7","54928","List1B","white","man","","","","","","","","survey_gender","59","","","My friends understand me.","filler"
"10518.099999999627","","","html-slider-response","444","2988438","0.0-24.0-1.0-0.8","54928","List1B","white","man","","","","","","","","survey_gender","34","","","I would say I am an animal person.","filler"
"5177.899999999441","","","html-slider-response","445","2993618","0.0-24.0-1.0-0.9","54928","List1B","white","man","","","","","","","","survey_gender","55","","","I often think about the fact that I am my gender.","often"
"11342.399999999441","","","html-slider-response","446","3004962","0.0-24.0-1.0-0.10","54928","List1B","white","man","","","","","","","","survey_gender","56","","","I have a lot in common with the average person of my gender.","average"
"4238.299999999814","","","html-slider-response","447","3009202","0.0-24.0-1.0-0.11","54928","List1B","white","man","","","","","","","","survey_gender","58","","","It is pleasant to be my gender.","pleasant"
"4558.199999999255","","","html-slider-response","448","3013762","0.0-24.0-1.0-0.12","54928","List1B","white","man","","","","","","","","survey_gender","60","","","I feel solidarity with my gender.","solidarity"
"5406.0999999996275","","","html-slider-response","449","3019170","0.0-24.0-1.0-0.13","54928","List1B","white","man","","","","","","","","survey_gender","52","","","I feel solidarity with my friends.","filler"
"6414.199999999255","","","html-slider-response","450","3025586","0.0-24.0-1.0-0.14","54928","List1B","white","man","","","","","","","","survey_gender","70","","","People of my gender have a lot in common with each other.","common"
"12525.800000000745","","","html-slider-response","451","3038114","0.0-24.0-1.0-0.15","54928","List1B","white","man","","","","","","","","survey_gender","46","","","Family is not more important to me than friendship.","filler"
"8678","","","html-slider-response","452","3046794","0.0-24.0-1.0-0.16","54928","List1B","white","man","","","","","","","","survey_gender","100","","","Being around my friends gives me a good feeling.","filler"
"14165.899999999441","","","html-slider-response","453","3060962","0.0-24.0-1.0-0.17","54928","List1B","white","man","","","","","","","","survey_gender","54","","","Being my gender is an important part of how I see myself.","important"
"17677.599999999627","","","html-slider-response","454","3078641","0.0-24.0-1.0-0.18","54928","List1B","white","man","","","","","","","","survey_gender","60","","","The fact that I am my gender is an important part of my identity.","identity"
"6865.899999999441","","","html-slider-response","455","3085509","0.0-24.0-1.0-0.19","54928","List1B","white","man","","","","","","","","survey_gender","57","","","I have a lot in common with my friends.","filler"
"3522.100000000559","","","html-slider-response","456","3089033","0.0-24.0-1.0-0.20","54928","List1B","white","man","","","","","","","","survey_gender","58","","","I am similar to the average person of my gender.","similar"
"3778.4000000003725","","","html-slider-response","457","3092813","0.0-24.0-1.0-0.21","54928","List1B","white","man","","","","","","","","survey_gender","60","","","Most of the friends in my life are very similar to me.","filler"
"10374.299999999814","","","html-slider-response","458","3103189","0.0-24.0-1.0-0.22","54928","List1B","white","man","","","","","","","","survey_gender","52","","","It is not always easy for people to know what I am thinking.","filler"
"8125.800000000745","","","html-slider-response","459","3111317","0.0-24.0-1.0-0.23","54928","List1B","white","man","","","","","","","","survey_gender","35","","","Routine is not important to me.","filler"
"4110.100000000559","","","html-slider-response","460","3115429","0.0-24.0-1.0-0.24","54928","List1B","white","man","","","","","","","","survey_gender","57","","","I think that my gender has a lot to be proud of.","proud"
"4126.200000000186","","","html-slider-response","461","3119557","0.0-24.0-1.0-0.25","54928","List1B","white","man","","","","","","","","survey_gender","59","","","I feel a bond with my gender.","bond"
"5342.200000000186","","","html-slider-response","462","3124901","0.0-24.0-1.0-0.26","54928","List1B","white","man","","","","","","","","survey_gender","58","","","People of my gender are very similar to each other.","verysimilar"
"2390.0999999996275","","","html-slider-response","463","3127293","0.0-24.0-1.0-0.27","54928","List1B","white","man","","","","","","","","survey_gender","61","","","I am glad to have the friends that I have.","filler"
"18189.299999999814","","","survey-text","464","3145485","0.0-25.0","54928","List1B","white","man","","","","","{""Q0"":""61630ab00102a50b24c73af3""}","","","worker_id","","","","",""
"32508.200000000186","","","external-html","465","3179616","0.0-26.0","54928","List1B","white","man","debrief.html","","","","","","","","","","","",""
