rt,stimulus,button_pressed,trial_type,trial_index,time_elapsed,internal_node_id,subject,list,ppt_race,ppt_gender,url,first_guess,correct,key_press,responses,image_type,phrase_type,test_part,response,stimulus1,stimulus2,question_type,survey_item
1679.3,Welcome to the experiment. Press Continue to begin.,0,html-button-response,0,1689,0.0-0.0,55590,List1B,white,man,,,,,,,,,,,,,
6367.6,,,external-html,1,9091,0.0-1.0,55590,List1B,white,man,consent.html,,,,,,,,,,,,
1997.6,"<p>On the next page, you will see portraits of 8 people and their names.</p><p>Your first task is to take a few minutes to memorise the names of these people.</p><p>You will have to recall their names during the rest of the experiment, so it is</p><p>essential that you try to memorise these people and their names as best as you can.</p><br><p><strong>You will then be tested on your memory of these names and portraits.</strong></p><br><p>The experiment will start after you have completed this memory test.</p><br><p>Ready?</p>",0,html-button-response,2,11097,0.0-2.0,55590,List1B,white,man,,,,,,,,,,,,,
72603.9,"<img src='img/portrait_matrix_list1.jpg' style='width:900px;height:500px;''></img><p>If you have memorised all the portraits and names and are ready to start, press Continue.</p><p><strong>Please note: Your memory of these faces will be tested 4 times during this experiment.</strong></p>",0,html-button-response,3,84715,0.0-3.0-0.0,55590,List1B,white,man,,,,,,,,,,,,,
5298.8,"<img src=""portrait/BW2.jpg""style=""height:400px;""></img>",2,html-button-response,4,91030,0.0-3.0-1.0,55590,List1B,white,man,,TRUE,2,,,,,,,,,,
null,CORRECT,,html-keyboard-response,5,92540,0.0-3.0-2.0-0.0,55590,List1B,white,man,,,,null,,,,,,,,,
3448.5,"<img src=""portrait/BM2.jpg""style=""height:400px;""></img>",5,html-button-response,6,95999,0.0-3.0-4.0,55590,List1B,white,man,,TRUE,5,,,,,,,,,,
null,CORRECT,,html-keyboard-response,7,97502,0.0-3.0-5.0-0.0,55590,List1B,white,man,,,,null,,,,,,,,,
5975.6,"<img src=""portrait/WM1.jpg""style=""height:400px;""></img>",6,html-button-response,8,103489,0.0-3.0-7.0,55590,List1B,white,man,,TRUE,6,,,,,,,,,,
null,CORRECT,,html-keyboard-response,9,104993,0.0-3.0-8.0-0.0,55590,List1B,white,man,,,,null,,,,,,,,,
4667.8,"<img src=""portrait/WM2.jpg""style=""height:400px;""></img>",7,html-button-response,10,109670,0.0-3.0-10.0,55590,List1B,white,man,,TRUE,7,,,,,,,,,,
null,CORRECT,,html-keyboard-response,11,111173,0.0-3.0-11.0-0.0,55590,List1B,white,man,,,,null,,,,,,,,,
3657.2,"<img src=""portrait/BM1.jpg""style=""height:400px;""></img>",4,html-button-response,12,114838,0.0-3.0-13.0,55590,List1B,white,man,,TRUE,4,,,,,,,,,,
null,CORRECT,,html-keyboard-response,13,116342,0.0-3.0-14.0-0.0,55590,List1B,white,man,,,,null,,,,,,,,,
5343,"<img src=""portrait/WW1.jpg""style=""height:400px;""></img>",1,html-button-response,14,121695,0.0-3.0-16.0,55590,List1B,white,man,,TRUE,1,,,,,,,,,,
null,CORRECT,,html-keyboard-response,15,123199,0.0-3.0-17.0-0.0,55590,List1B,white,man,,,,null,,,,,,,,,
5370.6,"<img src=""portrait/WW2.jpg""style=""height:400px;""></img>",3,html-button-response,16,128577,0.0-3.0-19.0,55590,List1B,white,man,,TRUE,3,,,,,,,,,,
null,CORRECT,,html-keyboard-response,17,130082,0.0-3.0-20.0-0.0,55590,List1B,white,man,,,,null,,,,,,,,,
10213.9,"<img src=""portrait/BW1.jpg""style=""height:400px;""></img>",0,html-button-response,18,140302,0.0-3.0-22.0,55590,List1B,white,man,,TRUE,0,,,,,,,,,,
null,CORRECT,,html-keyboard-response,19,141806,0.0-3.0-23.0-0.0,55590,List1B,white,man,,,,null,,,,,,,,,
2009.3,<p>You got 8 out of 8 right first time. Press Continue.</p>,0,html-button-response,20,143823,0.0-3.0-25.0,55590,List1B,white,man,,,,,,,,,,,,,
1873502.8,"<p>In this experiment, you will view photographs of the people from the memory game interacting.</p><p>By using the <strong>exact</strong> phrase given <i>after</i> the photograph appears and recalling the correct names of the people in the photographs, form a sentence describing the interaction. You do not need to capitalise names.</p><p>Type your answer in the space provided. Please complete every sentence before moving onto the next trial.</p><p>You will only have a few seconds to memorise each given photograph and phrase before you can respond, so try your best to focus.</p><p>An example is given below. Press 'Continue' when you are ready.</p><img src='img/speaking_example.jpg' style='width:800px;height:460px;''></img>",0,html-button-response,21,2018436,0.0-4.0,55590,List1B,white,man,,,,,,,,,,,,,
13803.9,"<p>Before the experiment starts, you will watch two example trials. Press 'Continue'.</p>",0,html-button-response,22,2033245,0.0-5.0,55590,List1B,white,man,,,,,,,,,,,,,
null,<img src='img/play_eg.gif' style='height:400px;''></img>,,html-keyboard-response,23,2036255,0.0-6.0,55590,List1B,white,man,,,,null,,,,,,,,,
null,<p>is playing with</p>,,html-keyboard-response,24,2038258,0.0-7.0,55590,List1B,white,man,,,,null,,,,,,,,,
2910.5,<p><b>Answer:</b> kate is playing with beth</p>,0,html-button-response,25,2041173,0.0-8.0,55590,List1B,white,man,,,,,,,,,,,,,
null,<img src='img/dance_eg.gif' style='height:400px;''></img>,,html-keyboard-response,26,2044181,0.0-9.0,55590,List1B,white,man,,,,null,,,,,,,,,
null,<p>is being entertained by</p>,,html-keyboard-response,27,2046184,0.0-10.0,55590,List1B,white,man,,,,null,,,,,,,,,
4815.8,<p><b>Answer:</b> luke is being entertained by dave</p>,0,html-button-response,28,2051004,0.0-11.0,55590,List1B,white,man,,,,,,,,,,,,,
2127.9,"<p>Ready to start the experiment?</p><br><p><strong>Remember to describe the picture using a full sentence,</strong></p><p><strong>that combines the names of the people with the <i>exact</i> phrase given.</strong></p><p><strong>To receive full payment you must do this correctly.</strong></p><p><strong> You do not need to capitalise names or use punctuation.</strong></p><br><p>Press 'Continue' to begin.</p>",0,html-button-response,29,2054138,0.0-12.0,55590,List1B,white,man,,,,,,,,,,,,,
null,"<div style=""font-size:60px;"">+</div>",,html-keyboard-response,30,2055642,0.0-13.0-0.0,55590,List1B,white,man,,,,null,,,,,,,,,
null,"<img src=""stim_listB/oppose7.gif""style=""height:400px;""></stim_listB>",,html-keyboard-response,31,2057652,0.0-13.0-1.0,55590,List1B,white,man,,,,null,,,,,,,,,
null,is opposing,,html-keyboard-response,32,2059656,0.0-13.0-2.0,55590,List1B,white,man,,,,null,,,,,,,,,
26161.9,,,survey-text,33,2085833,0.0-13.0-3.0,55590,List1B,white,man,,,,,"{""Q0"":""kate is opposing jane""}","<img src=""stim_listB/oppose7.gif""style=""height:400px;""></stim_listB>",is opposing,,,,,,
null,"<div style=""font-size:60px;"">+</div>",,html-keyboard-response,34,2086343,0.0-13.0-0.1,55590,List1B,white,man,,,,null,,,,,,,,,
null,"<img src=""stim_listB/copy6.gif""style=""height:400px;""></stim_listB>",,html-keyboard-response,35,2088348,0.0-13.0-1.1,55590,List1B,white,man,,,,null,,,,,,,,,
null,is being copied by,,html-keyboard-response,36,2090352,0.0-13.0-2.1,55590,List1B,white,man,,,,null,,,,,,,,,
57695.5,,,survey-text,37,2148063,0.0-13.0-3.1,55590,List1B,white,man,,,,,"{""Q0"":""fred is being cope""}","<img src=""stim_listB/copy6.gif""style=""height:400px;""></stim_listB>",is being copied by,,,,,,
null,"<div style=""font-size:60px;"">+</div>",,html-keyboard-response,38,2148569,0.0-13.0-0.2,55590,List1B,white,man,,,,null,,,,,,,,,
null,"<img src=""stim_listB/touch6.gif""style=""height:400px;""></stim_listB>",,html-keyboard-response,39,2150580,0.0-13.0-1.2,55590,List1B,white,man,,,,null,,,,,,,,,
null,is being touched by,,html-keyboard-response,40,2152584,0.0-13.0-2.2,55590,List1B,white,man,,,,null,,,,,,,,,
43648.3,,,survey-text,41,2196244,0.0-13.0-3.2,55590,List1B,white,man,,,,,"{""Q0"":""fred is being touched by dave ""}","<img src=""stim_listB/touch6.gif""style=""height:400px;""></stim_listB>",is being touched by,,,,,,
null,"<div style=""font-size:60px;"">+</div>",,html-keyboard-response,42,2196750,0.0-13.0-0.3,55590,List1B,white,man,,,,null,,,,,,,,,
null,"<img src=""stim_listB/shout4.gif""style=""height:400px;""></stim_listB>",,html-keyboard-response,43,2198759,0.0-13.0-1.3,55590,List1B,white,man,,,,null,,,,,,,,,
null,is being shouted at by,,html-keyboard-response,44,2200763,0.0-13.0-2.3,55590,List1B,white,man,,,,null,,,,,,,,,
70282.7,,,survey-text,45,2271060,0.0-13.0-3.3,55590,List1B,white,man,,,,,"{""Q0"":""dave is being shouted at by jane""}","<img src=""stim_listB/shout4.gif""style=""height:400px;""></stim_listB>",is being shouted at by,,,,,,
null,"<div style=""font-size:60px;"">+</div>",,html-keyboard-response,46,2271565,0.0-13.0-0.4,55590,List1B,white,man,,,,null,,,,,,,,,
null,"<img src=""stim_listB/challenge2.gif""style=""height:400px;""></stim_listB>",,html-keyboard-response,47,2273579,0.0-13.0-1.4,55590,List1B,white,man,,,,null,,,,,,,,,
null,is being challenged by,,html-keyboard-response,48,2275583,0.0-13.0-2.4,55590,List1B,white,man,,,,null,,,,,,,,,
42581.8,,,survey-text,49,2318178,0.0-13.0-3.4,55590,List1B,white,man,,,,,"{""Q0"":""dave is being challenged mike""}","<img src=""stim_listB/challenge2.gif""style=""height:400px;""></stim_listB>",is being challenged by,,,,,,
null,"<div style=""font-size:60px;"">+</div>",,html-keyboard-response,50,2318681,0.0-13.0-0.5,55590,List1B,white,man,,,,null,,,,,,,,,
null,"<img src=""stim_listB/copy3.gif""style=""height:400px;""></stim_listB>",,html-keyboard-response,51,2320688,0.0-13.0-1.5,55590,List1B,white,man,,,,null,,,,,,,,,
null,is copying,,html-keyboard-response,52,2322692,0.0-13.0-2.5,55590,List1B,white,man,,,,null,,,,,,,,,
41271.3,,,survey-text,53,2363978,0.0-13.0-3.5,55590,List1B,white,man,,,,,"{""Q0"":""dave is copying ruth""}","<img src=""stim_listB/copy3.gif""style=""height:400px;""></stim_listB>",is copying,,,,,,
null,"<div style=""font-size:60px;"">+</div>",,html-keyboard-response,54,2364482,0.0-13.0-0.6,55590,List1B,white,man,,,,null,,,,,,,,,
null,"<img src=""stim_listB/look6.gif""style=""height:400px;""></stim_listB>",,html-keyboard-response,55,2366486,0.0-13.0-1.6,55590,List1B,white,man,,,,null,,,,,,,,,
null,is being looked at by,,html-keyboard-response,56,2368490,0.0-13.0-2.6,55590,List1B,white,man,,,,null,,,,,,,,,
40687.7,,,survey-text,57,2409192,0.0-13.0-3.6,55590,List1B,white,man,,,,,"{""Q0"":""dave is being looking at  by mike""}","<img src=""stim_listB/look6.gif""style=""height:400px;""></stim_listB>",is being looked at by,,,,,,
null,"<div style=""font-size:60px;"">+</div>",,html-keyboard-response,58,2409697,0.0-13.0-0.7,55590,List1B,white,man,,,,null,,,,,,,,,
null,"<img src=""stim_listB/greet2.gif""style=""height:400px;""></stim_listB>",,html-keyboard-response,59,2411706,0.0-13.0-1.7,55590,List1B,white,man,,,,null,,,,,,,,,
null,is being greeted by,,html-keyboard-response,60,2413710,0.0-13.0-2.7,55590,List1B,white,man,,,,null,,,,,,,,,
41369.4,,,survey-text,61,2455091,0.0-13.0-3.7,55590,List1B,white,man,,,,,"{""Q0"":""fred is being greeted by kate""}","<img src=""stim_listB/greet2.gif""style=""height:400px;""></stim_listB>",is being greeted by,,,,,,
null,"<div style=""font-size:60px;"">+</div>",,html-keyboard-response,62,2455597,0.0-13.0-0.8,55590,List1B,white,man,,,,null,,,,,,,,,
null,"<img src=""stim_listB/challenge5.gif""style=""height:400px;""></stim_listB>",,html-keyboard-response,63,2457605,0.0-13.0-1.8,55590,List1B,white,man,,,,null,,,,,,,,,
null,is challenging,,html-keyboard-response,64,2459609,0.0-13.0-2.8,55590,List1B,white,man,,,,null,,,,,,,,,
29392.2,,,survey-text,65,2489016,0.0-13.0-3.8,55590,List1B,white,man,,,,,"{""Q0"":""luke is challenging mike""}","<img src=""stim_listB/challenge5.gif""style=""height:400px;""></stim_listB>",is challenging,,,,,,
null,"<div style=""font-size:60px;"">+</div>",,html-keyboard-response,66,2489520,0.0-13.0-0.9,55590,List1B,white,man,,,,null,,,,,,,,,
null,"<img src=""stim_listB/copy2.gif""style=""height:400px;""></stim_listB>",,html-keyboard-response,67,2491527,0.0-13.0-1.9,55590,List1B,white,man,,,,null,,,,,,,,,
null,is being copied by,,html-keyboard-response,68,2493545,0.0-13.0-2.9,55590,List1B,white,man,,,,null,,,,,,,,,
42013.3,,,survey-text,69,2535569,0.0-13.0-3.9,55590,List1B,white,man,,,,,"{""Q0"":""fred is being copied by kate""}","<img src=""stim_listB/copy2.gif""style=""height:400px;""></stim_listB>",is being copied by,,,,,,
null,"<div style=""font-size:60px;"">+</div>",,html-keyboard-response,70,2536074,0.0-13.0-0.10,55590,List1B,white,man,,,,null,,,,,,,,,
null,"<img src=""stim_listB/challenge6.gif""style=""height:400px;""></stim_listB>",,html-keyboard-response,71,2538079,0.0-13.0-1.10,55590,List1B,white,man,,,,null,,,,,,,,,
null,is being challenged by,,html-keyboard-response,72,2540081,0.0-13.0-2.10,55590,List1B,white,man,,,,null,,,,,,,,,
31362.8,,,survey-text,73,2571454,0.0-13.0-3.10,55590,List1B,white,man,,,,,"{""Q0"":""fred is being challenged by dave""}","<img src=""stim_listB/challenge6.gif""style=""height:400px;""></stim_listB>",is being challenged by,,,,,,
null,"<div style=""font-size:60px;"">+</div>",,html-keyboard-response,74,2571957,0.0-13.0-0.11,55590,List1B,white,man,,,,null,,,,,,,,,
null,"<img src=""stim_listB/look8.gif""style=""height:400px;""></stim_listB>",,html-keyboard-response,75,2573964,0.0-13.0-1.11,55590,List1B,white,man,,,,null,,,,,,,,,
null,is being looked at by,,html-keyboard-response,76,2575967,0.0-13.0-2.11,55590,List1B,white,man,,,,null,,,,,,,,,
37248.2,,,survey-text,77,2613229,0.0-13.0-3.11,55590,List1B,white,man,,,,,"{""Q0"":""kate is being looking at by jane""}","<img src=""stim_listB/look8.gif""style=""height:400px;""></stim_listB>",is being looked at by,,,,,,
null,"<div style=""font-size:60px;"">+</div>",,html-keyboard-response,78,2613733,0.0-13.0-0.12,55590,List1B,white,man,,,,null,,,,,,,,,
null,"<img src=""stim_listB/challenge1.gif""style=""height:400px;""></stim_listB>",,html-keyboard-response,79,2615737,0.0-13.0-1.12,55590,List1B,white,man,,,,null,,,,,,,,,
null,is challenging,,html-keyboard-response,80,2617739,0.0-13.0-2.12,55590,List1B,white,man,,,,null,,,,,,,,,
30979.7,,,survey-text,81,2648726,0.0-13.0-3.12,55590,List1B,white,man,,,,,"{""Q0"":""mike is challenging beth""}","<img src=""stim_listB/challenge1.gif""style=""height:400px;""></stim_listB>",is challenging,,,,,,
null,"<div style=""font-size:60px;"">+</div>",,html-keyboard-response,82,2649228,0.0-13.0-0.13,55590,List1B,white,man,,,,null,,,,,,,,,
null,"<img src=""stim_listB/seduce5.gif""style=""height:400px;""></stim_listB>",,html-keyboard-response,83,2651236,0.0-13.0-1.13,55590,List1B,white,man,,,,null,,,,,,,,,
null,is seducing,,html-keyboard-response,84,2653240,0.0-13.0-2.13,55590,List1B,white,man,,,,null,,,,,,,,,
26246,,,survey-text,85,2679498,0.0-13.0-3.13,55590,List1B,white,man,,,,,"{""Q0"":""fred is seducing dave""}","<img src=""stim_listB/seduce5.gif""style=""height:400px;""></stim_listB>",is seducing,,,,,,
null,"<div style=""font-size:60px;"">+</div>",,html-keyboard-response,86,2680003,0.0-13.0-0.14,55590,List1B,white,man,,,,null,,,,,,,,,
null,"<img src=""stim_listB/kiss1.gif""style=""height:400px;""></stim_listB>",,html-keyboard-response,87,2682012,0.0-13.0-1.14,55590,List1B,white,man,,,,null,,,,,,,,,
null,is kissing,,html-keyboard-response,88,2684016,0.0-13.0-2.14,55590,List1B,white,man,,,,null,,,,,,,,,
23671.6,,,survey-text,89,2707702,0.0-13.0-3.14,55590,List1B,white,man,,,,,"{""Q0"":""fred is kissing beth""}","<img src=""stim_listB/kiss1.gif""style=""height:400px;""></stim_listB>",is kissing,,,,,,
null,"<div style=""font-size:60px;"">+</div>",,html-keyboard-response,90,2708206,0.0-13.0-0.15,55590,List1B,white,man,,,,null,,,,,,,,,
null,"<img src=""stim_listB/look7.gif""style=""height:400px;""></stim_listB>",,html-keyboard-response,91,2710215,0.0-13.0-1.15,55590,List1B,white,man,,,,null,,,,,,,,,
null,is looking at,,html-keyboard-response,92,2712219,0.0-13.0-2.15,55590,List1B,white,man,,,,null,,,,,,,,,
29380.8,,,survey-text,93,2741611,0.0-13.0-3.15,55590,List1B,white,man,,,,,"{""Q0"":""ruth is looking at beth""}","<img src=""stim_listB/look7.gif""style=""height:400px;""></stim_listB>",is looking at,,,,,,
null,"<div style=""font-size:60px;"">+</div>",,html-keyboard-response,94,2742116,0.0-13.0-0.16,55590,List1B,white,man,,,,null,,,,,,,,,
null,"<img src=""stim_listB/hug5.gif""style=""height:400px;""></stim_listB>",,html-keyboard-response,95,2744123,0.0-13.0-1.16,55590,List1B,white,man,,,,null,,,,,,,,,
null,is hugging,,html-keyboard-response,96,2746126,0.0-13.0-2.16,55590,List1B,white,man,,,,null,,,,,,,,,
24236.4,,,survey-text,97,2770376,0.0-13.0-3.16,55590,List1B,white,man,,,,,"{""Q0"":""fred is hugging luke""}","<img src=""stim_listB/hug5.gif""style=""height:400px;""></stim_listB>",is hugging,,,,,,
null,"<div style=""font-size:60px;"">+</div>",,html-keyboard-response,98,2770880,0.0-13.0-0.17,55590,List1B,white,man,,,,null,,,,,,,,,
null,"<img src=""stim_listB/copy8.gif""style=""height:400px;""></stim_listB>",,html-keyboard-response,99,2772887,0.0-13.0-1.17,55590,List1B,white,man,,,,null,,,,,,,,,
null,is being copied by,,html-keyboard-response,100,2774890,0.0-13.0-2.17,55590,List1B,white,man,,,,null,,,,,,,,,
33456.5,,,survey-text,101,2808357,0.0-13.0-3.17,55590,List1B,white,man,,,,,"{""Q0"":""beth is being copied by jane""}","<img src=""stim_listB/copy8.gif""style=""height:400px;""></stim_listB>",is being copied by,,,,,,
null,"<div style=""font-size:60px;"">+</div>",,html-keyboard-response,102,2808861,0.0-13.0-0.18,55590,List1B,white,man,,,,null,,,,,,,,,
null,"<img src=""stim_listB/oppose6.gif""style=""height:400px;""></stim_listB>",,html-keyboard-response,103,2810868,0.0-13.0-1.18,55590,List1B,white,man,,,,null,,,,,,,,,
null,is being opposed by,,html-keyboard-response,104,2812871,0.0-13.0-2.18,55590,List1B,white,man,,,,null,,,,,,,,,
31609,,,survey-text,105,2844495,0.0-13.0-3.18,55590,List1B,white,man,,,,,"{""Q0"":""fred is being opposed by luke""}","<img src=""stim_listB/oppose6.gif""style=""height:400px;""></stim_listB>",is being opposed by,,,,,,
null,"<div style=""font-size:60px;"">+</div>",,html-keyboard-response,106,2845000,0.0-13.0-0.19,55590,List1B,white,man,,,,null,,,,,,,,,
null,"<img src=""stim_listB/kiss7.gif""style=""height:400px;""></stim_listB>",,html-keyboard-response,107,2847007,0.0-13.0-1.19,55590,List1B,white,man,,,,null,,,,,,,,,
null,is kissing,,html-keyboard-response,108,2849009,0.0-13.0-2.19,55590,List1B,white,man,,,,null,,,,,,,,,
24766.1,,,survey-text,109,2873782,0.0-13.0-3.19,55590,List1B,white,man,,,,,"{""Q0"":""ruth is kissing beth""}","<img src=""stim_listB/kiss7.gif""style=""height:400px;""></stim_listB>",is kissing,,,,,,
27208.8,"<img src='img/portrait_matrix_list1.jpg' style='width:900px;height:500px;''></img><p>If you have memorised all the portraits and names and are ready to start, press Continue.</p><p><strong>Please note: Your memory of these faces will be tested 4 times during this experiment.</strong></p>",0,html-button-response,110,2901000,0.0-14.0-0.0,55590,List1B,white,man,,,,,,,,,,,,,
4701.7,"<img src=""portrait/WM1.jpg""style=""height:400px;""></img>",6,html-button-response,111,2906712,0.0-14.0-1.0,55590,List1B,white,man,,TRUE,6,,,,,,,,,,
null,CORRECT,,html-keyboard-response,112,2908223,0.0-14.0-2.0-0.0,55590,List1B,white,man,,,,null,,,,,,,,,
3847.8,"<img src=""portrait/WW1.jpg""style=""height:400px;""></img>",1,html-button-response,113,2912080,0.0-14.0-4.0,55590,List1B,white,man,,TRUE,1,,,,,,,,,,
null,CORRECT,,html-keyboard-response,114,2913585,0.0-14.0-5.0-0.0,55590,List1B,white,man,,,,null,,,,,,,,,
1922.6,"<img src=""portrait/WW2.jpg""style=""height:400px;""></img>",3,html-button-response,115,2915516,0.0-14.0-7.0,55590,List1B,white,man,,TRUE,3,,,,,,,,,,
null,CORRECT,,html-keyboard-response,116,2917021,0.0-14.0-8.0-0.0,55590,List1B,white,man,,,,null,,,,,,,,,
3382.5,"<img src=""portrait/WM2.jpg""style=""height:400px;""></img>",7,html-button-response,117,2920414,0.0-14.0-10.0,55590,List1B,white,man,,TRUE,7,,,,,,,,,,
null,CORRECT,,html-keyboard-response,118,2921919,0.0-14.0-11.0-0.0,55590,List1B,white,man,,,,null,,,,,,,,,
3856.7,"<img src=""portrait/BW1.jpg""style=""height:400px;""></img>",0,html-button-response,119,2925784,0.0-14.0-13.0,55590,List1B,white,man,,TRUE,0,,,,,,,,,,
null,CORRECT,,html-keyboard-response,120,2927289,0.0-14.0-14.0-0.0,55590,List1B,white,man,,,,null,,,,,,,,,
2783.7,"<img src=""portrait/BW2.jpg""style=""height:400px;""></img>",2,html-button-response,121,2930082,0.0-14.0-16.0,55590,List1B,white,man,,TRUE,2,,,,,,,,,,
null,CORRECT,,html-keyboard-response,122,2931586,0.0-14.0-17.0-0.0,55590,List1B,white,man,,,,null,,,,,,,,,
4993.5,"<img src=""portrait/BM2.jpg""style=""height:400px;""></img>",5,html-button-response,123,2936586,0.0-14.0-19.0,55590,List1B,white,man,,TRUE,5,,,,,,,,,,
null,CORRECT,,html-keyboard-response,124,2938091,0.0-14.0-20.0-0.0,55590,List1B,white,man,,,,null,,,,,,,,,
2775.9,"<img src=""portrait/BM1.jpg""style=""height:400px;""></img>",4,html-button-response,125,2940874,0.0-14.0-22.0,55590,List1B,white,man,,TRUE,4,,,,,,,,,,
null,CORRECT,,html-keyboard-response,126,2942378,0.0-14.0-23.0-0.0,55590,List1B,white,man,,,,null,,,,,,,,,
1847.5,<p>You got 8 out of 8 right first time. Press Continue.</p>,0,html-button-response,127,2944232,0.0-14.0-25.0,55590,List1B,white,man,,,,,,,,,,,,,
null,"<div style=""font-size:60px;"">+</div>",,html-keyboard-response,128,2945745,0.0-15.0-0.0,55590,List1B,white,man,,,,null,,,,,,,,,
null,"<img src=""stim_listB/look1.gif""style=""height:400px;""></stim_listB>",,html-keyboard-response,129,2947749,0.0-15.0-1.0,55590,List1B,white,man,,,,null,,,,,,,,,
null,is looking at,,html-keyboard-response,130,2949752,0.0-15.0-2.0,55590,List1B,white,man,,,,null,,,,,,,,,
30204.2,,,survey-text,131,2979970,0.0-15.0-3.0,55590,List1B,white,man,,,,,"{""Q0"":""fred is looking at beth""}","<img src=""stim_listB/look1.gif""style=""height:400px;""></stim_listB>",is looking at,,,,,,
null,"<div style=""font-size:60px;"">+</div>",,html-keyboard-response,132,2980474,0.0-15.0-0.1,55590,List1B,white,man,,,,null,,,,,,,,,
null,"<img src=""stim_listB/copy1.gif""style=""height:400px;""></stim_listB>",,html-keyboard-response,133,2982481,0.0-15.0-1.1,55590,List1B,white,man,,,,null,,,,,,,,,
null,is copying,,html-keyboard-response,134,2984485,0.0-15.0-2.1,55590,List1B,white,man,,,,null,,,,,,,,,
31862.1,,,survey-text,135,3016359,0.0-15.0-3.1,55590,List1B,white,man,,,,,"{""Q0"":""fred is coping kate""}","<img src=""stim_listB/copy1.gif""style=""height:400px;""></stim_listB>",is copying,,,,,,
null,"<div style=""font-size:60px;"">+</div>",,html-keyboard-response,136,3016864,0.0-15.0-0.2,55590,List1B,white,man,,,,null,,,,,,,,,
null,"<img src=""stim_listB/seduce3.gif""style=""height:400px;""></stim_listB>",,html-keyboard-response,137,3018872,0.0-15.0-1.2,55590,List1B,white,man,,,,null,,,,,,,,,
null,is seducing,,html-keyboard-response,138,3020875,0.0-15.0-2.2,55590,List1B,white,man,,,,null,,,,,,,,,
32744.7,,,survey-text,139,3053630,0.0-15.0-3.2,55590,List1B,white,man,,,,,"{""Q0"":""jane is seducing luke""}","<img src=""stim_listB/seduce3.gif""style=""height:400px;""></stim_listB>",is seducing,,,,,,
null,"<div style=""font-size:60px;"">+</div>",,html-keyboard-response,140,3054135,0.0-15.0-0.3,55590,List1B,white,man,,,,null,,,,,,,,,
null,"<img src=""stim_listB/hug1.gif""style=""height:400px;""></stim_listB>",,html-keyboard-response,141,3056143,0.0-15.0-1.3,55590,List1B,white,man,,,,null,,,,,,,,,
null,is hugging,,html-keyboard-response,142,3058147,0.0-15.0-2.3,55590,List1B,white,man,,,,null,,,,,,,,,
27973.6,,,survey-text,143,3086135,0.0-15.0-3.3,55590,List1B,white,man,,,,,"{""Q0"":""fred is hugging beth""}","<img src=""stim_listB/hug1.gif""style=""height:400px;""></stim_listB>",is hugging,,,,,,
null,"<div style=""font-size:60px;"">+</div>",,html-keyboard-response,144,3086640,0.0-15.0-0.4,55590,List1B,white,man,,,,null,,,,,,,,,
null,"<img src=""stim_listB/touch8.gif""style=""height:400px;""></stim_listB>",,html-keyboard-response,145,3088646,0.0-15.0-1.4,55590,List1B,white,man,,,,null,,,,,,,,,
null,is being touched by,,html-keyboard-response,146,3090650,0.0-15.0-2.4,55590,List1B,white,man,,,,null,,,,,,,,,
36916.2,,,survey-text,147,3127577,0.0-15.0-3.4,55590,List1B,white,man,,,,,"{""Q0"":""ruth is being touched by beth ""}","<img src=""stim_listB/touch8.gif""style=""height:400px;""></stim_listB>",is being touched by,,,,,,
null,"<div style=""font-size:60px;"">+</div>",,html-keyboard-response,148,3128082,0.0-15.0-0.5,55590,List1B,white,man,,,,null,,,,,,,,,
null,"<img src=""stim_listB/kiss8.gif""style=""height:400px;""></stim_listB>",,html-keyboard-response,149,3130090,0.0-15.0-1.5,55590,List1B,white,man,,,,null,,,,,,,,,
null,is being kissed by,,html-keyboard-response,150,3132094,0.0-15.0-2.5,55590,List1B,white,man,,,,null,,,,,,,,,
29695.7,,,survey-text,151,3161802,0.0-15.0-3.5,55590,List1B,white,man,,,,,"{""Q0"":""kate is being kissing by jane""}","<img src=""stim_listB/kiss8.gif""style=""height:400px;""></stim_listB>",is being kissed by,,,,,,
null,"<div style=""font-size:60px;"">+</div>",,html-keyboard-response,152,3162304,0.0-15.0-0.6,55590,List1B,white,man,,,,null,,,,,,,,,
null,"<img src=""stim_listB/kiss5.gif""style=""height:400px;""></stim_listB>",,html-keyboard-response,153,3164308,0.0-15.0-1.6,55590,List1B,white,man,,,,null,,,,,,,,,
null,is kissing,,html-keyboard-response,154,3166312,0.0-15.0-2.6,55590,List1B,white,man,,,,null,,,,,,,,,
27046.6,,,survey-text,155,3193372,0.0-15.0-3.6,55590,List1B,white,man,,,,,"{""Q0"":""fred is kissing luke""}","<img src=""stim_listB/kiss5.gif""style=""height:400px;""></stim_listB>",is kissing,,,,,,
null,"<div style=""font-size:60px;"">+</div>",,html-keyboard-response,156,3193877,0.0-15.0-0.7,55590,List1B,white,man,,,,null,,,,,,,,,
null,"<img src=""stim_listB/greet4.gif""style=""height:400px;""></stim_listB>",,html-keyboard-response,157,3195884,0.0-15.0-1.7,55590,List1B,white,man,,,,null,,,,,,,,,
null,is being greeted by,,html-keyboard-response,158,3197887,0.0-15.0-2.7,55590,List1B,white,man,,,,null,,,,,,,,,
41628.5,,,survey-text,159,3239526,0.0-15.0-3.7,55590,List1B,white,man,,,,,"{""Q0"":"" jane is being greeted by luke ""}","<img src=""stim_listB/greet4.gif""style=""height:400px;""></stim_listB>",is being greeted by,,,,,,
null,"<div style=""font-size:60px;"">+</div>",,html-keyboard-response,160,3240029,0.0-15.0-0.8,55590,List1B,white,man,,,,null,,,,,,,,,
null,"<img src=""stim_listB/copy5.gif""style=""height:400px;""></stim_listB>",,html-keyboard-response,161,3242032,0.0-15.0-1.8,55590,List1B,white,man,,,,null,,,,,,,,,
null,is copying,,html-keyboard-response,162,3244034,0.0-15.0-2.8,55590,List1B,white,man,,,,null,,,,,,,,,
26435.7,,,survey-text,163,3270479,0.0-15.0-3.8,55590,List1B,white,man,,,,,"{""Q0"":""luke is copying mike""}","<img src=""stim_listB/copy5.gif""style=""height:400px;""></stim_listB>",is copying,,,,,,
null,"<div style=""font-size:60px;"">+</div>",,html-keyboard-response,164,3270983,0.0-15.0-0.9,55590,List1B,white,man,,,,null,,,,,,,,,
null,"<img src=""stim_listB/greet1.gif""style=""height:400px;""></stim_listB>",,html-keyboard-response,165,3272991,0.0-15.0-1.9,55590,List1B,white,man,,,,null,,,,,,,,,
null,is greeting,,html-keyboard-response,166,3274995,0.0-15.0-2.9,55590,List1B,white,man,,,,null,,,,,,,,,
31243.6,,,survey-text,167,3306249,0.0-15.0-3.9,55590,List1B,white,man,,,,,"{""Q0"":""beth is greeting mike""}","<img src=""stim_listB/greet1.gif""style=""height:400px;""></stim_listB>",is greeting,,,,,,
null,"<div style=""font-size:60px;"">+</div>",,html-keyboard-response,168,3306754,0.0-15.0-0.10,55590,List1B,white,man,,,,null,,,,,,,,,
null,"<img src=""stim_listB/touch5.gif""style=""height:400px;""></stim_listB>",,html-keyboard-response,169,3308762,0.0-15.0-1.10,55590,List1B,white,man,,,,null,,,,,,,,,
null,is touching,,html-keyboard-response,170,3310766,0.0-15.0-2.10,55590,List1B,white,man,,,,null,,,,,,,,,
56071.7,,,survey-text,171,3366853,0.0-15.0-3.10,55590,List1B,white,man,,,,,"{""Q0"":""fred is touching mike""}","<img src=""stim_listB/touch5.gif""style=""height:400px;""></stim_listB>",is touching,,,,,,
null,"<div style=""font-size:60px;"">+</div>",,html-keyboard-response,172,3367358,0.0-15.0-0.11,55590,List1B,white,man,,,,null,,,,,,,,,
null,"<img src=""stim_listB/seduce6.gif""style=""height:400px;""></stim_listB>",,html-keyboard-response,173,3369365,0.0-15.0-1.11,55590,List1B,white,man,,,,null,,,,,,,,,
null,is being seduced by,,html-keyboard-response,174,3371369,0.0-15.0-2.11,55590,List1B,white,man,,,,null,,,,,,,,,
32044.2,,,survey-text,175,3403428,0.0-15.0-3.11,55590,List1B,white,man,,,,,"{""Q0"":""luke is being seduced by mike""}","<img src=""stim_listB/seduce6.gif""style=""height:400px;""></stim_listB>",is being seduced by,,,,,,
null,"<div style=""font-size:60px;"">+</div>",,html-keyboard-response,176,3403933,0.0-15.0-0.12,55590,List1B,white,man,,,,null,,,,,,,,,
null,"<img src=""stim_listB/shout6.gif""style=""height:400px;""></stim_listB>",,html-keyboard-response,177,3405942,0.0-15.0-1.12,55590,List1B,white,man,,,,null,,,,,,,,,
null,is being shouted at by,,html-keyboard-response,178,3407946,0.0-15.0-2.12,55590,List1B,white,man,,,,null,,,,,,,,,
41806.4,,,survey-text,179,3449767,0.0-15.0-3.12,55590,List1B,white,man,,,,,"{""Q0"":""dave is been shouted mike""}","<img src=""stim_listB/shout6.gif""style=""height:400px;""></stim_listB>",is being shouted at by,,,,,,
null,"<div style=""font-size:60px;"">+</div>",,html-keyboard-response,180,3450272,0.0-15.0-0.13,55590,List1B,white,man,,,,null,,,,,,,,,
null,"<img src=""stim_listB/seduce7.gif""style=""height:400px;""></stim_listB>",,html-keyboard-response,181,3452281,0.0-15.0-1.13,55590,List1B,white,man,,,,null,,,,,,,,,
null,is seducing,,html-keyboard-response,182,3454286,0.0-15.0-2.13,55590,List1B,white,man,,,,null,,,,,,,,,
40877.3,,,survey-text,183,3495179,0.0-15.0-3.13,55590,List1B,white,man,,,,,"{""Q0"":""beth is seducing jane""}","<img src=""stim_listB/seduce7.gif""style=""height:400px;""></stim_listB>",is seducing,,,,,,
null,"<div style=""font-size:60px;"">+</div>",,html-keyboard-response,184,3495683,0.0-15.0-0.14,55590,List1B,white,man,,,,null,,,,,,,,,
null,"<img src=""stim_listB/oppose5.gif""style=""height:400px;""></stim_listB>",,html-keyboard-response,185,3497690,0.0-15.0-1.14,55590,List1B,white,man,,,,null,,,,,,,,,
null,is opposing,,html-keyboard-response,186,3499693,0.0-15.0-2.14,55590,List1B,white,man,,,,null,,,,,,,,,
410599.7,,,survey-text,187,3910320,0.0-15.0-3.14,55590,List1B,white,man,,,,,"{""Q0"":""dave is opposing  mike""}","<img src=""stim_listB/oppose5.gif""style=""height:400px;""></stim_listB>",is opposing,,,,,,
null,"<div style=""font-size:60px;"">+</div>",,html-keyboard-response,188,3910824,0.0-15.0-0.15,55590,List1B,white,man,,,,null,,,,,,,,,
null,"<img src=""stim_listB/seduce1.gif""style=""height:400px;""></stim_listB>",,html-keyboard-response,189,3912831,0.0-15.0-1.15,55590,List1B,white,man,,,,null,,,,,,,,,
null,is seducing,,html-keyboard-response,190,3914834,0.0-15.0-2.15,55590,List1B,white,man,,,,null,,,,,,,,,
15508.9,,,survey-text,191,3930357,0.0-15.0-3.15,55590,List1B,white,man,,,,,"{""Q0"":""Kate is seducing fred""}","<img src=""stim_listB/seduce1.gif""style=""height:400px;""></stim_listB>",is seducing,,,,,,
null,"<div style=""font-size:60px;"">+</div>",,html-keyboard-response,192,3930860,0.0-15.0-0.16,55590,List1B,white,man,,,,null,,,,,,,,,
null,"<img src=""stim_listB/oppose2.gif""style=""height:400px;""></stim_listB>",,html-keyboard-response,193,3932867,0.0-15.0-1.16,55590,List1B,white,man,,,,null,,,,,,,,,
null,is being opposed by,,html-keyboard-response,194,3934870,0.0-15.0-2.16,55590,List1B,white,man,,,,null,,,,,,,,,
16880.3,,,survey-text,195,3951761,0.0-15.0-3.16,55590,List1B,white,man,,,,,"{""Q0"":""beth is being opposed by fred""}","<img src=""stim_listB/oppose2.gif""style=""height:400px;""></stim_listB>",is being opposed by,,,,,,
null,"<div style=""font-size:60px;"">+</div>",,html-keyboard-response,196,3952265,0.0-15.0-0.17,55590,List1B,white,man,,,,null,,,,,,,,,
null,"<img src=""stim_listB/shout2.gif""style=""height:400px;""></stim_listB>",,html-keyboard-response,197,3954271,0.0-15.0-1.17,55590,List1B,white,man,,,,null,,,,,,,,,
null,is being shouted at by,,html-keyboard-response,198,3956274,0.0-15.0-2.17,55590,List1B,white,man,,,,null,,,,,,,,,
9510.2,,,survey-text,199,3965795,0.0-15.0-3.17,55590,List1B,white,man,,,,,"{""Q0"":""mike is shouting at kate""}","<img src=""stim_listB/shout2.gif""style=""height:400px;""></stim_listB>",is being shouted at by,,,,,,
null,"<div style=""font-size:60px;"">+</div>",,html-keyboard-response,200,3966299,0.0-15.0-0.18,55590,List1B,white,man,,,,null,,,,,,,,,
null,"<img src=""stim_listB/hug6.gif""style=""height:400px;""></stim_listB>",,html-keyboard-response,201,3968306,0.0-15.0-1.18,55590,List1B,white,man,,,,null,,,,,,,,,
null,is being hugged by,,html-keyboard-response,202,3970310,0.0-15.0-2.18,55590,List1B,white,man,,,,null,,,,,,,,,
18452.4,,,survey-text,203,3988777,0.0-15.0-3.18,55590,List1B,white,man,,,,,"{""Q0"":""Mike is being hugged by dave""}","<img src=""stim_listB/hug6.gif""style=""height:400px;""></stim_listB>",is being hugged by,,,,,,
null,"<div style=""font-size:60px;"">+</div>",,html-keyboard-response,204,3989282,0.0-15.0-0.19,55590,List1B,white,man,,,,null,,,,,,,,,
null,"<img src=""stim_listB/greet6.gif""style=""height:400px;""></stim_listB>",,html-keyboard-response,205,3991286,0.0-15.0-1.19,55590,List1B,white,man,,,,null,,,,,,,,,
null,is being greeted by,,html-keyboard-response,206,3993290,0.0-15.0-2.19,55590,List1B,white,man,,,,null,,,,,,,,,
8077.1,,,survey-text,207,4001378,0.0-15.0-3.19,55590,List1B,white,man,,,,,"{""Q0"":""fred is being greeted by dave""}","<img src=""stim_listB/greet6.gif""style=""height:400px;""></stim_listB>",is being greeted by,,,,,,
12634.1,"<img src='img/portrait_matrix_list1.jpg' style='width:900px;height:500px;''></img><p>If you have memorised all the portraits and names and are ready to start, press Continue.</p><p><strong>Please note: Your memory of these faces will be tested 4 times during this experiment.</strong></p>",0,html-button-response,208,4014019,0.0-16.0-0.0,55590,List1B,white,man,,,,,,,,,,,,,
4325.5,"<img src=""portrait/BM1.jpg""style=""height:400px;""></img>",4,html-button-response,209,4019355,0.0-16.0-1.0,55590,List1B,white,man,,TRUE,4,,,,,,,,,,
null,CORRECT,,html-keyboard-response,210,4020865,0.0-16.0-2.0-0.0,55590,List1B,white,man,,,,null,,,,,,,,,
2526.7,"<img src=""portrait/BW2.jpg""style=""height:400px;""></img>",2,html-button-response,211,4023400,0.0-16.0-4.0,55590,List1B,white,man,,TRUE,2,,,,,,,,,,
null,CORRECT,,html-keyboard-response,212,4024905,0.0-16.0-5.0-0.0,55590,List1B,white,man,,,,null,,,,,,,,,
3595.8,"<img src=""portrait/WM2.jpg""style=""height:400px;""></img>",7,html-button-response,213,4028511,0.0-16.0-7.0,55590,List1B,white,man,,TRUE,7,,,,,,,,,,
null,CORRECT,,html-keyboard-response,214,4030015,0.0-16.0-8.0-0.0,55590,List1B,white,man,,,,null,,,,,,,,,
2581.4,"<img src=""portrait/WW2.jpg""style=""height:400px;""></img>",3,html-button-response,215,4032605,0.0-16.0-10.0,55590,List1B,white,man,,TRUE,3,,,,,,,,,,
null,CORRECT,,html-keyboard-response,216,4034110,0.0-16.0-11.0-0.0,55590,List1B,white,man,,,,null,,,,,,,,,
2933.1,"<img src=""portrait/WW1.jpg""style=""height:400px;""></img>",1,html-button-response,217,4037052,0.0-16.0-13.0,55590,List1B,white,man,,TRUE,1,,,,,,,,,,
null,CORRECT,,html-keyboard-response,218,4038558,0.0-16.0-14.0-0.0,55590,List1B,white,man,,,,null,,,,,,,,,
3381.3,"<img src=""portrait/WM1.jpg""style=""height:400px;""></img>",6,html-button-response,219,4041948,0.0-16.0-16.0,55590,List1B,white,man,,TRUE,6,,,,,,,,,,
null,CORRECT,,html-keyboard-response,220,4043453,0.0-16.0-17.0-0.0,55590,List1B,white,man,,,,null,,,,,,,,,
2685.3,"<img src=""portrait/BM2.jpg""style=""height:400px;""></img>",5,html-button-response,221,4046145,0.0-16.0-19.0,55590,List1B,white,man,,TRUE,5,,,,,,,,,,
null,CORRECT,,html-keyboard-response,222,4047651,0.0-16.0-20.0-0.0,55590,List1B,white,man,,,,null,,,,,,,,,
4043.2,"<img src=""portrait/BW1.jpg""style=""height:400px;""></img>",0,html-button-response,223,4051705,0.0-16.0-22.0,55590,List1B,white,man,,TRUE,0,,,,,,,,,,
null,CORRECT,,html-keyboard-response,224,4053210,0.0-16.0-23.0-0.0,55590,List1B,white,man,,,,null,,,,,,,,,
2307.4,<p>You got 8 out of 8 right first time. Press Continue.</p>,0,html-button-response,225,4055525,0.0-16.0-25.0,55590,List1B,white,man,,,,,,,,,,,,,
null,"<div style=""font-size:60px;"">+</div>",,html-keyboard-response,226,4057036,0.0-17.0-0.0,55590,List1B,white,man,,,,null,,,,,,,,,
null,"<img src=""stim_listB/challenge8.gif""style=""height:400px;""></stim_listB>",,html-keyboard-response,227,4059041,0.0-17.0-1.0,55590,List1B,white,man,,,,null,,,,,,,,,
null,is being challenged by,,html-keyboard-response,228,4061045,0.0-17.0-2.0,55590,List1B,white,man,,,,null,,,,,,,,,
12818.2,,,survey-text,229,4073875,0.0-17.0-3.0,55590,List1B,white,man,,,,,"{""Q0"":""jane is challenged by beth""}","<img src=""stim_listB/challenge8.gif""style=""height:400px;""></stim_listB>",is being challenged by,,,,,,
null,"<div style=""font-size:60px;"">+</div>",,html-keyboard-response,230,4074380,0.0-17.0-0.1,55590,List1B,white,man,,,,null,,,,,,,,,
null,"<img src=""stim_listB/challenge4.gif""style=""height:400px;""></stim_listB>",,html-keyboard-response,231,4076388,0.0-17.0-1.1,55590,List1B,white,man,,,,null,,,,,,,,,
null,is being challenged by,,html-keyboard-response,232,4078392,0.0-17.0-2.1,55590,List1B,white,man,,,,null,,,,,,,,,
10847.2,,,survey-text,233,4089252,0.0-17.0-3.1,55590,List1B,white,man,,,,,"{""Q0"":""jane is being challenged by luke""}","<img src=""stim_listB/challenge4.gif""style=""height:400px;""></stim_listB>",is being challenged by,,,,,,
null,"<div style=""font-size:60px;"">+</div>",,html-keyboard-response,234,4089758,0.0-17.0-0.2,55590,List1B,white,man,,,,null,,,,,,,,,
null,"<img src=""stim_listB/kiss4.gif""style=""height:400px;""></stim_listB>",,html-keyboard-response,235,4091766,0.0-17.0-1.2,55590,List1B,white,man,,,,null,,,,,,,,,
null,is being kissed by,,html-keyboard-response,236,4093770,0.0-17.0-2.2,55590,List1B,white,man,,,,null,,,,,,,,,
11541.9,,,survey-text,237,4105324,0.0-17.0-3.2,55590,List1B,white,man,,,,,"{""Q0"":""dave is being kissed by jane""}","<img src=""stim_listB/kiss4.gif""style=""height:400px;""></stim_listB>",is being kissed by,,,,,,
null,"<div style=""font-size:60px;"">+</div>",,html-keyboard-response,238,4105829,0.0-17.0-0.3,55590,List1B,white,man,,,,null,,,,,,,,,
null,"<img src=""stim_listB/copy4.gif""style=""height:400px;""></stim_listB>",,html-keyboard-response,239,4107837,0.0-17.0-1.3,55590,List1B,white,man,,,,null,,,,,,,,,
null,is being copied by,,html-keyboard-response,240,4109841,0.0-17.0-2.3,55590,List1B,white,man,,,,null,,,,,,,,,
10593.2,,,survey-text,241,4120449,0.0-17.0-3.3,55590,List1B,white,man,,,,,"{""Q0"":""Jane is being copied by luke""}","<img src=""stim_listB/copy4.gif""style=""height:400px;""></stim_listB>",is being copied by,,,,,,
null,"<div style=""font-size:60px;"">+</div>",,html-keyboard-response,242,4120953,0.0-17.0-0.4,55590,List1B,white,man,,,,null,,,,,,,,,
null,"<img src=""stim_listB/oppose8.gif""style=""height:400px;""></stim_listB>",,html-keyboard-response,243,4122961,0.0-17.0-1.4,55590,List1B,white,man,,,,null,,,,,,,,,
null,is being opposed by,,html-keyboard-response,244,4124965,0.0-17.0-2.4,55590,List1B,white,man,,,,null,,,,,,,,,
8820,,,survey-text,245,4133791,0.0-17.0-3.4,55590,List1B,white,man,,,,,"{""Q0"":""kate is being opposed by ruth""}","<img src=""stim_listB/oppose8.gif""style=""height:400px;""></stim_listB>",is being opposed by,,,,,,
null,"<div style=""font-size:60px;"">+</div>",,html-keyboard-response,246,4134296,0.0-17.0-0.5,55590,List1B,white,man,,,,null,,,,,,,,,
null,"<img src=""stim_listB/hug4.gif""style=""height:400px;""></stim_listB>",,html-keyboard-response,247,4136306,0.0-17.0-1.5,55590,List1B,white,man,,,,null,,,,,,,,,
null,is being hugged by,,html-keyboard-response,248,4138311,0.0-17.0-2.5,55590,List1B,white,man,,,,null,,,,,,,,,
10735.3,,,survey-text,249,4149058,0.0-17.0-3.5,55590,List1B,white,man,,,,,"{""Q0"":""jane is being hugged by dave""}","<img src=""stim_listB/hug4.gif""style=""height:400px;""></stim_listB>",is being hugged by,,,,,,
null,"<div style=""font-size:60px;"">+</div>",,html-keyboard-response,250,4149562,0.0-17.0-0.6,55590,List1B,white,man,,,,null,,,,,,,,,
null,"<img src=""stim_listB/shout8.gif""style=""height:400px;""></stim_listB>",,html-keyboard-response,251,4151569,0.0-17.0-1.6,55590,List1B,white,man,,,,null,,,,,,,,,
null,is being shouted at by,,html-keyboard-response,252,4153572,0.0-17.0-2.6,55590,List1B,white,man,,,,null,,,,,,,,,
10178.4,,,survey-text,253,4163761,0.0-17.0-3.6,55590,List1B,white,man,,,,,"{""Q0"":""kate is shouted at by jane""}","<img src=""stim_listB/shout8.gif""style=""height:400px;""></stim_listB>",is being shouted at by,,,,,,
null,"<div style=""font-size:60px;"">+</div>",,html-keyboard-response,254,4164265,0.0-17.0-0.7,55590,List1B,white,man,,,,null,,,,,,,,,
null,"<img src=""stim_listB/touch3.gif""style=""height:400px;""></stim_listB>",,html-keyboard-response,255,4166273,0.0-17.0-1.7,55590,List1B,white,man,,,,null,,,,,,,,,
null,is touching,,html-keyboard-response,256,4168275,0.0-17.0-2.7,55590,List1B,white,man,,,,null,,,,,,,,,
8387.6,,,survey-text,257,4176680,0.0-17.0-3.7,55590,List1B,white,man,,,,,"{""Q0"":""dave  is touching jane""}","<img src=""stim_listB/touch3.gif""style=""height:400px;""></stim_listB>",is touching,,,,,,
null,"<div style=""font-size:60px;"">+</div>",,html-keyboard-response,258,4177188,0.0-17.0-0.8,55590,List1B,white,man,,,,null,,,,,,,,,
null,"<img src=""stim_listB/touch1.gif""style=""height:400px;""></stim_listB>",,html-keyboard-response,259,4179195,0.0-17.0-1.8,55590,List1B,white,man,,,,null,,,,,,,,,
null,is touching,,html-keyboard-response,260,4181198,0.0-17.0-2.8,55590,List1B,white,man,,,,null,,,,,,,,,
9035.8,,,survey-text,261,4190245,0.0-17.0-3.8,55590,List1B,white,man,,,,,"{""Q0"":""kate is touching mike""}","<img src=""stim_listB/touch1.gif""style=""height:400px;""></stim_listB>",is touching,,,,,,
null,"<div style=""font-size:60px;"">+</div>",,html-keyboard-response,262,4190749,0.0-17.0-0.9,55590,List1B,white,man,,,,null,,,,,,,,,
null,"<img src=""stim_listB/seduce8.gif""style=""height:400px;""></stim_listB>",,html-keyboard-response,263,4192752,0.0-17.0-1.9,55590,List1B,white,man,,,,null,,,,,,,,,
null,is being seduced by,,html-keyboard-response,264,4194755,0.0-17.0-2.9,55590,List1B,white,man,,,,null,,,,,,,,,
10867.9,,,survey-text,265,4205633,0.0-17.0-3.9,55590,List1B,white,man,,,,,"{""Q0"":""ruth is being seduced by kate""}","<img src=""stim_listB/seduce8.gif""style=""height:400px;""></stim_listB>",is being seduced by,,,,,,
null,"<div style=""font-size:60px;"">+</div>",,html-keyboard-response,266,4206136,0.0-17.0-0.10,55590,List1B,white,man,,,,null,,,,,,,,,
null,"<img src=""stim_listB/hug3.gif""style=""height:400px;""></stim_listB>",,html-keyboard-response,267,4208141,0.0-17.0-1.10,55590,List1B,white,man,,,,null,,,,,,,,,
null,is hugging,,html-keyboard-response,268,4210144,0.0-17.0-2.10,55590,List1B,white,man,,,,null,,,,,,,,,
10971.3,,,survey-text,269,4221125,0.0-17.0-3.10,55590,List1B,white,man,,,,,"{""Q0"":""luke is hugging ruth""}","<img src=""stim_listB/hug3.gif""style=""height:400px;""></stim_listB>",is hugging,,,,,,
null,"<div style=""font-size:60px;"">+</div>",,html-keyboard-response,270,4221628,0.0-17.0-0.11,55590,List1B,white,man,,,,null,,,,,,,,,
null,"<img src=""stim_listB/kiss6.gif""style=""height:400px;""></stim_listB>",,html-keyboard-response,271,4223633,0.0-17.0-1.11,55590,List1B,white,man,,,,null,,,,,,,,,
null,is being kissed by,,html-keyboard-response,272,4225636,0.0-17.0-2.11,55590,List1B,white,man,,,,null,,,,,,,,,
8127.8,,,survey-text,273,4233778,0.0-17.0-3.11,55590,List1B,white,man,,,,,"{""Q0"":""dave is kissing mike""}","<img src=""stim_listB/kiss6.gif""style=""height:400px;""></stim_listB>",is being kissed by,,,,,,
null,"<div style=""font-size:60px;"">+</div>",,html-keyboard-response,274,4234283,0.0-17.0-0.12,55590,List1B,white,man,,,,null,,,,,,,,,
null,"<img src=""stim_listB/look5.gif""style=""height:400px;""></stim_listB>",,html-keyboard-response,275,4236290,0.0-17.0-1.12,55590,List1B,white,man,,,,null,,,,,,,,,
null,is looking at,,html-keyboard-response,276,4238294,0.0-17.0-2.12,55590,List1B,white,man,,,,null,,,,,,,,,
8420.5,,,survey-text,277,4246725,0.0-17.0-3.12,55590,List1B,white,man,,,,,"{""Q0"":""luke is looking at fred""}","<img src=""stim_listB/look5.gif""style=""height:400px;""></stim_listB>",is looking at,,,,,,
null,"<div style=""font-size:60px;"">+</div>",,html-keyboard-response,278,4247229,0.0-17.0-0.13,55590,List1B,white,man,,,,null,,,,,,,,,
null,"<img src=""stim_listB/shout5.gif""style=""height:400px;""></stim_listB>",,html-keyboard-response,279,4249237,0.0-17.0-1.13,55590,List1B,white,man,,,,null,,,,,,,,,
null,is shouting at,,html-keyboard-response,280,4251241,0.0-17.0-2.13,55590,List1B,white,man,,,,null,,,,,,,,,
12038.2,,,survey-text,281,4263291,0.0-17.0-3.13,55590,List1B,white,man,,,,,"{""Q0"":""luke is shouting at fred""}","<img src=""stim_listB/shout5.gif""style=""height:400px;""></stim_listB>",is shouting at,,,,,,
null,"<div style=""font-size:60px;"">+</div>",,html-keyboard-response,282,4263795,0.0-17.0-0.14,55590,List1B,white,man,,,,null,,,,,,,,,
null,"<img src=""stim_listB/look3.gif""style=""height:400px;""></stim_listB>",,html-keyboard-response,283,4265800,0.0-17.0-1.14,55590,List1B,white,man,,,,null,,,,,,,,,
null,is looking at,,html-keyboard-response,284,4267804,0.0-17.0-2.14,55590,List1B,white,man,,,,null,,,,,,,,,
9326.7,,,survey-text,285,4277141,0.0-17.0-3.14,55590,List1B,white,man,,,,,"{""Q0"":""ruth is looking at luke""}","<img src=""stim_listB/look3.gif""style=""height:400px;""></stim_listB>",is looking at,,,,,,
null,"<div style=""font-size:60px;"">+</div>",,html-keyboard-response,286,4277646,0.0-17.0-0.15,55590,List1B,white,man,,,,null,,,,,,,,,
null,"<img src=""stim_listB/copy7.gif""style=""height:400px;""></stim_listB>",,html-keyboard-response,287,4279653,0.0-17.0-1.15,55590,List1B,white,man,,,,null,,,,,,,,,
null,is copying,,html-keyboard-response,288,4281657,0.0-17.0-2.15,55590,List1B,white,man,,,,null,,,,,,,,,
9912.7,,,survey-text,289,4291583,0.0-17.0-3.15,55590,List1B,white,man,,,,,"{""Q0"":""ruth is copying kate""}","<img src=""stim_listB/copy7.gif""style=""height:400px;""></stim_listB>",is copying,,,,,,
null,"<div style=""font-size:60px;"">+</div>",,html-keyboard-response,290,4292088,0.0-17.0-0.16,55590,List1B,white,man,,,,null,,,,,,,,,
null,"<img src=""stim_listB/seduce4.gif""style=""height:400px;""></stim_listB>",,html-keyboard-response,291,4294097,0.0-17.0-1.16,55590,List1B,white,man,,,,null,,,,,,,,,
null,is being seduced by,,html-keyboard-response,292,4296101,0.0-17.0-2.16,55590,List1B,white,man,,,,null,,,,,,,,,
10297.7,,,survey-text,293,4306409,0.0-17.0-3.16,55590,List1B,white,man,,,,,"{""Q0"":""dave is being seduced by ruth""}","<img src=""stim_listB/seduce4.gif""style=""height:400px;""></stim_listB>",is being seduced by,,,,,,
null,"<div style=""font-size:60px;"">+</div>",,html-keyboard-response,294,4306914,0.0-17.0-0.17,55590,List1B,white,man,,,,null,,,,,,,,,
null,"<img src=""stim_listB/greet3.gif""style=""height:400px;""></stim_listB>",,html-keyboard-response,295,4308922,0.0-17.0-1.17,55590,List1B,white,man,,,,null,,,,,,,,,
null,is greeting,,html-keyboard-response,296,4310926,0.0-17.0-2.17,55590,List1B,white,man,,,,null,,,,,,,,,
10595.8,,,survey-text,297,4321533,0.0-17.0-3.17,55590,List1B,white,man,,,,,"{""Q0"":""ruth is greeting dave""}","<img src=""stim_listB/greet3.gif""style=""height:400px;""></stim_listB>",is greeting,,,,,,
null,"<div style=""font-size:60px;"">+</div>",,html-keyboard-response,298,4322038,0.0-17.0-0.18,55590,List1B,white,man,,,,null,,,,,,,,,
null,"<img src=""stim_listB/touch7.gif""style=""height:400px;""></stim_listB>",,html-keyboard-response,299,4324046,0.0-17.0-1.18,55590,List1B,white,man,,,,null,,,,,,,,,
null,is touching,,html-keyboard-response,300,4326049,0.0-17.0-2.18,55590,List1B,white,man,,,,null,,,,,,,,,
9755,,,survey-text,301,4335809,0.0-17.0-3.18,55590,List1B,white,man,,,,,"{""Q0"":""kate is touching jane""}","<img src=""stim_listB/touch7.gif""style=""height:400px;""></stim_listB>",is touching,,,,,,
null,"<div style=""font-size:60px;"">+</div>",,html-keyboard-response,302,4336314,0.0-17.0-0.19,55590,List1B,white,man,,,,null,,,,,,,,,
null,"<img src=""stim_listB/hug7.gif""style=""height:400px;""></stim_listB>",,html-keyboard-response,303,4338322,0.0-17.0-1.19,55590,List1B,white,man,,,,null,,,,,,,,,
null,is hugging,,html-keyboard-response,304,4340326,0.0-17.0-2.19,55590,List1B,white,man,,,,null,,,,,,,,,
4491.6,,,survey-text,305,4344826,0.0-17.0-3.19,55590,List1B,white,man,,,,,"{""Q0"":""ruth is hugging beth""}","<img src=""stim_listB/hug7.gif""style=""height:400px;""></stim_listB>",is hugging,,,,,,
8870.8,"<img src='img/portrait_matrix_list1.jpg' style='width:900px;height:500px;''></img><p>If you have memorised all the portraits and names and are ready to start, press Continue.</p><p><strong>Please note: Your memory of these faces will be tested 4 times during this experiment.</strong></p>",0,html-button-response,306,4353706,0.0-18.0-0.0,55590,List1B,white,man,,,,,,,,,,,,,
9233,"<img src=""portrait/BW2.jpg""style=""height:400px;""></img>",2,html-button-response,307,4363946,0.0-18.0-1.0,55590,List1B,white,man,,TRUE,2,,,,,,,,,,
null,CORRECT,,html-keyboard-response,308,4365449,0.0-18.0-2.0-0.0,55590,List1B,white,man,,,,null,,,,,,,,,
5949.9,"<img src=""portrait/BW1.jpg""style=""height:400px;""></img>",0,html-button-response,309,4371404,0.0-18.0-4.0,55590,List1B,white,man,,TRUE,0,,,,,,,,,,
null,CORRECT,,html-keyboard-response,310,4372910,0.0-18.0-5.0-0.0,55590,List1B,white,man,,,,null,,,,,,,,,
2468.8,"<img src=""portrait/BM1.jpg""style=""height:400px;""></img>",4,html-button-response,311,4375389,0.0-18.0-7.0,55590,List1B,white,man,,TRUE,4,,,,,,,,,,
null,CORRECT,,html-keyboard-response,312,4376894,0.0-18.0-8.0-0.0,55590,List1B,white,man,,,,null,,,,,,,,,
2768.9,"<img src=""portrait/WM2.jpg""style=""height:400px;""></img>",7,html-button-response,313,4379673,0.0-18.0-10.0,55590,List1B,white,man,,TRUE,7,,,,,,,,,,
null,CORRECT,,html-keyboard-response,314,4381179,0.0-18.0-11.0-0.0,55590,List1B,white,man,,,,null,,,,,,,,,
2418.8,"<img src=""portrait/WW1.jpg""style=""height:400px;""></img>",1,html-button-response,315,4383607,0.0-18.0-13.0,55590,List1B,white,man,,TRUE,1,,,,,,,,,,
null,CORRECT,,html-keyboard-response,316,4385112,0.0-18.0-14.0-0.0,55590,List1B,white,man,,,,null,,,,,,,,,
2979.8,"<img src=""portrait/BM2.jpg""style=""height:400px;""></img>",6,html-button-response,317,4388103,0.0-18.0-16.0,55590,List1B,white,man,,TRUE,5,,,,,,,,,,
2571.2,"<img src=""portrait/BM2.jpg""style=""height:400px;""></img>",5,html-button-response,318,4391686,0.0-18.0-18.0-0.0,55590,List1B,white,man,,FALSE,5,,,,,,,,,,
null,CORRECT,,html-keyboard-response,319,4393199,0.0-18.0-18.0-1.0-0.0,55590,List1B,white,man,,,,null,,,,,,,,,
2735.9,"<img src=""portrait/WW2.jpg""style=""height:400px;""></img>",3,html-button-response,320,4395945,0.0-18.0-19.0,55590,List1B,white,man,,TRUE,3,,,,,,,,,,
null,CORRECT,,html-keyboard-response,321,4397451,0.0-18.0-20.0-0.0,55590,List1B,white,man,,,,null,,,,,,,,,
3903,"<img src=""portrait/WM1.jpg""style=""height:400px;""></img>",6,html-button-response,322,4401364,0.0-18.0-22.0,55590,List1B,white,man,,TRUE,6,,,,,,,,,,
null,CORRECT,,html-keyboard-response,323,4402868,0.0-18.0-23.0-0.0,55590,List1B,white,man,,,,null,,,,,,,,,
1958.3,<p>You got 7 out of 8 right first time. Press Continue.</p>,0,html-button-response,324,4404833,0.0-18.0-25.0,55590,List1B,white,man,,,,,,,,,,,,,
3527.4,"As you did not score 100%, the memory game will repeat. Press Continue.",0,html-button-response,325,4409366,0.0-18.0-26.0-0.0,55590,List1B,white,man,,,,,,,,,,,,,
5524.2,"<img src='img/portrait_matrix_list1.jpg' style='width:900px;height:500px;''></img><p>If you have memorised all the portraits and names and are ready to start, press Continue.</p><p><strong>Please note: Your memory of these faces will be tested 4 times during this experiment.</strong></p>",0,html-button-response,326,4415902,0.0-18.1-0.1,55590,List1B,white,man,,,,,,,,,,,,,
3665.5,"<img src=""portrait/BW2.jpg""style=""height:400px;""></img>",2,html-button-response,327,4420575,0.0-18.1-1.1,55590,List1B,white,man,,TRUE,2,,,,,,,,,,
null,CORRECT,,html-keyboard-response,328,4422079,0.0-18.1-2.1-0.1,55590,List1B,white,man,,,,null,,,,,,,,,
4933,"<img src=""portrait/BW1.jpg""style=""height:400px;""></img>",0,html-button-response,329,4427019,0.0-18.1-4.1,55590,List1B,white,man,,TRUE,0,,,,,,,,,,
null,CORRECT,,html-keyboard-response,330,4428524,0.0-18.1-5.1-0.1,55590,List1B,white,man,,,,null,,,,,,,,,
3433.6,"<img src=""portrait/BM1.jpg""style=""height:400px;""></img>",4,html-button-response,331,4431966,0.0-18.1-7.1,55590,List1B,white,man,,TRUE,4,,,,,,,,,,
null,CORRECT,,html-keyboard-response,332,4433470,0.0-18.1-8.1-0.1,55590,List1B,white,man,,,,null,,,,,,,,,
2647,"<img src=""portrait/WM2.jpg""style=""height:400px;""></img>",7,html-button-response,333,4436125,0.0-18.1-10.1,55590,List1B,white,man,,TRUE,7,,,,,,,,,,
null,CORRECT,,html-keyboard-response,334,4437630,0.0-18.1-11.1-0.1,55590,List1B,white,man,,,,null,,,,,,,,,
2721.4,"<img src=""portrait/WW1.jpg""style=""height:400px;""></img>",1,html-button-response,335,4440359,0.0-18.1-13.1,55590,List1B,white,man,,TRUE,1,,,,,,,,,,
null,CORRECT,,html-keyboard-response,336,4441863,0.0-18.1-14.1-0.1,55590,List1B,white,man,,,,null,,,,,,,,,
3208.5,"<img src=""portrait/BM2.jpg""style=""height:400px;""></img>",5,html-button-response,337,4445078,0.0-18.1-16.1,55590,List1B,white,man,,TRUE,5,,,,,,,,,,
null,CORRECT,,html-keyboard-response,338,4446581,0.0-18.1-17.1-0.1,55590,List1B,white,man,,,,null,,,,,,,,,
4374.4,"<img src=""portrait/WW2.jpg""style=""height:400px;""></img>",3,html-button-response,339,4450960,0.0-18.1-19.1,55590,List1B,white,man,,TRUE,3,,,,,,,,,,
null,CORRECT,,html-keyboard-response,340,4452466,0.0-18.1-20.1-0.1,55590,List1B,white,man,,,,null,,,,,,,,,
3623.2,"<img src=""portrait/WM1.jpg""style=""height:400px;""></img>",6,html-button-response,341,4456097,0.0-18.1-22.1,55590,List1B,white,man,,TRUE,6,,,,,,,,,,
null,CORRECT,,html-keyboard-response,342,4457602,0.0-18.1-23.1-0.1,55590,List1B,white,man,,,,null,,,,,,,,,
1708.3,<p>You got 8 out of 8 right first time. Press Continue.</p>,0,html-button-response,343,4459317,0.0-18.1-25.1,55590,List1B,white,man,,,,,,,,,,,,,
null,"<div style=""font-size:60px;"">+</div>",,html-keyboard-response,344,4460825,0.0-19.0-0.0,55590,List1B,white,man,,,,null,,,,,,,,,
null,"<img src=""stim_listB/oppose3.gif""style=""height:400px;""></stim_listB>",,html-keyboard-response,345,4462833,0.0-19.0-1.0,55590,List1B,white,man,,,,null,,,,,,,,,
null,is opposing,,html-keyboard-response,346,4464837,0.0-19.0-2.0,55590,List1B,white,man,,,,null,,,,,,,,,
7388.5,,,survey-text,347,4472237,0.0-19.0-3.0,55590,List1B,white,man,,,,,"{""Q0"":""dave is opposing jane""}","<img src=""stim_listB/oppose3.gif""style=""height:400px;""></stim_listB>",is opposing,,,,,,
null,"<div style=""font-size:60px;"">+</div>",,html-keyboard-response,348,4472742,0.0-19.0-0.1,55590,List1B,white,man,,,,null,,,,,,,,,
null,"<img src=""stim_listB/greet5.gif""style=""height:400px;""></stim_listB>",,html-keyboard-response,349,4474750,0.0-19.0-1.1,55590,List1B,white,man,,,,null,,,,,,,,,
null,is greeting,,html-keyboard-response,350,4476753,0.0-19.0-2.1,55590,List1B,white,man,,,,null,,,,,,,,,
11785.8,,,survey-text,351,4488550,0.0-19.0-3.1,55590,List1B,white,man,,,,,"{""Q0"":""luke is greeting mike""}","<img src=""stim_listB/greet5.gif""style=""height:400px;""></stim_listB>",is greeting,,,,,,
null,"<div style=""font-size:60px;"">+</div>",,html-keyboard-response,352,4489055,0.0-19.0-0.2,55590,List1B,white,man,,,,null,,,,,,,,,
null,"<img src=""stim_listB/greet7.gif""style=""height:400px;""></stim_listB>",,html-keyboard-response,353,4491063,0.0-19.0-1.2,55590,List1B,white,man,,,,null,,,,,,,,,
null,is greeting,,html-keyboard-response,354,4493067,0.0-19.0-2.2,55590,List1B,white,man,,,,null,,,,,,,,,
9458.7,,,survey-text,355,4502537,0.0-19.0-3.2,55590,List1B,white,man,,,,,"{""Q0"":""kate is greeting ruth""}","<img src=""stim_listB/greet7.gif""style=""height:400px;""></stim_listB>",is greeting,,,,,,
null,"<div style=""font-size:60px;"">+</div>",,html-keyboard-response,356,4503042,0.0-19.0-0.3,55590,List1B,white,man,,,,null,,,,,,,,,
null,"<img src=""stim_listB/shout1.gif""style=""height:400px;""></stim_listB>",,html-keyboard-response,357,4505050,0.0-19.0-1.3,55590,List1B,white,man,,,,null,,,,,,,,,
null,is shouting at,,html-keyboard-response,358,4507054,0.0-19.0-2.3,55590,List1B,white,man,,,,null,,,,,,,,,
5910.9,,,survey-text,359,4512976,0.0-19.0-3.3,55590,List1B,white,man,,,,,"{""Q0"":""beth is shouting at fred""}","<img src=""stim_listB/shout1.gif""style=""height:400px;""></stim_listB>",is shouting at,,,,,,
null,"<div style=""font-size:60px;"">+</div>",,html-keyboard-response,360,4513482,0.0-19.0-0.4,55590,List1B,white,man,,,,null,,,,,,,,,
null,"<img src=""stim_listB/kiss2.gif""style=""height:400px;""></stim_listB>",,html-keyboard-response,361,4515490,0.0-19.0-1.4,55590,List1B,white,man,,,,null,,,,,,,,,
null,is being kissed by,,html-keyboard-response,362,4517494,0.0-19.0-2.4,55590,List1B,white,man,,,,null,,,,,,,,,
8157.4,,,survey-text,363,4525663,0.0-19.0-3.4,55590,List1B,white,man,,,,,"{""Q0"":""kate is being kissed by mike""}","<img src=""stim_listB/kiss2.gif""style=""height:400px;""></stim_listB>",is being kissed by,,,,,,
null,"<div style=""font-size:60px;"">+</div>",,html-keyboard-response,364,4526168,0.0-19.0-0.5,55590,List1B,white,man,,,,null,,,,,,,,,
null,"<img src=""stim_listB/shout3.gif""style=""height:400px;""></stim_listB>",,html-keyboard-response,365,4528176,0.0-19.0-1.5,55590,List1B,white,man,,,,null,,,,,,,,,
null,is shouting at,,html-keyboard-response,366,4530180,0.0-19.0-2.5,55590,List1B,white,man,,,,null,,,,,,,,,
7207.7,,,survey-text,367,4537403,0.0-19.0-3.5,55590,List1B,white,man,,,,,"{""Q0"":""ruth is shouting at luke""}","<img src=""stim_listB/shout3.gif""style=""height:400px;""></stim_listB>",is shouting at,,,,,,
null,"<div style=""font-size:60px;"">+</div>",,html-keyboard-response,368,4537909,0.0-19.0-0.6,55590,List1B,white,man,,,,null,,,,,,,,,
null,"<img src=""stim_listB/oppose4.gif""style=""height:400px;""></stim_listB>",,html-keyboard-response,369,4539918,0.0-19.0-1.6,55590,List1B,white,man,,,,null,,,,,,,,,
null,is being opposed by,,html-keyboard-response,370,4541923,0.0-19.0-2.6,55590,List1B,white,man,,,,null,,,,,,,,,
9617,,,survey-text,371,4551551,0.0-19.0-3.6,55590,List1B,white,man,,,,,"{""Q0"":""ruth is being opposed by luke""}","<img src=""stim_listB/oppose4.gif""style=""height:400px;""></stim_listB>",is being opposed by,,,,,,
null,"<div style=""font-size:60px;"">+</div>",,html-keyboard-response,372,4552057,0.0-19.0-0.7,55590,List1B,white,man,,,,null,,,,,,,,,
null,"<img src=""stim_listB/hug2.gif""style=""height:400px;""></stim_listB>",,html-keyboard-response,373,4554066,0.0-19.0-1.7,55590,List1B,white,man,,,,null,,,,,,,,,
null,is being hugged by,,html-keyboard-response,374,4556071,0.0-19.0-2.7,55590,List1B,white,man,,,,null,,,,,,,,,
7492.9,,,survey-text,375,4563576,0.0-19.0-3.7,55590,List1B,white,man,,,,,"{""Q0"":""mike is being hugged by kate""}","<img src=""stim_listB/hug2.gif""style=""height:400px;""></stim_listB>",is being hugged by,,,,,,
null,"<div style=""font-size:60px;"">+</div>",,html-keyboard-response,376,4564081,0.0-19.0-0.8,55590,List1B,white,man,,,,null,,,,,,,,,
null,"<img src=""stim_listB/hug8.gif""style=""height:400px;""></stim_listB>",,html-keyboard-response,377,4566089,0.0-19.0-1.8,55590,List1B,white,man,,,,null,,,,,,,,,
null,is being hugged by,,html-keyboard-response,378,4568093,0.0-19.0-2.8,55590,List1B,white,man,,,,null,,,,,,,,,
10188.6,,,survey-text,379,4578293,0.0-19.0-3.8,55590,List1B,white,man,,,,,"{""Q0"":""kate is being hugged by jane""}","<img src=""stim_listB/hug8.gif""style=""height:400px;""></stim_listB>",is being hugged by,,,,,,
null,"<div style=""font-size:60px;"">+</div>",,html-keyboard-response,380,4578799,0.0-19.0-0.9,55590,List1B,white,man,,,,null,,,,,,,,,
null,"<img src=""stim_listB/kiss3.gif""style=""height:400px;""></stim_listB>",,html-keyboard-response,381,4580813,0.0-19.0-1.9,55590,List1B,white,man,,,,null,,,,,,,,,
null,is kissing,,html-keyboard-response,382,4582818,0.0-19.0-2.9,55590,List1B,white,man,,,,null,,,,,,,,,
6691.9,,,survey-text,383,4589522,0.0-19.0-3.9,55590,List1B,white,man,,,,,"{""Q0"":""ruth is kissing luke""}","<img src=""stim_listB/kiss3.gif""style=""height:400px;""></stim_listB>",is kissing,,,,,,
null,"<div style=""font-size:60px;"">+</div>",,html-keyboard-response,384,4590029,0.0-19.0-0.10,55590,List1B,white,man,,,,null,,,,,,,,,
null,"<img src=""stim_listB/shout7.gif""style=""height:400px;""></stim_listB>",,html-keyboard-response,385,4592036,0.0-19.0-1.10,55590,List1B,white,man,,,,null,,,,,,,,,
null,is shouting at,,html-keyboard-response,386,4594041,0.0-19.0-2.10,55590,List1B,white,man,,,,null,,,,,,,,,
11684.4,,,survey-text,387,4605740,0.0-19.0-3.10,55590,List1B,white,man,,,,,"{""Q0"":""kate is shouting at beth""}","<img src=""stim_listB/shout7.gif""style=""height:400px;""></stim_listB>",is shouting at,,,,,,
null,"<div style=""font-size:60px;"">+</div>",,html-keyboard-response,388,4606246,0.0-19.0-0.11,55590,List1B,white,man,,,,null,,,,,,,,,
null,"<img src=""stim_listB/look4.gif""style=""height:400px;""></stim_listB>",,html-keyboard-response,389,4608254,0.0-19.0-1.11,55590,List1B,white,man,,,,null,,,,,,,,,
null,is being looked at by,,html-keyboard-response,390,4610258,0.0-19.0-2.11,55590,List1B,white,man,,,,null,,,,,,,,,
8977.8,,,survey-text,391,4619248,0.0-19.0-3.11,55590,List1B,white,man,,,,,"{""Q0"":""dave is being looked by jane""}","<img src=""stim_listB/look4.gif""style=""height:400px;""></stim_listB>",is being looked at by,,,,,,
null,"<div style=""font-size:60px;"">+</div>",,html-keyboard-response,392,4619766,0.0-19.0-0.12,55590,List1B,white,man,,,,null,,,,,,,,,
null,"<img src=""stim_listB/greet8.gif""style=""height:400px;""></stim_listB>",,html-keyboard-response,393,4621774,0.0-19.0-1.12,55590,List1B,white,man,,,,null,,,,,,,,,
null,is being greeted by,,html-keyboard-response,394,4623779,0.0-19.0-2.12,55590,List1B,white,man,,,,null,,,,,,,,,
8100,,,survey-text,395,4631891,0.0-19.0-3.12,55590,List1B,white,man,,,,,"{""Q0"":""beth is being greeted by jane""}","<img src=""stim_listB/greet8.gif""style=""height:400px;""></stim_listB>",is being greeted by,,,,,,
null,"<div style=""font-size:60px;"">+</div>",,html-keyboard-response,396,4632395,0.0-19.0-0.13,55590,List1B,white,man,,,,null,,,,,,,,,
null,"<img src=""stim_listB/challenge3.gif""style=""height:400px;""></stim_listB>",,html-keyboard-response,397,4634403,0.0-19.0-1.13,55590,List1B,white,man,,,,null,,,,,,,,,
null,is challenging,,html-keyboard-response,398,4636406,0.0-19.0-2.13,55590,List1B,white,man,,,,null,,,,,,,,,
17865.4,,,survey-text,399,4654282,0.0-19.0-3.13,55590,List1B,white,man,,,,,"{""Q0"":""dave is challenging ruth""}","<img src=""stim_listB/challenge3.gif""style=""height:400px;""></stim_listB>",is challenging,,,,,,
null,"<div style=""font-size:60px;"">+</div>",,html-keyboard-response,400,4654786,0.0-19.0-0.14,55590,List1B,white,man,,,,null,,,,,,,,,
null,"<img src=""stim_listB/touch2.gif""style=""height:400px;""></stim_listB>",,html-keyboard-response,401,4656797,0.0-19.0-1.14,55590,List1B,white,man,,,,null,,,,,,,,,
null,is being touched by,,html-keyboard-response,402,4658800,0.0-19.0-2.14,55590,List1B,white,man,,,,null,,,,,,,,,
9510.9,,,survey-text,403,4668322,0.0-19.0-3.14,55590,List1B,white,man,,,,,"{""Q0"":""fred is being touched by beth""}","<img src=""stim_listB/touch2.gif""style=""height:400px;""></stim_listB>",is being touched by,,,,,,
null,"<div style=""font-size:60px;"">+</div>",,html-keyboard-response,404,4668826,0.0-19.0-0.15,55590,List1B,white,man,,,,null,,,,,,,,,
null,"<img src=""stim_listB/look2.gif""style=""height:400px;""></stim_listB>",,html-keyboard-response,405,4670834,0.0-19.0-1.15,55590,List1B,white,man,,,,null,,,,,,,,,
null,is being looked at by,,html-keyboard-response,406,4672838,0.0-19.0-2.15,55590,List1B,white,man,,,,null,,,,,,,,,
12732.1,,,survey-text,407,4685581,0.0-19.0-3.15,55590,List1B,white,man,,,,,"{""Q0"":""kate is being looked at by mike""}","<img src=""stim_listB/look2.gif""style=""height:400px;""></stim_listB>",is being looked at by,,,,,,
null,"<div style=""font-size:60px;"">+</div>",,html-keyboard-response,408,4686086,0.0-19.0-0.16,55590,List1B,white,man,,,,null,,,,,,,,,
null,"<img src=""stim_listB/challenge7.gif""style=""height:400px;""></stim_listB>",,html-keyboard-response,409,4688094,0.0-19.0-1.16,55590,List1B,white,man,,,,null,,,,,,,,,
null,is challenging,,html-keyboard-response,410,4690098,0.0-19.0-2.16,55590,List1B,white,man,,,,null,,,,,,,,,
7828.5,,,survey-text,411,4697937,0.0-19.0-3.16,55590,List1B,white,man,,,,,"{""Q0"":""kate is challenging ruth""}","<img src=""stim_listB/challenge7.gif""style=""height:400px;""></stim_listB>",is challenging,,,,,,
null,"<div style=""font-size:60px;"">+</div>",,html-keyboard-response,412,4698441,0.0-19.0-0.17,55590,List1B,white,man,,,,null,,,,,,,,,
null,"<img src=""stim_listB/touch4.gif""style=""height:400px;""></stim_listB>",,html-keyboard-response,413,4700449,0.0-19.0-1.17,55590,List1B,white,man,,,,null,,,,,,,,,
null,is being touched by,,html-keyboard-response,414,4702453,0.0-19.0-2.17,55590,List1B,white,man,,,,null,,,,,,,,,
9170.5,,,survey-text,415,4711634,0.0-19.0-3.17,55590,List1B,white,man,,,,,"{""Q0"":""ruth is being touched by luke""}","<img src=""stim_listB/touch4.gif""style=""height:400px;""></stim_listB>",is being touched by,,,,,,
null,"<div style=""font-size:60px;"">+</div>",,html-keyboard-response,416,4712137,0.0-19.0-0.18,55590,List1B,white,man,,,,null,,,,,,,,,
null,"<img src=""stim_listB/seduce2.gif""style=""height:400px;""></stim_listB>",,html-keyboard-response,417,4714143,0.0-19.0-1.18,55590,List1B,white,man,,,,null,,,,,,,,,
null,is being seduced by,,html-keyboard-response,418,4716150,0.0-19.0-2.18,55590,List1B,white,man,,,,null,,,,,,,,,
12774.7,,,survey-text,419,4728935,0.0-19.0-3.18,55590,List1B,white,man,,,,,"{""Q0"":""fred is being seduced by beth""}","<img src=""stim_listB/seduce2.gif""style=""height:400px;""></stim_listB>",is being seduced by,,,,,,
null,"<div style=""font-size:60px;"">+</div>",,html-keyboard-response,420,4729440,0.0-19.0-0.19,55590,List1B,white,man,,,,null,,,,,,,,,
null,"<img src=""stim_listB/oppose1.gif""style=""height:400px;""></stim_listB>",,html-keyboard-response,421,4731445,0.0-19.0-1.19,55590,List1B,white,man,,,,null,,,,,,,,,
null,is opposing,,html-keyboard-response,422,4733447,0.0-19.0-2.19,55590,List1B,white,man,,,,null,,,,,,,,,
6862.5,,,survey-text,423,4740313,0.0-19.0-3.19,55590,List1B,white,man,,,,,"{""Q0"":""kate is opposing mike""}","<img src=""stim_listB/oppose1.gif""style=""height:400px;""></stim_listB>",is opposing,,,,,,
2690.6,<p>Thank you for completing that task.</p><p>The final part of this session is a questionnaire that will take about 4 minutes.</p><p>Press Continue.</p>,0,html-button-response,424,4743008,0.0-20.0,55590,List1B,white,man,,,,,,,,,,,,,
41334.5,,,survey-text,425,4785378,0.0-21.0,55590,List1B,white,man,,,,,"{""Q0"":""34"",""Q1"":""English"",""Q2"":""English language"",""Q3"":""USA"",""Q4"":""American"",""Q5"":""White"",""Q6"":""Male""}",,,demographics,,,,,
3120.4,<p>Have you lived in the USA for the last 5 years or more?</p>,0,html-button-response,426,4788511,0.0-22.0,55590,List1B,white,man,,,,,,,,fiveyears,,,,,
1616.2,<p>Move the slider to show the extent to which you agree with the following statements.</p>,0,html-button-response,427,4791134,0.0-23.0,55590,List1B,white,man,,,,,,,,,,,,,
4694.4,,,html-slider-response,428,4796842,0.0-24.0-0.0-0.0,55590,List1B,white,man,,,,,,,,survey_race,93,,,I feel solidarity with my race.,solidarity
2546.9,,,html-slider-response,429,4799402,0.0-24.0-0.0-0.1,55590,List1B,white,man,,,,,,,,survey_race,72,,,Being my age gives me a good feeling.,filler
2760.9,,,html-slider-response,430,4802176,0.0-24.0-0.0-0.2,55590,List1B,white,man,,,,,,,,survey_race,82,,,People my age have a lot in common with each other.,filler
2212.2,,,html-slider-response,431,4804398,0.0-24.0-0.0-0.3,55590,List1B,white,man,,,,,,,,survey_race,89,,,I am glad to be the age I am.,filler
2500.6,,,html-slider-response,432,4806908,0.0-24.0-0.0-0.4,55590,List1B,white,man,,,,,,,,survey_race,77,,,I am similar to the average person of my race.,similar
3450.7,,,html-slider-response,433,4810368,0.0-24.0-0.0-0.5,55590,List1B,white,man,,,,,,,,survey_race,33,,,Getting older does not worry me.,filler
3099.3,,,html-slider-response,434,4813479,0.0-24.0-0.0-0.6,55590,List1B,white,man,,,,,,,,survey_race,72,,,I feel a bond with people the same age as me.,filler
10654.7,,,html-slider-response,435,4824144,0.0-24.0-0.0-0.7,55590,List1B,white,man,,,,,,,,survey_race,89,,,Being my race is an important part of how I see myself.,important
2936.2,,,html-slider-response,436,4827092,0.0-24.0-0.0-0.8,55590,List1B,white,man,,,,,,,,survey_race,83,,,I am glad to be my age.,filler
2652,,,html-slider-response,437,4829752,0.0-24.0-0.0-0.9,55590,List1B,white,man,,,,,,,,survey_race,88,,,I think that my race has a lot to be proud of.,proud
2290.5,,,html-slider-response,438,4832050,0.0-24.0-0.0-0.10,55590,List1B,white,man,,,,,,,,survey_race,77,,,People of my race are very similar to each other.,verysimilar
3465,,,html-slider-response,439,4835523,0.0-24.0-0.0-0.11,55590,List1B,white,man,,,,,,,,survey_race,87,,,I have a lot in common with people of a similar age to me.,filler
3558.9,,,html-slider-response,440,4839099,0.0-24.0-0.0-0.12,55590,List1B,white,man,,,,,,,,survey_race,30,,,I consider myself an introvert.,filler
3135.3,,,html-slider-response,441,4842246,0.0-24.0-0.0-0.13,55590,List1B,white,man,,,,,,,,survey_race,81,,,It is pleasant to be my race.,pleasant
2611.7,,,html-slider-response,442,4844870,0.0-24.0-0.0-0.14,55590,List1B,white,man,,,,,,,,survey_race,75,,,"The older I get, the wiser I feel.",filler
4412.1,,,html-slider-response,443,4849290,0.0-24.0-0.0-0.15,55590,List1B,white,man,,,,,,,,survey_race,83,,,I enjoy being in large groups.,filler
2761.1,,,html-slider-response,444,4852063,0.0-24.0-0.0-0.16,55590,List1B,white,man,,,,,,,,survey_race,86,,,I often think about the fact that I am my age.,filler
2828.6,,,html-slider-response,445,4854899,0.0-24.0-0.0-0.17,55590,List1B,white,man,,,,,,,,survey_race,74,,,I have a lot in common with the average person of my race.,average
3098.9,,,html-slider-response,446,4858010,0.0-24.0-0.0-0.18,55590,List1B,white,man,,,,,,,,survey_race,87,,,I feel a bond with my race.,bond
2589.3,,,html-slider-response,447,4860608,0.0-24.0-0.0-0.19,55590,List1B,white,man,,,,,,,,survey_race,79,,,I feel committed to my race.,committed
3886.6,,,html-slider-response,448,4864505,0.0-24.0-0.0-0.20,55590,List1B,white,man,,,,,,,,survey_race,42,,,My age is not an important part of who I am.,filler
4273.6,,,html-slider-response,449,4868789,0.0-24.0-0.0-0.21,55590,List1B,white,man,,,,,,,,survey_race,91,,,People of my race have a lot in common with each other.,common
2662,,,html-slider-response,450,4871461,0.0-24.0-0.0-0.22,55590,List1B,white,man,,,,,,,,survey_race,73,,,I often think about the fact that I am my race.,often
2571.9,,,html-slider-response,451,4874036,0.0-24.0-0.0-0.23,55590,List1B,white,man,,,,,,,,survey_race,86,,,I am glad to be my race.,glad
2553.5,,,html-slider-response,452,4876598,0.0-24.0-0.0-0.24,55590,List1B,white,man,,,,,,,,survey_race,88,,,Being my race gives me a good feeling.,feeling
2950.2,,,html-slider-response,453,4879559,0.0-24.0-0.0-0.25,55590,List1B,white,man,,,,,,,,survey_race,87,,,The fact that I am my race is an important part of my identity.,identity
2489.4,,,html-slider-response,454,4882056,0.0-24.0-0.0-0.26,55590,List1B,white,man,,,,,,,,survey_race,83,,,I consider myself an extrovert.,filler
2289.6,,,html-slider-response,455,4884354,0.0-24.0-0.0-0.27,55590,List1B,white,man,,,,,,,,survey_race,77,,,I feel solidarity with people the same age as me.,filler
1862.3,,,html-slider-response,456,4886228,0.0-24.0-1.0-0.0,55590,List1B,white,man,,,,,,,,survey_gender,73,,,I feel a bond with my gender.,bond
2376.8,,,html-slider-response,457,4888613,0.0-24.0-1.0-0.1,55590,List1B,white,man,,,,,,,,survey_gender,89,,,I think that my gender has a lot to be proud of.,proud
2352,,,html-slider-response,458,4890973,0.0-24.0-1.0-0.2,55590,List1B,white,man,,,,,,,,survey_gender,80,,,My friends understand me.,filler
3263.5,,,html-slider-response,459,4894245,0.0-24.0-1.0-0.3,55590,List1B,white,man,,,,,,,,survey_gender,87,,,I feel committed to my gender.,committed
2823.6,,,html-slider-response,460,4897084,0.0-24.0-1.0-0.4,55590,List1B,white,man,,,,,,,,survey_gender,90,,,The fact that I am my gender is an important part of my identity.,identity
2614.3,,,html-slider-response,461,4899707,0.0-24.0-1.0-0.5,55590,List1B,white,man,,,,,,,,survey_gender,93,,,Being my gender is an important part of how I see myself.,important
2413.8,,,html-slider-response,462,4902130,0.0-24.0-1.0-0.6,55590,List1B,white,man,,,,,,,,survey_gender,28,,,I would say I am an animal person.,filler
2502.3,,,html-slider-response,463,4904641,0.0-24.0-1.0-0.7,55590,List1B,white,man,,,,,,,,survey_gender,81,,,I am glad to have the friends that I have.,filler
4272.5,,,html-slider-response,464,4908924,0.0-24.0-1.0-0.8,55590,List1B,white,man,,,,,,,,survey_gender,39,,,Family is not more important to me than friendship.,filler
3273,,,html-slider-response,465,4912209,0.0-24.0-1.0-0.9,55590,List1B,white,man,,,,,,,,survey_gender,93,,,Being around my friends gives me a good feeling.,filler
2437.7,,,html-slider-response,466,4914657,0.0-24.0-1.0-0.10,55590,List1B,white,man,,,,,,,,survey_gender,92,,,I am glad to be my gender.,glad
3714.4,,,html-slider-response,467,4918379,0.0-24.0-1.0-0.11,55590,List1B,white,man,,,,,,,,survey_gender,89,,,Most of the friends in my life are very similar to me.,filler
2937.3,,,html-slider-response,468,4921327,0.0-24.0-1.0-0.12,55590,List1B,white,man,,,,,,,,survey_gender,100,,,Being my gender gives me a good feeling.,feeling
2627.9,,,html-slider-response,469,4923963,0.0-24.0-1.0-0.13,55590,List1B,white,man,,,,,,,,survey_gender,90,,,I feel solidarity with my gender.,solidarity
2590.1,,,html-slider-response,470,4926561,0.0-24.0-1.0-0.14,55590,List1B,white,man,,,,,,,,survey_gender,14,,,Routine is not important to me.,filler
4785.8,,,html-slider-response,471,4931358,0.0-24.0-1.0-0.15,55590,List1B,white,man,,,,,,,,survey_gender,90,,,I feel solidarity with my friends.,filler
3660.3,,,html-slider-response,472,4935029,0.0-24.0-1.0-0.16,55590,List1B,white,man,,,,,,,,survey_gender,87,,,People of my gender are very similar to each other.,verysimilar
7944.8,,,html-slider-response,473,4942985,0.0-24.0-1.0-0.17,55590,List1B,white,man,,,,,,,,survey_gender,87,,,It is not always easy for people to know what I am thinking.,filler
2665.5,,,html-slider-response,474,4945659,0.0-24.0-1.0-0.18,55590,List1B,white,man,,,,,,,,survey_gender,81,,,My friends have a lot in common with each other.,filler
3263.6,,,html-slider-response,475,4948932,0.0-24.0-1.0-0.19,55590,List1B,white,man,,,,,,,,survey_gender,75,,,I have a lot in common with the average person of my gender.,average
2900.9,,,html-slider-response,476,4951842,0.0-24.0-1.0-0.20,55590,List1B,white,man,,,,,,,,survey_gender,82,,,I am similar to the average person of my gender.,similar
2698.7,,,html-slider-response,477,4954552,0.0-24.0-1.0-0.21,55590,List1B,white,man,,,,,,,,survey_gender,72,,,I often think about the fact that I am my gender.,often
3724,,,html-slider-response,478,4958288,0.0-24.0-1.0-0.22,55590,List1B,white,man,,,,,,,,survey_gender,100,,,I often think about my actions.,filler
2953.2,,,html-slider-response,479,4961251,0.0-24.0-1.0-0.23,55590,List1B,white,man,,,,,,,,survey_gender,92,,,People of my gender have a lot in common with each other.,common
2684.8,,,html-slider-response,480,4963947,0.0-24.0-1.0-0.24,55590,List1B,white,man,,,,,,,,survey_gender,81,,,I consider myself a highly empathetic person.,filler
3465.2,,,html-slider-response,481,4967420,0.0-24.0-1.0-0.25,55590,List1B,white,man,,,,,,,,survey_gender,91,,,It is pleasant to be my gender.,pleasant
3149.4,,,html-slider-response,482,4970581,0.0-24.0-1.0-0.26,55590,List1B,white,man,,,,,,,,survey_gender,93,,,I have a lot in common with my friends.,filler
2352.7,,,html-slider-response,483,4972941,0.0-24.0-1.0-0.27,55590,List1B,white,man,,,,,,,,survey_gender,86,,,I feel a bond with my friends.,filler
27623.9,,,survey-text,484,5000575,0.0-25.0,55590,List1B,white,man,,,,,"{""Q0"":""ccc""}",,,worker_id,,,,,
6035.8,,,external-html,485,5008479,0.0-26.0,55590,List1B,white,man,debrief.html,,,,,,,,,,,,
