"rt","stimulus","button_pressed","trial_type","trial_index","time_elapsed","internal_node_id","subject","list","ppt_race","ppt_gender","url","first_guess","correct","key_press","responses","image_type","phrase_type","test_part","response","stimulus1","stimulus2","question_type","survey_item"
"3317.5","Welcome to the experiment. Press Continue to begin.","0","html-button-response","0","3319","0.0-0.0","55646","List2A","white","man","","","","","","","","","","","","",""
"108126.5","","","external-html","1","112625","0.0-1.0","55646","List2A","white","man","consent.html","","","","","","","","","","","",""
"177123.79999999702","<p>On the next page, you will see portraits of 8 people and their names.</p><p>Your first task is to take a few minutes to memorise the names of these people.</p><p>You will have to recall their names during the rest of the experiment, so it is</p><p>essential that you try to memorise these people and their names as best as you can.</p><br><p><strong>You will then be tested on your memory of these names and portraits.</strong></p><br><p>The experiment will start after you have completed this memory test.</p><br><p>Ready?</p>","0","html-button-response","2","289750","0.0-2.0","55646","List2A","white","man","","","","","","","","","","","","",""
"139034.19999998808","<img src='img/portrait_matrix_list2.jpg' style='width:900px;height:500px;''></img><p>If you have memorised all the portraits and names and are ready to start, press Continue.</p><p><strong>Please note: Your memory of these faces will be tested 4 times during this experiment.</strong></p>","0","html-button-response","3","429787","0.0-3.0-0.0","55646","List2A","white","man","","","","","","","","","","","","",""
"4977.29999999702","<img src=""portrait/WM1.jpg""style=""height:400px;""></img>","6","html-button-response","4","435767","0.0-3.0-1.0","55646","List2A","white","man","","true","6","","","","","","","","","",""
"null","CORRECT","","html-keyboard-response","5","437270","0.0-3.0-2.0-0.0","55646","List2A","white","man","","","","null","","","","","","","","",""
"6605.29999999702","<img src=""portrait/BM1.jpg""style=""height:400px;""></img>","4","html-button-response","6","443876","0.0-3.0-4.0","55646","List2A","white","man","","true","4","","","","","","","","","",""
"null","CORRECT","","html-keyboard-response","7","445378","0.0-3.0-5.0-0.0","55646","List2A","white","man","","","","null","","","","","","","","",""
"4787.9000000059605","<img src=""portrait/WW2.jpg""style=""height:400px;""></img>","3","html-button-response","8","450167","0.0-3.0-7.0","55646","List2A","white","man","","true","3","","","","","","","","","",""
"null","CORRECT","","html-keyboard-response","9","451669","0.0-3.0-8.0-0.0","55646","List2A","white","man","","","","null","","","","","","","","",""
"21188.40000000596","<img src=""portrait/WW1.jpg""style=""height:400px;""></img>","1","html-button-response","10","472858","0.0-3.0-10.0","55646","List2A","white","man","","true","1","","","","","","","","","",""
"null","CORRECT","","html-keyboard-response","11","474360","0.0-3.0-11.0-0.0","55646","List2A","white","man","","","","null","","","","","","","","",""
"8216","<img src=""portrait/BW1.jpg""style=""height:400px;""></img>","0","html-button-response","12","482577","0.0-3.0-13.0","55646","List2A","white","man","","true","0","","","","","","","","","",""
"null","CORRECT","","html-keyboard-response","13","484079","0.0-3.0-14.0-0.0","55646","List2A","white","man","","","","null","","","","","","","","",""
"11144.20000000298","<img src=""portrait/BW2.jpg""style=""height:400px;""></img>","2","html-button-response","14","495224","0.0-3.0-16.0","55646","List2A","white","man","","true","2","","","","","","","","","",""
"null","CORRECT","","html-keyboard-response","15","496727","0.0-3.0-17.0-0.0","55646","List2A","white","man","","","","null","","","","","","","","",""
"5079.5","<img src=""portrait/BM2.jpg""style=""height:400px;""></img>","5","html-button-response","16","501808","0.0-3.0-19.0","55646","List2A","white","man","","true","5","","","","","","","","","",""
"null","CORRECT","","html-keyboard-response","17","503311","0.0-3.0-20.0-0.0","55646","List2A","white","man","","","","null","","","","","","","","",""
"7564.300000011921","<img src=""portrait/WM2.jpg""style=""height:400px;""></img>","7","html-button-response","18","510876","0.0-3.0-22.0","55646","List2A","white","man","","true","7","","","","","","","","","",""
"null","CORRECT","","html-keyboard-response","19","512379","0.0-3.0-23.0-0.0","55646","List2A","white","man","","","","null","","","","","","","","",""
"1921.7999999970198","<p>You got 8 out of 8 right first time. Press Continue.</p>","0","html-button-response","20","514302","0.0-3.0-25.0","55646","List2A","white","man","","","","","","","","","","","","",""
"43467.20000000298","<p>In this experiment, you will view photographs of the people from the memory game interacting.</p><p>By using the <strong>exact</strong> phrase given <i>after</i> the photograph appears and recalling the correct names of the people in the photographs, form a sentence describing the interaction. You do not need to capitalise names.</p><p>Type your answer in the space provided. Please complete every sentence before moving onto the next trial.</p><p>You will only have a few seconds to memorise each given photograph and phrase before you can respond, so try your best to focus.</p><p>An example is given below. Press 'Continue' when you are ready.</p><img src='img/speaking_example.jpg' style='width:800px;height:460px;''></img>","0","html-button-response","21","558772","0.0-4.0","55646","List2A","white","man","","","","","","","","","","","","",""
"2960.6000000089407","<p>Before the experiment starts, you will watch two example trials. Press 'Continue'.</p>","0","html-button-response","22","562734","0.0-5.0","55646","List2A","white","man","","","","","","","","","","","","",""
"null","<img src='img/play_eg.gif' style='height:400px;''></img>","","html-keyboard-response","23","565736","0.0-6.0","55646","List2A","white","man","","","","null","","","","","","","","",""
"null","<p>is playing with</p>","","html-keyboard-response","24","567738","0.0-7.0","55646","List2A","white","man","","","","null","","","","","","","","",""
"3617.5","<p><b>Answer:</b> jane is playing with ruth</p>","0","html-button-response","25","571356","0.0-8.0","55646","List2A","white","man","","","","","","","","","","","","",""
"null","<img src='img/dance_eg.gif' style='height:400px;''></img>","","html-keyboard-response","26","574358","0.0-9.0","55646","List2A","white","man","","","","null","","","","","","","","",""
"null","<p>is being entertained by</p>","","html-keyboard-response","27","576361","0.0-10.0","55646","List2A","white","man","","","","null","","","","","","","","",""
"1144.0999999940395","<p><b>Answer:</b> fred is being entertained by mike</p>","0","html-button-response","28","577506","0.0-11.0","55646","List2A","white","man","","","","","","","","","","","","",""
"9808","<p>Ready to start the experiment?</p><br><p><strong>Remember to describe the picture using a full sentence,</strong></p><p><strong>that combines the names of the people with the <i>exact</i> phrase given.</strong></p><p><strong>To receive full payment you must do this correctly.</strong></p><p><strong> You do not need to capitalise names or use punctuation.</strong></p><br><p>Press 'Continue' to begin.</p>","0","html-button-response","29","588316","0.0-12.0","55646","List2A","white","man","","","","","","","","","","","","",""
"null","<div style=""font-size:60px;"">+</div>","","html-keyboard-response","30","589819","0.0-13.0-0.0","55646","List2A","white","man","","","","null","","","","","","","","",""
"null","<img src=""stim_listA/challenge7.gif""style=""height:400px;""></stim_listA>","","html-keyboard-response","31","591820","0.0-13.0-1.0","55646","List2A","white","man","","","","null","","","","","","","","",""
"null","is challenging","","html-keyboard-response","32","593821","0.0-13.0-2.0","55646","List2A","white","man","","","","null","","","","","","","","",""
"30390","","","survey-text","33","624216","0.0-13.0-3.0","55646","List2A","white","man","","","","","{""Q0"":""Beth is talking to Jane""}","<img src=""stim_listA/challenge7.gif""style=""height:400px;""></stim_listA>","is challenging","","","","","",""
"null","<div style=""font-size:60px;"">+</div>","","html-keyboard-response","34","624718","0.0-13.0-0.1","55646","List2A","white","man","","","","null","","","","","","","","",""
"null","<img src=""stim_listA/copy4.gif""style=""height:400px;""></stim_listA>","","html-keyboard-response","35","626720","0.0-13.0-1.1","55646","List2A","white","man","","","","null","","","","","","","","",""
"null","is being copied by","","html-keyboard-response","36","628722","0.0-13.0-2.1","55646","List2A","white","man","","","","null","","","","","","","","",""
"43226.59999999404","","","survey-text","37","671950","0.0-13.0-3.1","55646","List2A","white","man","","","","","{""Q0"":""Kate is being copied by Fred""}","<img src=""stim_listA/copy4.gif""style=""height:400px;""></stim_listA>","is being copied by","","","","","",""
"null","<div style=""font-size:60px;"">+</div>","","html-keyboard-response","38","672451","0.0-13.0-0.2","55646","List2A","white","man","","","","null","","","","","","","","",""
"null","<img src=""stim_listA/hug5.gif""style=""height:400px;""></stim_listA>","","html-keyboard-response","39","674453","0.0-13.0-1.2","55646","List2A","white","man","","","","null","","","","","","","","",""
"null","is hugging","","html-keyboard-response","40","676454","0.0-13.0-2.2","55646","List2A","white","man","","","","null","","","","","","","","",""
"23140.10000000894","","","survey-text","41","699596","0.0-13.0-3.2","55646","List2A","white","man","","","","","{""Q0"":""Fred is hugging Luke""}","<img src=""stim_listA/hug5.gif""style=""height:400px;""></stim_listA>","is hugging","","","","","",""
"null","<div style=""font-size:60px;"">+</div>","","html-keyboard-response","42","700100","0.0-13.0-0.3","55646","List2A","white","man","","","","null","","","","","","","","",""
"null","<img src=""stim_listA/kiss4.gif""style=""height:400px;""></stim_listA>","","html-keyboard-response","43","702102","0.0-13.0-1.3","55646","List2A","white","man","","","","null","","","","","","","","",""
"null","is being kissed by","","html-keyboard-response","44","704104","0.0-13.0-2.3","55646","List2A","white","man","","","","null","","","","","","","","",""
"32708.5","","","survey-text","45","736813","0.0-13.0-3.3","55646","List2A","white","man","","","","","{""Q0"":""mike is being kissed by kate""}","<img src=""stim_listA/kiss4.gif""style=""height:400px;""></stim_listA>","is being kissed by","","","","","",""
"null","<div style=""font-size:60px;"">+</div>","","html-keyboard-response","46","737315","0.0-13.0-0.4","55646","List2A","white","man","","","","null","","","","","","","","",""
"null","<img src=""stim_listA/oppose6.gif""style=""height:400px;""></stim_listA>","","html-keyboard-response","47","739316","0.0-13.0-1.4","55646","List2A","white","man","","","","null","","","","","","","","",""
"null","is being opposed by","","html-keyboard-response","48","741317","0.0-13.0-2.4","55646","List2A","white","man","","","","null","","","","","","","","",""
"23433.79999999702","","","survey-text","49","764753","0.0-13.0-3.4","55646","List2A","white","man","","","","","{""Q0"":""luke is being opposed by fred""}","<img src=""stim_listA/oppose6.gif""style=""height:400px;""></stim_listA>","is being opposed by","","","","","",""
"null","<div style=""font-size:60px;"">+</div>","","html-keyboard-response","50","765255","0.0-13.0-0.5","55646","List2A","white","man","","","","null","","","","","","","","",""
"null","<img src=""stim_listA/copy5.gif""style=""height:400px;""></stim_listA>","","html-keyboard-response","51","767257","0.0-13.0-1.5","55646","List2A","white","man","","","","null","","","","","","","","",""
"null","is copying","","html-keyboard-response","52","769258","0.0-13.0-2.5","55646","List2A","white","man","","","","null","","","","","","","","",""
"14803.5","","","survey-text","53","784063","0.0-13.0-3.5","55646","List2A","white","man","","","","","{""Q0"":""dave is fighting with fred""}","<img src=""stim_listA/copy5.gif""style=""height:400px;""></stim_listA>","is copying","","","","","",""
"null","<div style=""font-size:60px;"">+</div>","","html-keyboard-response","54","784565","0.0-13.0-0.6","55646","List2A","white","man","","","","null","","","","","","","","",""
"null","<img src=""stim_listA/kiss3.gif""style=""height:400px;""></stim_listA>","","html-keyboard-response","55","786567","0.0-13.0-1.6","55646","List2A","white","man","","","","null","","","","","","","","",""
"null","is kissing","","html-keyboard-response","56","788581","0.0-13.0-2.6","55646","List2A","white","man","","","","null","","","","","","","","",""
"30369.10000000894","","","survey-text","57","818953","0.0-13.0-3.6","55646","List2A","white","man","","","","","{""Q0"":""fred is kissing beth""}","<img src=""stim_listA/kiss3.gif""style=""height:400px;""></stim_listA>","is kissing","","","","","",""
"null","<div style=""font-size:60px;"">+</div>","","html-keyboard-response","58","819455","0.0-13.0-0.7","55646","List2A","white","man","","","","null","","","","","","","","",""
"null","<img src=""stim_listA/seduce4.gif""style=""height:400px;""></stim_listA>","","html-keyboard-response","59","821457","0.0-13.0-1.7","55646","List2A","white","man","","","","null","","","","","","","","",""
"null","is being seduced by","","html-keyboard-response","60","823459","0.0-13.0-2.7","55646","List2A","white","man","","","","null","","","","","","","","",""
"24314.10000000894","","","survey-text","61","847775","0.0-13.0-3.7","55646","List2A","white","man","","","","","{""Q0"":""mike is being seduced by beth""}","<img src=""stim_listA/seduce4.gif""style=""height:400px;""></stim_listA>","is being seduced by","","","","","",""
"null","<div style=""font-size:60px;"">+</div>","","html-keyboard-response","62","848277","0.0-13.0-0.8","55646","List2A","white","man","","","","null","","","","","","","","",""
"null","<img src=""stim_listA/look5.gif""style=""height:400px;""></stim_listA>","","html-keyboard-response","63","850278","0.0-13.0-1.8","55646","List2A","white","man","","","","null","","","","","","","","",""
"null","is looking at","","html-keyboard-response","64","852279","0.0-13.0-2.8","55646","List2A","white","man","","","","null","","","","","","","","",""
"16487.89999999106","","","survey-text","65","868769","0.0-13.0-3.8","55646","List2A","white","man","","","","","{""Q0"":""luke is looking at fred""}","<img src=""stim_listA/look5.gif""style=""height:400px;""></stim_listA>","is looking at","","","","","",""
"null","<div style=""font-size:60px;"">+</div>","","html-keyboard-response","66","869270","0.0-13.0-0.9","55646","List2A","white","man","","","","null","","","","","","","","",""
"null","<img src=""stim_listA/hug3.gif""style=""height:400px;""></stim_listA>","","html-keyboard-response","67","871272","0.0-13.0-1.9","55646","List2A","white","man","","","","null","","","","","","","","",""
"null","is hugging","","html-keyboard-response","68","873274","0.0-13.0-2.9","55646","List2A","white","man","","","","null","","","","","","","","",""
"12475.29999999702","","","survey-text","69","885751","0.0-13.0-3.9","55646","List2A","white","man","","","","","{""Q0"":""fred is hugging beth""}","<img src=""stim_listA/hug3.gif""style=""height:400px;""></stim_listA>","is hugging","","","","","",""
"null","<div style=""font-size:60px;"">+</div>","","html-keyboard-response","70","886252","0.0-13.0-0.10","55646","List2A","white","man","","","","null","","","","","","","","",""
"null","<img src=""stim_listA/look6.gif""style=""height:400px;""></stim_listA>","","html-keyboard-response","71","888255","0.0-13.0-1.10","55646","List2A","white","man","","","","null","","","","","","","","",""
"null","is being looked at by","","html-keyboard-response","72","890256","0.0-13.0-2.10","55646","List2A","white","man","","","","null","","","","","","","","",""
"19551.5","","","survey-text","73","909809","0.0-13.0-3.10","55646","List2A","white","man","","","","","{""Q0"":""mike is being looked at by dave""}","<img src=""stim_listA/look6.gif""style=""height:400px;""></stim_listA>","is being looked at by","","","","","",""
"null","<div style=""font-size:60px;"">+</div>","","html-keyboard-response","74","910310","0.0-13.0-0.11","55646","List2A","white","man","","","","null","","","","","","","","",""
"null","<img src=""stim_listA/copy1.gif""style=""height:400px;""></stim_listA>","","html-keyboard-response","75","912311","0.0-13.0-1.11","55646","List2A","white","man","","","","null","","","","","","","","",""
"null","is copying","","html-keyboard-response","76","914312","0.0-13.0-2.11","55646","List2A","white","man","","","","null","","","","","","","","",""
"11610.89999999106","","","survey-text","77","925925","0.0-13.0-3.11","55646","List2A","white","man","","","","","{""Q0"":""ruth is copying dave""}","<img src=""stim_listA/copy1.gif""style=""height:400px;""></stim_listA>","is copying","","","","","",""
"null","<div style=""font-size:60px;"">+</div>","","html-keyboard-response","78","926427","0.0-13.0-0.12","55646","List2A","white","man","","","","null","","","","","","","","",""
"null","<img src=""stim_listA/touch2.gif""style=""height:400px;""></stim_listA>","","html-keyboard-response","79","928428","0.0-13.0-1.12","55646","List2A","white","man","","","","null","","","","","","","","",""
"null","is being touched by","","html-keyboard-response","80","930429","0.0-13.0-2.12","55646","List2A","white","man","","","","null","","","","","","","","",""
"22113.90000000596","","","survey-text","81","952545","0.0-13.0-3.12","55646","List2A","white","man","","","","","{""Q0"":""luke is being touched by ruth""}","<img src=""stim_listA/touch2.gif""style=""height:400px;""></stim_listA>","is being touched by","","","","","",""
"null","<div style=""font-size:60px;"">+</div>","","html-keyboard-response","82","953046","0.0-13.0-0.13","55646","List2A","white","man","","","","null","","","","","","","","",""
"null","<img src=""stim_listA/greet3.gif""style=""height:400px;""></stim_listA>","","html-keyboard-response","83","955047","0.0-13.0-1.13","55646","List2A","white","man","","","","null","","","","","","","","",""
"null","is greeting","","html-keyboard-response","84","957048","0.0-13.0-2.13","55646","List2A","white","man","","","","null","","","","","","","","",""
"14148.70000000298","","","survey-text","85","971199","0.0-13.0-3.13","55646","List2A","white","man","","","","","{""Q0"":""mike is greeting beth""}","<img src=""stim_listA/greet3.gif""style=""height:400px;""></stim_listA>","is greeting","","","","","",""
"null","<div style=""font-size:60px;"">+</div>","","html-keyboard-response","86","971700","0.0-13.0-0.14","55646","List2A","white","man","","","","null","","","","","","","","",""
"null","<img src=""stim_listA/look1.gif""style=""height:400px;""></stim_listA>","","html-keyboard-response","87","973703","0.0-13.0-1.14","55646","List2A","white","man","","","","null","","","","","","","","",""
"null","is looking at","","html-keyboard-response","88","975704","0.0-13.0-2.14","55646","List2A","white","man","","","","null","","","","","","","","",""
"10937.10000000894","","","survey-text","89","986643","0.0-13.0-3.14","55646","List2A","white","man","","","","","{""Q0"":""luke is looking at ruth""}","<img src=""stim_listA/look1.gif""style=""height:400px;""></stim_listA>","is looking at","","","","","",""
"null","<div style=""font-size:60px;"">+</div>","","html-keyboard-response","90","987144","0.0-13.0-0.15","55646","List2A","white","man","","","","null","","","","","","","","",""
"null","<img src=""stim_listA/copy6.gif""style=""height:400px;""></stim_listA>","","html-keyboard-response","91","989146","0.0-13.0-1.15","55646","List2A","white","man","","","","null","","","","","","","","",""
"null","is being copied by","","html-keyboard-response","92","991147","0.0-13.0-2.15","55646","List2A","white","man","","","","null","","","","","","","","",""
"8115.70000000298","","","survey-text","93","999265","0.0-13.0-3.15","55646","List2A","white","man","","","","","{""Q0"":""mike is being copied by luke""}","<img src=""stim_listA/copy6.gif""style=""height:400px;""></stim_listA>","is being copied by","","","","","",""
"null","<div style=""font-size:60px;"">+</div>","","html-keyboard-response","94","999767","0.0-13.0-0.16","55646","List2A","white","man","","","","null","","","","","","","","",""
"null","<img src=""stim_listA/seduce5.gif""style=""height:400px;""></stim_listA>","","html-keyboard-response","95","1001769","0.0-13.0-1.16","55646","List2A","white","man","","","","null","","","","","","","","",""
"null","is seducing","","html-keyboard-response","96","1003770","0.0-13.0-2.16","55646","List2A","white","man","","","","null","","","","","","","","",""
"9095.39999999106","","","survey-text","97","1012868","0.0-13.0-3.16","55646","List2A","white","man","","","","","{""Q0"":""mike is seducing luke""}","<img src=""stim_listA/seduce5.gif""style=""height:400px;""></stim_listA>","is seducing","","","","","",""
"null","<div style=""font-size:60px;"">+</div>","","html-keyboard-response","98","1013369","0.0-13.0-0.17","55646","List2A","white","man","","","","null","","","","","","","","",""
"null","<img src=""stim_listA/challenge1.gif""style=""height:400px;""></stim_listA>","","html-keyboard-response","99","1015371","0.0-13.0-1.17","55646","List2A","white","man","","","","null","","","","","","","","",""
"null","is challenging","","html-keyboard-response","100","1017372","0.0-13.0-2.17","55646","List2A","white","man","","","","null","","","","","","","","",""
"5904.5999999940395","","","survey-text","101","1023279","0.0-13.0-3.17","55646","List2A","white","man","","","","","{""Q0"":""ruth is challenging dave""}","<img src=""stim_listA/challenge1.gif""style=""height:400px;""></stim_listA>","is challenging","","","","","",""
"null","<div style=""font-size:60px;"">+</div>","","html-keyboard-response","102","1023784","0.0-13.0-0.18","55646","List2A","white","man","","","","null","","","","","","","","",""
"null","<img src=""stim_listA/oppose8.gif""style=""height:400px;""></stim_listA>","","html-keyboard-response","103","1025793","0.0-13.0-1.18","55646","List2A","white","man","","","","null","","","","","","","","",""
"null","is being opposed by","","html-keyboard-response","104","1027793","0.0-13.0-2.18","55646","List2A","white","man","","","","null","","","","","","","","",""
"13495.40000000596","","","survey-text","105","1041291","0.0-13.0-3.18","55646","List2A","white","man","","","","","{""Q0"":""ruth is being opposed by beth""}","<img src=""stim_listA/oppose8.gif""style=""height:400px;""></stim_listA>","is being opposed by","","","","","",""
"null","<div style=""font-size:60px;"">+</div>","","html-keyboard-response","106","1041792","0.0-13.0-0.19","55646","List2A","white","man","","","","null","","","","","","","","",""
"null","<img src=""stim_listA/shout6.gif""style=""height:400px;""></stim_listA>","","html-keyboard-response","107","1043794","0.0-13.0-1.19","55646","List2A","white","man","","","","null","","","","","","","","",""
"null","is being shouted at by","","html-keyboard-response","108","1045796","0.0-13.0-2.19","55646","List2A","white","man","","","","null","","","","","","","","",""
"12075.20000000298","","","survey-text","109","1057873","0.0-13.0-3.19","55646","List2A","white","man","","","","","{""Q0"":""mike is being shouted at by dave""}","<img src=""stim_listA/shout6.gif""style=""height:400px;""></stim_listA>","is being shouted at by","","","","","",""
"19930.90000000596","<img src='img/portrait_matrix_list2.jpg' style='width:900px;height:500px;''></img><p>If you have memorised all the portraits and names and are ready to start, press Continue.</p><p><strong>Please note: Your memory of these faces will be tested 4 times during this experiment.</strong></p>","0","html-button-response","110","1077805","0.0-14.0-0.0","55646","List2A","white","man","","","","","","","","","","","","",""
"7771.800000011921","<img src=""portrait/WW2.jpg""style=""height:400px;""></img>","3","html-button-response","111","1086579","0.0-14.0-1.0","55646","List2A","white","man","","true","3","","","","","","","","","",""
"null","CORRECT","","html-keyboard-response","112","1088081","0.0-14.0-2.0-0.0","55646","List2A","white","man","","","","null","","","","","","","","",""
"7765.699999988079","<img src=""portrait/BM1.jpg""style=""height:400px;""></img>","4","html-button-response","113","1095847","0.0-14.0-4.0","55646","List2A","white","man","","true","4","","","","","","","","","",""
"null","CORRECT","","html-keyboard-response","114","1097350","0.0-14.0-5.0-0.0","55646","List2A","white","man","","","","null","","","","","","","","",""
"4673.5","<img src=""portrait/WM1.jpg""style=""height:400px;""></img>","6","html-button-response","115","1102024","0.0-14.0-7.0","55646","List2A","white","man","","true","6","","","","","","","","","",""
"null","CORRECT","","html-keyboard-response","116","1103527","0.0-14.0-8.0-0.0","55646","List2A","white","man","","","","null","","","","","","","","",""
"3909.0999999940395","<img src=""portrait/BW1.jpg""style=""height:400px;""></img>","0","html-button-response","117","1107437","0.0-14.0-10.0","55646","List2A","white","man","","true","0","","","","","","","","","",""
"null","CORRECT","","html-keyboard-response","118","1108939","0.0-14.0-11.0-0.0","55646","List2A","white","man","","","","null","","","","","","","","",""
"6982.20000000298","<img src=""portrait/BW2.jpg""style=""height:400px;""></img>","2","html-button-response","119","1115923","0.0-14.0-13.0","55646","List2A","white","man","","true","2","","","","","","","","","",""
"null","CORRECT","","html-keyboard-response","120","1117425","0.0-14.0-14.0-0.0","55646","List2A","white","man","","","","null","","","","","","","","",""
"1706.300000011921","<img src=""portrait/WW1.jpg""style=""height:400px;""></img>","1","html-button-response","121","1119133","0.0-14.0-16.0","55646","List2A","white","man","","true","1","","","","","","","","","",""
"null","CORRECT","","html-keyboard-response","122","1120636","0.0-14.0-17.0-0.0","55646","List2A","white","man","","","","null","","","","","","","","",""
"1989.699999988079","<img src=""portrait/BM2.jpg""style=""height:400px;""></img>","5","html-button-response","123","1122627","0.0-14.0-19.0","55646","List2A","white","man","","true","5","","","","","","","","","",""
"null","CORRECT","","html-keyboard-response","124","1124130","0.0-14.0-20.0-0.0","55646","List2A","white","man","","","","null","","","","","","","","",""
"2754","<img src=""portrait/WM2.jpg""style=""height:400px;""></img>","7","html-button-response","125","1126885","0.0-14.0-22.0","55646","List2A","white","man","","true","7","","","","","","","","","",""
"null","CORRECT","","html-keyboard-response","126","1128387","0.0-14.0-23.0-0.0","55646","List2A","white","man","","","","null","","","","","","","","",""
"1650.9000000059605","<p>You got 8 out of 8 right first time. Press Continue.</p>","0","html-button-response","127","1130039","0.0-14.0-25.0","55646","List2A","white","man","","","","","","","","","","","","",""
"null","<div style=""font-size:60px;"">+</div>","","html-keyboard-response","128","1131541","0.0-15.0-0.0","55646","List2A","white","man","","","","null","","","","","","","","",""
"null","<img src=""stim_listA/touch7.gif""style=""height:400px;""></stim_listA>","","html-keyboard-response","129","1133544","0.0-15.0-1.0","55646","List2A","white","man","","","","null","","","","","","","","",""
"null","is touching","","html-keyboard-response","130","1135545","0.0-15.0-2.0","55646","List2A","white","man","","","","null","","","","","","","","",""
"13429.79999999702","","","survey-text","131","1148977","0.0-15.0-3.0","55646","List2A","white","man","","","","","{""Q0"":""jane is touching kate""}","<img src=""stim_listA/touch7.gif""style=""height:400px;""></stim_listA>","is touching","","","","","",""
"null","<div style=""font-size:60px;"">+</div>","","html-keyboard-response","132","1149478","0.0-15.0-0.1","55646","List2A","white","man","","","","null","","","","","","","","",""
"null","<img src=""stim_listA/oppose4.gif""style=""height:400px;""></stim_listA>","","html-keyboard-response","133","1151480","0.0-15.0-1.1","55646","List2A","white","man","","","","null","","","","","","","","",""
"null","is being opposed by","","html-keyboard-response","134","1153481","0.0-15.0-2.1","55646","List2A","white","man","","","","null","","","","","","","","",""
"13053.199999988079","","","survey-text","135","1166537","0.0-15.0-3.1","55646","List2A","white","man","","","","","{""Q0"":""beth is being opposed by fred""}","<img src=""stim_listA/oppose4.gif""style=""height:400px;""></stim_listA>","is being opposed by","","","","","",""
"null","<div style=""font-size:60px;"">+</div>","","html-keyboard-response","136","1167038","0.0-15.0-0.2","55646","List2A","white","man","","","","null","","","","","","","","",""
"null","<img src=""stim_listA/kiss6.gif""style=""height:400px;""></stim_listA>","","html-keyboard-response","137","1169040","0.0-15.0-1.2","55646","List2A","white","man","","","","null","","","","","","","","",""
"null","is being kissed by","","html-keyboard-response","138","1171040","0.0-15.0-2.2","55646","List2A","white","man","","","","null","","","","","","","","",""
"7648.199999988079","","","survey-text","139","1178691","0.0-15.0-3.2","55646","List2A","white","man","","","","","{""Q0"":""mike is being kissed by dave""}","<img src=""stim_listA/kiss6.gif""style=""height:400px;""></stim_listA>","is being kissed by","","","","","",""
"null","<div style=""font-size:60px;"">+</div>","","html-keyboard-response","140","1179192","0.0-15.0-0.3","55646","List2A","white","man","","","","null","","","","","","","","",""
"null","<img src=""stim_listA/look4.gif""style=""height:400px;""></stim_listA>","","html-keyboard-response","141","1181193","0.0-15.0-1.3","55646","List2A","white","man","","","","null","","","","","","","","",""
"null","is being looked at by","","html-keyboard-response","142","1183194","0.0-15.0-2.3","55646","List2A","white","man","","","","null","","","","","","","","",""
"13868.5","","","survey-text","143","1197065","0.0-15.0-3.3","55646","List2A","white","man","","","","","{""Q0"":""mike is being looked at by jane""}","<img src=""stim_listA/look4.gif""style=""height:400px;""></stim_listA>","is being looked at by","","","","","",""
"null","<div style=""font-size:60px;"">+</div>","","html-keyboard-response","144","1197566","0.0-15.0-0.4","55646","List2A","white","man","","","","null","","","","","","","","",""
"null","<img src=""stim_listA/greet8.gif""style=""height:400px;""></stim_listA>","","html-keyboard-response","145","1199567","0.0-15.0-1.4","55646","List2A","white","man","","","","null","","","","","","","","",""
"null","is being greeted by","","html-keyboard-response","146","1201568","0.0-15.0-2.4","55646","List2A","white","man","","","","null","","","","","","","","",""
"9504.5","","","survey-text","147","1211075","0.0-15.0-3.4","55646","List2A","white","man","","","","","{""Q0"":""jane is being greeted by ruth""}","<img src=""stim_listA/greet8.gif""style=""height:400px;""></stim_listA>","is being greeted by","","","","","",""
"null","<div style=""font-size:60px;"">+</div>","","html-keyboard-response","148","1211576","0.0-15.0-0.5","55646","List2A","white","man","","","","null","","","","","","","","",""
"null","<img src=""stim_listA/shout3.gif""style=""height:400px;""></stim_listA>","","html-keyboard-response","149","1213578","0.0-15.0-1.5","55646","List2A","white","man","","","","null","","","","","","","","",""
"null","is shouting at","","html-keyboard-response","150","1215580","0.0-15.0-2.5","55646","List2A","white","man","","","","null","","","","","","","","",""
"11622.90000000596","","","survey-text","151","1227204","0.0-15.0-3.5","55646","List2A","white","man","","","","","{""Q0"":""fred is shouting at beth""}","<img src=""stim_listA/shout3.gif""style=""height:400px;""></stim_listA>","is shouting at","","","","","",""
"null","<div style=""font-size:60px;"">+</div>","","html-keyboard-response","152","1227705","0.0-15.0-0.6","55646","List2A","white","man","","","","null","","","","","","","","",""
"null","<img src=""stim_listA/shout4.gif""style=""height:400px;""></stim_listA>","","html-keyboard-response","153","1229707","0.0-15.0-1.6","55646","List2A","white","man","","","","null","","","","","","","","",""
"null","is being shouted at by","","html-keyboard-response","154","1231708","0.0-15.0-2.6","55646","List2A","white","man","","","","null","","","","","","","","",""
"11986.89999999106","","","survey-text","155","1243697","0.0-15.0-3.6","55646","List2A","white","man","","","","","{""Q0"":""mike is being shouted at by jane""}","<img src=""stim_listA/shout4.gif""style=""height:400px;""></stim_listA>","is being shouted at by","","","","","",""
"null","<div style=""font-size:60px;"">+</div>","","html-keyboard-response","156","1244213","0.0-15.0-0.7","55646","List2A","white","man","","","","null","","","","","","","","",""
"null","<img src=""stim_listA/challenge2.gif""style=""height:400px;""></stim_listA>","","html-keyboard-response","157","1246214","0.0-15.0-1.7","55646","List2A","white","man","","","","null","","","","","","","","",""
"null","is being challenged by","","html-keyboard-response","158","1248215","0.0-15.0-2.7","55646","List2A","white","man","","","","null","","","","","","","","",""
"17736.90000000596","","","survey-text","159","1265955","0.0-15.0-3.7","55646","List2A","white","man","","","","","{""Q0"":""luke is being challenged by jane""}","<img src=""stim_listA/challenge2.gif""style=""height:400px;""></stim_listA>","is being challenged by","","","","","",""
"null","<div style=""font-size:60px;"">+</div>","","html-keyboard-response","160","1266456","0.0-15.0-0.8","55646","List2A","white","man","","","","null","","","","","","","","",""
"null","<img src=""stim_listA/seduce8.gif""style=""height:400px;""></stim_listA>","","html-keyboard-response","161","1268457","0.0-15.0-1.8","55646","List2A","white","man","","","","null","","","","","","","","",""
"null","is being seduced by","","html-keyboard-response","162","1270459","0.0-15.0-2.8","55646","List2A","white","man","","","","null","","","","","","","","",""
"19314.89999999106","","","survey-text","163","1289776","0.0-15.0-3.8","55646","List2A","white","man","","","","","{""Q0"":""beth is being seduced by jane""}","<img src=""stim_listA/seduce8.gif""style=""height:400px;""></stim_listA>","is being seduced by","","","","","",""
"null","<div style=""font-size:60px;"">+</div>","","html-keyboard-response","164","1290277","0.0-15.0-0.9","55646","List2A","white","man","","","","null","","","","","","","","",""
"null","<img src=""stim_listA/greet2.gif""style=""height:400px;""></stim_listA>","","html-keyboard-response","165","1292280","0.0-15.0-1.9","55646","List2A","white","man","","","","null","","","","","","","","",""
"null","is being greeted by","","html-keyboard-response","166","1294282","0.0-15.0-2.9","55646","List2A","white","man","","","","null","","","","","","","","",""
"12178.90000000596","","","survey-text","167","1306463","0.0-15.0-3.9","55646","List2A","white","man","","","","","{""Q0"":""luke is being greeted by jane""}","<img src=""stim_listA/greet2.gif""style=""height:400px;""></stim_listA>","is being greeted by","","","","","",""
"null","<div style=""font-size:60px;"">+</div>","","html-keyboard-response","168","1306965","0.0-15.0-0.10","55646","List2A","white","man","","","","null","","","","","","","","",""
"null","<img src=""stim_listA/oppose5.gif""style=""height:400px;""></stim_listA>","","html-keyboard-response","169","1308967","0.0-15.0-1.10","55646","List2A","white","man","","","","null","","","","","","","","",""
"null","is opposing","","html-keyboard-response","170","1310977","0.0-15.0-2.10","55646","List2A","white","man","","","","null","","","","","","","","",""
"6179.5","","","survey-text","171","1317159","0.0-15.0-3.10","55646","List2A","white","man","","","","","{""Q0"":""mike is opposing dave""}","<img src=""stim_listA/oppose5.gif""style=""height:400px;""></stim_listA>","is opposing","","","","","",""
"null","<div style=""font-size:60px;"">+</div>","","html-keyboard-response","172","1317669","0.0-15.0-0.11","55646","List2A","white","man","","","","null","","","","","","","","",""
"null","<img src=""stim_listA/touch3.gif""style=""height:400px;""></stim_listA>","","html-keyboard-response","173","1319670","0.0-15.0-1.11","55646","List2A","white","man","","","","null","","","","","","","","",""
"null","is touching","","html-keyboard-response","174","1321671","0.0-15.0-2.11","55646","List2A","white","man","","","","null","","","","","","","","",""
"3937.5999999940395","","","survey-text","175","1325611","0.0-15.0-3.11","55646","List2A","white","man","","","","","{""Q0"":""mike is touching kate""}","<img src=""stim_listA/touch3.gif""style=""height:400px;""></stim_listA>","is touching","","","","","",""
"null","<div style=""font-size:60px;"">+</div>","","html-keyboard-response","176","1326112","0.0-15.0-0.12","55646","List2A","white","man","","","","null","","","","","","","","",""
"null","<img src=""stim_listA/shout1.gif""style=""height:400px;""></stim_listA>","","html-keyboard-response","177","1328114","0.0-15.0-1.12","55646","List2A","white","man","","","","null","","","","","","","","",""
"null","is shouting at","","html-keyboard-response","178","1330116","0.0-15.0-2.12","55646","List2A","white","man","","","","null","","","","","","","","",""
"5962.800000011921","","","survey-text","179","1336081","0.0-15.0-3.12","55646","List2A","white","man","","","","","{""Q0"":""luke is shouting at ruth""}","<img src=""stim_listA/shout1.gif""style=""height:400px;""></stim_listA>","is shouting at","","","","","",""
"null","<div style=""font-size:60px;"">+</div>","","html-keyboard-response","180","1336583","0.0-15.0-0.13","55646","List2A","white","man","","","","null","","","","","","","","",""
"null","<img src=""stim_listA/hug2.gif""style=""height:400px;""></stim_listA>","","html-keyboard-response","181","1338585","0.0-15.0-1.13","55646","List2A","white","man","","","","null","","","","","","","","",""
"null","is being hugged by","","html-keyboard-response","182","1340587","0.0-15.0-2.13","55646","List2A","white","man","","","","null","","","","","","","","",""
"8105.70000000298","","","survey-text","183","1348694","0.0-15.0-3.13","55646","List2A","white","man","","","","","{""Q0"":""dave is being hugged by jane""}","<img src=""stim_listA/hug2.gif""style=""height:400px;""></stim_listA>","is being hugged by","","","","","",""
"null","<div style=""font-size:60px;"">+</div>","","html-keyboard-response","184","1349205","0.0-15.0-0.14","55646","List2A","white","man","","","","null","","","","","","","","",""
"null","<img src=""stim_listA/challenge8.gif""style=""height:400px;""></stim_listA>","","html-keyboard-response","185","1351207","0.0-15.0-1.14","55646","List2A","white","man","","","","null","","","","","","","","",""
"null","is being challenged by","","html-keyboard-response","186","1353208","0.0-15.0-2.14","55646","List2A","white","man","","","","null","","","","","","","","",""
"11439","","","survey-text","187","1364649","0.0-15.0-3.14","55646","List2A","white","man","","","","","{""Q0"":""ruth is being challenged by kate""}","<img src=""stim_listA/challenge8.gif""style=""height:400px;""></stim_listA>","is being challenged by","","","","","",""
"null","<div style=""font-size:60px;"">+</div>","","html-keyboard-response","188","1365150","0.0-15.0-0.15","55646","List2A","white","man","","","","null","","","","","","","","",""
"null","<img src=""stim_listA/seduce1.gif""style=""height:400px;""></stim_listA>","","html-keyboard-response","189","1367151","0.0-15.0-1.15","55646","List2A","white","man","","","","null","","","","","","","","",""
"null","is seducing","","html-keyboard-response","190","1369152","0.0-15.0-2.15","55646","List2A","white","man","","","","null","","","","","","","","",""
"12556.699999988079","","","survey-text","191","1381711","0.0-15.0-3.15","55646","List2A","white","man","","","","","{""Q0"":""luke is seducing jane""}","<img src=""stim_listA/seduce1.gif""style=""height:400px;""></stim_listA>","is seducing","","","","","",""
"null","<div style=""font-size:60px;"">+</div>","","html-keyboard-response","192","1382212","0.0-15.0-0.16","55646","List2A","white","man","","","","null","","","","","","","","",""
"null","<img src=""stim_listA/look2.gif""style=""height:400px;""></stim_listA>","","html-keyboard-response","193","1384214","0.0-15.0-1.16","55646","List2A","white","man","","","","null","","","","","","","","",""
"null","is being looked at by","","html-keyboard-response","194","1386215","0.0-15.0-2.16","55646","List2A","white","man","","","","null","","","","","","","","",""
"13561","","","survey-text","195","1399779","0.0-15.0-3.16","55646","List2A","white","man","","","","","{""Q0"":""jane is being looked at by dave""}","<img src=""stim_listA/look2.gif""style=""height:400px;""></stim_listA>","is being looked at by","","","","","",""
"null","<div style=""font-size:60px;"">+</div>","","html-keyboard-response","196","1400280","0.0-15.0-0.17","55646","List2A","white","man","","","","null","","","","","","","","",""
"null","<img src=""stim_listA/greet5.gif""style=""height:400px;""></stim_listA>","","html-keyboard-response","197","1402281","0.0-15.0-1.17","55646","List2A","white","man","","","","null","","","","","","","","",""
"null","is greeting","","html-keyboard-response","198","1404282","0.0-15.0-2.17","55646","List2A","white","man","","","","null","","","","","","","","",""
"6618","","","survey-text","199","1410902","0.0-15.0-3.17","55646","List2A","white","man","","","","","{""Q0"":""fred is greeting dave""}","<img src=""stim_listA/greet5.gif""style=""height:400px;""></stim_listA>","is greeting","","","","","",""
"null","<div style=""font-size:60px;"">+</div>","","html-keyboard-response","200","1411403","0.0-15.0-0.18","55646","List2A","white","man","","","","null","","","","","","","","",""
"null","<img src=""stim_listA/hug7.gif""style=""height:400px;""></stim_listA>","","html-keyboard-response","201","1413405","0.0-15.0-1.18","55646","List2A","white","man","","","","null","","","","","","","","",""
"null","is hugging","","html-keyboard-response","202","1415407","0.0-15.0-2.18","55646","List2A","white","man","","","","null","","","","","","","","",""
"7878.79999999702","","","survey-text","203","1423288","0.0-15.0-3.18","55646","List2A","white","man","","","","","{""Q0"":""ruth is hugging beth""}","<img src=""stim_listA/hug7.gif""style=""height:400px;""></stim_listA>","is hugging","","","","","",""
"null","<div style=""font-size:60px;"">+</div>","","html-keyboard-response","204","1423789","0.0-15.0-0.19","55646","List2A","white","man","","","","null","","","","","","","","",""
"null","<img src=""stim_listA/kiss8.gif""style=""height:400px;""></stim_listA>","","html-keyboard-response","205","1425791","0.0-15.0-1.19","55646","List2A","white","man","","","","null","","","","","","","","",""
"null","is being kissed by","","html-keyboard-response","206","1427792","0.0-15.0-2.19","55646","List2A","white","man","","","","null","","","","","","","","",""
"9017.89999999106","","","survey-text","207","1436812","0.0-15.0-3.19","55646","List2A","white","man","","","","","{""Q0"":""jane is being kissed by kate""}","<img src=""stim_listA/kiss8.gif""style=""height:400px;""></stim_listA>","is being kissed by","","","","","",""
"10152.5","<img src='img/portrait_matrix_list2.jpg' style='width:900px;height:500px;''></img><p>If you have memorised all the portraits and names and are ready to start, press Continue.</p><p><strong>Please note: Your memory of these faces will be tested 4 times during this experiment.</strong></p>","0","html-button-response","208","1446966","0.0-16.0-0.0","55646","List2A","white","man","","","","","","","","","","","","",""
"2509.7999999970198","<img src=""portrait/WW2.jpg""style=""height:400px;""></img>","3","html-button-response","209","1450478","0.0-16.0-1.0","55646","List2A","white","man","","true","3","","","","","","","","","",""
"null","CORRECT","","html-keyboard-response","210","1451980","0.0-16.0-2.0-0.0","55646","List2A","white","man","","","","null","","","","","","","","",""
"3897","<img src=""portrait/WM2.jpg""style=""height:400px;""></img>","7","html-button-response","211","1455878","0.0-16.0-4.0","55646","List2A","white","man","","true","7","","","","","","","","","",""
"null","CORRECT","","html-keyboard-response","212","1457381","0.0-16.0-5.0-0.0","55646","List2A","white","man","","","","null","","","","","","","","",""
"1470.699999988079","<img src=""portrait/WW1.jpg""style=""height:400px;""></img>","1","html-button-response","213","1458853","0.0-16.0-7.0","55646","List2A","white","man","","true","1","","","","","","","","","",""
"null","CORRECT","","html-keyboard-response","214","1460355","0.0-16.0-8.0-0.0","55646","List2A","white","man","","","","null","","","","","","","","",""
"1939.7999999970198","<img src=""portrait/BW1.jpg""style=""height:400px;""></img>","0","html-button-response","215","1462297","0.0-16.0-10.0","55646","List2A","white","man","","true","0","","","","","","","","","",""
"null","CORRECT","","html-keyboard-response","216","1463799","0.0-16.0-11.0-0.0","55646","List2A","white","man","","","","null","","","","","","","","",""
"1550","<img src=""portrait/BM1.jpg""style=""height:400px;""></img>","4","html-button-response","217","1465351","0.0-16.0-13.0","55646","List2A","white","man","","true","4","","","","","","","","","",""
"null","CORRECT","","html-keyboard-response","218","1466853","0.0-16.0-14.0-0.0","55646","List2A","white","man","","","","null","","","","","","","","",""
"1970","<img src=""portrait/BM2.jpg""style=""height:400px;""></img>","5","html-button-response","219","1468825","0.0-16.0-16.0","55646","List2A","white","man","","true","5","","","","","","","","","",""
"null","CORRECT","","html-keyboard-response","220","1470327","0.0-16.0-17.0-0.0","55646","List2A","white","man","","","","null","","","","","","","","",""
"2504","<img src=""portrait/BW2.jpg""style=""height:400px;""></img>","2","html-button-response","221","1472834","0.0-16.0-19.0","55646","List2A","white","man","","true","2","","","","","","","","","",""
"null","CORRECT","","html-keyboard-response","222","1474336","0.0-16.0-20.0-0.0","55646","List2A","white","man","","","","null","","","","","","","","",""
"2339.7000000029802","<img src=""portrait/WM1.jpg""style=""height:400px;""></img>","6","html-button-response","223","1476677","0.0-16.0-22.0","55646","List2A","white","man","","true","6","","","","","","","","","",""
"null","CORRECT","","html-keyboard-response","224","1478181","0.0-16.0-23.0-0.0","55646","List2A","white","man","","","","null","","","","","","","","",""
"1394.5999999940395","<p>You got 8 out of 8 right first time. Press Continue.</p>","0","html-button-response","225","1479577","0.0-16.0-25.0","55646","List2A","white","man","","","","","","","","","","","","",""
"null","<div style=""font-size:60px;"">+</div>","","html-keyboard-response","226","1481079","0.0-17.0-0.0","55646","List2A","white","man","","","","null","","","","","","","","",""
"null","<img src=""stim_listA/kiss5.gif""style=""height:400px;""></stim_listA>","","html-keyboard-response","227","1483081","0.0-17.0-1.0","55646","List2A","white","man","","","","null","","","","","","","","",""
"null","is kissing","","html-keyboard-response","228","1485082","0.0-17.0-2.0","55646","List2A","white","man","","","","null","","","","","","","","",""
"7196.5","","","survey-text","229","1492281","0.0-17.0-3.0","55646","List2A","white","man","","","","","{""Q0"":""luke is kissing fred""}","<img src=""stim_listA/kiss5.gif""style=""height:400px;""></stim_listA>","is kissing","","","","","",""
"null","<div style=""font-size:60px;"">+</div>","","html-keyboard-response","230","1492781","0.0-17.0-0.1","55646","List2A","white","man","","","","null","","","","","","","","",""
"null","<img src=""stim_listA/greet1.gif""style=""height:400px;""></stim_listA>","","html-keyboard-response","231","1494784","0.0-17.0-1.1","55646","List2A","white","man","","","","null","","","","","","","","",""
"null","is greeting","","html-keyboard-response","232","1496785","0.0-17.0-2.1","55646","List2A","white","man","","","","null","","","","","","","","",""
"5523.600000008941","","","survey-text","233","1502310","0.0-17.0-3.1","55646","List2A","white","man","","","","","{""Q0"":""ruth is greeting dave""}","<img src=""stim_listA/greet1.gif""style=""height:400px;""></stim_listA>","is greeting","","","","","",""
"null","<div style=""font-size:60px;"">+</div>","","html-keyboard-response","234","1502811","0.0-17.0-0.2","55646","List2A","white","man","","","","null","","","","","","","","",""
"null","<img src=""stim_listA/touch1.gif""style=""height:400px;""></stim_listA>","","html-keyboard-response","235","1504813","0.0-17.0-1.2","55646","List2A","white","man","","","","null","","","","","","","","",""
"null","is touching","","html-keyboard-response","236","1506814","0.0-17.0-2.2","55646","List2A","white","man","","","","null","","","","","","","","",""
"8928.5","","","survey-text","237","1515745","0.0-17.0-3.2","55646","List2A","white","man","","","","","{""Q0"":""jane is touching dave""}","<img src=""stim_listA/touch1.gif""style=""height:400px;""></stim_listA>","is touching","","","","","",""
"null","<div style=""font-size:60px;"">+</div>","","html-keyboard-response","238","1516246","0.0-17.0-0.3","55646","List2A","white","man","","","","null","","","","","","","","",""
"null","<img src=""stim_listA/touch5.gif""style=""height:400px;""></stim_listA>","","html-keyboard-response","239","1518247","0.0-17.0-1.3","55646","List2A","white","man","","","","null","","","","","","","","",""
"null","is touching","","html-keyboard-response","240","1520248","0.0-17.0-2.3","55646","List2A","white","man","","","","null","","","","","","","","",""
"5956.5999999940395","","","survey-text","241","1526206","0.0-17.0-3.3","55646","List2A","white","man","","","","","{""Q0"":""mike is touching dave""}","<img src=""stim_listA/touch5.gif""style=""height:400px;""></stim_listA>","is touching","","","","","",""
"null","<div style=""font-size:60px;"">+</div>","","html-keyboard-response","242","1526708","0.0-17.0-0.4","55646","List2A","white","man","","","","null","","","","","","","","",""
"null","<img src=""stim_listA/challenge5.gif""style=""height:400px;""></stim_listA>","","html-keyboard-response","243","1528709","0.0-17.0-1.4","55646","List2A","white","man","","","","null","","","","","","","","",""
"null","is challenging","","html-keyboard-response","244","1530711","0.0-17.0-2.4","55646","List2A","white","man","","","","null","","","","","","","","",""
"5087.0999999940395","","","survey-text","245","1535800","0.0-17.0-3.4","55646","List2A","white","man","","","","","{""Q0"":""dave is challenging fred""}","<img src=""stim_listA/challenge5.gif""style=""height:400px;""></stim_listA>","is challenging","","","","","",""
"null","<div style=""font-size:60px;"">+</div>","","html-keyboard-response","246","1536302","0.0-17.0-0.5","55646","List2A","white","man","","","","null","","","","","","","","",""
"null","<img src=""stim_listA/oppose1.gif""style=""height:400px;""></stim_listA>","","html-keyboard-response","247","1538304","0.0-17.0-1.5","55646","List2A","white","man","","","","null","","","","","","","","",""
"null","is opposing","","html-keyboard-response","248","1540305","0.0-17.0-2.5","55646","List2A","white","man","","","","null","","","","","","","","",""
"8554.79999999702","","","survey-text","249","1548862","0.0-17.0-3.5","55646","List2A","white","man","","","","","{""Q0"":""jane is opposing dave""}","<img src=""stim_listA/oppose1.gif""style=""height:400px;""></stim_listA>","is opposing","","","","","",""
"null","<div style=""font-size:60px;"">+</div>","","html-keyboard-response","250","1549364","0.0-17.0-0.6","55646","List2A","white","man","","","","null","","","","","","","","",""
"null","<img src=""stim_listA/shout2.gif""style=""height:400px;""></stim_listA>","","html-keyboard-response","251","1551366","0.0-17.0-1.6","55646","List2A","white","man","","","","null","","","","","","","","",""
"null","is being shouted at by","","html-keyboard-response","252","1553368","0.0-17.0-2.6","55646","List2A","white","man","","","","null","","","","","","","","",""
"9762.29999999702","","","survey-text","253","1563132","0.0-17.0-3.6","55646","List2A","white","man","","","","","{""Q0"":""jane is being shouted at by dave""}","<img src=""stim_listA/shout2.gif""style=""height:400px;""></stim_listA>","is being shouted at by","","","","","",""
"null","<div style=""font-size:60px;"">+</div>","","html-keyboard-response","254","1563633","0.0-17.0-0.7","55646","List2A","white","man","","","","null","","","","","","","","",""
"null","<img src=""stim_listA/shout7.gif""style=""height:400px;""></stim_listA>","","html-keyboard-response","255","1565635","0.0-17.0-1.7","55646","List2A","white","man","","","","null","","","","","","","","",""
"null","is shouting at","","html-keyboard-response","256","1567637","0.0-17.0-2.7","55646","List2A","white","man","","","","null","","","","","","","","",""
"9001.29999999702","","","survey-text","257","1576640","0.0-17.0-3.7","55646","List2A","white","man","","","","","{""Q0"":""ruth is shouting at beth""}","<img src=""stim_listA/shout7.gif""style=""height:400px;""></stim_listA>","is shouting at","","","","","",""
"null","<div style=""font-size:60px;"">+</div>","","html-keyboard-response","258","1577141","0.0-17.0-0.8","55646","List2A","white","man","","","","null","","","","","","","","",""
"null","<img src=""stim_listA/touch6.gif""style=""height:400px;""></stim_listA>","","html-keyboard-response","259","1579144","0.0-17.0-1.8","55646","List2A","white","man","","","","null","","","","","","","","",""
"null","is being touched by","","html-keyboard-response","260","1581145","0.0-17.0-2.8","55646","List2A","white","man","","","","null","","","","","","","","",""
"8103.29999999702","","","survey-text","261","1589251","0.0-17.0-3.8","55646","List2A","white","man","","","","","{""Q0"":""luke is being touched by fred""}","<img src=""stim_listA/touch6.gif""style=""height:400px;""></stim_listA>","is being touched by","","","","","",""
"null","<div style=""font-size:60px;"">+</div>","","html-keyboard-response","262","1589752","0.0-17.0-0.9","55646","List2A","white","man","","","","null","","","","","","","","",""
"null","<img src=""stim_listA/copy7.gif""style=""height:400px;""></stim_listA>","","html-keyboard-response","263","1591754","0.0-17.0-1.9","55646","List2A","white","man","","","","null","","","","","","","","",""
"null","is copying","","html-keyboard-response","264","1593756","0.0-17.0-2.9","55646","List2A","white","man","","","","null","","","","","","","","",""
"5492.5","","","survey-text","265","1599251","0.0-17.0-3.9","55646","List2A","white","man","","","","","{""Q0"":""beth is copying jane""}","<img src=""stim_listA/copy7.gif""style=""height:400px;""></stim_listA>","is copying","","","","","",""
"null","<div style=""font-size:60px;"">+</div>","","html-keyboard-response","266","1599752","0.0-17.0-0.10","55646","List2A","white","man","","","","null","","","","","","","","",""
"null","<img src=""stim_listA/oppose7.gif""style=""height:400px;""></stim_listA>","","html-keyboard-response","267","1601753","0.0-17.0-1.10","55646","List2A","white","man","","","","null","","","","","","","","",""
"null","is opposing","","html-keyboard-response","268","1603754","0.0-17.0-2.10","55646","List2A","white","man","","","","null","","","","","","","","",""
"5622","","","survey-text","269","1609379","0.0-17.0-3.10","55646","List2A","white","man","","","","","{""Q0"":""kate is opposing jane""}","<img src=""stim_listA/oppose7.gif""style=""height:400px;""></stim_listA>","is opposing","","","","","",""
"null","<div style=""font-size:60px;"">+</div>","","html-keyboard-response","270","1609880","0.0-17.0-0.11","55646","List2A","white","man","","","","null","","","","","","","","",""
"null","<img src=""stim_listA/challenge4.gif""style=""height:400px;""></stim_listA>","","html-keyboard-response","271","1611882","0.0-17.0-1.11","55646","List2A","white","man","","","","null","","","","","","","","",""
"null","is being challenged by","","html-keyboard-response","272","1613883","0.0-17.0-2.11","55646","List2A","white","man","","","","null","","","","","","","","",""
"8821.70000000298","","","survey-text","273","1622707","0.0-17.0-3.11","55646","List2A","white","man","","","","","{""Q0"":""kate is being challenged by fred""}","<img src=""stim_listA/challenge4.gif""style=""height:400px;""></stim_listA>","is being challenged by","","","","","",""
"null","<div style=""font-size:60px;"">+</div>","","html-keyboard-response","274","1623208","0.0-17.0-0.12","55646","List2A","white","man","","","","null","","","","","","","","",""
"null","<img src=""stim_listA/hug4.gif""style=""height:400px;""></stim_listA>","","html-keyboard-response","275","1625209","0.0-17.0-1.12","55646","List2A","white","man","","","","null","","","","","","","","",""
"null","is being hugged by","","html-keyboard-response","276","1627211","0.0-17.0-2.12","55646","List2A","white","man","","","","null","","","","","","","","",""
"43019.29999999702","","","survey-text","277","1670233","0.0-17.0-3.12","55646","List2A","white","man","","","","","{""Q0"":""kate is being hugged by fred""}","<img src=""stim_listA/hug4.gif""style=""height:400px;""></stim_listA>","is being hugged by","","","","","",""
"null","<div style=""font-size:60px;"">+</div>","","html-keyboard-response","278","1670734","0.0-17.0-0.13","55646","List2A","white","man","","","","null","","","","","","","","",""
"null","<img src=""stim_listA/look8.gif""style=""height:400px;""></stim_listA>","","html-keyboard-response","279","1672735","0.0-17.0-1.13","55646","List2A","white","man","","","","null","","","","","","","","",""
"null","is being looked at by","","html-keyboard-response","280","1674736","0.0-17.0-2.13","55646","List2A","white","man","","","","null","","","","","","","","",""
"9428.199999988079","","","survey-text","281","1684166","0.0-17.0-3.13","55646","List2A","white","man","","","","","{""Q0"":""kate is being looked at by jane""}","<img src=""stim_listA/look8.gif""style=""height:400px;""></stim_listA>","is being looked at by","","","","","",""
"null","<div style=""font-size:60px;"">+</div>","","html-keyboard-response","282","1684679","0.0-17.0-0.14","55646","List2A","white","man","","","","null","","","","","","","","",""
"null","<img src=""stim_listA/seduce6.gif""style=""height:400px;""></stim_listA>","","html-keyboard-response","283","1686680","0.0-17.0-1.14","55646","List2A","white","man","","","","null","","","","","","","","",""
"null","is being seduced by","","html-keyboard-response","284","1688682","0.0-17.0-2.14","55646","List2A","white","man","","","","null","","","","","","","","",""
"11520.40000000596","","","survey-text","285","1700204","0.0-17.0-3.14","55646","List2A","white","man","","","","","{""Q0"":""fred is being seduced by dave""}","<img src=""stim_listA/seduce6.gif""style=""height:400px;""></stim_listA>","is being seduced by","","","","","",""
"null","<div style=""font-size:60px;"">+</div>","","html-keyboard-response","286","1700706","0.0-17.0-0.15","55646","List2A","white","man","","","","null","","","","","","","","",""
"null","<img src=""stim_listA/kiss2.gif""style=""height:400px;""></stim_listA>","","html-keyboard-response","287","1702707","0.0-17.0-1.15","55646","List2A","white","man","","","","null","","","","","","","","",""
"null","is being kissed by","","html-keyboard-response","288","1704708","0.0-17.0-2.15","55646","List2A","white","man","","","","null","","","","","","","","",""
"6834.5","","","survey-text","289","1711544","0.0-17.0-3.15","55646","List2A","white","man","","","","","{""Q0"":""jane is being kissed by dave""}","<img src=""stim_listA/kiss2.gif""style=""height:400px;""></stim_listA>","is being kissed by","","","","","",""
"null","<div style=""font-size:60px;"">+</div>","","html-keyboard-response","290","1712045","0.0-17.0-0.16","55646","List2A","white","man","","","","null","","","","","","","","",""
"null","<img src=""stim_listA/hug8.gif""style=""height:400px;""></stim_listA>","","html-keyboard-response","291","1714046","0.0-17.0-1.16","55646","List2A","white","man","","","","null","","","","","","","","",""
"null","is being hugged by","","html-keyboard-response","292","1716047","0.0-17.0-2.16","55646","List2A","white","man","","","","null","","","","","","","","",""
"15776.59999999404","","","survey-text","293","1731826","0.0-17.0-3.16","55646","List2A","white","man","","","","","{""Q0"":""kate is being hugged by jane""}","<img src=""stim_listA/hug8.gif""style=""height:400px;""></stim_listA>","is being hugged by","","","","","",""
"null","<div style=""font-size:60px;"">+</div>","","html-keyboard-response","294","1732341","0.0-17.0-0.17","55646","List2A","white","man","","","","null","","","","","","","","",""
"null","<img src=""stim_listA/shout5.gif""style=""height:400px;""></stim_listA>","","html-keyboard-response","295","1734343","0.0-17.0-1.17","55646","List2A","white","man","","","","null","","","","","","","","",""
"null","is shouting at","","html-keyboard-response","296","1736345","0.0-17.0-2.17","55646","List2A","white","man","","","","null","","","","","","","","",""
"9081.59999999404","","","survey-text","297","1745428","0.0-17.0-3.17","55646","List2A","white","man","","","","","{""Q0"":""luke is shouting at fred""}","<img src=""stim_listA/shout5.gif""style=""height:400px;""></stim_listA>","is shouting at","","","","","",""
"null","<div style=""font-size:60px;"">+</div>","","html-keyboard-response","298","1745929","0.0-17.0-0.18","55646","List2A","white","man","","","","null","","","","","","","","",""
"null","<img src=""stim_listA/copy3.gif""style=""height:400px;""></stim_listA>","","html-keyboard-response","299","1747931","0.0-17.0-1.18","55646","List2A","white","man","","","","null","","","","","","","","",""
"null","is copying","","html-keyboard-response","300","1749932","0.0-17.0-2.18","55646","List2A","white","man","","","","null","","","","","","","","",""
"6274.5999999940395","","","survey-text","301","1756208","0.0-17.0-3.18","55646","List2A","white","man","","","","","{""Q0"":""mike is copying fred""}","<img src=""stim_listA/copy3.gif""style=""height:400px;""></stim_listA>","is copying","","","","","",""
"null","<div style=""font-size:60px;"">+</div>","","html-keyboard-response","302","1756709","0.0-17.0-0.19","55646","List2A","white","man","","","","null","","","","","","","","",""
"null","<img src=""stim_listA/hug6.gif""style=""height:400px;""></stim_listA>","","html-keyboard-response","303","1758711","0.0-17.0-1.19","55646","List2A","white","man","","","","null","","","","","","","","",""
"null","is being hugged by","","html-keyboard-response","304","1760713","0.0-17.0-2.19","55646","List2A","white","man","","","","null","","","","","","","","",""
"15791.70000000298","","","survey-text","305","1776506","0.0-17.0-3.19","55646","List2A","white","man","","","","","{""Q0"":""mike is being hugged by dave""}","<img src=""stim_listA/hug6.gif""style=""height:400px;""></stim_listA>","is being hugged by","","","","","",""
"271544.299999997","<img src='img/portrait_matrix_list2.jpg' style='width:900px;height:500px;''></img><p>If you have memorised all the portraits and names and are ready to start, press Continue.</p><p><strong>Please note: Your memory of these faces will be tested 4 times during this experiment.</strong></p>","0","html-button-response","306","2048052","0.0-18.0-0.0","55646","List2A","white","man","","","","","","","","","","","","",""
"2750.4000000059605","<img src=""portrait/WW2.jpg""style=""height:400px;""></img>","3","html-button-response","307","2051804","0.0-18.0-1.0","55646","List2A","white","man","","true","3","","","","","","","","","",""
"null","CORRECT","","html-keyboard-response","308","2053319","0.0-18.0-2.0-0.0","55646","List2A","white","man","","","","null","","","","","","","","",""
"1681.4000000059605","<img src=""portrait/BW1.jpg""style=""height:400px;""></img>","0","html-button-response","309","2055002","0.0-18.0-4.0","55646","List2A","white","man","","true","0","","","","","","","","","",""
"null","CORRECT","","html-keyboard-response","310","2056503","0.0-18.0-5.0-0.0","55646","List2A","white","man","","","","null","","","","","","","","",""
"1853.2999999970198","<img src=""portrait/BM2.jpg""style=""height:400px;""></img>","5","html-button-response","311","2058358","0.0-18.0-7.0","55646","List2A","white","man","","true","5","","","","","","","","","",""
"null","CORRECT","","html-keyboard-response","312","2059859","0.0-18.0-8.0-0.0","55646","List2A","white","man","","","","null","","","","","","","","",""
"2677.2999999970198","<img src=""portrait/WM2.jpg""style=""height:400px;""></img>","7","html-button-response","313","2062537","0.0-18.0-10.0","55646","List2A","white","man","","true","7","","","","","","","","","",""
"null","CORRECT","","html-keyboard-response","314","2064039","0.0-18.0-11.0-0.0","55646","List2A","white","man","","","","null","","","","","","","","",""
"4495.29999999702","<img src=""portrait/BW2.jpg""style=""height:400px;""></img>","2","html-button-response","315","2068536","0.0-18.0-13.0","55646","List2A","white","man","","true","2","","","","","","","","","",""
"null","CORRECT","","html-keyboard-response","316","2070038","0.0-18.0-14.0-0.0","55646","List2A","white","man","","","","null","","","","","","","","",""
"1826.0999999940395","<img src=""portrait/BM1.jpg""style=""height:400px;""></img>","4","html-button-response","317","2071866","0.0-18.0-16.0","55646","List2A","white","man","","true","4","","","","","","","","","",""
"null","CORRECT","","html-keyboard-response","318","2073369","0.0-18.0-17.0-0.0","55646","List2A","white","man","","","","null","","","","","","","","",""
"2002.199999988079","<img src=""portrait/WM1.jpg""style=""height:400px;""></img>","6","html-button-response","319","2075374","0.0-18.0-19.0","55646","List2A","white","man","","true","6","","","","","","","","","",""
"null","CORRECT","","html-keyboard-response","320","2076878","0.0-18.0-20.0-0.0","55646","List2A","white","man","","","","null","","","","","","","","",""
"2156.7999999970198","<img src=""portrait/WW1.jpg""style=""height:400px;""></img>","1","html-button-response","321","2079036","0.0-18.0-22.0","55646","List2A","white","man","","true","1","","","","","","","","","",""
"null","CORRECT","","html-keyboard-response","322","2080537","0.0-18.0-23.0-0.0","55646","List2A","white","man","","","","null","","","","","","","","",""
"1501.2999999970198","<p>You got 8 out of 8 right first time. Press Continue.</p>","0","html-button-response","323","2082040","0.0-18.0-25.0","55646","List2A","white","man","","","","","","","","","","","","",""
"null","<div style=""font-size:60px;"">+</div>","","html-keyboard-response","324","2083541","0.0-19.0-0.0","55646","List2A","white","man","","","","null","","","","","","","","",""
"null","<img src=""stim_listA/look3.gif""style=""height:400px;""></stim_listA>","","html-keyboard-response","325","2085543","0.0-19.0-1.0","55646","List2A","white","man","","","","null","","","","","","","","",""
"null","is looking at","","html-keyboard-response","326","2087544","0.0-19.0-2.0","55646","List2A","white","man","","","","null","","","","","","","","",""
"8021.70000000298","","","survey-text","327","2095568","0.0-19.0-3.0","55646","List2A","white","man","","","","","{""Q0"":""fred is looking at beth""}","<img src=""stim_listA/look3.gif""style=""height:400px;""></stim_listA>","is looking at","","","","","",""
"null","<div style=""font-size:60px;"">+</div>","","html-keyboard-response","328","2096069","0.0-19.0-0.1","55646","List2A","white","man","","","","null","","","","","","","","",""
"null","<img src=""stim_listA/oppose2.gif""style=""height:400px;""></stim_listA>","","html-keyboard-response","329","2098072","0.0-19.0-1.1","55646","List2A","white","man","","","","null","","","","","","","","",""
"null","is being opposed by","","html-keyboard-response","330","2100074","0.0-19.0-2.1","55646","List2A","white","man","","","","null","","","","","","","","",""
"8033.5999999940395","","","survey-text","331","2108109","0.0-19.0-3.1","55646","List2A","white","man","","","","","{""Q0"":""luke is being opposed by ruth""}","<img src=""stim_listA/oppose2.gif""style=""height:400px;""></stim_listA>","is being opposed by","","","","","",""
"null","<div style=""font-size:60px;"">+</div>","","html-keyboard-response","332","2108611","0.0-19.0-0.2","55646","List2A","white","man","","","","null","","","","","","","","",""
"null","<img src=""stim_listA/shout8.gif""style=""height:400px;""></stim_listA>","","html-keyboard-response","333","2110613","0.0-19.0-1.2","55646","List2A","white","man","","","","null","","","","","","","","",""
"null","is being shouted at by","","html-keyboard-response","334","2112614","0.0-19.0-2.2","55646","List2A","white","man","","","","null","","","","","","","","",""
"413700","","","survey-text","335","2526317","0.0-19.0-3.2","55646","List2A","white","man","","","","","{""Q0"":""jane is being shouted at by kate""}","<img src=""stim_listA/shout8.gif""style=""height:400px;""></stim_listA>","is being shouted at by","","","","","",""
"null","<div style=""font-size:60px;"">+</div>","","html-keyboard-response","336","2526818","0.0-19.0-0.3","55646","List2A","white","man","","","","null","","","","","","","","",""
"null","<img src=""stim_listA/challenge3.gif""style=""height:400px;""></stim_listA>","","html-keyboard-response","337","2528820","0.0-19.0-1.3","55646","List2A","white","man","","","","null","","","","","","","","",""
"null","is challenging","","html-keyboard-response","338","2530821","0.0-19.0-2.3","55646","List2A","white","man","","","","null","","","","","","","","",""
"7032.29999999702","","","survey-text","339","2537855","0.0-19.0-3.3","55646","List2A","white","man","","","","","{""Q0"":""mike is challenging beth""}","<img src=""stim_listA/challenge3.gif""style=""height:400px;""></stim_listA>","is challenging","","","","","",""
"null","<div style=""font-size:60px;"">+</div>","","html-keyboard-response","340","2538356","0.0-19.0-0.4","55646","List2A","white","man","","","","null","","","","","","","","",""
"null","<img src=""stim_listA/oppose3.gif""style=""height:400px;""></stim_listA>","","html-keyboard-response","341","2540358","0.0-19.0-1.4","55646","List2A","white","man","","","","null","","","","","","","","",""
"null","is opposing","","html-keyboard-response","342","2542359","0.0-19.0-2.4","55646","List2A","white","man","","","","null","","","","","","","","",""
"132582.29999999702","","","survey-text","343","2674942","0.0-19.0-3.4","55646","List2A","white","man","","","","","{""Q0"":""mike is opposing kate""}","<img src=""stim_listA/oppose3.gif""style=""height:400px;""></stim_listA>","is opposing","","","","","",""
"null","<div style=""font-size:60px;"">+</div>","","html-keyboard-response","344","2675444","0.0-19.0-0.5","55646","List2A","white","man","","","","null","","","","","","","","",""
"null","<img src=""stim_listA/kiss7.gif""style=""height:400px;""></stim_listA>","","html-keyboard-response","345","2677445","0.0-19.0-1.5","55646","List2A","white","man","","","","null","","","","","","","","",""
"null","is kissing","","html-keyboard-response","346","2679446","0.0-19.0-2.5","55646","List2A","white","man","","","","null","","","","","","","","",""
"7112.70000000298","","","survey-text","347","2686560","0.0-19.0-3.5","55646","List2A","white","man","","","","","{""Q0"":""ruth is kissing beth""}","<img src=""stim_listA/kiss7.gif""style=""height:400px;""></stim_listA>","is kissing","","","","","",""
"null","<div style=""font-size:60px;"">+</div>","","html-keyboard-response","348","2687061","0.0-19.0-0.6","55646","List2A","white","man","","","","null","","","","","","","","",""
"null","<img src=""stim_listA/greet7.gif""style=""height:400px;""></stim_listA>","","html-keyboard-response","349","2689062","0.0-19.0-1.6","55646","List2A","white","man","","","","null","","","","","","","","",""
"null","is greeting","","html-keyboard-response","350","2691064","0.0-19.0-2.6","55646","List2A","white","man","","","","null","","","","","","","","",""
"7300.4000000059605","","","survey-text","351","2698366","0.0-19.0-3.6","55646","List2A","white","man","","","","","{""Q0"":""jane is greeting beth""}","<img src=""stim_listA/greet7.gif""style=""height:400px;""></stim_listA>","is greeting","","","","","",""
"null","<div style=""font-size:60px;"">+</div>","","html-keyboard-response","352","2698867","0.0-19.0-0.7","55646","List2A","white","man","","","","null","","","","","","","","",""
"null","<img src=""stim_listA/seduce7.gif""style=""height:400px;""></stim_listA>","","html-keyboard-response","353","2700868","0.0-19.0-1.7","55646","List2A","white","man","","","","null","","","","","","","","",""
"null","is seducing","","html-keyboard-response","354","2702870","0.0-19.0-2.7","55646","List2A","white","man","","","","null","","","","","","","","",""
"7650.800000011921","","","survey-text","355","2710522","0.0-19.0-3.7","55646","List2A","white","man","","","","","{""Q0"":""ruth is seducing kate""}","<img src=""stim_listA/seduce7.gif""style=""height:400px;""></stim_listA>","is seducing","","","","","",""
"null","<div style=""font-size:60px;"">+</div>","","html-keyboard-response","356","2711023","0.0-19.0-0.8","55646","List2A","white","man","","","","null","","","","","","","","",""
"null","<img src=""stim_listA/greet6.gif""style=""height:400px;""></stim_listA>","","html-keyboard-response","357","2713025","0.0-19.0-1.8","55646","List2A","white","man","","","","null","","","","","","","","",""
"null","is being greeted by","","html-keyboard-response","358","2715026","0.0-19.0-2.8","55646","List2A","white","man","","","","null","","","","","","","","",""
"112545.90000000596","","","survey-text","359","2827574","0.0-19.0-3.8","55646","List2A","white","man","","","","","{""Q0"":""luke is being greeted by dave""}","<img src=""stim_listA/greet6.gif""style=""height:400px;""></stim_listA>","is being greeted by","","","","","",""
"null","<div style=""font-size:60px;"">+</div>","","html-keyboard-response","360","2828076","0.0-19.0-0.9","55646","List2A","white","man","","","","null","","","","","","","","",""
"null","<img src=""stim_listA/challenge6.gif""style=""height:400px;""></stim_listA>","","html-keyboard-response","361","2830077","0.0-19.0-1.9","55646","List2A","white","man","","","","null","","","","","","","","",""
"null","is being challenged by","","html-keyboard-response","362","2832079","0.0-19.0-2.9","55646","List2A","white","man","","","","null","","","","","","","","",""
"9528.89999999106","","","survey-text","363","2841610","0.0-19.0-3.9","55646","List2A","white","man","","","","","{""Q0"":""mike is being challenged by luke""}","<img src=""stim_listA/challenge6.gif""style=""height:400px;""></stim_listA>","is being challenged by","","","","","",""
"null","<div style=""font-size:60px;"">+</div>","","html-keyboard-response","364","2842111","0.0-19.0-0.10","55646","List2A","white","man","","","","null","","","","","","","","",""
"null","<img src=""stim_listA/hug1.gif""style=""height:400px;""></stim_listA>","","html-keyboard-response","365","2844114","0.0-19.0-1.10","55646","List2A","white","man","","","","null","","","","","","","","",""
"null","is hugging","","html-keyboard-response","366","2846116","0.0-19.0-2.10","55646","List2A","white","man","","","","null","","","","","","","","",""
"6883.9000000059605","","","survey-text","367","2853002","0.0-19.0-3.10","55646","List2A","white","man","","","","","{""Q0"":""ruth is hugging luke""}","<img src=""stim_listA/hug1.gif""style=""height:400px;""></stim_listA>","is hugging","","","","","",""
"null","<div style=""font-size:60px;"">+</div>","","html-keyboard-response","368","2853504","0.0-19.0-0.11","55646","List2A","white","man","","","","null","","","","","","","","",""
"null","<img src=""stim_listA/touch8.gif""style=""height:400px;""></stim_listA>","","html-keyboard-response","369","2855506","0.0-19.0-1.11","55646","List2A","white","man","","","","null","","","","","","","","",""
"null","is being touched by","","html-keyboard-response","370","2857507","0.0-19.0-2.11","55646","List2A","white","man","","","","null","","","","","","","","",""
"9227.10000000894","","","survey-text","371","2866736","0.0-19.0-3.11","55646","List2A","white","man","","","","","{""Q0"":""beth is being touched by ruth""}","<img src=""stim_listA/touch8.gif""style=""height:400px;""></stim_listA>","is being touched by","","","","","",""
"null","<div style=""font-size:60px;"">+</div>","","html-keyboard-response","372","2867237","0.0-19.0-0.12","55646","List2A","white","man","","","","null","","","","","","","","",""
"null","<img src=""stim_listA/copy8.gif""style=""height:400px;""></stim_listA>","","html-keyboard-response","373","2869239","0.0-19.0-1.12","55646","List2A","white","man","","","","null","","","","","","","","",""
"null","is being copied by","","html-keyboard-response","374","2871242","0.0-19.0-2.12","55646","List2A","white","man","","","","null","","","","","","","","",""
"8495.09999999404","","","survey-text","375","2879739","0.0-19.0-3.12","55646","List2A","white","man","","","","","{""Q0"":""kate is being copied by ruth""}","<img src=""stim_listA/copy8.gif""style=""height:400px;""></stim_listA>","is being copied by","","","","","",""
"null","<div style=""font-size:60px;"">+</div>","","html-keyboard-response","376","2880240","0.0-19.0-0.13","55646","List2A","white","man","","","","null","","","","","","","","",""
"null","<img src=""stim_listA/touch4.gif""style=""height:400px;""></stim_listA>","","html-keyboard-response","377","2882242","0.0-19.0-1.13","55646","List2A","white","man","","","","null","","","","","","","","",""
"null","is being touched by","","html-keyboard-response","378","2884243","0.0-19.0-2.13","55646","List2A","white","man","","","","null","","","","","","","","",""
"7433.79999999702","","","survey-text","379","2891679","0.0-19.0-3.13","55646","List2A","white","man","","","","","{""Q0"":""beth is being touched by fred""}","<img src=""stim_listA/touch4.gif""style=""height:400px;""></stim_listA>","is being touched by","","","","","",""
"null","<div style=""font-size:60px;"">+</div>","","html-keyboard-response","380","2892180","0.0-19.0-0.14","55646","List2A","white","man","","","","null","","","","","","","","",""
"null","<img src=""stim_listA/copy2.gif""style=""height:400px;""></stim_listA>","","html-keyboard-response","381","2894181","0.0-19.0-1.14","55646","List2A","white","man","","","","null","","","","","","","","",""
"null","is being copied by","","html-keyboard-response","382","2896183","0.0-19.0-2.14","55646","List2A","white","man","","","","null","","","","","","","","",""
"8540","","","survey-text","383","2904725","0.0-19.0-3.14","55646","List2A","white","man","","","","","{""Q0"":""jane is being copied by luke""}","<img src=""stim_listA/copy2.gif""style=""height:400px;""></stim_listA>","is being copied by","","","","","",""
"null","<div style=""font-size:60px;"">+</div>","","html-keyboard-response","384","2905226","0.0-19.0-0.15","55646","List2A","white","man","","","","null","","","","","","","","",""
"null","<img src=""stim_listA/seduce2.gif""style=""height:400px;""></stim_listA>","","html-keyboard-response","385","2907228","0.0-19.0-1.15","55646","List2A","white","man","","","","null","","","","","","","","",""
"null","is being seduced by","","html-keyboard-response","386","2909229","0.0-19.0-2.15","55646","List2A","white","man","","","","null","","","","","","","","",""
"262150.59999999404","","","survey-text","387","3171382","0.0-19.0-3.15","55646","List2A","white","man","","","","","{""Q0"":""ruth is being seduced by dave""}","<img src=""stim_listA/seduce2.gif""style=""height:400px;""></stim_listA>","is being seduced by","","","","","",""
"null","<div style=""font-size:60px;"">+</div>","","html-keyboard-response","388","3171883","0.0-19.0-0.16","55646","List2A","white","man","","","","null","","","","","","","","",""
"null","<img src=""stim_listA/look7.gif""style=""height:400px;""></stim_listA>","","html-keyboard-response","389","3173885","0.0-19.0-1.16","55646","List2A","white","man","","","","null","","","","","","","","",""
"null","is looking at","","html-keyboard-response","390","3175887","0.0-19.0-2.16","55646","List2A","white","man","","","","null","","","","","","","","",""
"6736","","","survey-text","391","3182626","0.0-19.0-3.16","55646","List2A","white","man","","","","","{""Q0"":""ruth is looking at beth""}","<img src=""stim_listA/look7.gif""style=""height:400px;""></stim_listA>","is looking at","","","","","",""
"null","<div style=""font-size:60px;"">+</div>","","html-keyboard-response","392","3183127","0.0-19.0-0.17","55646","List2A","white","man","","","","null","","","","","","","","",""
"null","<img src=""stim_listA/kiss1.gif""style=""height:400px;""></stim_listA>","","html-keyboard-response","393","3185129","0.0-19.0-1.17","55646","List2A","white","man","","","","null","","","","","","","","",""
"null","is kissing","","html-keyboard-response","394","3187131","0.0-19.0-2.17","55646","List2A","white","man","","","","null","","","","","","","","",""
"5712.4000000059605","","","survey-text","395","3192845","0.0-19.0-3.17","55646","List2A","white","man","","","","","{""Q0"":""ruth is kissing luke""}","<img src=""stim_listA/kiss1.gif""style=""height:400px;""></stim_listA>","is kissing","","","","","",""
"null","<div style=""font-size:60px;"">+</div>","","html-keyboard-response","396","3193347","0.0-19.0-0.18","55646","List2A","white","man","","","","null","","","","","","","","",""
"null","<img src=""stim_listA/greet4.gif""style=""height:400px;""></stim_listA>","","html-keyboard-response","397","3195350","0.0-19.0-1.18","55646","List2A","white","man","","","","null","","","","","","","","",""
"null","is being greeted by","","html-keyboard-response","398","3197350","0.0-19.0-2.18","55646","List2A","white","man","","","","null","","","","","","","","",""
"8219.20000000298","","","survey-text","399","3205572","0.0-19.0-3.18","55646","List2A","white","man","","","","","{""Q0"":""kate is being greeted by fred""}","<img src=""stim_listA/greet4.gif""style=""height:400px;""></stim_listA>","is being greeted by","","","","","",""
"null","<div style=""font-size:60px;"">+</div>","","html-keyboard-response","400","3206073","0.0-19.0-0.19","55646","List2A","white","man","","","","null","","","","","","","","",""
"null","<img src=""stim_listA/seduce3.gif""style=""height:400px;""></stim_listA>","","html-keyboard-response","401","3208075","0.0-19.0-1.19","55646","List2A","white","man","","","","null","","","","","","","","",""
"null","is seducing","","html-keyboard-response","402","3210076","0.0-19.0-2.19","55646","List2A","white","man","","","","null","","","","","","","","",""
"5881.70000000298","","","survey-text","403","3215960","0.0-19.0-3.19","55646","List2A","white","man","","","","","{""Q0"":""kate is seducing fred""}","<img src=""stim_listA/seduce3.gif""style=""height:400px;""></stim_listA>","is seducing","","","","","",""
"3415","<p>Thank you for completing that task.</p><p>The final part of this session is a questionnaire that will take about 4 minutes.</p><p>Press Continue.</p>","0","html-button-response","404","3219376","0.0-20.0","55646","List2A","white","man","","","","","","","","","","","","",""
"21818.39999999106","","","survey-text","405","3242202","0.0-21.0","55646","List2A","white","man","","","","","{""Q0"":""49"",""Q1"":""english"",""Q2"":""english"",""Q3"":""USA"",""Q4"":""American"",""Q5"":""White"",""Q6"":""Male""}","","","demographics","","","","",""
"1740.2000000029802","<p>Have you lived in the USA for the last 5 years or more?</p>","0","html-button-response","406","3243944","0.0-22.0","55646","List2A","white","man","","","","","","","","fiveyears","","","","",""
"2071.5","<p>Move the slider to show the extent to which you agree with the following statements.</p>","0","html-button-response","407","3247018","0.0-23.0","55646","List2A","white","man","","","","","","","","","","","","",""
"6373.20000000298","","","html-slider-response","408","3254393","0.0-24.0-0.0-0.0","55646","List2A","white","man","","","","","","","","survey_race","51","","","I feel solidarity with people the same age as me.","filler"
"6780.9000000059605","","","html-slider-response","409","3261176","0.0-24.0-0.0-0.1","55646","List2A","white","man","","","","","","","","survey_race","72","","","I often think about the fact that I am my age.","filler"
"2528.5999999940395","","","html-slider-response","410","3263706","0.0-24.0-0.0-0.2","55646","List2A","white","man","","","","","","","","survey_race","16","","","I consider myself an extrovert.","filler"
"2883.1000000089407","","","html-slider-response","411","3266590","0.0-24.0-0.0-0.3","55646","List2A","white","man","","","","","","","","survey_race","60","","","The older I get, the wiser I feel.","filler"
"4312.79999999702","","","html-slider-response","412","3270904","0.0-24.0-0.0-0.4","55646","List2A","white","man","","","","","","","","survey_race","60","","","The fact that I am my race is an important part of my identity.","identity"
"4194.70000000298","","","html-slider-response","413","3275100","0.0-24.0-0.0-0.5","55646","List2A","white","man","","","","","","","","survey_race","51","","","I am similar to the average person of my race.","similar"
"3746.9000000059605","","","html-slider-response","414","3278848","0.0-24.0-0.0-0.6","55646","List2A","white","man","","","","","","","","survey_race","70","","","I am glad to be my race.","glad"
"3292.5999999940395","","","html-slider-response","415","3282142","0.0-24.0-0.0-0.7","55646","List2A","white","man","","","","","","","","survey_race","11","","","I enjoy being in large groups.","filler"
"5235","","","html-slider-response","416","3287378","0.0-24.0-0.0-0.8","55646","List2A","white","man","","","","","","","","survey_race","38","","","I feel a bond with people the same age as me.","filler"
"3764.7000000029802","","","html-slider-response","417","3291144","0.0-24.0-0.0-0.9","55646","List2A","white","man","","","","","","","","survey_race","51","","","I am glad to be the age I am.","filler"
"3122.4000000059605","","","html-slider-response","418","3294268","0.0-24.0-0.0-0.10","55646","List2A","white","man","","","","","","","","survey_race","62","","","It is pleasant to be my race.","pleasant"
"2976.7000000029802","","","html-slider-response","419","3297246","0.0-24.0-0.0-0.11","55646","List2A","white","man","","","","","","","","survey_race","58","","","Being my race gives me a good feeling.","feeling"
"2768.7999999970198","","","html-slider-response","420","3300016","0.0-24.0-0.0-0.12","55646","List2A","white","man","","","","","","","","survey_race","58","","","I am glad to be my age.","filler"
"4899.29999999702","","","html-slider-response","421","3304916","0.0-24.0-0.0-0.13","55646","List2A","white","man","","","","","","","","survey_race","15","","","I feel solidarity with my race.","solidarity"
"4542.79999999702","","","html-slider-response","422","3309460","0.0-24.0-0.0-0.14","55646","List2A","white","man","","","","","","","","survey_race","29","","","I feel committed to my race.","committed"
"4130.399999991059","","","html-slider-response","423","3313592","0.0-24.0-0.0-0.15","55646","List2A","white","man","","","","","","","","survey_race","33","","","People my age have a lot in common with each other.","filler"
"3353.2999999970198","","","html-slider-response","424","3316946","0.0-24.0-0.0-0.16","55646","List2A","white","man","","","","","","","","survey_race","27","","","People of my race have a lot in common with each other.","common"
"4166.79999999702","","","html-slider-response","425","3321114","0.0-24.0-0.0-0.17","55646","List2A","white","man","","","","","","","","survey_race","61","","","I often think about the fact that I am my race.","often"
"2740.0999999940395","","","html-slider-response","426","3323856","0.0-24.0-0.0-0.18","55646","List2A","white","man","","","","","","","","survey_race","47","","","Being my age gives me a good feeling.","filler"
"4004.9000000059605","","","html-slider-response","427","3327862","0.0-24.0-0.0-0.19","55646","List2A","white","man","","","","","","","","survey_race","96","","","I consider myself an introvert.","filler"
"3158.2999999970198","","","html-slider-response","428","3331022","0.0-24.0-0.0-0.20","55646","List2A","white","man","","","","","","","","survey_race","36","","","People of my race are very similar to each other.","verysimilar"
"3807.2000000029802","","","html-slider-response","429","3334830","0.0-24.0-0.0-0.21","55646","List2A","white","man","","","","","","","","survey_race","25","","","Being my race is an important part of how I see myself.","important"
"6032.70000000298","","","html-slider-response","430","3340864","0.0-24.0-0.0-0.22","55646","List2A","white","man","","","","","","","","survey_race","55","","","My age is not an important part of who I am.","filler"
"3906.7999999970198","","","html-slider-response","431","3344772","0.0-24.0-0.0-0.23","55646","List2A","white","man","","","","","","","","survey_race","19","","","I think that my race has a lot to be proud of.","proud"
"4878.899999991059","","","html-slider-response","432","3349652","0.0-24.0-0.0-0.24","55646","List2A","white","man","","","","","","","","survey_race","32","","","I feel a bond with my race.","bond"
"4452.899999991059","","","html-slider-response","433","3354106","0.0-24.0-0.0-0.25","55646","List2A","white","man","","","","","","","","survey_race","35","","","I have a lot in common with the average person of my race.","average"
"3373.199999988079","","","html-slider-response","434","3357480","0.0-24.0-0.0-0.26","55646","List2A","white","man","","","","","","","","survey_race","43","","","I have a lot in common with people of a similar age to me.","filler"
"3694.5","","","html-slider-response","435","3361176","0.0-24.0-0.0-0.27","55646","List2A","white","man","","","","","","","","survey_race","28","","","Getting older does not worry me.","filler"
"4452.70000000298","","","html-slider-response","436","3365630","0.0-24.0-1.0-0.0","55646","List2A","white","man","","","","","","","","survey_gender","22","","","People of my gender have a lot in common with each other.","common"
"3276.5","","","html-slider-response","437","3368907","0.0-24.0-1.0-0.1","55646","List2A","white","man","","","","","","","","survey_gender","70","","","I am glad to have the friends that I have.","filler"
"4970.5999999940395","","","html-slider-response","438","3373879","0.0-24.0-1.0-0.2","55646","List2A","white","man","","","","","","","","survey_gender","43","","","I have a lot in common with the average person of my gender.","average"
"3372.9000000059605","","","html-slider-response","439","3377253","0.0-24.0-1.0-0.3","55646","List2A","white","man","","","","","","","","survey_gender","33","","","Being my gender gives me a good feeling.","feeling"
"2976.7999999970198","","","html-slider-response","440","3380231","0.0-24.0-1.0-0.4","55646","List2A","white","man","","","","","","","","survey_gender","76","","","I consider myself a highly empathetic person.","filler"
"2737","","","html-slider-response","441","3382969","0.0-24.0-1.0-0.5","55646","List2A","white","man","","","","","","","","survey_gender","82","","","I often think about my actions.","filler"
"3610.7999999970198","","","html-slider-response","442","3386582","0.0-24.0-1.0-0.6","55646","List2A","white","man","","","","","","","","survey_gender","81","","","Family is not more important to me than friendship.","filler"
"3416.7999999970198","","","html-slider-response","443","3390000","0.0-24.0-1.0-0.7","55646","List2A","white","man","","","","","","","","survey_gender","69","","","I have a lot in common with my friends.","filler"
"2768.6000000089407","","","html-slider-response","444","3392769","0.0-24.0-1.0-0.8","55646","List2A","white","man","","","","","","","","survey_gender","44","","","My friends understand me.","filler"
"2720.7000000029802","","","html-slider-response","445","3395491","0.0-24.0-1.0-0.9","55646","List2A","white","man","","","","","","","","survey_gender","56","","","It is pleasant to be my gender.","pleasant"
"4817.4000000059605","","","html-slider-response","446","3400310","0.0-24.0-1.0-0.10","55646","List2A","white","man","","","","","","","","survey_gender","66","","","Most of the friends in my life are very similar to me.","filler"
"4294.29999999702","","","html-slider-response","447","3404605","0.0-24.0-1.0-0.11","55646","List2A","white","man","","","","","","","","survey_gender","20","","","I feel a bond with my gender.","bond"
"6638.79999999702","","","html-slider-response","448","3411245","0.0-24.0-1.0-0.12","55646","List2A","white","man","","","","","","","","survey_gender","35","","","I am similar to the average person of my gender.","similar"
"3212.7999999970198","","","html-slider-response","449","3414459","0.0-24.0-1.0-0.13","55646","List2A","white","man","","","","","","","","survey_gender","75","","","I often think about the fact that I am my gender.","often"
"3468.7000000029802","","","html-slider-response","450","3417929","0.0-24.0-1.0-0.14","55646","List2A","white","man","","","","","","","","survey_gender","77","","","It is not always easy for people to know what I am thinking.","filler"
"3124.9000000059605","","","html-slider-response","451","3421055","0.0-24.0-1.0-0.15","55646","List2A","white","man","","","","","","","","survey_gender","38","","","Being my gender is an important part of how I see myself.","important"
"4021","","","html-slider-response","452","3425077","0.0-24.0-1.0-0.16","55646","List2A","white","man","","","","","","","","survey_gender","52","","","I feel a bond with my friends.","filler"
"3650.7999999970198","","","html-slider-response","453","3428729","0.0-24.0-1.0-0.17","55646","List2A","white","man","","","","","","","","survey_gender","29","","","I feel solidarity with my gender.","solidarity"
"5774.70000000298","","","html-slider-response","454","3434505","0.0-24.0-1.0-0.18","55646","List2A","white","man","","","","","","","","survey_gender","55","","","Being around my friends gives me a good feeling.","filler"
"3754.5","","","html-slider-response","455","3438261","0.0-24.0-1.0-0.19","55646","List2A","white","man","","","","","","","","survey_gender","69","","","My friends have a lot in common with each other.","filler"
"3207.4000000059605","","","html-slider-response","456","3441470","0.0-24.0-1.0-0.20","55646","List2A","white","man","","","","","","","","survey_gender","26","","","I think that my gender has a lot to be proud of.","proud"
"3696.5","","","html-slider-response","457","3445167","0.0-24.0-1.0-0.21","55646","List2A","white","man","","","","","","","","survey_gender","66","","","Routine is not important to me.","filler"
"4427.0999999940395","","","html-slider-response","458","3449595","0.0-24.0-1.0-0.22","55646","List2A","white","man","","","","","","","","survey_gender","46","","","I am glad to be my gender.","glad"
"3008.7000000029802","","","html-slider-response","459","3452605","0.0-24.0-1.0-0.23","55646","List2A","white","man","","","","","","","","survey_gender","64","","","I feel solidarity with my friends.","filler"
"9350.89999999106","","","html-slider-response","460","3461957","0.0-24.0-1.0-0.24","55646","List2A","white","man","","","","","","","","survey_gender","36","","","People of my gender are very similar to each other.","verysimilar"
"5646.79999999702","","","html-slider-response","461","3467605","0.0-24.0-1.0-0.25","55646","List2A","white","man","","","","","","","","survey_gender","64","","","The fact that I am my gender is an important part of my identity.","identity"
"2750.3999999910593","","","html-slider-response","462","3470357","0.0-24.0-1.0-0.26","55646","List2A","white","man","","","","","","","","survey_gender","41","","","I feel committed to my gender.","committed"
"3402.7999999970198","","","html-slider-response","463","3473761","0.0-24.0-1.0-0.27","55646","List2A","white","man","","","","","","","","survey_gender","90","","","I would say I am an animal person.","filler"
"12721.800000011921","","","survey-text","464","3486486","0.0-25.0","55646","List2A","white","man","","","","","{""Q0"":""6152ae8a347374a7054108f7""}","","","worker_id","","","","",""
"29021.70000000298","","","external-html","465","3516033","0.0-26.0","55646","List2A","white","man","debrief.html","","","","","","","","","","","",""
