"rt","stimulus","button_pressed","trial_type","trial_index","time_elapsed","internal_node_id","subject","list","ppt_race","ppt_gender","url","first_guess","correct","key_press","responses","image_type","phrase_type","test_part","response","stimulus1","stimulus2","question_type","survey_item"
"7497.5","Welcome to the experiment. Press Continue to begin.","0","html-button-response","0","7502","0.0-0.0","55653","List1A","black","woman","","","","","","","","","","","","",""
"23412.90000000596","","","external-html","1","32155","0.0-1.0","55653","List1A","black","woman","consent.html","","","","","","","","","","","",""
"34997.90000000596","<p>On the next page, you will see portraits of 8 people and their names.</p><p>Your first task is to take a few minutes to memorise the names of these people.</p><p>You will have to recall their names during the rest of the experiment, so it is</p><p>essential that you try to memorise these people and their names as best as you can.</p><br><p><strong>You will then be tested on your memory of these names and portraits.</strong></p><br><p>The experiment will start after you have completed this memory test.</p><br><p>Ready?</p>","0","html-button-response","2","67158","0.0-2.0","55653","List1A","black","woman","","","","","","","","","","","","",""
"25760","<img src='img/portrait_matrix_list1.jpg' style='width:900px;height:500px;''></img><p>If you have memorised all the portraits and names and are ready to start, press Continue.</p><p><strong>Please note: Your memory of these faces will be tested 4 times during this experiment.</strong></p>","0","html-button-response","3","93932","0.0-3.0-0.0","55653","List1A","black","woman","","","","","","","","","","","","",""
"5816","<img src=""portrait/BM2.jpg""style=""height:400px;""></img>","5","html-button-response","4","100752","0.0-3.0-1.0","55653","List1A","black","woman","","true","5","","","","","","","","","",""
"null","CORRECT","","html-keyboard-response","5","102288","0.0-3.0-2.0-0.0","55653","List1A","black","woman","","","","null","","","","","","","","",""
"4044.7999999821186","<img src=""portrait/WM1.jpg""style=""height:400px;""></img>","6","html-button-response","6","106335","0.0-3.0-4.0","55653","List1A","black","woman","","true","6","","","","","","","","","",""
"null","CORRECT","","html-keyboard-response","7","107858","0.0-3.0-5.0-0.0","55653","List1A","black","woman","","","","null","","","","","","","","",""
"3741.300000011921","<img src=""portrait/BW1.jpg""style=""height:400px;""></img>","0","html-button-response","8","111601","0.0-3.0-7.0","55653","List1A","black","woman","","true","0","","","","","","","","","",""
"null","CORRECT","","html-keyboard-response","9","113145","0.0-3.0-8.0-0.0","55653","List1A","black","woman","","","","null","","","","","","","","",""
"2959.5","<img src=""portrait/WW2.jpg""style=""height:400px;""></img>","3","html-button-response","10","116107","0.0-3.0-10.0","55653","List1A","black","woman","","true","3","","","","","","","","","",""
"null","CORRECT","","html-keyboard-response","11","117628","0.0-3.0-11.0-0.0","55653","List1A","black","woman","","","","null","","","","","","","","",""
"3619.0999999940395","<img src=""portrait/BM1.jpg""style=""height:400px;""></img>","4","html-button-response","12","121249","0.0-3.0-13.0","55653","List1A","black","woman","","true","4","","","","","","","","","",""
"null","CORRECT","","html-keyboard-response","13","122765","0.0-3.0-14.0-0.0","55653","List1A","black","woman","","","","null","","","","","","","","",""
"3894.899999976158","<img src=""portrait/WM2.jpg""style=""height:400px;""></img>","7","html-button-response","14","126661","0.0-3.0-16.0","55653","List1A","black","woman","","true","7","","","","","","","","","",""
"null","CORRECT","","html-keyboard-response","15","128178","0.0-3.0-17.0-0.0","55653","List1A","black","woman","","","","null","","","","","","","","",""
"3142.899999976158","<img src=""portrait/WW1.jpg""style=""height:400px;""></img>","1","html-button-response","16","131323","0.0-3.0-19.0","55653","List1A","black","woman","","true","1","","","","","","","","","",""
"null","CORRECT","","html-keyboard-response","17","132857","0.0-3.0-20.0-0.0","55653","List1A","black","woman","","","","null","","","","","","","","",""
"2199.7999999821186","<img src=""portrait/BW2.jpg""style=""height:400px;""></img>","2","html-button-response","18","135059","0.0-3.0-22.0","55653","List1A","black","woman","","true","2","","","","","","","","","",""
"null","CORRECT","","html-keyboard-response","19","136578","0.0-3.0-23.0-0.0","55653","List1A","black","woman","","","","null","","","","","","","","",""
"2373.4000000059605","<p>You got 8 out of 8 right first time. Press Continue.</p>","0","html-button-response","20","138954","0.0-3.0-25.0","55653","List1A","black","woman","","","","","","","","","","","","",""
"47222.69999998808","<p>In this experiment, you will view photographs of the people from the memory game interacting.</p><p>By using the <strong>exact</strong> phrase given <i>after</i> the photograph appears and recalling the correct names of the people in the photographs, form a sentence describing the interaction. You do not need to capitalise names.</p><p>Type your answer in the space provided. Please complete every sentence before moving onto the next trial.</p><p>You will only have a few seconds to memorise each given photograph and phrase before you can respond, so try your best to focus.</p><p>An example is given below. Press 'Continue' when you are ready.</p><img src='img/speaking_example.jpg' style='width:800px;height:460px;''></img>","0","html-button-response","21","187194","0.0-4.0","55653","List1A","black","woman","","","","","","","","","","","","",""
"3360","<p>Before the experiment starts, you will watch two example trials. Press 'Continue'.</p>","0","html-button-response","22","191569","0.0-5.0","55653","List1A","black","woman","","","","","","","","","","","","",""
"null","<img src='img/play_eg.gif' style='height:400px;''></img>","","html-keyboard-response","23","194597","0.0-6.0","55653","List1A","black","woman","","","","null","","","","","","","","",""
"null","<p>is playing with</p>","","html-keyboard-response","24","196617","0.0-7.0","55653","List1A","black","woman","","","","null","","","","","","","","",""
"12326.59999999404","<p><b>Answer:</b> kate is playing with beth</p>","0","html-button-response","25","208945","0.0-8.0","55653","List1A","black","woman","","","","","","","","","","","","",""
"null","<img src='img/dance_eg.gif' style='height:400px;''></img>","","html-keyboard-response","26","211976","0.0-9.0","55653","List1A","black","woman","","","","null","","","","","","","","",""
"null","<p>is being entertained by</p>","","html-keyboard-response","27","213983","0.0-10.0","55653","List1A","black","woman","","","","null","","","","","","","","",""
"6812.799999982119","<p><b>Answer:</b> luke is being entertained by dave</p>","0","html-button-response","28","220799","0.0-11.0","55653","List1A","black","woman","","","","","","","","","","","","",""
"11515.399999976158","<p>Ready to start the experiment?</p><br><p><strong>Remember to describe the picture using a full sentence,</strong></p><p><strong>that combines the names of the people with the <i>exact</i> phrase given.</strong></p><p><strong>To receive full payment you must do this correctly.</strong></p><p><strong> You do not need to capitalise names or use punctuation.</strong></p><br><p>Press 'Continue' to begin.</p>","0","html-button-response","29","233335","0.0-12.0","55653","List1A","black","woman","","","","","","","","","","","","",""
"null","<div style=""font-size:60px;"">+</div>","","html-keyboard-response","30","234849","0.0-13.0-0.0","55653","List1A","black","woman","","","","null","","","","","","","","",""
"null","<img src=""stim_listA/hug5.gif""style=""height:400px;""></stim_listA>","","html-keyboard-response","31","236869","0.0-13.0-1.0","55653","List1A","black","woman","","","","null","","","","","","","","",""
"null","is hugging","","html-keyboard-response","32","238888","0.0-13.0-2.0","55653","List1A","black","woman","","","","null","","","","","","","","",""
"24751.90000000596","","","survey-text","33","263683","0.0-13.0-3.0","55653","List1A","black","woman","","","","","{""Q0"":""luke and fred is hugging""}","<img src=""stim_listA/hug5.gif""style=""height:400px;""></stim_listA>","is hugging","","","","","",""
"null","<div style=""font-size:60px;"">+</div>","","html-keyboard-response","34","264193","0.0-13.0-0.1","55653","List1A","black","woman","","","","null","","","","","","","","",""
"null","<img src=""stim_listA/look2.gif""style=""height:400px;""></stim_listA>","","html-keyboard-response","35","266213","0.0-13.0-1.1","55653","List1A","black","woman","","","","null","","","","","","","","",""
"null","is being looked at by","","html-keyboard-response","36","268225","0.0-13.0-2.1","55653","List1A","black","woman","","","","null","","","","","","","","",""
"10707.799999982119","","","survey-text","37","278941","0.0-13.0-3.1","55653","List1A","black","woman","","","","","{""Q0"":""mike and kate are staring""}","<img src=""stim_listA/look2.gif""style=""height:400px;""></stim_listA>","is being looked at by","","","","","",""
"null","<div style=""font-size:60px;"">+</div>","","html-keyboard-response","38","279449","0.0-13.0-0.2","55653","List1A","black","woman","","","","null","","","","","","","","",""
"null","<img src=""stim_listA/kiss5.gif""style=""height:400px;""></stim_listA>","","html-keyboard-response","39","281451","0.0-13.0-1.2","55653","List1A","black","woman","","","","null","","","","","","","","",""
"null","is kissing","","html-keyboard-response","40","283458","0.0-13.0-2.2","55653","List1A","black","woman","","","","null","","","","","","","","",""
"9948.5","","","survey-text","41","293411","0.0-13.0-3.2","55653","List1A","black","woman","","","","","{""Q0"":""luke and fred is kissing""}","<img src=""stim_listA/kiss5.gif""style=""height:400px;""></stim_listA>","is kissing","","","","","",""
"null","<div style=""font-size:60px;"">+</div>","","html-keyboard-response","42","293934","0.0-13.0-0.3","55653","List1A","black","woman","","","","null","","","","","","","","",""
"null","<img src=""stim_listA/greet4.gif""style=""height:400px;""></stim_listA>","","html-keyboard-response","43","295953","0.0-13.0-1.3","55653","List1A","black","woman","","","","null","","","","","","","","",""
"null","is being greeted by","","html-keyboard-response","44","297959","0.0-13.0-2.3","55653","List1A","black","woman","","","","null","","","","","","","","",""
"9947.09999999404","","","survey-text","45","307913","0.0-13.0-3.3","55653","List1A","black","woman","","","","","{""Q0"":""luke is greeted by ruth""}","<img src=""stim_listA/greet4.gif""style=""height:400px;""></stim_listA>","is being greeted by","","","","","",""
"null","<div style=""font-size:60px;"">+</div>","","html-keyboard-response","46","308417","0.0-13.0-0.4","55653","List1A","black","woman","","","","null","","","","","","","","",""
"null","<img src=""stim_listA/touch2.gif""style=""height:400px;""></stim_listA>","","html-keyboard-response","47","310439","0.0-13.0-1.4","55653","List1A","black","woman","","","","null","","","","","","","","",""
"null","is being touched by","","html-keyboard-response","48","312442","0.0-13.0-2.4","55653","List1A","black","woman","","","","null","","","","","","","","",""
"13836","","","survey-text","49","326285","0.0-13.0-3.4","55653","List1A","black","woman","","","","","{""Q0"":""fred is being touched by beth""}","<img src=""stim_listA/touch2.gif""style=""height:400px;""></stim_listA>","is being touched by","","","","","",""
"null","<div style=""font-size:60px;"">+</div>","","html-keyboard-response","50","326809","0.0-13.0-0.5","55653","List1A","black","woman","","","","null","","","","","","","","",""
"null","<img src=""stim_listA/challenge8.gif""style=""height:400px;""></stim_listA>","","html-keyboard-response","51","328828","0.0-13.0-1.5","55653","List1A","black","woman","","","","null","","","","","","","","",""
"null","is being challenged by","","html-keyboard-response","52","330839","0.0-13.0-2.5","55653","List1A","black","woman","","","","null","","","","","","","","",""
"14526","","","survey-text","53","345369","0.0-13.0-3.5","55653","List1A","black","woman","","","","","{""Q0"":""beth is being challenged by ruth""}","<img src=""stim_listA/challenge8.gif""style=""height:400px;""></stim_listA>","is being challenged by","","","","","",""
"null","<div style=""font-size:60px;"">+</div>","","html-keyboard-response","54","345879","0.0-13.0-0.6","55653","List1A","black","woman","","","","null","","","","","","","","",""
"null","<img src=""stim_listA/shout8.gif""style=""height:400px;""></stim_listA>","","html-keyboard-response","55","347899","0.0-13.0-1.6","55653","List1A","black","woman","","","","null","","","","","","","","",""
"null","is being shouted at by","","html-keyboard-response","56","349912","0.0-13.0-2.6","55653","List1A","black","woman","","","","null","","","","","","","","",""
"16859.40000000596","","","survey-text","57","366779","0.0-13.0-3.6","55653","List1A","black","woman","","","","","{""Q0"":""jane is shouted by kate""}","<img src=""stim_listA/shout8.gif""style=""height:400px;""></stim_listA>","is being shouted at by","","","","","",""
"null","<div style=""font-size:60px;"">+</div>","","html-keyboard-response","58","367299","0.0-13.0-0.7","55653","List1A","black","woman","","","","null","","","","","","","","",""
"null","<img src=""stim_listA/shout2.gif""style=""height:400px;""></stim_listA>","","html-keyboard-response","59","369309","0.0-13.0-1.7","55653","List1A","black","woman","","","","null","","","","","","","","",""
"null","is being shouted at by","","html-keyboard-response","60","371321","0.0-13.0-2.7","55653","List1A","black","woman","","","","null","","","","","","","","",""
"9416.59999999404","","","survey-text","61","380753","0.0-13.0-3.7","55653","List1A","black","woman","","","","","{""Q0"":""mike is shouted by kate""}","<img src=""stim_listA/shout2.gif""style=""height:400px;""></stim_listA>","is being shouted at by","","","","","",""
"null","<div style=""font-size:60px;"">+</div>","","html-keyboard-response","62","381269","0.0-13.0-0.8","55653","List1A","black","woman","","","","null","","","","","","","","",""
"null","<img src=""stim_listA/copy4.gif""style=""height:400px;""></stim_listA>","","html-keyboard-response","63","383289","0.0-13.0-1.8","55653","List1A","black","woman","","","","null","","","","","","","","",""
"null","is being copied by","","html-keyboard-response","64","385302","0.0-13.0-2.8","55653","List1A","black","woman","","","","null","","","","","","","","",""
"8326.199999988079","","","survey-text","65","393642","0.0-13.0-3.8","55653","List1A","black","woman","","","","","{""Q0"":""ruth is copied by luke""}","<img src=""stim_listA/copy4.gif""style=""height:400px;""></stim_listA>","is being copied by","","","","","",""
"null","<div style=""font-size:60px;"">+</div>","","html-keyboard-response","66","394160","0.0-13.0-0.9","55653","List1A","black","woman","","","","null","","","","","","","","",""
"null","<img src=""stim_listA/oppose8.gif""style=""height:400px;""></stim_listA>","","html-keyboard-response","67","396178","0.0-13.0-1.9","55653","List1A","black","woman","","","","null","","","","","","","","",""
"null","is being opposed by","","html-keyboard-response","68","398219","0.0-13.0-2.9","55653","List1A","black","woman","","","","null","","","","","","","","",""
"11735.699999988079","","","survey-text","69","409979","0.0-13.0-3.9","55653","List1A","black","woman","","","","","{""Q0"":""ruth is being opposed by beth""}","<img src=""stim_listA/oppose8.gif""style=""height:400px;""></stim_listA>","is being opposed by","","","","","",""
"null","<div style=""font-size:60px;"">+</div>","","html-keyboard-response","70","410484","0.0-13.0-0.10","55653","List1A","black","woman","","","","null","","","","","","","","",""
"null","<img src=""stim_listA/shout1.gif""style=""height:400px;""></stim_listA>","","html-keyboard-response","71","412499","0.0-13.0-1.10","55653","List1A","black","woman","","","","null","","","","","","","","",""
"null","is shouting at","","html-keyboard-response","72","414510","0.0-13.0-2.10","55653","List1A","black","woman","","","","null","","","","","","","","",""
"8580.09999999404","","","survey-text","73","423114","0.0-13.0-3.10","55653","List1A","black","woman","","","","","{""Q0"":""beth is shouting at fred""}","<img src=""stim_listA/shout1.gif""style=""height:400px;""></stim_listA>","is shouting at","","","","","",""
"null","<div style=""font-size:60px;"">+</div>","","html-keyboard-response","74","423631","0.0-13.0-0.11","55653","List1A","black","woman","","","","null","","","","","","","","",""
"null","<img src=""stim_listA/kiss2.gif""style=""height:400px;""></stim_listA>","","html-keyboard-response","75","425649","0.0-13.0-1.11","55653","List1A","black","woman","","","","null","","","","","","","","",""
"null","is being kissed by","","html-keyboard-response","76","427651","0.0-13.0-2.11","55653","List1A","black","woman","","","","null","","","","","","","","",""
"11259.09999999404","","","survey-text","77","438934","0.0-13.0-3.11","55653","List1A","black","woman","","","","","{""Q0"":""kate is being kissed by mike""}","<img src=""stim_listA/kiss2.gif""style=""height:400px;""></stim_listA>","is being kissed by","","","","","",""
"null","<div style=""font-size:60px;"">+</div>","","html-keyboard-response","78","439438","0.0-13.0-0.12","55653","List1A","black","woman","","","","null","","","","","","","","",""
"null","<img src=""stim_listA/copy7.gif""style=""height:400px;""></stim_listA>","","html-keyboard-response","79","441449","0.0-13.0-1.12","55653","List1A","black","woman","","","","null","","","","","","","","",""
"null","is copying","","html-keyboard-response","80","443466","0.0-13.0-2.12","55653","List1A","black","woman","","","","null","","","","","","","","",""
"11433.5","","","survey-text","81","454910","0.0-13.0-3.12","55653","List1A","black","woman","","","","","{""Q0"":""kate is copying ruth""}","<img src=""stim_listA/copy7.gif""style=""height:400px;""></stim_listA>","is copying","","","","","",""
"null","<div style=""font-size:60px;"">+</div>","","html-keyboard-response","82","455414","0.0-13.0-0.13","55653","List1A","black","woman","","","","null","","","","","","","","",""
"null","<img src=""stim_listA/touch6.gif""style=""height:400px;""></stim_listA>","","html-keyboard-response","83","457441","0.0-13.0-1.13","55653","List1A","black","woman","","","","null","","","","","","","","",""
"null","is being touched by","","html-keyboard-response","84","459456","0.0-13.0-2.13","55653","List1A","black","woman","","","","null","","","","","","","","",""
"7232.199999988079","","","survey-text","85","466703","0.0-13.0-3.13","55653","List1A","black","woman","","","","","{""Q0"":""luke is being touched by fred""}","<img src=""stim_listA/touch6.gif""style=""height:400px;""></stim_listA>","is being touched by","","","","","",""
"null","<div style=""font-size:60px;"">+</div>","","html-keyboard-response","86","467219","0.0-13.0-0.14","55653","List1A","black","woman","","","","null","","","","","","","","",""
"null","<img src=""stim_listA/hug3.gif""style=""height:400px;""></stim_listA>","","html-keyboard-response","87","469241","0.0-13.0-1.14","55653","List1A","black","woman","","","","null","","","","","","","","",""
"null","is hugging","","html-keyboard-response","88","471264","0.0-13.0-2.14","55653","List1A","black","woman","","","","null","","","","","","","","",""
"4823.4000000059605","","","survey-text","89","476092","0.0-13.0-3.14","55653","List1A","black","woman","","","","","{""Q0"":""ruth is hugging luke""}","<img src=""stim_listA/hug3.gif""style=""height:400px;""></stim_listA>","is hugging","","","","","",""
"null","<div style=""font-size:60px;"">+</div>","","html-keyboard-response","90","476605","0.0-13.0-0.15","55653","List1A","black","woman","","","","null","","","","","","","","",""
"null","<img src=""stim_listA/touch8.gif""style=""height:400px;""></stim_listA>","","html-keyboard-response","91","478619","0.0-13.0-1.15","55653","List1A","black","woman","","","","null","","","","","","","","",""
"null","is being touched by","","html-keyboard-response","92","480623","0.0-13.0-2.15","55653","List1A","black","woman","","","","null","","","","","","","","",""
"6057.199999988079","","","survey-text","93","486686","0.0-13.0-3.15","55653","List1A","black","woman","","","","","{""Q0"":""ruth is being touched by beth""}","<img src=""stim_listA/touch8.gif""style=""height:400px;""></stim_listA>","is being touched by","","","","","",""
"null","<div style=""font-size:60px;"">+</div>","","html-keyboard-response","94","487199","0.0-13.0-0.16","55653","List1A","black","woman","","","","null","","","","","","","","",""
"null","<img src=""stim_listA/touch1.gif""style=""height:400px;""></stim_listA>","","html-keyboard-response","95","489223","0.0-13.0-1.16","55653","List1A","black","woman","","","","null","","","","","","","","",""
"null","is touching","","html-keyboard-response","96","491229","0.0-13.0-2.16","55653","List1A","black","woman","","","","null","","","","","","","","",""
"5581.800000011921","","","survey-text","97","496847","0.0-13.0-3.16","55653","List1A","black","woman","","","","","{""Q0"":""mike is touching kate""}","<img src=""stim_listA/touch1.gif""style=""height:400px;""></stim_listA>","is touching","","","","","",""
"null","<div style=""font-size:60px;"">+</div>","","html-keyboard-response","98","497373","0.0-13.0-0.17","55653","List1A","black","woman","","","","null","","","","","","","","",""
"null","<img src=""stim_listA/shout5.gif""style=""height:400px;""></stim_listA>","","html-keyboard-response","99","499384","0.0-13.0-1.17","55653","List1A","black","woman","","","","null","","","","","","","","",""
"null","is shouting at","","html-keyboard-response","100","501400","0.0-13.0-2.17","55653","List1A","black","woman","","","","null","","","","","","","","",""
"11359.40000000596","","","survey-text","101","512765","0.0-13.0-3.17","55653","List1A","black","woman","","","","","{""Q0"":""fred is shouting at luke""}","<img src=""stim_listA/shout5.gif""style=""height:400px;""></stim_listA>","is shouting at","","","","","",""
"null","<div style=""font-size:60px;"">+</div>","","html-keyboard-response","102","513270","0.0-13.0-0.18","55653","List1A","black","woman","","","","null","","","","","","","","",""
"null","<img src=""stim_listA/kiss7.gif""style=""height:400px;""></stim_listA>","","html-keyboard-response","103","515283","0.0-13.0-1.18","55653","List1A","black","woman","","","","null","","","","","","","","",""
"null","is kissing","","html-keyboard-response","104","517305","0.0-13.0-2.18","55653","List1A","black","woman","","","","null","","","","","","","","",""
"5213.799999982119","","","survey-text","105","522529","0.0-13.0-3.18","55653","List1A","black","woman","","","","","{""Q0"":""ruth is kissing beth""}","<img src=""stim_listA/kiss7.gif""style=""height:400px;""></stim_listA>","is kissing","","","","","",""
"null","<div style=""font-size:60px;"">+</div>","","html-keyboard-response","106","523035","0.0-13.0-0.19","55653","List1A","black","woman","","","","null","","","","","","","","",""
"null","<img src=""stim_listA/seduce4.gif""style=""height:400px;""></stim_listA>","","html-keyboard-response","107","525050","0.0-13.0-1.19","55653","List1A","black","woman","","","","null","","","","","","","","",""
"null","is being seduced by","","html-keyboard-response","108","527070","0.0-13.0-2.19","55653","List1A","black","woman","","","","null","","","","","","","","",""
"9805.300000011921","","","survey-text","109","536882","0.0-13.0-3.19","55653","List1A","black","woman","","","","","{""Q0"":""dave is being seduced by ruth""}","<img src=""stim_listA/seduce4.gif""style=""height:400px;""></stim_listA>","is being seduced by","","","","","",""
"9178.899999976158","<img src='img/portrait_matrix_list1.jpg' style='width:900px;height:500px;''></img><p>If you have memorised all the portraits and names and are ready to start, press Continue.</p><p><strong>Please note: Your memory of these faces will be tested 4 times during this experiment.</strong></p>","0","html-button-response","110","546069","0.0-14.0-0.0","55653","List1A","black","woman","","","","","","","","","","","","",""
"4898.0999999940395","<img src=""portrait/WM1.jpg""style=""height:400px;""></img>","6","html-button-response","111","551986","0.0-14.0-1.0","55653","List1A","black","woman","","true","6","","","","","","","","","",""
"null","CORRECT","","html-keyboard-response","112","553520","0.0-14.0-2.0-0.0","55653","List1A","black","woman","","","","null","","","","","","","","",""
"2659.0999999940395","<img src=""portrait/BM1.jpg""style=""height:400px;""></img>","4","html-button-response","113","556181","0.0-14.0-4.0","55653","List1A","black","woman","","true","4","","","","","","","","","",""
"null","CORRECT","","html-keyboard-response","114","557713","0.0-14.0-5.0-0.0","55653","List1A","black","woman","","","","null","","","","","","","","",""
"3981","<img src=""portrait/WM2.jpg""style=""height:400px;""></img>","7","html-button-response","115","561697","0.0-14.0-7.0","55653","List1A","black","woman","","true","7","","","","","","","","","",""
"null","CORRECT","","html-keyboard-response","116","563229","0.0-14.0-8.0-0.0","55653","List1A","black","woman","","","","null","","","","","","","","",""
"3542","<img src=""portrait/WW1.jpg""style=""height:400px;""></img>","1","html-button-response","117","566773","0.0-14.0-10.0","55653","List1A","black","woman","","true","1","","","","","","","","","",""
"null","CORRECT","","html-keyboard-response","118","568289","0.0-14.0-11.0-0.0","55653","List1A","black","woman","","","","null","","","","","","","","",""
"2847.4000000059605","<img src=""portrait/WW2.jpg""style=""height:400px;""></img>","3","html-button-response","119","571139","0.0-14.0-13.0","55653","List1A","black","woman","","true","3","","","","","","","","","",""
"null","CORRECT","","html-keyboard-response","120","572660","0.0-14.0-14.0-0.0","55653","List1A","black","woman","","","","null","","","","","","","","",""
"2068.800000011921","<img src=""portrait/BW1.jpg""style=""height:400px;""></img>","0","html-button-response","121","574731","0.0-14.0-16.0","55653","List1A","black","woman","","true","0","","","","","","","","","",""
"null","CORRECT","","html-keyboard-response","122","576247","0.0-14.0-17.0-0.0","55653","List1A","black","woman","","","","null","","","","","","","","",""
"2703.4000000059605","<img src=""portrait/BW2.jpg""style=""height:400px;""></img>","2","html-button-response","123","578953","0.0-14.0-19.0","55653","List1A","black","woman","","true","2","","","","","","","","","",""
"null","CORRECT","","html-keyboard-response","124","580479","0.0-14.0-20.0-0.0","55653","List1A","black","woman","","","","null","","","","","","","","",""
"3129.899999976158","<img src=""portrait/BM2.jpg""style=""height:400px;""></img>","5","html-button-response","125","583611","0.0-14.0-22.0","55653","List1A","black","woman","","true","5","","","","","","","","","",""
"null","CORRECT","","html-keyboard-response","126","585139","0.0-14.0-23.0-0.0","55653","List1A","black","woman","","","","null","","","","","","","","",""
"2161.199999988079","<p>You got 8 out of 8 right first time. Press Continue.</p>","0","html-button-response","127","587303","0.0-14.0-25.0","55653","List1A","black","woman","","","","","","","","","","","","",""
"null","<div style=""font-size:60px;"">+</div>","","html-keyboard-response","128","588812","0.0-15.0-0.0","55653","List1A","black","woman","","","","null","","","","","","","","",""
"null","<img src=""stim_listA/look7.gif""style=""height:400px;""></stim_listA>","","html-keyboard-response","129","590829","0.0-15.0-1.0","55653","List1A","black","woman","","","","null","","","","","","","","",""
"null","is looking at","","html-keyboard-response","130","592849","0.0-15.0-2.0","55653","List1A","black","woman","","","","null","","","","","","","","",""
"6611.0999999940395","","","survey-text","131","599467","0.0-15.0-3.0","55653","List1A","black","woman","","","","","{""Q0"":""ruth is looking at beth""}","<img src=""stim_listA/look7.gif""style=""height:400px;""></stim_listA>","is looking at","","","","","",""
"null","<div style=""font-size:60px;"">+</div>","","html-keyboard-response","132","599990","0.0-15.0-0.1","55653","List1A","black","woman","","","","null","","","","","","","","",""
"null","<img src=""stim_listA/kiss4.gif""style=""height:400px;""></stim_listA>","","html-keyboard-response","133","602009","0.0-15.0-1.1","55653","List1A","black","woman","","","","null","","","","","","","","",""
"null","is being kissed by","","html-keyboard-response","134","604022","0.0-15.0-2.1","55653","List1A","black","woman","","","","null","","","","","","","","",""
"9113.100000023842","","","survey-text","135","613140","0.0-15.0-3.1","55653","List1A","black","woman","","","","","{""Q0"":""dave is kissed by ruth""}","<img src=""stim_listA/kiss4.gif""style=""height:400px;""></stim_listA>","is being kissed by","","","","","",""
"null","<div style=""font-size:60px;"">+</div>","","html-keyboard-response","136","613659","0.0-15.0-0.2","55653","List1A","black","woman","","","","null","","","","","","","","",""
"null","<img src=""stim_listA/greet3.gif""style=""height:400px;""></stim_listA>","","html-keyboard-response","137","615673","0.0-15.0-1.2","55653","List1A","black","woman","","","","null","","","","","","","","",""
"null","is greeting","","html-keyboard-response","138","617685","0.0-15.0-2.2","55653","List1A","black","woman","","","","null","","","","","","","","",""
"6004.5","","","survey-text","139","623716","0.0-15.0-3.2","55653","List1A","black","woman","","","","","{""Q0"":""ruth is greeting dave""}","<img src=""stim_listA/greet3.gif""style=""height:400px;""></stim_listA>","is greeting","","","","","",""
"null","<div style=""font-size:60px;"">+</div>","","html-keyboard-response","140","624229","0.0-15.0-0.3","55653","List1A","black","woman","","","","null","","","","","","","","",""
"null","<img src=""stim_listA/seduce8.gif""style=""height:400px;""></stim_listA>","","html-keyboard-response","141","626250","0.0-15.0-1.3","55653","List1A","black","woman","","","","null","","","","","","","","",""
"null","is being seduced by","","html-keyboard-response","142","628264","0.0-15.0-2.3","55653","List1A","black","woman","","","","null","","","","","","","","",""
"14099.399999976158","","","survey-text","143","642370","0.0-15.0-3.3","55653","List1A","black","woman","","","","","{""Q0"":""kate is being seduced by ruth""}","<img src=""stim_listA/seduce8.gif""style=""height:400px;""></stim_listA>","is being seduced by","","","","","",""
"null","<div style=""font-size:60px;"">+</div>","","html-keyboard-response","144","642875","0.0-15.0-0.4","55653","List1A","black","woman","","","","null","","","","","","","","",""
"null","<img src=""stim_listA/look6.gif""style=""height:400px;""></stim_listA>","","html-keyboard-response","145","644881","0.0-15.0-1.4","55653","List1A","black","woman","","","","null","","","","","","","","",""
"null","is being looked at by","","html-keyboard-response","146","646883","0.0-15.0-2.4","55653","List1A","black","woman","","","","null","","","","","","","","",""
"12336.5","","","survey-text","147","659231","0.0-15.0-3.4","55653","List1A","black","woman","","","","","{""Q0"":""dave is looking at by mike""}","<img src=""stim_listA/look6.gif""style=""height:400px;""></stim_listA>","is being looked at by","","","","","",""
"null","<div style=""font-size:60px;"">+</div>","","html-keyboard-response","148","659744","0.0-15.0-0.5","55653","List1A","black","woman","","","","null","","","","","","","","",""
"null","<img src=""stim_listA/seduce5.gif""style=""height:400px;""></stim_listA>","","html-keyboard-response","149","661759","0.0-15.0-1.5","55653","List1A","black","woman","","","","null","","","","","","","","",""
"null","is seducing","","html-keyboard-response","150","663772","0.0-15.0-2.5","55653","List1A","black","woman","","","","null","","","","","","","","",""
"6884.200000017881","","","survey-text","151","670660","0.0-15.0-3.5","55653","List1A","black","woman","","","","","{""Q0"":""fred is seducing dave""}","<img src=""stim_listA/seduce5.gif""style=""height:400px;""></stim_listA>","is seducing","","","","","",""
"null","<div style=""font-size:60px;"">+</div>","","html-keyboard-response","152","671168","0.0-15.0-0.6","55653","List1A","black","woman","","","","null","","","","","","","","",""
"null","<img src=""stim_listA/copy8.gif""style=""height:400px;""></stim_listA>","","html-keyboard-response","153","673185","0.0-15.0-1.6","55653","List1A","black","woman","","","","null","","","","","","","","",""
"null","is being copied by","","html-keyboard-response","154","675189","0.0-15.0-2.6","55653","List1A","black","woman","","","","null","","","","","","","","",""
"12952.09999999404","","","survey-text","155","688146","0.0-15.0-3.6","55653","List1A","black","woman","","","","","{""Q0"":""beth is being copied by jane""}","<img src=""stim_listA/copy8.gif""style=""height:400px;""></stim_listA>","is being copied by","","","","","",""
"null","<div style=""font-size:60px;"">+</div>","","html-keyboard-response","156","688659","0.0-15.0-0.7","55653","List1A","black","woman","","","","null","","","","","","","","",""
"null","<img src=""stim_listA/challenge6.gif""style=""height:400px;""></stim_listA>","","html-keyboard-response","157","690662","0.0-15.0-1.7","55653","List1A","black","woman","","","","null","","","","","","","","",""
"null","is being challenged by","","html-keyboard-response","158","692680","0.0-15.0-2.7","55653","List1A","black","woman","","","","null","","","","","","","","",""
"9246.40000000596","","","survey-text","159","701939","0.0-15.0-3.7","55653","List1A","black","woman","","","","","{""Q0"":""dave is being challenged by fred""}","<img src=""stim_listA/challenge6.gif""style=""height:400px;""></stim_listA>","is being challenged by","","","","","",""
"null","<div style=""font-size:60px;"">+</div>","","html-keyboard-response","160","702449","0.0-15.0-0.8","55653","List1A","black","woman","","","","null","","","","","","","","",""
"null","<img src=""stim_listA/look3.gif""style=""height:400px;""></stim_listA>","","html-keyboard-response","161","704462","0.0-15.0-1.8","55653","List1A","black","woman","","","","null","","","","","","","","",""
"null","is looking at","","html-keyboard-response","162","706491","0.0-15.0-2.8","55653","List1A","black","woman","","","","null","","","","","","","","",""
"8822.59999999404","","","survey-text","163","715322","0.0-15.0-3.8","55653","List1A","black","woman","","","","","{""Q0"":""luke is looking at ruth""}","<img src=""stim_listA/look3.gif""style=""height:400px;""></stim_listA>","is looking at","","","","","",""
"null","<div style=""font-size:60px;"">+</div>","","html-keyboard-response","164","715840","0.0-15.0-0.9","55653","List1A","black","woman","","","","null","","","","","","","","",""
"null","<img src=""stim_listA/look5.gif""style=""height:400px;""></stim_listA>","","html-keyboard-response","165","717849","0.0-15.0-1.9","55653","List1A","black","woman","","","","null","","","","","","","","",""
"null","is looking at","","html-keyboard-response","166","719857","0.0-15.0-2.9","55653","List1A","black","woman","","","","null","","","","","","","","",""
"8884.59999999404","","","survey-text","167","728747","0.0-15.0-3.9","55653","List1A","black","woman","","","","","{""Q0"":""fred is looking at luke""}","<img src=""stim_listA/look5.gif""style=""height:400px;""></stim_listA>","is looking at","","","","","",""
"null","<div style=""font-size:60px;"">+</div>","","html-keyboard-response","168","729260","0.0-15.0-0.10","55653","List1A","black","woman","","","","null","","","","","","","","",""
"null","<img src=""stim_listA/greet5.gif""style=""height:400px;""></stim_listA>","","html-keyboard-response","169","731270","0.0-15.0-1.10","55653","List1A","black","woman","","","","null","","","","","","","","",""
"null","is greeting","","html-keyboard-response","170","733279","0.0-15.0-2.10","55653","List1A","black","woman","","","","null","","","","","","","","",""
"5359.5999999940395","","","survey-text","171","738644","0.0-15.0-3.10","55653","List1A","black","woman","","","","","{""Q0"":""mike is greeting luke""}","<img src=""stim_listA/greet5.gif""style=""height:400px;""></stim_listA>","is greeting","","","","","",""
"null","<div style=""font-size:60px;"">+</div>","","html-keyboard-response","172","739150","0.0-15.0-0.11","55653","List1A","black","woman","","","","null","","","","","","","","",""
"null","<img src=""stim_listA/copy2.gif""style=""height:400px;""></stim_listA>","","html-keyboard-response","173","741162","0.0-15.0-1.11","55653","List1A","black","woman","","","","null","","","","","","","","",""
"null","is being copied by","","html-keyboard-response","174","743168","0.0-15.0-2.11","55653","List1A","black","woman","","","","null","","","","","","","","",""
"8359.5","","","survey-text","175","751542","0.0-15.0-3.11","55653","List1A","black","woman","","","","","{""Q0"":""kate is being copied fred""}","<img src=""stim_listA/copy2.gif""style=""height:400px;""></stim_listA>","is being copied by","","","","","",""
"null","<div style=""font-size:60px;"">+</div>","","html-keyboard-response","176","752062","0.0-15.0-0.12","55653","List1A","black","woman","","","","null","","","","","","","","",""
"null","<img src=""stim_listA/kiss3.gif""style=""height:400px;""></stim_listA>","","html-keyboard-response","177","754080","0.0-15.0-1.12","55653","List1A","black","woman","","","","null","","","","","","","","",""
"null","is kissing","","html-keyboard-response","178","756083","0.0-15.0-2.12","55653","List1A","black","woman","","","","null","","","","","","","","",""
"6606","","","survey-text","179","762693","0.0-15.0-3.12","55653","List1A","black","woman","","","","","{""Q0"":""luke is kissing ruth""}","<img src=""stim_listA/kiss3.gif""style=""height:400px;""></stim_listA>","is kissing","","","","","",""
"null","<div style=""font-size:60px;"">+</div>","","html-keyboard-response","180","763199","0.0-15.0-0.13","55653","List1A","black","woman","","","","null","","","","","","","","",""
"null","<img src=""stim_listA/kiss1.gif""style=""height:400px;""></stim_listA>","","html-keyboard-response","181","765210","0.0-15.0-1.13","55653","List1A","black","woman","","","","null","","","","","","","","",""
"null","is kissing","","html-keyboard-response","182","767219","0.0-15.0-2.13","55653","List1A","black","woman","","","","null","","","","","","","","",""
"8711.199999988079","","","survey-text","183","775934","0.0-15.0-3.13","55653","List1A","black","woman","","","","","{""Q0"":""beth is kissing fred""}","<img src=""stim_listA/kiss1.gif""style=""height:400px;""></stim_listA>","is kissing","","","","","",""
"null","<div style=""font-size:60px;"">+</div>","","html-keyboard-response","184","776450","0.0-15.0-0.14","55653","List1A","black","woman","","","","null","","","","","","","","",""
"null","<img src=""stim_listA/kiss8.gif""style=""height:400px;""></stim_listA>","","html-keyboard-response","185","778461","0.0-15.0-1.14","55653","List1A","black","woman","","","","null","","","","","","","","",""
"null","is being kissed by","","html-keyboard-response","186","780472","0.0-15.0-2.14","55653","List1A","black","woman","","","","null","","","","","","","","",""
"12583.90000000596","","","survey-text","187","793068","0.0-15.0-3.14","55653","List1A","black","woman","","","","","{""Q0"":""kate is being kissed by ruth""}","<img src=""stim_listA/kiss8.gif""style=""height:400px;""></stim_listA>","is being kissed by","","","","","",""
"null","<div style=""font-size:60px;"">+</div>","","html-keyboard-response","188","793579","0.0-15.0-0.15","55653","List1A","black","woman","","","","null","","","","","","","","",""
"null","<img src=""stim_listA/hug2.gif""style=""height:400px;""></stim_listA>","","html-keyboard-response","189","795582","0.0-15.0-1.15","55653","List1A","black","woman","","","","null","","","","","","","","",""
"null","is being hugged by","","html-keyboard-response","190","797590","0.0-15.0-2.15","55653","List1A","black","woman","","","","null","","","","","","","","",""
"8117","","","survey-text","191","805731","0.0-15.0-3.15","55653","List1A","black","woman","","","","","{""Q0"":""kate is being hugged by mike""}","<img src=""stim_listA/hug2.gif""style=""height:400px;""></stim_listA>","is being hugged by","","","","","",""
"null","<div style=""font-size:60px;"">+</div>","","html-keyboard-response","192","806240","0.0-15.0-0.16","55653","List1A","black","woman","","","","null","","","","","","","","",""
"null","<img src=""stim_listA/touch5.gif""style=""height:400px;""></stim_listA>","","html-keyboard-response","193","808259","0.0-15.0-1.16","55653","List1A","black","woman","","","","null","","","","","","","","",""
"null","is touching","","html-keyboard-response","194","810273","0.0-15.0-2.16","55653","List1A","black","woman","","","","null","","","","","","","","",""
"6496.9000000059605","","","survey-text","195","816777","0.0-15.0-3.16","55653","List1A","black","woman","","","","","{""Q0"":""mike is touching dave""}","<img src=""stim_listA/touch5.gif""style=""height:400px;""></stim_listA>","is touching","","","","","",""
"null","<div style=""font-size:60px;"">+</div>","","html-keyboard-response","196","817290","0.0-15.0-0.17","55653","List1A","black","woman","","","","null","","","","","","","","",""
"null","<img src=""stim_listA/copy6.gif""style=""height:400px;""></stim_listA>","","html-keyboard-response","197","819320","0.0-15.0-1.17","55653","List1A","black","woman","","","","null","","","","","","","","",""
"null","is being copied by","","html-keyboard-response","198","821327","0.0-15.0-2.17","55653","List1A","black","woman","","","","null","","","","","","","","",""
"11573.700000017881","","","survey-text","199","832908","0.0-15.0-3.17","55653","List1A","black","woman","","","","","{""Q0"":""dave is being copied by fred""}","<img src=""stim_listA/copy6.gif""style=""height:400px;""></stim_listA>","is being copied by","","","","","",""
"null","<div style=""font-size:60px;"">+</div>","","html-keyboard-response","200","833423","0.0-15.0-0.18","55653","List1A","black","woman","","","","null","","","","","","","","",""
"null","<img src=""stim_listA/shout3.gif""style=""height:400px;""></stim_listA>","","html-keyboard-response","201","835428","0.0-15.0-1.18","55653","List1A","black","woman","","","","null","","","","","","","","",""
"null","is shouting at","","html-keyboard-response","202","837442","0.0-15.0-2.18","55653","List1A","black","woman","","","","null","","","","","","","","",""
"8082.100000023842","","","survey-text","203","845528","0.0-15.0-3.18","55653","List1A","black","woman","","","","","{""Q0"":""luke is shouting at ruth""}","<img src=""stim_listA/shout3.gif""style=""height:400px;""></stim_listA>","is shouting at","","","","","",""
"null","<div style=""font-size:60px;"">+</div>","","html-keyboard-response","204","846049","0.0-15.0-0.19","55653","List1A","black","woman","","","","null","","","","","","","","",""
"null","<img src=""stim_listA/look1.gif""style=""height:400px;""></stim_listA>","","html-keyboard-response","205","848059","0.0-15.0-1.19","55653","List1A","black","woman","","","","null","","","","","","","","",""
"null","is looking at","","html-keyboard-response","206","850079","0.0-15.0-2.19","55653","List1A","black","woman","","","","null","","","","","","","","",""
"8399","","","survey-text","207","858483","0.0-15.0-3.19","55653","List1A","black","woman","","","","","{""Q0"":""beth is looking at fred""}","<img src=""stim_listA/look1.gif""style=""height:400px;""></stim_listA>","is looking at","","","","","",""
"13831.299999982119","<img src='img/portrait_matrix_list1.jpg' style='width:900px;height:500px;''></img><p>If you have memorised all the portraits and names and are ready to start, press Continue.</p><p><strong>Please note: Your memory of these faces will be tested 4 times during this experiment.</strong></p>","0","html-button-response","208","872317","0.0-16.0-0.0","55653","List1A","black","woman","","","","","","","","","","","","",""
"3243.199999988079","<img src=""portrait/BW2.jpg""style=""height:400px;""></img>","2","html-button-response","209","876582","0.0-16.0-1.0","55653","List1A","black","woman","","true","2","","","","","","","","","",""
"null","CORRECT","","html-keyboard-response","210","878110","0.0-16.0-2.0-0.0","55653","List1A","black","woman","","","","null","","","","","","","","",""
"3606.199999988079","<img src=""portrait/BM1.jpg""style=""height:400px;""></img>","4","html-button-response","211","881721","0.0-16.0-4.0","55653","List1A","black","woman","","true","4","","","","","","","","","",""
"null","CORRECT","","html-keyboard-response","212","883228","0.0-16.0-5.0-0.0","55653","List1A","black","woman","","","","null","","","","","","","","",""
"3051.4000000059605","<img src=""portrait/WW1.jpg""style=""height:400px;""></img>","1","html-button-response","213","886283","0.0-16.0-7.0","55653","List1A","black","woman","","true","1","","","","","","","","","",""
"null","CORRECT","","html-keyboard-response","214","887800","0.0-16.0-8.0-0.0","55653","List1A","black","woman","","","","null","","","","","","","","",""
"3669.9000000059605","<img src=""portrait/WW2.jpg""style=""height:400px;""></img>","3","html-button-response","215","891473","0.0-16.0-10.0","55653","List1A","black","woman","","true","3","","","","","","","","","",""
"null","CORRECT","","html-keyboard-response","216","892992","0.0-16.0-11.0-0.0","55653","List1A","black","woman","","","","null","","","","","","","","",""
"2697.5","<img src=""portrait/WM2.jpg""style=""height:400px;""></img>","7","html-button-response","217","895692","0.0-16.0-13.0","55653","List1A","black","woman","","true","7","","","","","","","","","",""
"null","CORRECT","","html-keyboard-response","218","897221","0.0-16.0-14.0-0.0","55653","List1A","black","woman","","","","null","","","","","","","","",""
"2602.699999988079","<img src=""portrait/WM1.jpg""style=""height:400px;""></img>","6","html-button-response","219","899827","0.0-16.0-16.0","55653","List1A","black","woman","","true","6","","","","","","","","","",""
"null","CORRECT","","html-keyboard-response","220","901361","0.0-16.0-17.0-0.0","55653","List1A","black","woman","","","","null","","","","","","","","",""
"2253.4000000059605","<img src=""portrait/BM2.jpg""style=""height:400px;""></img>","5","html-button-response","221","903616","0.0-16.0-19.0","55653","List1A","black","woman","","true","5","","","","","","","","","",""
"null","CORRECT","","html-keyboard-response","222","905150","0.0-16.0-20.0-0.0","55653","List1A","black","woman","","","","null","","","","","","","","",""
"2989.899999976158","<img src=""portrait/BW1.jpg""style=""height:400px;""></img>","0","html-button-response","223","908144","0.0-16.0-22.0","55653","List1A","black","woman","","true","0","","","","","","","","","",""
"null","CORRECT","","html-keyboard-response","224","909671","0.0-16.0-23.0-0.0","55653","List1A","black","woman","","","","null","","","","","","","","",""
"1219.9000000059605","<p>You got 8 out of 8 right first time. Press Continue.</p>","0","html-button-response","225","910893","0.0-16.0-25.0","55653","List1A","black","woman","","","","","","","","","","","","",""
"null","<div style=""font-size:60px;"">+</div>","","html-keyboard-response","226","912444","0.0-17.0-0.0","55653","List1A","black","woman","","","","null","","","","","","","","",""
"null","<img src=""stim_listA/greet7.gif""style=""height:400px;""></stim_listA>","","html-keyboard-response","227","914469","0.0-17.0-1.0","55653","List1A","black","woman","","","","null","","","","","","","","",""
"null","is greeting","","html-keyboard-response","228","916489","0.0-17.0-2.0","55653","List1A","black","woman","","","","null","","","","","","","","",""
"7841.0999999940395","","","survey-text","229","924352","0.0-17.0-3.0","55653","List1A","black","woman","","","","","{""Q0"":""ruth is greeting kate""}","<img src=""stim_listA/greet7.gif""style=""height:400px;""></stim_listA>","is greeting","","","","","",""
"null","<div style=""font-size:60px;"">+</div>","","html-keyboard-response","230","924869","0.0-17.0-0.1","55653","List1A","black","woman","","","","null","","","","","","","","",""
"null","<img src=""stim_listA/challenge4.gif""style=""height:400px;""></stim_listA>","","html-keyboard-response","231","926875","0.0-17.0-1.1","55653","List1A","black","woman","","","","null","","","","","","","","",""
"null","is being challenged by","","html-keyboard-response","232","928877","0.0-17.0-2.1","55653","List1A","black","woman","","","","null","","","","","","","","",""
"14013.59999999404","","","survey-text","233","942919","0.0-17.0-3.1","55653","List1A","black","woman","","","","","{""Q0"":""luke is being challenged by ruth""}","<img src=""stim_listA/challenge4.gif""style=""height:400px;""></stim_listA>","is being challenged by","","","","","",""
"null","<div style=""font-size:60px;"">+</div>","","html-keyboard-response","234","943427","0.0-17.0-0.2","55653","List1A","black","woman","","","","null","","","","","","","","",""
"null","<img src=""stim_listA/oppose2.gif""style=""height:400px;""></stim_listA>","","html-keyboard-response","235","945444","0.0-17.0-1.2","55653","List1A","black","woman","","","","null","","","","","","","","",""
"null","is being opposed by","","html-keyboard-response","236","947449","0.0-17.0-2.2","55653","List1A","black","woman","","","","null","","","","","","","","",""
"11643.90000000596","","","survey-text","237","959115","0.0-17.0-3.2","55653","List1A","black","woman","","","","","{""Q0"":""beth is being opposed by fred""}","<img src=""stim_listA/oppose2.gif""style=""height:400px;""></stim_listA>","is being opposed by","","","","","",""
"null","<div style=""font-size:60px;"">+</div>","","html-keyboard-response","238","959629","0.0-17.0-0.3","55653","List1A","black","woman","","","","null","","","","","","","","",""
"null","<img src=""stim_listA/seduce2.gif""style=""height:400px;""></stim_listA>","","html-keyboard-response","239","961638","0.0-17.0-1.3","55653","List1A","black","woman","","","","null","","","","","","","","",""
"null","is being seduced by","","html-keyboard-response","240","963642","0.0-17.0-2.3","55653","List1A","black","woman","","","","null","","","","","","","","",""
"12200","","","survey-text","241","975862","0.0-17.0-3.3","55653","List1A","black","woman","","","","","{""Q0"":""mike is being seduced by beth""}","<img src=""stim_listA/seduce2.gif""style=""height:400px;""></stim_listA>","is being seduced by","","","","","",""
"null","<div style=""font-size:60px;"">+</div>","","html-keyboard-response","242","976379","0.0-17.0-0.4","55653","List1A","black","woman","","","","null","","","","","","","","",""
"null","<img src=""stim_listA/shout6.gif""style=""height:400px;""></stim_listA>","","html-keyboard-response","243","978400","0.0-17.0-1.4","55653","List1A","black","woman","","","","null","","","","","","","","",""
"null","is being shouted at by","","html-keyboard-response","244","980409","0.0-17.0-2.4","55653","List1A","black","woman","","","","null","","","","","","","","",""
"11689.90000000596","","","survey-text","245","992131","0.0-17.0-3.4","55653","List1A","black","woman","","","","","{""Q0"":""mike is shouting at fred""}","<img src=""stim_listA/shout6.gif""style=""height:400px;""></stim_listA>","is being shouted at by","","","","","",""
"null","<div style=""font-size:60px;"">+</div>","","html-keyboard-response","246","992640","0.0-17.0-0.5","55653","List1A","black","woman","","","","null","","","","","","","","",""
"null","<img src=""stim_listA/shout4.gif""style=""height:400px;""></stim_listA>","","html-keyboard-response","247","994648","0.0-17.0-1.5","55653","List1A","black","woman","","","","null","","","","","","","","",""
"null","is being shouted at by","","html-keyboard-response","248","996658","0.0-17.0-2.5","55653","List1A","black","woman","","","","null","","","","","","","","",""
"9957","","","survey-text","249","1006620","0.0-17.0-3.5","55653","List1A","black","woman","","","","","{""Q0"":""dave is being shouted at by ruth""}","<img src=""stim_listA/shout4.gif""style=""height:400px;""></stim_listA>","is being shouted at by","","","","","",""
"null","<div style=""font-size:60px;"">+</div>","","html-keyboard-response","250","1007124","0.0-17.0-0.6","55653","List1A","black","woman","","","","null","","","","","","","","",""
"null","<img src=""stim_listA/touch7.gif""style=""height:400px;""></stim_listA>","","html-keyboard-response","251","1009139","0.0-17.0-1.6","55653","List1A","black","woman","","","","null","","","","","","","","",""
"null","is touching","","html-keyboard-response","252","1011149","0.0-17.0-2.6","55653","List1A","black","woman","","","","null","","","","","","","","",""
"8946.800000011921","","","survey-text","253","1020100","0.0-17.0-3.6","55653","List1A","black","woman","","","","","{""Q0"":""ruth is touching kate""}","<img src=""stim_listA/touch7.gif""style=""height:400px;""></stim_listA>","is touching","","","","","",""
"null","<div style=""font-size:60px;"">+</div>","","html-keyboard-response","254","1020609","0.0-17.0-0.7","55653","List1A","black","woman","","","","null","","","","","","","","",""
"null","<img src=""stim_listA/seduce3.gif""style=""height:400px;""></stim_listA>","","html-keyboard-response","255","1022619","0.0-17.0-1.7","55653","List1A","black","woman","","","","null","","","","","","","","",""
"null","is seducing","","html-keyboard-response","256","1024639","0.0-17.0-2.7","55653","List1A","black","woman","","","","null","","","","","","","","",""
"10012.40000000596","","","survey-text","257","1034656","0.0-17.0-3.7","55653","List1A","black","woman","","","","","{""Q0"":""luke is seducing ruth""}","<img src=""stim_listA/seduce3.gif""style=""height:400px;""></stim_listA>","is seducing","","","","","",""
"null","<div style=""font-size:60px;"">+</div>","","html-keyboard-response","258","1035180","0.0-17.0-0.8","55653","List1A","black","woman","","","","null","","","","","","","","",""
"null","<img src=""stim_listA/oppose1.gif""style=""height:400px;""></stim_listA>","","html-keyboard-response","259","1037187","0.0-17.0-1.8","55653","List1A","black","woman","","","","null","","","","","","","","",""
"null","is opposing","","html-keyboard-response","260","1039212","0.0-17.0-2.8","55653","List1A","black","woman","","","","null","","","","","","","","",""
"6987.5999999940395","","","survey-text","261","1046204","0.0-17.0-3.8","55653","List1A","black","woman","","","","","{""Q0"":""mike is opposing kate""}","<img src=""stim_listA/oppose1.gif""style=""height:400px;""></stim_listA>","is opposing","","","","","",""
"null","<div style=""font-size:60px;"">+</div>","","html-keyboard-response","262","1046709","0.0-17.0-0.9","55653","List1A","black","woman","","","","null","","","","","","","","",""
"null","<img src=""stim_listA/challenge5.gif""style=""height:400px;""></stim_listA>","","html-keyboard-response","263","1048730","0.0-17.0-1.9","55653","List1A","black","woman","","","","null","","","","","","","","",""
"null","is challenging","","html-keyboard-response","264","1050748","0.0-17.0-2.9","55653","List1A","black","woman","","","","null","","","","","","","","",""
"19182.90000000596","","","survey-text","265","1069947","0.0-17.0-3.9","55653","List1A","black","woman","","","","","{""Q0"":""luke is challenging mike""}","<img src=""stim_listA/challenge5.gif""style=""height:400px;""></stim_listA>","is challenging","","","","","",""
"null","<div style=""font-size:60px;"">+</div>","","html-keyboard-response","266","1070469","0.0-17.0-0.10","55653","List1A","black","woman","","","","null","","","","","","","","",""
"null","<img src=""stim_listA/greet8.gif""style=""height:400px;""></stim_listA>","","html-keyboard-response","267","1072472","0.0-17.0-1.10","55653","List1A","black","woman","","","","null","","","","","","","","",""
"null","is being greeted by","","html-keyboard-response","268","1074488","0.0-17.0-2.10","55653","List1A","black","woman","","","","null","","","","","","","","",""
"10547.899999976158","","","survey-text","269","1085040","0.0-17.0-3.10","55653","List1A","black","woman","","","","","{""Q0"":""beth is greeted by jane""}","<img src=""stim_listA/greet8.gif""style=""height:400px;""></stim_listA>","is being greeted by","","","","","",""
"null","<div style=""font-size:60px;"">+</div>","","html-keyboard-response","270","1085568","0.0-17.0-0.11","55653","List1A","black","woman","","","","null","","","","","","","","",""
"null","<img src=""stim_listA/oppose4.gif""style=""height:400px;""></stim_listA>","","html-keyboard-response","271","1087587","0.0-17.0-1.11","55653","List1A","black","woman","","","","null","","","","","","","","",""
"null","is being opposed by","","html-keyboard-response","272","1089607","0.0-17.0-2.11","55653","List1A","black","woman","","","","null","","","","","","","","",""
"10773.59999999404","","","survey-text","273","1100388","0.0-17.0-3.11","55653","List1A","black","woman","","","","","{""Q0"":""ruth is being opposed by luke""}","<img src=""stim_listA/oppose4.gif""style=""height:400px;""></stim_listA>","is being opposed by","","","","","",""
"null","<div style=""font-size:60px;"">+</div>","","html-keyboard-response","274","1100902","0.0-17.0-0.12","55653","List1A","black","woman","","","","null","","","","","","","","",""
"null","<img src=""stim_listA/hug1.gif""style=""height:400px;""></stim_listA>","","html-keyboard-response","275","1102919","0.0-17.0-1.12","55653","List1A","black","woman","","","","null","","","","","","","","",""
"null","is hugging","","html-keyboard-response","276","1104928","0.0-17.0-2.12","55653","List1A","black","woman","","","","null","","","","","","","","",""
"6222.899999976158","","","survey-text","277","1111156","0.0-17.0-3.12","55653","List1A","black","woman","","","","","{""Q0"":""beth is hugging fred""}","<img src=""stim_listA/hug1.gif""style=""height:400px;""></stim_listA>","is hugging","","","","","",""
"null","<div style=""font-size:60px;"">+</div>","","html-keyboard-response","278","1111663","0.0-17.0-0.13","55653","List1A","black","woman","","","","null","","","","","","","","",""
"null","<img src=""stim_listA/look8.gif""style=""height:400px;""></stim_listA>","","html-keyboard-response","279","1113673","0.0-17.0-1.13","55653","List1A","black","woman","","","","null","","","","","","","","",""
"null","is being looked at by","","html-keyboard-response","280","1115679","0.0-17.0-2.13","55653","List1A","black","woman","","","","null","","","","","","","","",""
"14859.200000017881","","","survey-text","281","1130559","0.0-17.0-3.13","55653","List1A","black","woman","","","","","{""Q0"":""jane is being looked at by kate""}","<img src=""stim_listA/look8.gif""style=""height:400px;""></stim_listA>","is being looked at by","","","","","",""
"null","<div style=""font-size:60px;"">+</div>","","html-keyboard-response","282","1131077","0.0-17.0-0.14","55653","List1A","black","woman","","","","null","","","","","","","","",""
"null","<img src=""stim_listA/challenge3.gif""style=""height:400px;""></stim_listA>","","html-keyboard-response","283","1133089","0.0-17.0-1.14","55653","List1A","black","woman","","","","null","","","","","","","","",""
"null","is challenging","","html-keyboard-response","284","1135100","0.0-17.0-2.14","55653","List1A","black","woman","","","","null","","","","","","","","",""
"12384.899999976158","","","survey-text","285","1147491","0.0-17.0-3.14","55653","List1A","black","woman","","","","","{""Q0"":""dave is challenging ruth""}","<img src=""stim_listA/challenge3.gif""style=""height:400px;""></stim_listA>","is challenging","","","","","",""
"null","<div style=""font-size:60px;"">+</div>","","html-keyboard-response","286","1147999","0.0-17.0-0.15","55653","List1A","black","woman","","","","null","","","","","","","","",""
"null","<img src=""stim_listA/challenge7.gif""style=""height:400px;""></stim_listA>","","html-keyboard-response","287","1150008","0.0-17.0-1.15","55653","List1A","black","woman","","","","null","","","","","","","","",""
"null","is challenging","","html-keyboard-response","288","1152029","0.0-17.0-2.15","55653","List1A","black","woman","","","","null","","","","","","","","",""
"9589","","","survey-text","289","1161624","0.0-17.0-3.15","55653","List1A","black","woman","","","","","{""Q0"":""kate is challenging ruth""}","<img src=""stim_listA/challenge7.gif""style=""height:400px;""></stim_listA>","is challenging","","","","","",""
"null","<div style=""font-size:60px;"">+</div>","","html-keyboard-response","290","1162137","0.0-17.0-0.16","55653","List1A","black","woman","","","","null","","","","","","","","",""
"null","<img src=""stim_listA/seduce7.gif""style=""height:400px;""></stim_listA>","","html-keyboard-response","291","1164148","0.0-17.0-1.16","55653","List1A","black","woman","","","","null","","","","","","","","",""
"null","is seducing","","html-keyboard-response","292","1166160","0.0-17.0-2.16","55653","List1A","black","woman","","","","null","","","","","","","","",""
"9615.09999999404","","","survey-text","293","1175796","0.0-17.0-3.16","55653","List1A","black","woman","","","","","{""Q0"":""jane is seducing beth""}","<img src=""stim_listA/seduce7.gif""style=""height:400px;""></stim_listA>","is seducing","","","","","",""
"null","<div style=""font-size:60px;"">+</div>","","html-keyboard-response","294","1176307","0.0-17.0-0.17","55653","List1A","black","woman","","","","null","","","","","","","","",""
"null","<img src=""stim_listA/oppose3.gif""style=""height:400px;""></stim_listA>","","html-keyboard-response","295","1178319","0.0-17.0-1.17","55653","List1A","black","woman","","","","null","","","","","","","","",""
"null","is opposing","","html-keyboard-response","296","1180339","0.0-17.0-2.17","55653","List1A","black","woman","","","","null","","","","","","","","",""
"7222.800000011921","","","survey-text","297","1187567","0.0-17.0-3.17","55653","List1A","black","woman","","","","","{""Q0"":""jane is opposing dave""}","<img src=""stim_listA/oppose3.gif""style=""height:400px;""></stim_listA>","is opposing","","","","","",""
"null","<div style=""font-size:60px;"">+</div>","","html-keyboard-response","298","1188092","0.0-17.0-0.18","55653","List1A","black","woman","","","","null","","","","","","","","",""
"null","<img src=""stim_listA/oppose6.gif""style=""height:400px;""></stim_listA>","","html-keyboard-response","299","1190099","0.0-17.0-1.18","55653","List1A","black","woman","","","","null","","","","","","","","",""
"null","is being opposed by","","html-keyboard-response","300","1192119","0.0-17.0-2.18","55653","List1A","black","woman","","","","null","","","","","","","","",""
"9042.40000000596","","","survey-text","301","1201194","0.0-17.0-3.18","55653","List1A","black","woman","","","","","{""Q0"":""fred is being opposed by luke""}","<img src=""stim_listA/oppose6.gif""style=""height:400px;""></stim_listA>","is being opposed by","","","","","",""
"null","<div style=""font-size:60px;"">+</div>","","html-keyboard-response","302","1201718","0.0-17.0-0.19","55653","List1A","black","woman","","","","null","","","","","","","","",""
"null","<img src=""stim_listA/seduce1.gif""style=""height:400px;""></stim_listA>","","html-keyboard-response","303","1203739","0.0-17.0-1.19","55653","List1A","black","woman","","","","null","","","","","","","","",""
"null","is seducing","","html-keyboard-response","304","1205749","0.0-17.0-2.19","55653","List1A","black","woman","","","","null","","","","","","","","",""
"6151.5999999940395","","","survey-text","305","1211916","0.0-17.0-3.19","55653","List1A","black","woman","","","","","{""Q0"":""kate is seducing fred""}","<img src=""stim_listA/seduce1.gif""style=""height:400px;""></stim_listA>","is seducing","","","","","",""
"31719.79999998212","<img src='img/portrait_matrix_list1.jpg' style='width:900px;height:500px;''></img><p>If you have memorised all the portraits and names and are ready to start, press Continue.</p><p><strong>Please note: Your memory of these faces will be tested 4 times during this experiment.</strong></p>","0","html-button-response","306","1243640","0.0-18.0-0.0","55653","List1A","black","woman","","","","","","","","","","","","",""
"4698.300000011921","<img src=""portrait/BM1.jpg""style=""height:400px;""></img>","4","html-button-response","307","1249350","0.0-18.0-1.0","55653","List1A","black","woman","","true","4","","","","","","","","","",""
"null","CORRECT","","html-keyboard-response","308","1250873","0.0-18.0-2.0-0.0","55653","List1A","black","woman","","","","null","","","","","","","","",""
"3417.4000000059605","<img src=""portrait/WW1.jpg""style=""height:400px;""></img>","1","html-button-response","309","1254292","0.0-18.0-4.0","55653","List1A","black","woman","","true","1","","","","","","","","","",""
"null","CORRECT","","html-keyboard-response","310","1255820","0.0-18.0-5.0-0.0","55653","List1A","black","woman","","","","null","","","","","","","","",""
"1952.5999999940395","<img src=""portrait/BW1.jpg""style=""height:400px;""></img>","0","html-button-response","311","1257775","0.0-18.0-7.0","55653","List1A","black","woman","","true","0","","","","","","","","","",""
"null","CORRECT","","html-keyboard-response","312","1259288","0.0-18.0-8.0-0.0","55653","List1A","black","woman","","","","null","","","","","","","","",""
"3096","<img src=""portrait/BM2.jpg""style=""height:400px;""></img>","5","html-button-response","313","1262387","0.0-18.0-10.0","55653","List1A","black","woman","","true","5","","","","","","","","","",""
"null","CORRECT","","html-keyboard-response","314","1263921","0.0-18.0-11.0-0.0","55653","List1A","black","woman","","","","null","","","","","","","","",""
"3498.5999999940395","<img src=""portrait/WM2.jpg""style=""height:400px;""></img>","7","html-button-response","315","1267423","0.0-18.0-13.0","55653","List1A","black","woman","","true","7","","","","","","","","","",""
"null","CORRECT","","html-keyboard-response","316","1268959","0.0-18.0-14.0-0.0","55653","List1A","black","woman","","","","null","","","","","","","","",""
"3075.199999988079","<img src=""portrait/BW2.jpg""style=""height:400px;""></img>","2","html-button-response","317","1272038","0.0-18.0-16.0","55653","List1A","black","woman","","true","2","","","","","","","","","",""
"null","CORRECT","","html-keyboard-response","318","1273559","0.0-18.0-17.0-0.0","55653","List1A","black","woman","","","","null","","","","","","","","",""
"3046.0999999940395","<img src=""portrait/WM1.jpg""style=""height:400px;""></img>","6","html-button-response","319","1276608","0.0-18.0-19.0","55653","List1A","black","woman","","true","6","","","","","","","","","",""
"null","CORRECT","","html-keyboard-response","320","1278144","0.0-18.0-20.0-0.0","55653","List1A","black","woman","","","","null","","","","","","","","",""
"2185.300000011921","<img src=""portrait/WW2.jpg""style=""height:400px;""></img>","3","html-button-response","321","1280331","0.0-18.0-22.0","55653","List1A","black","woman","","true","3","","","","","","","","","",""
"null","CORRECT","","html-keyboard-response","322","1281860","0.0-18.0-23.0-0.0","55653","List1A","black","woman","","","","null","","","","","","","","",""
"1597.5999999940395","<p>You got 8 out of 8 right first time. Press Continue.</p>","0","html-button-response","323","1283460","0.0-18.0-25.0","55653","List1A","black","woman","","","","","","","","","","","","",""
"null","<div style=""font-size:60px;"">+</div>","","html-keyboard-response","324","1284988","0.0-19.0-0.0","55653","List1A","black","woman","","","","null","","","","","","","","",""
"null","<img src=""stim_listA/kiss6.gif""style=""height:400px;""></stim_listA>","","html-keyboard-response","325","1287009","0.0-19.0-1.0","55653","List1A","black","woman","","","","null","","","","","","","","",""
"null","is being kissed by","","html-keyboard-response","326","1289035","0.0-19.0-2.0","55653","List1A","black","woman","","","","null","","","","","","","","",""
"11373.700000017881","","","survey-text","327","1300421","0.0-19.0-3.0","55653","List1A","black","woman","","","","","{""Q0"":""mike is being kissed by dave""}","<img src=""stim_listA/kiss6.gif""style=""height:400px;""></stim_listA>","is being kissed by","","","","","",""
"null","<div style=""font-size:60px;"">+</div>","","html-keyboard-response","328","1300929","0.0-19.0-0.1","55653","List1A","black","woman","","","","null","","","","","","","","",""
"null","<img src=""stim_listA/copy1.gif""style=""height:400px;""></stim_listA>","","html-keyboard-response","329","1302940","0.0-19.0-1.1","55653","List1A","black","woman","","","","null","","","","","","","","",""
"null","is copying","","html-keyboard-response","330","1304951","0.0-19.0-2.1","55653","List1A","black","woman","","","","null","","","","","","","","",""
"6591.5","","","survey-text","331","1311548","0.0-19.0-3.1","55653","List1A","black","woman","","","","","{""Q0"":""mike is copying beth""}","<img src=""stim_listA/copy1.gif""style=""height:400px;""></stim_listA>","is copying","","","","","",""
"null","<div style=""font-size:60px;"">+</div>","","html-keyboard-response","332","1312061","0.0-19.0-0.2","55653","List1A","black","woman","","","","null","","","","","","","","",""
"null","<img src=""stim_listA/oppose7.gif""style=""height:400px;""></stim_listA>","","html-keyboard-response","333","1314069","0.0-19.0-1.2","55653","List1A","black","woman","","","","null","","","","","","","","",""
"null","is opposing","","html-keyboard-response","334","1316080","0.0-19.0-2.2","55653","List1A","black","woman","","","","null","","","","","","","","",""
"19921","","","survey-text","335","1336022","0.0-19.0-3.2","55653","List1A","black","woman","","","","","{""Q0"":""mike is seducing beth""}","<img src=""stim_listA/oppose7.gif""style=""height:400px;""></stim_listA>","is opposing","","","","","",""
"null","<div style=""font-size:60px;"">+</div>","","html-keyboard-response","336","1336544","0.0-19.0-0.3","55653","List1A","black","woman","","","","null","","","","","","","","",""
"null","<img src=""stim_listA/hug8.gif""style=""height:400px;""></stim_listA>","","html-keyboard-response","337","1338564","0.0-19.0-1.3","55653","List1A","black","woman","","","","null","","","","","","","","",""
"null","is being hugged by","","html-keyboard-response","338","1340579","0.0-19.0-2.3","55653","List1A","black","woman","","","","null","","","","","","","","",""
"19686.09999999404","","","survey-text","339","1360273","0.0-19.0-3.3","55653","List1A","black","woman","","","","","{""Q0"":""dave is copying jane""}","<img src=""stim_listA/hug8.gif""style=""height:400px;""></stim_listA>","is being hugged by","","","","","",""
"null","<div style=""font-size:60px;"">+</div>","","html-keyboard-response","340","1360788","0.0-19.0-0.4","55653","List1A","black","woman","","","","null","","","","","","","","",""
"null","<img src=""stim_listA/greet6.gif""style=""height:400px;""></stim_listA>","","html-keyboard-response","341","1362810","0.0-19.0-1.4","55653","List1A","black","woman","","","","null","","","","","","","","",""
"null","is being greeted by","","html-keyboard-response","342","1364832","0.0-19.0-2.4","55653","List1A","black","woman","","","","null","","","","","","","","",""
"7875","","","survey-text","343","1372719","0.0-19.0-3.4","55653","List1A","black","woman","","","","","{""Q0"":""fred is greeted by dave""}","<img src=""stim_listA/greet6.gif""style=""height:400px;""></stim_listA>","is being greeted by","","","","","",""
"null","<div style=""font-size:60px;"">+</div>","","html-keyboard-response","344","1373243","0.0-19.0-0.5","55653","List1A","black","woman","","","","null","","","","","","","","",""
"null","<img src=""stim_listA/hug6.gif""style=""height:400px;""></stim_listA>","","html-keyboard-response","345","1375268","0.0-19.0-1.5","55653","List1A","black","woman","","","","null","","","","","","","","",""
"null","is being hugged by","","html-keyboard-response","346","1377278","0.0-19.0-2.5","55653","List1A","black","woman","","","","null","","","","","","","","",""
"7119.5","","","survey-text","347","1384404","0.0-19.0-3.5","55653","List1A","black","woman","","","","","{""Q0"":""mike is being hugged by dave""}","<img src=""stim_listA/hug6.gif""style=""height:400px;""></stim_listA>","is being hugged by","","","","","",""
"null","<div style=""font-size:60px;"">+</div>","","html-keyboard-response","348","1384919","0.0-19.0-0.6","55653","List1A","black","woman","","","","null","","","","","","","","",""
"null","<img src=""stim_listA/challenge1.gif""style=""height:400px;""></stim_listA>","","html-keyboard-response","349","1386939","0.0-19.0-1.6","55653","List1A","black","woman","","","","null","","","","","","","","",""
"null","is challenging","","html-keyboard-response","350","1388960","0.0-19.0-2.6","55653","List1A","black","woman","","","","null","","","","","","","","",""
"9794.90000000596","","","survey-text","351","1398760","0.0-19.0-3.6","55653","List1A","black","woman","","","","","{""Q0"":""mike is hugging beth""}","<img src=""stim_listA/challenge1.gif""style=""height:400px;""></stim_listA>","is challenging","","","","","",""
"null","<div style=""font-size:60px;"">+</div>","","html-keyboard-response","352","1399269","0.0-19.0-0.7","55653","List1A","black","woman","","","","null","","","","","","","","",""
"null","<img src=""stim_listA/copy3.gif""style=""height:400px;""></stim_listA>","","html-keyboard-response","353","1401289","0.0-19.0-1.7","55653","List1A","black","woman","","","","null","","","","","","","","",""
"null","is copying","","html-keyboard-response","354","1403299","0.0-19.0-2.7","55653","List1A","black","woman","","","","null","","","","","","","","",""
"7745.800000011921","","","survey-text","355","1411050","0.0-19.0-3.7","55653","List1A","black","woman","","","","","{""Q0"":""ruth is copying dave""}","<img src=""stim_listA/copy3.gif""style=""height:400px;""></stim_listA>","is copying","","","","","",""
"null","<div style=""font-size:60px;"">+</div>","","html-keyboard-response","356","1411558","0.0-19.0-0.8","55653","List1A","black","woman","","","","null","","","","","","","","",""
"null","<img src=""stim_listA/hug7.gif""style=""height:400px;""></stim_listA>","","html-keyboard-response","357","1413580","0.0-19.0-1.8","55653","List1A","black","woman","","","","null","","","","","","","","",""
"null","is hugging","","html-keyboard-response","358","1415590","0.0-19.0-2.8","55653","List1A","black","woman","","","","null","","","","","","","","",""
"6701.699999988079","","","survey-text","359","1422296","0.0-19.0-3.8","55653","List1A","black","woman","","","","","{""Q0"":""ruth is hugging beth""}","<img src=""stim_listA/hug7.gif""style=""height:400px;""></stim_listA>","is hugging","","","","","",""
"null","<div style=""font-size:60px;"">+</div>","","html-keyboard-response","360","1422811","0.0-19.0-0.9","55653","List1A","black","woman","","","","null","","","","","","","","",""
"null","<img src=""stim_listA/greet1.gif""style=""height:400px;""></stim_listA>","","html-keyboard-response","361","1424833","0.0-19.0-1.9","55653","List1A","black","woman","","","","null","","","","","","","","",""
"null","is greeting","","html-keyboard-response","362","1426845","0.0-19.0-2.9","55653","List1A","black","woman","","","","null","","","","","","","","",""
"7421.300000011921","","","survey-text","363","1434285","0.0-19.0-3.9","55653","List1A","black","woman","","","","","{""Q0"":""beth is greeting mike""}","<img src=""stim_listA/greet1.gif""style=""height:400px;""></stim_listA>","is greeting","","","","","",""
"null","<div style=""font-size:60px;"">+</div>","","html-keyboard-response","364","1434789","0.0-19.0-0.10","55653","List1A","black","woman","","","","null","","","","","","","","",""
"null","<img src=""stim_listA/hug4.gif""style=""height:400px;""></stim_listA>","","html-keyboard-response","365","1436821","0.0-19.0-1.10","55653","List1A","black","woman","","","","null","","","","","","","","",""
"null","is being hugged by","","html-keyboard-response","366","1438839","0.0-19.0-2.10","55653","List1A","black","woman","","","","null","","","","","","","","",""
"12122.59999999404","","","survey-text","367","1450969","0.0-19.0-3.10","55653","List1A","black","woman","","","","","{""Q0"":""dave is being hugged by jane""}","<img src=""stim_listA/hug4.gif""style=""height:400px;""></stim_listA>","is being hugged by","","","","","",""
"null","<div style=""font-size:60px;"">+</div>","","html-keyboard-response","368","1451491","0.0-19.0-0.11","55653","List1A","black","woman","","","","null","","","","","","","","",""
"null","<img src=""stim_listA/touch3.gif""style=""height:400px;""></stim_listA>","","html-keyboard-response","369","1453510","0.0-19.0-1.11","55653","List1A","black","woman","","","","null","","","","","","","","",""
"null","is touching","","html-keyboard-response","370","1455529","0.0-19.0-2.11","55653","List1A","black","woman","","","","null","","","","","","","","",""
"6154.5999999940395","","","survey-text","371","1461707","0.0-19.0-3.11","55653","List1A","black","woman","","","","","{""Q0"":""jane is touching dave""}","<img src=""stim_listA/touch3.gif""style=""height:400px;""></stim_listA>","is touching","","","","","",""
"null","<div style=""font-size:60px;"">+</div>","","html-keyboard-response","372","1462216","0.0-19.0-0.12","55653","List1A","black","woman","","","","null","","","","","","","","",""
"null","<img src=""stim_listA/challenge2.gif""style=""height:400px;""></stim_listA>","","html-keyboard-response","373","1464251","0.0-19.0-1.12","55653","List1A","black","woman","","","","null","","","","","","","","",""
"null","is being challenged by","","html-keyboard-response","374","1466261","0.0-19.0-2.12","55653","List1A","black","woman","","","","null","","","","","","","","",""
"11705.40000000596","","","survey-text","375","1477986","0.0-19.0-3.12","55653","List1A","black","woman","","","","","{""Q0"":""fred is being challenged by kate""}","<img src=""stim_listA/challenge2.gif""style=""height:400px;""></stim_listA>","is being challenged by","","","","","",""
"null","<div style=""font-size:60px;"">+</div>","","html-keyboard-response","376","1478499","0.0-19.0-0.13","55653","List1A","black","woman","","","","null","","","","","","","","",""
"null","<img src=""stim_listA/seduce6.gif""style=""height:400px;""></stim_listA>","","html-keyboard-response","377","1480513","0.0-19.0-1.13","55653","List1A","black","woman","","","","null","","","","","","","","",""
"null","is being seduced by","","html-keyboard-response","378","1482530","0.0-19.0-2.13","55653","List1A","black","woman","","","","null","","","","","","","","",""
"11295.300000011921","","","survey-text","379","1493830","0.0-19.0-3.13","55653","List1A","black","woman","","","","","{""Q0"":""luke is being seduced by mike""}","<img src=""stim_listA/seduce6.gif""style=""height:400px;""></stim_listA>","is being seduced by","","","","","",""
"null","<div style=""font-size:60px;"">+</div>","","html-keyboard-response","380","1494334","0.0-19.0-0.14","55653","List1A","black","woman","","","","null","","","","","","","","",""
"null","<img src=""stim_listA/oppose5.gif""style=""height:400px;""></stim_listA>","","html-keyboard-response","381","1496341","0.0-19.0-1.14","55653","List1A","black","woman","","","","null","","","","","","","","",""
"null","is opposing","","html-keyboard-response","382","1498355","0.0-19.0-2.14","55653","List1A","black","woman","","","","null","","","","","","","","",""
"6988.800000011921","","","survey-text","383","1505350","0.0-19.0-3.14","55653","List1A","black","woman","","","","","{""Q0"":""dave is opposing mike""}","<img src=""stim_listA/oppose5.gif""style=""height:400px;""></stim_listA>","is opposing","","","","","",""
"null","<div style=""font-size:60px;"">+</div>","","html-keyboard-response","384","1505870","0.0-19.0-0.15","55653","List1A","black","woman","","","","null","","","","","","","","",""
"null","<img src=""stim_listA/shout7.gif""style=""height:400px;""></stim_listA>","","html-keyboard-response","385","1507888","0.0-19.0-1.15","55653","List1A","black","woman","","","","null","","","","","","","","",""
"null","is shouting at","","html-keyboard-response","386","1509910","0.0-19.0-2.15","55653","List1A","black","woman","","","","null","","","","","","","","",""
"7675.300000011921","","","survey-text","387","1517607","0.0-19.0-3.15","55653","List1A","black","woman","","","","","{""Q0"":""beth is shouting at ruth""}","<img src=""stim_listA/shout7.gif""style=""height:400px;""></stim_listA>","is shouting at","","","","","",""
"null","<div style=""font-size:60px;"">+</div>","","html-keyboard-response","388","1518119","0.0-19.0-0.16","55653","List1A","black","woman","","","","null","","","","","","","","",""
"null","<img src=""stim_listA/touch4.gif""style=""height:400px;""></stim_listA>","","html-keyboard-response","389","1520125","0.0-19.0-1.16","55653","List1A","black","woman","","","","null","","","","","","","","",""
"null","is being touched by","","html-keyboard-response","390","1522141","0.0-19.0-2.16","55653","List1A","black","woman","","","","null","","","","","","","","",""
"9358.5","","","survey-text","391","1531526","0.0-19.0-3.16","55653","List1A","black","woman","","","","","{""Q0"":""ruth is being touched by luke""}","<img src=""stim_listA/touch4.gif""style=""height:400px;""></stim_listA>","is being touched by","","","","","",""
"null","<div style=""font-size:60px;"">+</div>","","html-keyboard-response","392","1532041","0.0-19.0-0.17","55653","List1A","black","woman","","","","null","","","","","","","","",""
"null","<img src=""stim_listA/greet2.gif""style=""height:400px;""></stim_listA>","","html-keyboard-response","393","1534057","0.0-19.0-1.17","55653","List1A","black","woman","","","","null","","","","","","","","",""
"null","is being greeted by","","html-keyboard-response","394","1536080","0.0-19.0-2.17","55653","List1A","black","woman","","","","null","","","","","","","","",""
"7981.9000000059605","","","survey-text","395","1544076","0.0-19.0-3.17","55653","List1A","black","woman","","","","","{""Q0"":""fred is greeted by kate""}","<img src=""stim_listA/greet2.gif""style=""height:400px;""></stim_listA>","is being greeted by","","","","","",""
"null","<div style=""font-size:60px;"">+</div>","","html-keyboard-response","396","1544594","0.0-19.0-0.18","55653","List1A","black","woman","","","","null","","","","","","","","",""
"null","<img src=""stim_listA/copy5.gif""style=""height:400px;""></stim_listA>","","html-keyboard-response","397","1546623","0.0-19.0-1.18","55653","List1A","black","woman","","","","null","","","","","","","","",""
"null","is copying","","html-keyboard-response","398","1548629","0.0-19.0-2.18","55653","List1A","black","woman","","","","null","","","","","","","","",""
"8707.5","","","survey-text","399","1557350","0.0-19.0-3.18","55653","List1A","black","woman","","","","","{""Q0"":""mike is copying luke""}","<img src=""stim_listA/copy5.gif""style=""height:400px;""></stim_listA>","is copying","","","","","",""
"null","<div style=""font-size:60px;"">+</div>","","html-keyboard-response","400","1557859","0.0-19.0-0.19","55653","List1A","black","woman","","","","null","","","","","","","","",""
"null","<img src=""stim_listA/look4.gif""style=""height:400px;""></stim_listA>","","html-keyboard-response","401","1559869","0.0-19.0-1.19","55653","List1A","black","woman","","","","null","","","","","","","","",""
"null","is being looked at by","","html-keyboard-response","402","1561873","0.0-19.0-2.19","55653","List1A","black","woman","","","","null","","","","","","","","",""
"11967","","","survey-text","403","1573854","0.0-19.0-3.19","55653","List1A","black","woman","","","","","{""Q0"":""jane is being looked at by dave""}","<img src=""stim_listA/look4.gif""style=""height:400px;""></stim_listA>","is being looked at by","","","","","",""
"4940","<p>Thank you for completing that task.</p><p>The final part of this session is a questionnaire that will take about 4 minutes.</p><p>Press Continue.</p>","0","html-button-response","404","1578796","0.0-20.0","55653","List1A","black","woman","","","","","","","","","","","","",""
"64386","","","survey-text","405","1644205","0.0-21.0","55653","List1A","black","woman","","","","","{""Q0"":""21"",""Q1"":""english"",""Q2"":""english"",""Q3"":""pennsylvannia"",""Q4"":""usa"",""Q5"":""african american"",""Q6"":""female""}","","","demographics","","","","",""
"3863.4000000059605","<p>Have you lived in the USA for the last 5 years or more?</p>","0","html-button-response","406","1648074","0.0-22.0","55653","List1A","black","woman","","","","","","","","fiveyears","","","","",""
"5489.800000011921","<p>Move the slider to show the extent to which you agree with the following statements.</p>","0","html-button-response","407","1654570","0.0-23.0","55653","List1A","black","woman","","","","","","","","","","","","",""
"9538.90000000596","","","html-slider-response","408","1665170","0.0-24.0-0.0-0.0","55653","List1A","black","woman","","","","","","","","survey_gender","33","","","The fact that I am my gender is an important part of my identity.","identity"
"7133.199999988079","","","html-slider-response","409","1672307","0.0-24.0-0.0-0.1","55653","List1A","black","woman","","","","","","","","survey_gender","9","","","It is pleasant to be my gender.","pleasant"
"3154.9000000059605","","","html-slider-response","410","1675467","0.0-24.0-0.0-0.2","55653","List1A","black","woman","","","","","","","","survey_gender","53","","","I feel a bond with my friends.","filler"
"3479.7999999821186","","","html-slider-response","411","1678951","0.0-24.0-0.0-0.3","55653","List1A","black","woman","","","","","","","","survey_gender","39","","","I am glad to have the friends that I have.","filler"
"3872","","","html-slider-response","412","1682826","0.0-24.0-0.0-0.4","55653","List1A","black","woman","","","","","","","","survey_gender","3","","","I feel solidarity with my gender.","solidarity"
"3873.5999999940395","","","html-slider-response","413","1686703","0.0-24.0-0.0-0.5","55653","List1A","black","woman","","","","","","","","survey_gender","21","","","I would say I am an animal person.","filler"
"5853.5","","","html-slider-response","414","1692559","0.0-24.0-0.0-0.6","55653","List1A","black","woman","","","","","","","","survey_gender","45","","","People of my gender are very similar to each other.","verysimilar"
"3758.5999999940395","","","html-slider-response","415","1696321","0.0-24.0-0.0-0.7","55653","List1A","black","woman","","","","","","","","survey_gender","54","","","I often think about my actions.","filler"
"2547.0999999940395","","","html-slider-response","416","1698871","0.0-24.0-0.0-0.8","55653","List1A","black","woman","","","","","","","","survey_gender","52","","","I feel solidarity with my friends.","filler"
"5134.0999999940395","","","html-slider-response","417","1704008","0.0-24.0-0.0-0.9","55653","List1A","black","woman","","","","","","","","survey_gender","0","","","I feel a bond with my gender.","bond"
"3332.100000023842","","","html-slider-response","418","1707343","0.0-24.0-0.0-0.10","55653","List1A","black","woman","","","","","","","","survey_gender","0","","","I feel committed to my gender.","committed"
"8594.90000000596","","","html-slider-response","419","1715941","0.0-24.0-0.0-0.11","55653","List1A","black","woman","","","","","","","","survey_gender","39","","","Family is not more important to me than friendship.","filler"
"3146.0999999940395","","","html-slider-response","420","1719092","0.0-24.0-0.0-0.12","55653","List1A","black","woman","","","","","","","","survey_gender","11","","","I consider myself a highly empathetic person.","filler"
"3411.7000000178814","","","html-slider-response","421","1722506","0.0-24.0-0.0-0.13","55653","List1A","black","woman","","","","","","","","survey_gender","5","","","I think that my gender has a lot to be proud of.","proud"
"4144.9000000059605","","","html-slider-response","422","1726654","0.0-24.0-0.0-0.14","55653","List1A","black","woman","","","","","","","","survey_gender","3","","","Being my gender is an important part of how I see myself.","important"
"6917.299999982119","","","html-slider-response","423","1733574","0.0-24.0-0.0-0.15","55653","List1A","black","woman","","","","","","","","survey_gender","4","","","Routine is not important to me.","filler"
"6864","","","html-slider-response","424","1740441","0.0-24.0-0.0-0.16","55653","List1A","black","woman","","","","","","","","survey_gender","12","","","People of my gender have a lot in common with each other.","common"
"3774.199999988079","","","html-slider-response","425","1744218","0.0-24.0-0.0-0.17","55653","List1A","black","woman","","","","","","","","survey_gender","0","","","I am glad to be my gender.","glad"
"7628.5999999940395","","","html-slider-response","426","1751850","0.0-24.0-0.0-0.18","55653","List1A","black","woman","","","","","","","","survey_gender","3","","","I often think about the fact that I am my gender.","often"
"4739.300000011921","","","html-slider-response","427","1756592","0.0-24.0-0.0-0.19","55653","List1A","black","woman","","","","","","","","survey_gender","0","","","I am similar to the average person of my gender.","similar"
"3651.600000023842","","","html-slider-response","428","1760246","0.0-24.0-0.0-0.20","55653","List1A","black","woman","","","","","","","","survey_gender","54","","","It is not always easy for people to know what I am thinking.","filler"
"3625.300000011921","","","html-slider-response","429","1763877","0.0-24.0-0.0-0.21","55653","List1A","black","woman","","","","","","","","survey_gender","58","","","Being around my friends gives me a good feeling.","filler"
"8452.199999988079","","","html-slider-response","430","1772333","0.0-24.0-0.0-0.22","55653","List1A","black","woman","","","","","","","","survey_gender","55","","","My friends have a lot in common with each other.","filler"
"2160.9000000059605","","","html-slider-response","431","1774497","0.0-24.0-0.0-0.23","55653","List1A","black","woman","","","","","","","","survey_gender","57","","","Most of the friends in my life are very similar to me.","filler"
"4075.199999988079","","","html-slider-response","432","1778575","0.0-24.0-0.0-0.24","55653","List1A","black","woman","","","","","","","","survey_gender","0","","","Being my gender gives me a good feeling.","feeling"
"2260.300000011921","","","html-slider-response","433","1780841","0.0-24.0-0.0-0.25","55653","List1A","black","woman","","","","","","","","survey_gender","59","","","I have a lot in common with my friends.","filler"
"2783.5","","","html-slider-response","434","1783630","0.0-24.0-0.0-0.26","55653","List1A","black","woman","","","","","","","","survey_gender","0","","","I have a lot in common with the average person of my gender.","average"
"2597.7999999821186","","","html-slider-response","435","1786231","0.0-24.0-0.0-0.27","55653","List1A","black","woman","","","","","","","","survey_gender","56","","","My friends understand me.","filler"
"2407.199999988079","","","html-slider-response","436","1788641","0.0-24.0-1.0-0.0","55653","List1A","black","woman","","","","","","","","survey_race","52","","","I feel a bond with my race.","bond"
"2484.4000000059605","","","html-slider-response","437","1791130","0.0-24.0-1.0-0.1","55653","List1A","black","woman","","","","","","","","survey_race","19","","","Being my age gives me a good feeling.","filler"
"2814.899999976158","","","html-slider-response","438","1793947","0.0-24.0-1.0-0.2","55653","List1A","black","woman","","","","","","","","survey_race","19","","","I feel committed to my race.","committed"
"3505","","","html-slider-response","439","1797454","0.0-24.0-1.0-0.3","55653","List1A","black","woman","","","","","","","","survey_race","15","","","I often think about the fact that I am my race.","often"
"2538.7999999821186","","","html-slider-response","440","1799996","0.0-24.0-1.0-0.4","55653","List1A","black","woman","","","","","","","","survey_race","15","","","I am similar to the average person of my race.","similar"
"2897","","","html-slider-response","441","1802895","0.0-24.0-1.0-0.5","55653","List1A","black","woman","","","","","","","","survey_race","28","","","I am glad to be my race.","glad"
"2474.899999976158","","","html-slider-response","442","1805373","0.0-24.0-1.0-0.6","55653","List1A","black","woman","","","","","","","","survey_race","26","","","The fact that I am my race is an important part of my identity.","identity"
"2494","","","html-slider-response","443","1807869","0.0-24.0-1.0-0.7","55653","List1A","black","woman","","","","","","","","survey_race","55","","","I have a lot in common with people of a similar age to me.","filler"
"3072.0999999940395","","","html-slider-response","444","1810944","0.0-24.0-1.0-0.8","55653","List1A","black","woman","","","","","","","","survey_race","48","","","I feel solidarity with my race.","solidarity"
"2437.7000000178814","","","html-slider-response","445","1813385","0.0-24.0-1.0-0.9","55653","List1A","black","woman","","","","","","","","survey_race","46","","","People my age have a lot in common with each other.","filler"
"2824.800000011921","","","html-slider-response","446","1816212","0.0-24.0-1.0-0.10","55653","List1A","black","woman","","","","","","","","survey_race","54","","","Being my race gives me a good feeling.","feeling"
"3096.9000000059605","","","html-slider-response","447","1819312","0.0-24.0-1.0-0.11","55653","List1A","black","woman","","","","","","","","survey_race","44","","","People of my race have a lot in common with each other.","common"
"2198","","","html-slider-response","448","1821513","0.0-24.0-1.0-0.12","55653","List1A","black","woman","","","","","","","","survey_race","48","","","Being my race is an important part of how I see myself.","important"
"5551.699999988079","","","html-slider-response","449","1827067","0.0-24.0-1.0-0.13","55653","List1A","black","woman","","","","","","","","survey_race","87","","","I am glad to be my age.","filler"
"3349.9000000059605","","","html-slider-response","450","1830421","0.0-24.0-1.0-0.14","55653","List1A","black","woman","","","","","","","","survey_race","10","","","It is pleasant to be my race.","pleasant"
"2376.0999999940395","","","html-slider-response","451","1832800","0.0-24.0-1.0-0.15","55653","List1A","black","woman","","","","","","","","survey_race","24","","","I enjoy being in large groups.","filler"
"1904.2999999821186","","","html-slider-response","452","1834710","0.0-24.0-1.0-0.16","55653","List1A","black","woman","","","","","","","","survey_race","16","","","I consider myself an introvert.","filler"
"4320.700000017881","","","html-slider-response","453","1839033","0.0-24.0-1.0-0.17","55653","List1A","black","woman","","","","","","","","survey_race","71","","","The older I get, the wiser I feel.","filler"
"2494.5999999940395","","","html-slider-response","454","1841530","0.0-24.0-1.0-0.18","55653","List1A","black","woman","","","","","","","","survey_race","20","","","I think that my race has a lot to be proud of.","proud"
"2005.5999999940395","","","html-slider-response","455","1843538","0.0-24.0-1.0-0.19","55653","List1A","black","woman","","","","","","","","survey_race","66","","","I feel a bond with people the same age as me.","filler"
"2479.5999999940395","","","html-slider-response","456","1846020","0.0-24.0-1.0-0.20","55653","List1A","black","woman","","","","","","","","survey_race","26","","","I often think about the fact that I am my age.","filler"
"3310.0999999940395","","","html-slider-response","457","1849334","0.0-24.0-1.0-0.21","55653","List1A","black","woman","","","","","","","","survey_race","31","","","My age is not an important part of who I am.","filler"
"3912.199999988079","","","html-slider-response","458","1853250","0.0-24.0-1.0-0.22","55653","List1A","black","woman","","","","","","","","survey_race","7","","","Getting older does not worry me.","filler"
"2297.7999999821186","","","html-slider-response","459","1855553","0.0-24.0-1.0-0.23","55653","List1A","black","woman","","","","","","","","survey_race","27","","","People of my race are very similar to each other.","verysimilar"
"2888","","","html-slider-response","460","1858443","0.0-24.0-1.0-0.24","55653","List1A","black","woman","","","","","","","","survey_race","77","","","I consider myself an extrovert.","filler"
"2594.800000011921","","","html-slider-response","461","1861043","0.0-24.0-1.0-0.25","55653","List1A","black","woman","","","","","","","","survey_race","71","","","I have a lot in common with the average person of my race.","average"
"2889.199999988079","","","html-slider-response","462","1863934","0.0-24.0-1.0-0.26","55653","List1A","black","woman","","","","","","","","survey_race","69","","","I feel solidarity with people the same age as me.","filler"
"7988.0999999940395","","","html-slider-response","463","1871925","0.0-24.0-1.0-0.27","55653","List1A","black","woman","","","","","","","","survey_race","94","","","I am glad to be the age I am.","filler"
"9503.800000011921","","","survey-text","464","1881436","0.0-25.0","55653","List1A","black","woman","","","","","{""Q0"":""60fefceabeb266acf92730e3""}","","","worker_id","","","","",""
"8665.59999999404","","","external-html","465","1890350","0.0-26.0","55653","List1A","black","woman","debrief.html","","","","","","","","","","","",""
