"rt","stimulus","button_pressed","trial_type","trial_index","time_elapsed","internal_node_id","subject","list","ppt_race","ppt_gender","url","first_guess","correct","key_press","responses","image_type","phrase_type","test_part","response","stimulus1","stimulus2","question_type","survey_item"
"2669.3250000244007","Welcome to the experiment. Press Continue to begin.","0","html-button-response","0","2679","0.0-0.0","5577","List1A","white","woman","","","","","","","","","","","","",""
"19477.94499999145","","","external-html","1","23591","0.0-1.0","5577","List1A","white","woman","consent.html","","","","","","","","","","","",""
"24310.23499998264","<p>On the next page, you will see portraits of 8 people and their names.</p><p>Your first task is to take a few minutes to memorise the names of these people.</p><p>You will have to recall their names during the rest of the experiment, so it is</p><p>essential that you try to memorise these people and their names as best as you can.</p><br><p><strong>You will then be tested on your memory of these names and portraits.</strong></p><br><p>The experiment will start after you have completed this memory test.</p><br><p>Ready?</p>","0","html-button-response","2","47907","0.0-2.0","5577","List1A","white","woman","","","","","","","","","","","","",""
"41359.55500003183","<img src='img/portrait_matrix_list1.jpg' style='width:900px;height:500px;''></img><p>If you have memorised all the portraits and names and are ready to start, press Continue.</p><p><strong>Please note: Your memory of these faces will be tested 4 times during this experiment.</strong></p>","0","html-button-response","3","90276","0.0-3.0-0.0","5577","List1A","white","woman","","","","","","","","","","","","",""
"4566.059999982826","<img src=""portrait/WM1.jpg""style=""height:400px;""></img>","6","html-button-response","4","95855","0.0-3.0-1.0","5577","List1A","white","woman","","true","6","","","","","","","","","",""
"null","CORRECT","","html-keyboard-response","5","97371","0.0-3.0-2.0-0.0","5577","List1A","white","woman","","","","null","","","","","","","","",""
"3869.885000050999","<img src=""portrait/WM2.jpg""style=""height:400px;""></img>","7","html-button-response","6","101251","0.0-3.0-4.0","5577","List1A","white","woman","","true","7","","","","","","","","","",""
"null","CORRECT","","html-keyboard-response","7","102765","0.0-3.0-5.0-0.0","5577","List1A","white","woman","","","","null","","","","","","","","",""
"3034.9150000256486","<img src=""portrait/WW2.jpg""style=""height:400px;""></img>","3","html-button-response","8","105807","0.0-3.0-7.0","5577","List1A","white","woman","","true","3","","","","","","","","","",""
"null","CORRECT","","html-keyboard-response","9","107316","0.0-3.0-8.0-0.0","5577","List1A","white","woman","","","","null","","","","","","","","",""
"4678.324999986216","<img src=""portrait/BW1.jpg""style=""height:400px;""></img>","0","html-button-response","10","112002","0.0-3.0-10.0","5577","List1A","white","woman","","true","0","","","","","","","","","",""
"null","CORRECT","","html-keyboard-response","11","113510","0.0-3.0-11.0-0.0","5577","List1A","white","woman","","","","null","","","","","","","","",""
"3979.540000029374","<img src=""portrait/BM2.jpg""style=""height:400px;""></img>","5","html-button-response","12","117495","0.0-3.0-13.0","5577","List1A","white","woman","","true","5","","","","","","","","","",""
"null","CORRECT","","html-keyboard-response","13","119005","0.0-3.0-14.0-0.0","5577","List1A","white","woman","","","","null","","","","","","","","",""
"3631.5450000111014","<img src=""portrait/WW1.jpg""style=""height:400px;""></img>","2","html-button-response","14","122645","0.0-3.0-16.0","5577","List1A","white","woman","","true","1","","","","","","","","","",""
"5494.775000028312","<img src=""portrait/WW1.jpg""style=""height:400px;""></img>","1","html-button-response","15","129153","0.0-3.0-18.0-0.0","5577","List1A","white","woman","","false","1","","","","","","","","","",""
"null","CORRECT","","html-keyboard-response","16","130666","0.0-3.0-18.0-1.0-0.0","5577","List1A","white","woman","","","","null","","","","","","","","",""
"3555.8750000200234","<img src=""portrait/BM1.jpg""style=""height:400px;""></img>","4","html-button-response","17","134232","0.0-3.0-19.0","5577","List1A","white","woman","","true","4","","","","","","","","","",""
"null","CORRECT","","html-keyboard-response","18","135740","0.0-3.0-20.0-0.0","5577","List1A","white","woman","","","","null","","","","","","","","",""
"2257.450000033714","<img src=""portrait/BW2.jpg""style=""height:400px;""></img>","2","html-button-response","19","138006","0.0-3.0-22.0","5577","List1A","white","woman","","true","2","","","","","","","","","",""
"null","CORRECT","","html-keyboard-response","20","139517","0.0-3.0-23.0-0.0","5577","List1A","white","woman","","","","null","","","","","","","","",""
"2722.825000004377","<p>You got 7 out of 8 right first time. Press Continue.</p>","0","html-button-response","21","142249","0.0-3.0-25.0","5577","List1A","white","woman","","","","","","","","","","","","",""
"3129.845000046771","As you did not score 100%, the memory game will repeat. Press Continue.","0","html-button-response","22","146387","0.0-3.0-26.0-0.0","5577","List1A","white","woman","","","","","","","","","","","","",""
"6227.754999999888","<img src='img/portrait_matrix_list1.jpg' style='width:900px;height:500px;''></img><p>If you have memorised all the portraits and names and are ready to start, press Continue.</p><p><strong>Please note: Your memory of these faces will be tested 4 times during this experiment.</strong></p>","0","html-button-response","23","153631","0.0-3.1-0.1","5577","List1A","white","woman","","","","","","","","","","","","",""
"2097.7649999549612","<img src=""portrait/WM1.jpg""style=""height:400px;""></img>","6","html-button-response","24","156742","0.0-3.1-1.1","5577","List1A","white","woman","","true","6","","","","","","","","","",""
"null","CORRECT","","html-keyboard-response","25","158250","0.0-3.1-2.1-0.1","5577","List1A","white","woman","","","","null","","","","","","","","",""
"1814.200000022538","<img src=""portrait/WM2.jpg""style=""height:400px;""></img>","7","html-button-response","26","160074","0.0-3.1-4.1","5577","List1A","white","woman","","true","7","","","","","","","","","",""
"null","CORRECT","","html-keyboard-response","27","161579","0.0-3.1-5.1-0.1","5577","List1A","white","woman","","","","null","","","","","","","","",""
"1905.1350000081584","<img src=""portrait/WW2.jpg""style=""height:400px;""></img>","3","html-button-response","28","163492","0.0-3.1-7.1","5577","List1A","white","woman","","true","3","","","","","","","","","",""
"null","CORRECT","","html-keyboard-response","29","164999","0.0-3.1-8.1-0.1","5577","List1A","white","woman","","","","null","","","","","","","","",""
"1558.675000036601","<img src=""portrait/BW1.jpg""style=""height:400px;""></img>","0","html-button-response","30","166565","0.0-3.1-10.1","5577","List1A","white","woman","","true","0","","","","","","","","","",""
"null","CORRECT","","html-keyboard-response","31","168072","0.0-3.1-11.1-0.1","5577","List1A","white","woman","","","","null","","","","","","","","",""
"4246.050000016112","<img src=""portrait/BM2.jpg""style=""height:400px;""></img>","5","html-button-response","32","172328","0.0-3.1-13.1","5577","List1A","white","woman","","true","5","","","","","","","","","",""
"null","CORRECT","","html-keyboard-response","33","173833","0.0-3.1-14.1-0.1","5577","List1A","white","woman","","","","null","","","","","","","","",""
"2173.94999996759","<img src=""portrait/WW1.jpg""style=""height:400px;""></img>","1","html-button-response","34","176017","0.0-3.1-16.1","5577","List1A","white","woman","","true","1","","","","","","","","","",""
"null","CORRECT","","html-keyboard-response","35","177522","0.0-3.1-17.1-0.1","5577","List1A","white","woman","","","","null","","","","","","","","",""
"1995.055000006687","<img src=""portrait/BM1.jpg""style=""height:400px;""></img>","4","html-button-response","36","179526","0.0-3.1-19.1","5577","List1A","white","woman","","true","4","","","","","","","","","",""
"null","CORRECT","","html-keyboard-response","37","181030","0.0-3.1-20.1-0.1","5577","List1A","white","woman","","","","null","","","","","","","","",""
"1409.2449999880046","<img src=""portrait/BW2.jpg""style=""height:400px;""></img>","2","html-button-response","38","182448","0.0-3.1-22.1","5577","List1A","white","woman","","true","2","","","","","","","","","",""
"null","CORRECT","","html-keyboard-response","39","183952","0.0-3.1-23.1-0.1","5577","List1A","white","woman","","","","null","","","","","","","","",""
"1472.8599999798462","<p>You got 8 out of 8 right first time. Press Continue.</p>","0","html-button-response","40","185433","0.0-3.1-25.1","5577","List1A","white","woman","","","","","","","","","","","","",""
"71846.43500001403","<p>In this experiment, you will view photographs of the people from the memory game interacting.</p><p>By using the <strong>exact</strong> phrase given <i>after</i> the photograph appears and recalling the correct names of the people in the photographs, form a sentence describing the interaction. You do not need to capitalise names.</p><p>Type your answer in the space provided. Please complete every sentence before moving onto the next trial.</p><p>You will only have a few seconds to memorise each given photograph and phrase before you can respond, so try your best to focus.</p><p>An example is given below. Press 'Continue' when you are ready.</p><img src='img/speaking_example.jpg' style='width:800px;height:460px;''></img>","0","html-button-response","41","258289","0.0-4.0","5577","List1A","white","woman","","","","","","","","","","","","",""
"3226.464999956079","<p>Before the experiment starts, you will watch two example trials. Press 'Continue'.</p>","0","html-button-response","42","262521","0.0-5.0","5577","List1A","white","woman","","","","","","","","","","","","",""
"null","<img src='img/play_eg.gif' style='height:400px;''></img>","","html-keyboard-response","43","265531","0.0-6.0","5577","List1A","white","woman","","","","null","","","","","","","","",""
"null","<p>is playing with</p>","","html-keyboard-response","44","267536","0.0-7.0","5577","List1A","white","woman","","","","null","","","","","","","","",""
"4063.1050000083633","<p><b>Answer:</b> kate is playing with beth</p>","0","html-button-response","45","271606","0.0-8.0","5577","List1A","white","woman","","","","","","","","","","","","",""
"null","<img src='img/dance_eg.gif' style='height:400px;''></img>","","html-keyboard-response","46","274610","0.0-9.0","5577","List1A","white","woman","","","","null","","","","","","","","",""
"null","<p>is being entertained by</p>","","html-keyboard-response","47","276614","0.0-10.0","5577","List1A","white","woman","","","","null","","","","","","","","",""
"3426.834999991115","<p><b>Answer:</b> luke is being entertained by dave</p>","0","html-button-response","48","280046","0.0-11.0","5577","List1A","white","woman","","","","","","","","","","","","",""
"15858.81500004325","<p>Ready to start the experiment?</p><br><p><strong>Remember to describe the picture using a full sentence,</strong></p><p><strong>that combines the names of the people with the <i>exact</i> phrase given.</strong></p><p><strong>To receive full payment you must do this correctly.</strong></p><p><strong> You do not need to capitalise names or use punctuation.</strong></p><br><p>Press 'Continue' to begin.</p>","0","html-button-response","49","296913","0.0-12.0","5577","List1A","white","woman","","","","","","","","","","","","",""
"null","<div style=""font-size:60px;"">+</div>","","html-keyboard-response","50","298421","0.0-13.0-0.0","5577","List1A","white","woman","","","","null","","","","","","","","",""
"null","<img src=""stim_listA/oppose1.gif""style=""height:400px;""></stim_listA>","","html-keyboard-response","51","300431","0.0-13.0-1.0","5577","List1A","white","woman","","","","null","","","","","","","","",""
"null","is opposing","","html-keyboard-response","52","302435","0.0-13.0-2.0","5577","List1A","white","woman","","","","null","","","","","","","","",""
"17749.805000028573","","","survey-text","53","320196","0.0-13.0-3.0","5577","List1A","white","woman","","","","","{""Q0"":""mike is apposing kate""}","<img src=""stim_listA/oppose1.gif""style=""height:400px;""></stim_listA>","is opposing","","","","","",""
"null","<div style=""font-size:60px;"">+</div>","","html-keyboard-response","54","320702","0.0-13.0-0.1","5577","List1A","white","woman","","","","null","","","","","","","","",""
"null","<img src=""stim_listA/hug2.gif""style=""height:400px;""></stim_listA>","","html-keyboard-response","55","322707","0.0-13.0-1.1","5577","List1A","white","woman","","","","null","","","","","","","","",""
"null","is being hugged by","","html-keyboard-response","56","324711","0.0-13.0-2.1","5577","List1A","white","woman","","","","null","","","","","","","","",""
"12816.729999962263","","","survey-text","57","337542","0.0-13.0-3.1","5577","List1A","white","woman","","","","","{""Q0"":""mike is being hugged by kate""}","<img src=""stim_listA/hug2.gif""style=""height:400px;""></stim_listA>","is being hugged by","","","","","",""
"null","<div style=""font-size:60px;"">+</div>","","html-keyboard-response","58","338046","0.0-13.0-0.2","5577","List1A","white","woman","","","","null","","","","","","","","",""
"null","<img src=""stim_listA/touch4.gif""style=""height:400px;""></stim_listA>","","html-keyboard-response","59","340057","0.0-13.0-1.2","5577","List1A","white","woman","","","","null","","","","","","","","",""
"null","is being touched by","","html-keyboard-response","60","342061","0.0-13.0-2.2","5577","List1A","white","woman","","","","null","","","","","","","","",""
"25236.619999981485","","","survey-text","61","367321","0.0-13.0-3.2","5577","List1A","white","woman","","","","","{""Q0"":""luke is being touched by ruth ""}","<img src=""stim_listA/touch4.gif""style=""height:400px;""></stim_listA>","is being touched by","","","","","",""
"null","<div style=""font-size:60px;"">+</div>","","html-keyboard-response","62","367826","0.0-13.0-0.3","5577","List1A","white","woman","","","","null","","","","","","","","",""
"null","<img src=""stim_listA/greet5.gif""style=""height:400px;""></stim_listA>","","html-keyboard-response","63","369834","0.0-13.0-1.3","5577","List1A","white","woman","","","","null","","","","","","","","",""
"null","is greeting","","html-keyboard-response","64","371840","0.0-13.0-2.3","5577","List1A","white","woman","","","","null","","","","","","","","",""
"8795.710000034887","","","survey-text","65","380646","0.0-13.0-3.3","5577","List1A","white","woman","","","","","{""Q0"":""mike is greeting luke""}","<img src=""stim_listA/greet5.gif""style=""height:400px;""></stim_listA>","is greeting","","","","","",""
"null","<div style=""font-size:60px;"">+</div>","","html-keyboard-response","66","381151","0.0-13.0-0.4","5577","List1A","white","woman","","","","null","","","","","","","","",""
"null","<img src=""stim_listA/look4.gif""style=""height:400px;""></stim_listA>","","html-keyboard-response","67","383160","0.0-13.0-1.4","5577","List1A","white","woman","","","","null","","","","","","","","",""
"null","is being looked at by","","html-keyboard-response","68","385165","0.0-13.0-2.4","5577","List1A","white","woman","","","","null","","","","","","","","",""
"13624.884999997448","","","survey-text","69","398800","0.0-13.0-3.4","5577","List1A","white","woman","","","","","{""Q0"":""jane is being looked at by dave""}","<img src=""stim_listA/look4.gif""style=""height:400px;""></stim_listA>","is being looked at by","","","","","",""
"null","<div style=""font-size:60px;"">+</div>","","html-keyboard-response","70","399304","0.0-13.0-0.5","5577","List1A","white","woman","","","","null","","","","","","","","",""
"null","<img src=""stim_listA/greet8.gif""style=""height:400px;""></stim_listA>","","html-keyboard-response","71","401311","0.0-13.0-1.5","5577","List1A","white","woman","","","","null","","","","","","","","",""
"null","is being greeted by","","html-keyboard-response","72","403315","0.0-13.0-2.5","5577","List1A","white","woman","","","","null","","","","","","","","",""
"15082.790000014938","","","survey-text","73","418410","0.0-13.0-3.5","5577","List1A","white","woman","","","","","{""Q0"":""jane is being greeted by beth""}","<img src=""stim_listA/greet8.gif""style=""height:400px;""></stim_listA>","is being greeted by","","","","","",""
"null","<div style=""font-size:60px;"">+</div>","","html-keyboard-response","74","418915","0.0-13.0-0.6","5577","List1A","white","woman","","","","null","","","","","","","","",""
"null","<img src=""stim_listA/shout3.gif""style=""height:400px;""></stim_listA>","","html-keyboard-response","75","420923","0.0-13.0-1.6","5577","List1A","white","woman","","","","null","","","","","","","","",""
"null","is shouting at","","html-keyboard-response","76","422928","0.0-13.0-2.6","5577","List1A","white","woman","","","","null","","","","","","","","",""
"15651.859999983571","","","survey-text","77","438589","0.0-13.0-3.6","5577","List1A","white","woman","","","","","{""Q0"":""ruth is being shouted at by luke""}","<img src=""stim_listA/shout3.gif""style=""height:400px;""></stim_listA>","is shouting at","","","","","",""
"null","<div style=""font-size:60px;"">+</div>","","html-keyboard-response","78","439094","0.0-13.0-0.7","5577","List1A","white","woman","","","","null","","","","","","","","",""
"null","<img src=""stim_listA/oppose8.gif""style=""height:400px;""></stim_listA>","","html-keyboard-response","79","441103","0.0-13.0-1.7","5577","List1A","white","woman","","","","null","","","","","","","","",""
"null","is being opposed by","","html-keyboard-response","80","443109","0.0-13.0-2.7","5577","List1A","white","woman","","","","null","","","","","","","","",""
"11546.180000004824","","","survey-text","81","454666","0.0-13.0-3.7","5577","List1A","white","woman","","","","","{""Q0"":""ruth is being opposed by beth""}","<img src=""stim_listA/oppose8.gif""style=""height:400px;""></stim_listA>","is being opposed by","","","","","",""
"null","<div style=""font-size:60px;"">+</div>","","html-keyboard-response","82","455170","0.0-13.0-0.8","5577","List1A","white","woman","","","","null","","","","","","","","",""
"null","<img src=""stim_listA/oppose5.gif""style=""height:400px;""></stim_listA>","","html-keyboard-response","83","457178","0.0-13.0-1.8","5577","List1A","white","woman","","","","null","","","","","","","","",""
"null","is opposing","","html-keyboard-response","84","459183","0.0-13.0-2.8","5577","List1A","white","woman","","","","null","","","","","","","","",""
"19486.944999953266","","","survey-text","85","478683","0.0-13.0-3.8","5577","List1A","white","woman","","","","","{""Q0"":""mike is opposing dave""}","<img src=""stim_listA/oppose5.gif""style=""height:400px;""></stim_listA>","is opposing","","","","","",""
"null","<div style=""font-size:60px;"">+</div>","","html-keyboard-response","86","479188","0.0-13.0-0.9","5577","List1A","white","woman","","","","null","","","","","","","","",""
"null","<img src=""stim_listA/challenge8.gif""style=""height:400px;""></stim_listA>","","html-keyboard-response","87","481197","0.0-13.0-1.9","5577","List1A","white","woman","","","","null","","","","","","","","",""
"null","is being challenged by","","html-keyboard-response","88","483201","0.0-13.0-2.9","5577","List1A","white","woman","","","","null","","","","","","","","",""
"13610.140000004321","","","survey-text","89","496818","0.0-13.0-3.9","5577","List1A","white","woman","","","","","{""Q0"":""jane is being challenged by beth""}","<img src=""stim_listA/challenge8.gif""style=""height:400px;""></stim_listA>","is being challenged by","","","","","",""
"null","<div style=""font-size:60px;"">+</div>","","html-keyboard-response","90","497324","0.0-13.0-0.10","5577","List1A","white","woman","","","","null","","","","","","","","",""
"null","<img src=""stim_listA/copy5.gif""style=""height:400px;""></stim_listA>","","html-keyboard-response","91","499332","0.0-13.0-1.10","5577","List1A","white","woman","","","","null","","","","","","","","",""
"null","is copying","","html-keyboard-response","92","501338","0.0-13.0-2.10","5577","List1A","white","woman","","","","null","","","","","","","","",""
"8402.43499999633","","","survey-text","93","509750","0.0-13.0-3.10","5577","List1A","white","woman","","","","","{""Q0"":""mike is copping luke""}","<img src=""stim_listA/copy5.gif""style=""height:400px;""></stim_listA>","is copying","","","","","",""
"null","<div style=""font-size:60px;"">+</div>","","html-keyboard-response","94","510257","0.0-13.0-0.11","5577","List1A","white","woman","","","","null","","","","","","","","",""
"null","<img src=""stim_listA/touch8.gif""style=""height:400px;""></stim_listA>","","html-keyboard-response","95","512265","0.0-13.0-1.11","5577","List1A","white","woman","","","","null","","","","","","","","",""
"null","is being touched by","","html-keyboard-response","96","514269","0.0-13.0-2.11","5577","List1A","white","woman","","","","null","","","","","","","","",""
"11876.089999976102","","","survey-text","97","526157","0.0-13.0-3.11","5577","List1A","white","woman","","","","","{""Q0"":""beth is being touched by ruth""}","<img src=""stim_listA/touch8.gif""style=""height:400px;""></stim_listA>","is being touched by","","","","","",""
"null","<div style=""font-size:60px;"">+</div>","","html-keyboard-response","98","526663","0.0-13.0-0.12","5577","List1A","white","woman","","","","null","","","","","","","","",""
"null","<img src=""stim_listA/look1.gif""style=""height:400px;""></stim_listA>","","html-keyboard-response","99","528672","0.0-13.0-1.12","5577","List1A","white","woman","","","","null","","","","","","","","",""
"null","is looking at","","html-keyboard-response","100","530676","0.0-13.0-2.12","5577","List1A","white","woman","","","","null","","","","","","","","",""
"57328.83499999298","","","survey-text","101","588016","0.0-13.0-3.12","5577","List1A","white","woman","","","","","{""Q0"":""beth is looking at frank""}","<img src=""stim_listA/look1.gif""style=""height:400px;""></stim_listA>","is looking at","","","","","",""
"null","<div style=""font-size:60px;"">+</div>","","html-keyboard-response","102","588521","0.0-13.0-0.13","5577","List1A","white","woman","","","","null","","","","","","","","",""
"null","<img src=""stim_listA/hug1.gif""style=""height:400px;""></stim_listA>","","html-keyboard-response","103","590530","0.0-13.0-1.13","5577","List1A","white","woman","","","","null","","","","","","","","",""
"null","is hugging","","html-keyboard-response","104","592534","0.0-13.0-2.13","5577","List1A","white","woman","","","","null","","","","","","","","",""
"15279.165000014473","","","survey-text","105","607823","0.0-13.0-3.13","5577","List1A","white","woman","","","","","{""Q0"":""beth is hugging frank""}","<img src=""stim_listA/hug1.gif""style=""height:400px;""></stim_listA>","is hugging","","","","","",""
"null","<div style=""font-size:60px;"">+</div>","","html-keyboard-response","106","608327","0.0-13.0-0.14","5577","List1A","white","woman","","","","null","","","","","","","","",""
"null","<img src=""stim_listA/kiss8.gif""style=""height:400px;""></stim_listA>","","html-keyboard-response","107","610335","0.0-13.0-1.14","5577","List1A","white","woman","","","","null","","","","","","","","",""
"null","is being kissed by","","html-keyboard-response","108","612338","0.0-13.0-2.14","5577","List1A","white","woman","","","","null","","","","","","","","",""
"11065.230000007432","","","survey-text","109","623415","0.0-13.0-3.14","5577","List1A","white","woman","","","","","{""Q0"":""kate is being kissed by jane""}","<img src=""stim_listA/kiss8.gif""style=""height:400px;""></stim_listA>","is being kissed by","","","","","",""
"null","<div style=""font-size:60px;"">+</div>","","html-keyboard-response","110","623920","0.0-13.0-0.15","5577","List1A","white","woman","","","","null","","","","","","","","",""
"null","<img src=""stim_listA/kiss3.gif""style=""height:400px;""></stim_listA>","","html-keyboard-response","111","625928","0.0-13.0-1.15","5577","List1A","white","woman","","","","null","","","","","","","","",""
"null","is kissing","","html-keyboard-response","112","627933","0.0-13.0-2.15","5577","List1A","white","woman","","","","null","","","","","","","","",""
"10004.524999996647","","","survey-text","113","637949","0.0-13.0-3.15","5577","List1A","white","woman","","","","","{""Q0"":""ruth is kissing luke""}","<img src=""stim_listA/kiss3.gif""style=""height:400px;""></stim_listA>","is kissing","","","","","",""
"null","<div style=""font-size:60px;"">+</div>","","html-keyboard-response","114","638452","0.0-13.0-0.16","5577","List1A","white","woman","","","","null","","","","","","","","",""
"null","<img src=""stim_listA/kiss2.gif""style=""height:400px;""></stim_listA>","","html-keyboard-response","115","640458","0.0-13.0-1.16","5577","List1A","white","woman","","","","null","","","","","","","","",""
"null","is being kissed by","","html-keyboard-response","116","642460","0.0-13.0-2.16","5577","List1A","white","woman","","","","null","","","","","","","","",""
"9292.015000013635","","","survey-text","117","651762","0.0-13.0-3.16","5577","List1A","white","woman","","","","","{""Q0"":""mike is being kissed by kate""}","<img src=""stim_listA/kiss2.gif""style=""height:400px;""></stim_listA>","is being kissed by","","","","","",""
"null","<div style=""font-size:60px;"">+</div>","","html-keyboard-response","118","652268","0.0-13.0-0.17","5577","List1A","white","woman","","","","null","","","","","","","","",""
"null","<img src=""stim_listA/seduce8.gif""style=""height:400px;""></stim_listA>","","html-keyboard-response","119","654277","0.0-13.0-1.17","5577","List1A","white","woman","","","","null","","","","","","","","",""
"null","is being seduced by","","html-keyboard-response","120","656281","0.0-13.0-2.17","5577","List1A","white","woman","","","","null","","","","","","","","",""
"20687.005000014324","","","survey-text","121","676982","0.0-13.0-3.17","5577","List1A","white","woman","","","","","{""Q0"":""ruth is being seduced by kate""}","<img src=""stim_listA/seduce8.gif""style=""height:400px;""></stim_listA>","is being seduced by","","","","","",""
"null","<div style=""font-size:60px;"">+</div>","","html-keyboard-response","122","677488","0.0-13.0-0.18","5577","List1A","white","woman","","","","null","","","","","","","","",""
"null","<img src=""stim_listA/hug4.gif""style=""height:400px;""></stim_listA>","","html-keyboard-response","123","679494","0.0-13.0-1.18","5577","List1A","white","woman","","","","null","","","","","","","","",""
"null","is being hugged by","","html-keyboard-response","124","681497","0.0-13.0-2.18","5577","List1A","white","woman","","","","null","","","","","","","","",""
"11092.85000001546","","","survey-text","125","692597","0.0-13.0-3.18","5577","List1A","white","woman","","","","","{""Q0"":""jane is being hugged by dave""}","<img src=""stim_listA/hug4.gif""style=""height:400px;""></stim_listA>","is being hugged by","","","","","",""
"null","<div style=""font-size:60px;"">+</div>","","html-keyboard-response","126","693100","0.0-13.0-0.19","5577","List1A","white","woman","","","","null","","","","","","","","",""
"null","<img src=""stim_listA/shout6.gif""style=""height:400px;""></stim_listA>","","html-keyboard-response","127","695109","0.0-13.0-1.19","5577","List1A","white","woman","","","","null","","","","","","","","",""
"null","is being shouted at by","","html-keyboard-response","128","697114","0.0-13.0-2.19","5577","List1A","white","woman","","","","null","","","","","","","","",""
"13129.000000015367","","","survey-text","129","710255","0.0-13.0-3.19","5577","List1A","white","woman","","","","","{""Q0"":""mike is being shouted at by dave""}","<img src=""stim_listA/shout6.gif""style=""height:400px;""></stim_listA>","is being shouted at by","","","","","",""
"34733.155000023544","<img src='img/portrait_matrix_list1.jpg' style='width:900px;height:500px;''></img><p>If you have memorised all the portraits and names and are ready to start, press Continue.</p><p><strong>Please note: Your memory of these faces will be tested 4 times during this experiment.</strong></p>","0","html-button-response","130","744998","0.0-14.0-0.0","5577","List1A","white","woman","","","","","","","","","","","","",""
"2825.585000042338","<img src=""portrait/WM2.jpg""style=""height:400px;""></img>","7","html-button-response","131","748837","0.0-14.0-1.0","5577","List1A","white","woman","","true","7","","","","","","","","","",""
"null","CORRECT","","html-keyboard-response","132","750344","0.0-14.0-2.0-0.0","5577","List1A","white","woman","","","","null","","","","","","","","",""
"1788.4099999791943","<img src=""portrait/WW2.jpg""style=""height:400px;""></img>","3","html-button-response","133","752142","0.0-14.0-4.0","5577","List1A","white","woman","","true","3","","","","","","","","","",""
"null","CORRECT","","html-keyboard-response","134","753645","0.0-14.0-5.0-0.0","5577","List1A","white","woman","","","","null","","","","","","","","",""
"2796.805000049062","<img src=""portrait/BW1.jpg""style=""height:400px;""></img>","0","html-button-response","135","756449","0.0-14.0-7.0","5577","List1A","white","woman","","true","0","","","","","","","","","",""
"null","CORRECT","","html-keyboard-response","136","757954","0.0-14.0-8.0-0.0","5577","List1A","white","woman","","","","null","","","","","","","","",""
"2473.230000003241","<img src=""portrait/WM1.jpg""style=""height:400px;""></img>","6","html-button-response","137","760439","0.0-14.0-10.0","5577","List1A","white","woman","","true","6","","","","","","","","","",""
"null","CORRECT","","html-keyboard-response","138","761948","0.0-14.0-11.0-0.0","5577","List1A","white","woman","","","","null","","","","","","","","",""
"2368.2649999973364","<img src=""portrait/BM2.jpg""style=""height:400px;""></img>","5","html-button-response","139","764327","0.0-14.0-13.0","5577","List1A","white","woman","","true","5","","","","","","","","","",""
"null","CORRECT","","html-keyboard-response","140","765832","0.0-14.0-14.0-0.0","5577","List1A","white","woman","","","","null","","","","","","","","",""
"1543.7549999915063","<img src=""portrait/BM1.jpg""style=""height:400px;""></img>","4","html-button-response","141","767384","0.0-14.0-16.0","5577","List1A","white","woman","","true","4","","","","","","","","","",""
"null","CORRECT","","html-keyboard-response","142","768891","0.0-14.0-17.0-0.0","5577","List1A","white","woman","","","","null","","","","","","","","",""
"1465.470000053756","<img src=""portrait/BW2.jpg""style=""height:400px;""></img>","2","html-button-response","143","770361","0.0-14.0-19.0","5577","List1A","white","woman","","true","2","","","","","","","","","",""
"null","CORRECT","","html-keyboard-response","144","771867","0.0-14.0-20.0-0.0","5577","List1A","white","woman","","","","null","","","","","","","","",""
"1168.2150000124238","<img src=""portrait/WW1.jpg""style=""height:400px;""></img>","1","html-button-response","145","773045","0.0-14.0-22.0","5577","List1A","white","woman","","true","1","","","","","","","","","",""
"null","CORRECT","","html-keyboard-response","146","774550","0.0-14.0-23.0-0.0","5577","List1A","white","woman","","","","null","","","","","","","","",""
"1898.9050000091083","<p>You got 8 out of 8 right first time. Press Continue.</p>","0","html-button-response","147","776457","0.0-14.0-25.0","5577","List1A","white","woman","","","","","","","","","","","","",""
"null","<div style=""font-size:60px;"">+</div>","","html-keyboard-response","148","777965","0.0-15.0-0.0","5577","List1A","white","woman","","","","null","","","","","","","","",""
"null","<img src=""stim_listA/hug5.gif""style=""height:400px;""></stim_listA>","","html-keyboard-response","149","779973","0.0-15.0-1.0","5577","List1A","white","woman","","","","null","","","","","","","","",""
"null","is hugging","","html-keyboard-response","150","781978","0.0-15.0-2.0","5577","List1A","white","woman","","","","null","","","","","","","","",""
"10145.885000005364","","","survey-text","151","792137","0.0-15.0-3.0","5577","List1A","white","woman","","","","","{""Q0"":""luke is hugging fred""}","<img src=""stim_listA/hug5.gif""style=""height:400px;""></stim_listA>","is hugging","","","","","",""
"null","<div style=""font-size:60px;"">+</div>","","html-keyboard-response","152","792643","0.0-15.0-0.1","5577","List1A","white","woman","","","","null","","","","","","","","",""
"null","<img src=""stim_listA/oppose3.gif""style=""height:400px;""></stim_listA>","","html-keyboard-response","153","794654","0.0-15.0-1.1","5577","List1A","white","woman","","","","null","","","","","","","","",""
"null","is opposing","","html-keyboard-response","154","796658","0.0-15.0-2.1","5577","List1A","white","woman","","","","null","","","","","","","","",""
"8134.484999987762","","","survey-text","155","804806","0.0-15.0-3.1","5577","List1A","white","woman","","","","","{""Q0"":""dave is opposing jane""}","<img src=""stim_listA/oppose3.gif""style=""height:400px;""></stim_listA>","is opposing","","","","","",""
"null","<div style=""font-size:60px;"">+</div>","","html-keyboard-response","156","805310","0.0-15.0-0.2","5577","List1A","white","woman","","","","null","","","","","","","","",""
"null","<img src=""stim_listA/greet1.gif""style=""height:400px;""></stim_listA>","","html-keyboard-response","157","807319","0.0-15.0-1.2","5577","List1A","white","woman","","","","null","","","","","","","","",""
"null","is greeting","","html-keyboard-response","158","809323","0.0-15.0-2.2","5577","List1A","white","woman","","","","null","","","","","","","","",""
"8093.334999983199","","","survey-text","159","817428","0.0-15.0-3.2","5577","List1A","white","woman","","","","","{""Q0"":""mike is greeting beth""}","<img src=""stim_listA/greet1.gif""style=""height:400px;""></stim_listA>","is greeting","","","","","",""
"null","<div style=""font-size:60px;"">+</div>","","html-keyboard-response","160","817934","0.0-15.0-0.3","5577","List1A","white","woman","","","","null","","","","","","","","",""
"null","<img src=""stim_listA/copy6.gif""style=""height:400px;""></stim_listA>","","html-keyboard-response","161","819945","0.0-15.0-1.3","5577","List1A","white","woman","","","","null","","","","","","","","",""
"null","is being copied by","","html-keyboard-response","162","821949","0.0-15.0-2.3","5577","List1A","white","woman","","","","null","","","","","","","","",""
"50514.879999973346","","","survey-text","163","872477","0.0-15.0-3.3","5577","List1A","white","woman","","","","","{""Q0"":""fred is copying dave""}","<img src=""stim_listA/copy6.gif""style=""height:400px;""></stim_listA>","is being copied by","","","","","",""
"null","<div style=""font-size:60px;"">+</div>","","html-keyboard-response","164","872983","0.0-15.0-0.4","5577","List1A","white","woman","","","","null","","","","","","","","",""
"null","<img src=""stim_listA/look5.gif""style=""height:400px;""></stim_listA>","","html-keyboard-response","165","874992","0.0-15.0-1.4","5577","List1A","white","woman","","","","null","","","","","","","","",""
"null","is looking at","","html-keyboard-response","166","876997","0.0-15.0-2.4","5577","List1A","white","woman","","","","null","","","","","","","","",""
"12384.345000027679","","","survey-text","167","889391","0.0-15.0-3.4","5577","List1A","white","woman","","","","","{""Q0"":""fed is looking at luke""}","<img src=""stim_listA/look5.gif""style=""height:400px;""></stim_listA>","is looking at","","","","","",""
"null","<div style=""font-size:60px;"">+</div>","","html-keyboard-response","168","889897","0.0-15.0-0.5","5577","List1A","white","woman","","","","null","","","","","","","","",""
"null","<img src=""stim_listA/copy7.gif""style=""height:400px;""></stim_listA>","","html-keyboard-response","169","891906","0.0-15.0-1.5","5577","List1A","white","woman","","","","null","","","","","","","","",""
"null","is copying","","html-keyboard-response","170","893910","0.0-15.0-2.5","5577","List1A","white","woman","","","","null","","","","","","","","",""
"9297.014999960084","","","survey-text","171","903222","0.0-15.0-3.5","5577","List1A","white","woman","","","","","{""Q0"":""kate is copying ruth""}","<img src=""stim_listA/copy7.gif""style=""height:400px;""></stim_listA>","is copying","","","","","",""
"null","<div style=""font-size:60px;"">+</div>","","html-keyboard-response","172","903726","0.0-15.0-0.6","5577","List1A","white","woman","","","","null","","","","","","","","",""
"null","<img src=""stim_listA/copy2.gif""style=""height:400px;""></stim_listA>","","html-keyboard-response","173","905737","0.0-15.0-1.6","5577","List1A","white","woman","","","","null","","","","","","","","",""
"null","is being copied by","","html-keyboard-response","174","907741","0.0-15.0-2.6","5577","List1A","white","woman","","","","null","","","","","","","","",""
"25571.95499999216","","","survey-text","175","933323","0.0-15.0-3.6","5577","List1A","white","woman","","","","","{""Q0"":""kate is being copied by fred""}","<img src=""stim_listA/copy2.gif""style=""height:400px;""></stim_listA>","is being copied by","","","","","",""
"null","<div style=""font-size:60px;"">+</div>","","html-keyboard-response","176","933828","0.0-15.0-0.7","5577","List1A","white","woman","","","","null","","","","","","","","",""
"null","<img src=""stim_listA/kiss5.gif""style=""height:400px;""></stim_listA>","","html-keyboard-response","177","935838","0.0-15.0-1.7","5577","List1A","white","woman","","","","null","","","","","","","","",""
"null","is kissing","","html-keyboard-response","178","937843","0.0-15.0-2.7","5577","List1A","white","woman","","","","null","","","","","","","","",""
"7963.070000056177","","","survey-text","179","945814","0.0-15.0-3.7","5577","List1A","white","woman","","","","","{""Q0"":""fred is kissing luke""}","<img src=""stim_listA/kiss5.gif""style=""height:400px;""></stim_listA>","is kissing","","","","","",""
"null","<div style=""font-size:60px;"">+</div>","","html-keyboard-response","180","946318","0.0-15.0-0.8","5577","List1A","white","woman","","","","null","","","","","","","","",""
"null","<img src=""stim_listA/seduce7.gif""style=""height:400px;""></stim_listA>","","html-keyboard-response","181","948326","0.0-15.0-1.8","5577","List1A","white","woman","","","","null","","","","","","","","",""
"null","is seducing","","html-keyboard-response","182","950331","0.0-15.0-2.8","5577","List1A","white","woman","","","","null","","","","","","","","",""
"15972.799999988638","","","survey-text","183","966314","0.0-15.0-3.8","5577","List1A","white","woman","","","","","{""Q0"":""beth is seducing jane""}","<img src=""stim_listA/seduce7.gif""style=""height:400px;""></stim_listA>","is seducing","","","","","",""
"null","<div style=""font-size:60px;"">+</div>","","html-keyboard-response","184","966822","0.0-15.0-0.9","5577","List1A","white","woman","","","","null","","","","","","","","",""
"null","<img src=""stim_listA/challenge4.gif""style=""height:400px;""></stim_listA>","","html-keyboard-response","185","968831","0.0-15.0-1.9","5577","List1A","white","woman","","","","null","","","","","","","","",""
"null","is being challenged by","","html-keyboard-response","186","970836","0.0-15.0-2.9","5577","List1A","white","woman","","","","null","","","","","","","","",""
"11652.245000004768","","","survey-text","187","982499","0.0-15.0-3.9","5577","List1A","white","woman","","","","","{""Q0"":""jane is being challenged by luke""}","<img src=""stim_listA/challenge4.gif""style=""height:400px;""></stim_listA>","is being challenged by","","","","","",""
"null","<div style=""font-size:60px;"">+</div>","","html-keyboard-response","188","983003","0.0-15.0-0.10","5577","List1A","white","woman","","","","null","","","","","","","","",""
"null","<img src=""stim_listA/seduce6.gif""style=""height:400px;""></stim_listA>","","html-keyboard-response","189","985012","0.0-15.0-1.10","5577","List1A","white","woman","","","","null","","","","","","","","",""
"null","is being seduced by","","html-keyboard-response","190","987017","0.0-15.0-2.10","5577","List1A","white","woman","","","","null","","","","","","","","",""
"12208.024999999907","","","survey-text","191","999233","0.0-15.0-3.10","5577","List1A","white","woman","","","","","{""Q0"":""luke is being seduced by mike""}","<img src=""stim_listA/seduce6.gif""style=""height:400px;""></stim_listA>","is being seduced by","","","","","",""
"null","<div style=""font-size:60px;"">+</div>","","html-keyboard-response","192","999739","0.0-15.0-0.11","5577","List1A","white","woman","","","","null","","","","","","","","",""
"null","<img src=""stim_listA/shout4.gif""style=""height:400px;""></stim_listA>","","html-keyboard-response","193","1001745","0.0-15.0-1.11","5577","List1A","white","woman","","","","null","","","","","","","","",""
"null","is being shouted at by","","html-keyboard-response","194","1003750","0.0-15.0-2.11","5577","List1A","white","woman","","","","null","","","","","","","","",""
"19733.99999999674","","","survey-text","195","1023493","0.0-15.0-3.11","5577","List1A","white","woman","","","","","{""Q0"":""jane is being shouted by dave""}","<img src=""stim_listA/shout4.gif""style=""height:400px;""></stim_listA>","is being shouted at by","","","","","",""
"null","<div style=""font-size:60px;"">+</div>","","html-keyboard-response","196","1023995","0.0-15.0-0.12","5577","List1A","white","woman","","","","null","","","","","","","","",""
"null","<img src=""stim_listA/greet7.gif""style=""height:400px;""></stim_listA>","","html-keyboard-response","197","1025999","0.0-15.0-1.12","5577","List1A","white","woman","","","","null","","","","","","","","",""
"null","is greeting","","html-keyboard-response","198","1028005","0.0-15.0-2.12","5577","List1A","white","woman","","","","null","","","","","","","","",""
"10919.880000001285","","","survey-text","199","1038937","0.0-15.0-3.12","5577","List1A","white","woman","","","","","{""Q0"":""kate is greeting ruth""}","<img src=""stim_listA/greet7.gif""style=""height:400px;""></stim_listA>","is greeting","","","","","",""
"null","<div style=""font-size:60px;"">+</div>","","html-keyboard-response","200","1039441","0.0-15.0-0.13","5577","List1A","white","woman","","","","null","","","","","","","","",""
"null","<img src=""stim_listA/copy1.gif""style=""height:400px;""></stim_listA>","","html-keyboard-response","201","1041446","0.0-15.0-1.13","5577","List1A","white","woman","","","","null","","","","","","","","",""
"null","is copying","","html-keyboard-response","202","1043448","0.0-15.0-2.13","5577","List1A","white","woman","","","","null","","","","","","","","",""
"9089.005000016186","","","survey-text","203","1052542","0.0-15.0-3.13","5577","List1A","white","woman","","","","","{""Q0"":""mike is copying beth""}","<img src=""stim_listA/copy1.gif""style=""height:400px;""></stim_listA>","is copying","","","","","",""
"null","<div style=""font-size:60px;"">+</div>","","html-keyboard-response","204","1053047","0.0-15.0-0.14","5577","List1A","white","woman","","","","null","","","","","","","","",""
"null","<img src=""stim_listA/touch1.gif""style=""height:400px;""></stim_listA>","","html-keyboard-response","205","1055055","0.0-15.0-1.14","5577","List1A","white","woman","","","","null","","","","","","","","",""
"null","is touching","","html-keyboard-response","206","1057058","0.0-15.0-2.14","5577","List1A","white","woman","","","","null","","","","","","","","",""
"8110.140000004321","","","survey-text","207","1065179","0.0-15.0-3.14","5577","List1A","white","woman","","","","","{""Q0"":""mike is touching kate""}","<img src=""stim_listA/touch1.gif""style=""height:400px;""></stim_listA>","is touching","","","","","",""
"null","<div style=""font-size:60px;"">+</div>","","html-keyboard-response","208","1065683","0.0-15.0-0.15","5577","List1A","white","woman","","","","null","","","","","","","","",""
"null","<img src=""stim_listA/oppose6.gif""style=""height:400px;""></stim_listA>","","html-keyboard-response","209","1067689","0.0-15.0-1.15","5577","List1A","white","woman","","","","null","","","","","","","","",""
"null","is being opposed by","","html-keyboard-response","210","1069694","0.0-15.0-2.15","5577","List1A","white","woman","","","","null","","","","","","","","",""
"14212.950000015553","","","survey-text","211","1083915","0.0-15.0-3.15","5577","List1A","white","woman","","","","","{""Q0"":""luke is being opposed by fred""}","<img src=""stim_listA/oppose6.gif""style=""height:400px;""></stim_listA>","is being opposed by","","","","","",""
"null","<div style=""font-size:60px;"">+</div>","","html-keyboard-response","212","1084419","0.0-15.0-0.16","5577","List1A","white","woman","","","","null","","","","","","","","",""
"null","<img src=""stim_listA/seduce1.gif""style=""height:400px;""></stim_listA>","","html-keyboard-response","213","1086429","0.0-15.0-1.16","5577","List1A","white","woman","","","","null","","","","","","","","",""
"null","is seducing","","html-keyboard-response","214","1088433","0.0-15.0-2.16","5577","List1A","white","woman","","","","null","","","","","","","","",""
"12199.339999991935","","","survey-text","215","1100641","0.0-15.0-3.16","5577","List1A","white","woman","","","","","{""Q0"":""fred is being seduced by kate""}","<img src=""stim_listA/seduce1.gif""style=""height:400px;""></stim_listA>","is seducing","","","","","",""
"null","<div style=""font-size:60px;"">+</div>","","html-keyboard-response","216","1101145","0.0-15.0-0.17","5577","List1A","white","woman","","","","null","","","","","","","","",""
"null","<img src=""stim_listA/seduce2.gif""style=""height:400px;""></stim_listA>","","html-keyboard-response","217","1103154","0.0-15.0-1.17","5577","List1A","white","woman","","","","null","","","","","","","","",""
"null","is being seduced by","","html-keyboard-response","218","1105158","0.0-15.0-2.17","5577","List1A","white","woman","","","","null","","","","","","","","",""
"12821.549999993294","","","survey-text","219","1117995","0.0-15.0-3.17","5577","List1A","white","woman","","","","","{""Q0"":""beth is being seduced by mike""}","<img src=""stim_listA/seduce2.gif""style=""height:400px;""></stim_listA>","is being seduced by","","","","","",""
"null","<div style=""font-size:60px;"">+</div>","","html-keyboard-response","220","1118499","0.0-15.0-0.18","5577","List1A","white","woman","","","","null","","","","","","","","",""
"null","<img src=""stim_listA/challenge2.gif""style=""height:400px;""></stim_listA>","","html-keyboard-response","221","1120508","0.0-15.0-1.18","5577","List1A","white","woman","","","","null","","","","","","","","",""
"null","is being challenged by","","html-keyboard-response","222","1122512","0.0-15.0-2.18","5577","List1A","white","woman","","","","null","","","","","","","","",""
"10633.334999962244","","","survey-text","223","1133160","0.0-15.0-3.18","5577","List1A","white","woman","","","","","{""Q0"":""fred is being challenged by kate""}","<img src=""stim_listA/challenge2.gif""style=""height:400px;""></stim_listA>","is being challenged by","","","","","",""
"null","<div style=""font-size:60px;"">+</div>","","html-keyboard-response","224","1133665","0.0-15.0-0.19","5577","List1A","white","woman","","","","null","","","","","","","","",""
"null","<img src=""stim_listA/look7.gif""style=""height:400px;""></stim_listA>","","html-keyboard-response","225","1135674","0.0-15.0-1.19","5577","List1A","white","woman","","","","null","","","","","","","","",""
"null","is looking at","","html-keyboard-response","226","1137677","0.0-15.0-2.19","5577","List1A","white","woman","","","","null","","","","","","","","",""
"17289.014999987558","","","survey-text","227","1154976","0.0-15.0-3.19","5577","List1A","white","woman","","","","","{""Q0"":""beth is looking at ruth""}","<img src=""stim_listA/look7.gif""style=""height:400px;""></stim_listA>","is looking at","","","","","",""
"8647.02999999281","<img src='img/portrait_matrix_list1.jpg' style='width:900px;height:500px;''></img><p>If you have memorised all the portraits and names and are ready to start, press Continue.</p><p><strong>Please note: Your memory of these faces will be tested 4 times during this experiment.</strong></p>","0","html-button-response","228","1163626","0.0-16.0-0.0","5577","List1A","white","woman","","","","","","","","","","","","",""
"2195.084999955725","<img src=""portrait/WW1.jpg""style=""height:400px;""></img>","1","html-button-response","229","1166830","0.0-16.0-1.0","5577","List1A","white","woman","","true","1","","","","","","","","","",""
"null","CORRECT","","html-keyboard-response","230","1168337","0.0-16.0-2.0-0.0","5577","List1A","white","woman","","","","null","","","","","","","","",""
"1647.9000000399537","<img src=""portrait/BM1.jpg""style=""height:400px;""></img>","4","html-button-response","231","1169995","0.0-16.0-4.0","5577","List1A","white","woman","","true","4","","","","","","","","","",""
"null","CORRECT","","html-keyboard-response","232","1171501","0.0-16.0-5.0-0.0","5577","List1A","white","woman","","","","null","","","","","","","","",""
"1951.0549999540672","<img src=""portrait/WW2.jpg""style=""height:400px;""></img>","3","html-button-response","233","1173465","0.0-16.0-7.0","5577","List1A","white","woman","","true","3","","","","","","","","","",""
"null","CORRECT","","html-keyboard-response","234","1174972","0.0-16.0-8.0-0.0","5577","List1A","white","woman","","","","null","","","","","","","","",""
"3461.485000036191","<img src=""portrait/WM1.jpg""style=""height:400px;""></img>","6","html-button-response","235","1178442","0.0-16.0-10.0","5577","List1A","white","woman","","true","6","","","","","","","","","",""
"null","CORRECT","","html-keyboard-response","236","1179948","0.0-16.0-11.0-0.0","5577","List1A","white","woman","","","","null","","","","","","","","",""
"2203.5000000032596","<img src=""portrait/BW2.jpg""style=""height:400px;""></img>","2","html-button-response","237","1182160","0.0-16.0-13.0","5577","List1A","white","woman","","true","2","","","","","","","","","",""
"null","CORRECT","","html-keyboard-response","238","1183666","0.0-16.0-14.0-0.0","5577","List1A","white","woman","","","","null","","","","","","","","",""
"3249.324999982491","<img src=""portrait/BM2.jpg""style=""height:400px;""></img>","5","html-button-response","239","1186924","0.0-16.0-16.0","5577","List1A","white","woman","","true","5","","","","","","","","","",""
"null","CORRECT","","html-keyboard-response","240","1188430","0.0-16.0-17.0-0.0","5577","List1A","white","woman","","","","null","","","","","","","","",""
"1671.7049999861047","<img src=""portrait/WM2.jpg""style=""height:400px;""></img>","7","html-button-response","241","1190112","0.0-16.0-19.0","5577","List1A","white","woman","","true","7","","","","","","","","","",""
"null","CORRECT","","html-keyboard-response","242","1191619","0.0-16.0-20.0-0.0","5577","List1A","white","woman","","","","null","","","","","","","","",""
"1880.5949999950826","<img src=""portrait/BW1.jpg""style=""height:400px;""></img>","0","html-button-response","243","1193510","0.0-16.0-22.0","5577","List1A","white","woman","","true","0","","","","","","","","","",""
"null","CORRECT","","html-keyboard-response","244","1195015","0.0-16.0-23.0-0.0","5577","List1A","white","woman","","","","null","","","","","","","","",""
"1879.755000001751","<p>You got 8 out of 8 right first time. Press Continue.</p>","0","html-button-response","245","1196903","0.0-16.0-25.0","5577","List1A","white","woman","","","","","","","","","","","","",""
"null","<div style=""font-size:60px;"">+</div>","","html-keyboard-response","246","1198413","0.0-17.0-0.0","5577","List1A","white","woman","","","","null","","","","","","","","",""
"null","<img src=""stim_listA/copy8.gif""style=""height:400px;""></stim_listA>","","html-keyboard-response","247","1200423","0.0-17.0-1.0","5577","List1A","white","woman","","","","null","","","","","","","","",""
"null","is being copied by","","html-keyboard-response","248","1202426","0.0-17.0-2.0","5577","List1A","white","woman","","","","null","","","","","","","","",""
"10366.990000009537","","","survey-text","249","1212807","0.0-17.0-3.0","5577","List1A","white","woman","","","","","{""Q0"":""beth is being copied by jane""}","<img src=""stim_listA/copy8.gif""style=""height:400px;""></stim_listA>","is being copied by","","","","","",""
"null","<div style=""font-size:60px;"">+</div>","","html-keyboard-response","250","1213311","0.0-17.0-0.1","5577","List1A","white","woman","","","","null","","","","","","","","",""
"null","<img src=""stim_listA/shout8.gif""style=""height:400px;""></stim_listA>","","html-keyboard-response","251","1215319","0.0-17.0-1.1","5577","List1A","white","woman","","","","null","","","","","","","","",""
"null","is being shouted at by","","html-keyboard-response","252","1217323","0.0-17.0-2.1","5577","List1A","white","woman","","","","null","","","","","","","","",""
"24419.664999993984","","","survey-text","253","1241752","0.0-17.0-3.1","5577","List1A","white","woman","","","","","{""Q0"":""kate is being shouted at by jane""}","<img src=""stim_listA/shout8.gif""style=""height:400px;""></stim_listA>","is being shouted at by","","","","","",""
"null","<div style=""font-size:60px;"">+</div>","","html-keyboard-response","254","1242255","0.0-17.0-0.2","5577","List1A","white","woman","","","","null","","","","","","","","",""
"null","<img src=""stim_listA/look2.gif""style=""height:400px;""></stim_listA>","","html-keyboard-response","255","1244264","0.0-17.0-1.2","5577","List1A","white","woman","","","","null","","","","","","","","",""
"null","is being looked at by","","html-keyboard-response","256","1246271","0.0-17.0-2.2","5577","List1A","white","woman","","","","null","","","","","","","","",""
"10627.565000031609","","","survey-text","257","1256914","0.0-17.0-3.2","5577","List1A","white","woman","","","","","{""Q0"":""mike is being looked at by kate""}","<img src=""stim_listA/look2.gif""style=""height:400px;""></stim_listA>","is being looked at by","","","","","",""
"null","<div style=""font-size:60px;"">+</div>","","html-keyboard-response","258","1257417","0.0-17.0-0.3","5577","List1A","white","woman","","","","null","","","","","","","","",""
"null","<img src=""stim_listA/kiss6.gif""style=""height:400px;""></stim_listA>","","html-keyboard-response","259","1259422","0.0-17.0-1.3","5577","List1A","white","woman","","","","null","","","","","","","","",""
"null","is being kissed by","","html-keyboard-response","260","1261427","0.0-17.0-2.3","5577","List1A","white","woman","","","","null","","","","","","","","",""
"11565.255000023171","","","survey-text","261","1273002","0.0-17.0-3.3","5577","List1A","white","woman","","","","","{""Q0"":""mike is being kissed by dave""}","<img src=""stim_listA/kiss6.gif""style=""height:400px;""></stim_listA>","is being kissed by","","","","","",""
"null","<div style=""font-size:60px;"">+</div>","","html-keyboard-response","262","1273506","0.0-17.0-0.4","5577","List1A","white","woman","","","","null","","","","","","","","",""
"null","<img src=""stim_listA/kiss1.gif""style=""height:400px;""></stim_listA>","","html-keyboard-response","263","1275515","0.0-17.0-1.4","5577","List1A","white","woman","","","","null","","","","","","","","",""
"null","is kissing","","html-keyboard-response","264","1277520","0.0-17.0-2.4","5577","List1A","white","woman","","","","null","","","","","","","","",""
"9091.294999991078","","","survey-text","265","1286623","0.0-17.0-3.4","5577","List1A","white","woman","","","","","{""Q0"":""beth is kissing fred""}","<img src=""stim_listA/kiss1.gif""style=""height:400px;""></stim_listA>","is kissing","","","","","",""
"null","<div style=""font-size:60px;"">+</div>","","html-keyboard-response","266","1287128","0.0-17.0-0.5","5577","List1A","white","woman","","","","null","","","","","","","","",""
"null","<img src=""stim_listA/touch2.gif""style=""height:400px;""></stim_listA>","","html-keyboard-response","267","1289137","0.0-17.0-1.5","5577","List1A","white","woman","","","","null","","","","","","","","",""
"null","is being touched by","","html-keyboard-response","268","1291142","0.0-17.0-2.5","5577","List1A","white","woman","","","","null","","","","","","","","",""
"12173.094999976456","","","survey-text","269","1303324","0.0-17.0-3.5","5577","List1A","white","woman","","","","","{""Q0"":""beth is being touched by fred""}","<img src=""stim_listA/touch2.gif""style=""height:400px;""></stim_listA>","is being touched by","","","","","",""
"null","<div style=""font-size:60px;"">+</div>","","html-keyboard-response","270","1303828","0.0-17.0-0.6","5577","List1A","white","woman","","","","null","","","","","","","","",""
"null","<img src=""stim_listA/shout2.gif""style=""height:400px;""></stim_listA>","","html-keyboard-response","271","1305834","0.0-17.0-1.6","5577","List1A","white","woman","","","","null","","","","","","","","",""
"null","is being shouted at by","","html-keyboard-response","272","1307839","0.0-17.0-2.6","5577","List1A","white","woman","","","","null","","","","","","","","",""
"20292.730000044685","","","survey-text","273","1328141","0.0-17.0-3.6","5577","List1A","white","woman","","","","","{""Q0"":""kate is being shouted at by mike""}","<img src=""stim_listA/shout2.gif""style=""height:400px;""></stim_listA>","is being shouted at by","","","","","",""
"null","<div style=""font-size:60px;"">+</div>","","html-keyboard-response","274","1328646","0.0-17.0-0.7","5577","List1A","white","woman","","","","null","","","","","","","","",""
"null","<img src=""stim_listA/look6.gif""style=""height:400px;""></stim_listA>","","html-keyboard-response","275","1330654","0.0-17.0-1.7","5577","List1A","white","woman","","","","null","","","","","","","","",""
"null","is being looked at by","","html-keyboard-response","276","1332659","0.0-17.0-2.7","5577","List1A","white","woman","","","","null","","","","","","","","",""
"14496.155000000726","","","survey-text","277","1347167","0.0-17.0-3.7","5577","List1A","white","woman","","","","","{""Q0"":""dave is being looked at by mike""}","<img src=""stim_listA/look6.gif""style=""height:400px;""></stim_listA>","is being looked at by","","","","","",""
"null","<div style=""font-size:60px;"">+</div>","","html-keyboard-response","278","1347672","0.0-17.0-0.8","5577","List1A","white","woman","","","","null","","","","","","","","",""
"null","<img src=""stim_listA/hug6.gif""style=""height:400px;""></stim_listA>","","html-keyboard-response","279","1349681","0.0-17.0-1.8","5577","List1A","white","woman","","","","null","","","","","","","","",""
"null","is being hugged by","","html-keyboard-response","280","1351686","0.0-17.0-2.8","5577","List1A","white","woman","","","","null","","","","","","","","",""
"13545.715000014752","","","survey-text","281","1365243","0.0-17.0-3.8","5577","List1A","white","woman","","","","","{""Q0"":""mike is being hugged by dave""}","<img src=""stim_listA/hug6.gif""style=""height:400px;""></stim_listA>","is being hugged by","","","","","",""
"null","<div style=""font-size:60px;"">+</div>","","html-keyboard-response","282","1365746","0.0-17.0-0.9","5577","List1A","white","woman","","","","null","","","","","","","","",""
"null","<img src=""stim_listA/look3.gif""style=""height:400px;""></stim_listA>","","html-keyboard-response","283","1367755","0.0-17.0-1.9","5577","List1A","white","woman","","","","null","","","","","","","","",""
"null","is looking at","","html-keyboard-response","284","1369761","0.0-17.0-2.9","5577","List1A","white","woman","","","","null","","","","","","","","",""
"8513.199999986682","","","survey-text","285","1378287","0.0-17.0-3.9","5577","List1A","white","woman","","","","","{""Q0"":""ruth is looking at luke""}","<img src=""stim_listA/look3.gif""style=""height:400px;""></stim_listA>","is looking at","","","","","",""
"null","<div style=""font-size:60px;"">+</div>","","html-keyboard-response","286","1378791","0.0-17.0-0.10","5577","List1A","white","woman","","","","null","","","","","","","","",""
"null","<img src=""stim_listA/oppose4.gif""style=""height:400px;""></stim_listA>","","html-keyboard-response","287","1380800","0.0-17.0-1.10","5577","List1A","white","woman","","","","null","","","","","","","","",""
"null","is being opposed by","","html-keyboard-response","288","1382803","0.0-17.0-2.10","5577","List1A","white","woman","","","","null","","","","","","","","",""
"14689.94999997085","","","survey-text","289","1397501","0.0-17.0-3.10","5577","List1A","white","woman","","","","","{""Q0"":""luke is being opposed by ruth""}","<img src=""stim_listA/oppose4.gif""style=""height:400px;""></stim_listA>","is being opposed by","","","","","",""
"null","<div style=""font-size:60px;"">+</div>","","html-keyboard-response","290","1398004","0.0-17.0-0.11","5577","List1A","white","woman","","","","null","","","","","","","","",""
"null","<img src=""stim_listA/seduce3.gif""style=""height:400px;""></stim_listA>","","html-keyboard-response","291","1400013","0.0-17.0-1.11","5577","List1A","white","woman","","","","null","","","","","","","","",""
"null","is seducing","","html-keyboard-response","292","1402019","0.0-17.0-2.11","5577","List1A","white","woman","","","","null","","","","","","","","",""
"16687.76500003878","","","survey-text","293","1418719","0.0-17.0-3.11","5577","List1A","white","woman","","","","","{""Q0"":""luke is seduced by jane""}","<img src=""stim_listA/seduce3.gif""style=""height:400px;""></stim_listA>","is seducing","","","","","",""
"null","<div style=""font-size:60px;"">+</div>","","html-keyboard-response","294","1419223","0.0-17.0-0.12","5577","List1A","white","woman","","","","null","","","","","","","","",""
"null","<img src=""stim_listA/hug7.gif""style=""height:400px;""></stim_listA>","","html-keyboard-response","295","1421233","0.0-17.0-1.12","5577","List1A","white","woman","","","","null","","","","","","","","",""
"null","is hugging","","html-keyboard-response","296","1423239","0.0-17.0-2.12","5577","List1A","white","woman","","","","null","","","","","","","","",""
"11066.769999975804","","","survey-text","297","1434320","0.0-17.0-3.12","5577","List1A","white","woman","","","","","{""Q0"":""ruth is hugging beth""}","<img src=""stim_listA/hug7.gif""style=""height:400px;""></stim_listA>","is hugging","","","","","",""
"null","<div style=""font-size:60px;"">+</div>","","html-keyboard-response","298","1434825","0.0-17.0-0.13","5577","List1A","white","woman","","","","null","","","","","","","","",""
"null","<img src=""stim_listA/copy4.gif""style=""height:400px;""></stim_listA>","","html-keyboard-response","299","1436835","0.0-17.0-1.13","5577","List1A","white","woman","","","","null","","","","","","","","",""
"null","is being copied by","","html-keyboard-response","300","1438840","0.0-17.0-2.13","5577","List1A","white","woman","","","","null","","","","","","","","",""
"11999.884999997448","","","survey-text","301","1450851","0.0-17.0-3.13","5577","List1A","white","woman","","","","","{""Q0"":""jane is being copied by luke""}","<img src=""stim_listA/copy4.gif""style=""height:400px;""></stim_listA>","is being copied by","","","","","",""
"null","<div style=""font-size:60px;"">+</div>","","html-keyboard-response","302","1451355","0.0-17.0-0.14","5577","List1A","white","woman","","","","null","","","","","","","","",""
"null","<img src=""stim_listA/touch7.gif""style=""height:400px;""></stim_listA>","","html-keyboard-response","303","1453364","0.0-17.0-1.14","5577","List1A","white","woman","","","","null","","","","","","","","",""
"null","is touching","","html-keyboard-response","304","1455369","0.0-17.0-2.14","5577","List1A","white","woman","","","","null","","","","","","","","",""
"6493.6199999647215","","","survey-text","305","1461877","0.0-17.0-3.14","5577","List1A","white","woman","","","","","{""Q0"":""kate is touching jane""}","<img src=""stim_listA/touch7.gif""style=""height:400px;""></stim_listA>","is touching","","","","","",""
"null","<div style=""font-size:60px;"">+</div>","","html-keyboard-response","306","1462383","0.0-17.0-0.15","5577","List1A","white","woman","","","","null","","","","","","","","",""
"null","<img src=""stim_listA/seduce5.gif""style=""height:400px;""></stim_listA>","","html-keyboard-response","307","1464392","0.0-17.0-1.15","5577","List1A","white","woman","","","","null","","","","","","","","",""
"null","is seducing","","html-keyboard-response","308","1466398","0.0-17.0-2.15","5577","List1A","white","woman","","","","null","","","","","","","","",""
"10656.695000012405","","","survey-text","309","1477070","0.0-17.0-3.15","5577","List1A","white","woman","","","","","{""Q0"":""fred is seducing dave""}","<img src=""stim_listA/seduce5.gif""style=""height:400px;""></stim_listA>","is seducing","","","","","",""
"null","<div style=""font-size:60px;"">+</div>","","html-keyboard-response","310","1477576","0.0-17.0-0.16","5577","List1A","white","woman","","","","null","","","","","","","","",""
"null","<img src=""stim_listA/kiss7.gif""style=""height:400px;""></stim_listA>","","html-keyboard-response","311","1479586","0.0-17.0-1.16","5577","List1A","white","woman","","","","null","","","","","","","","",""
"null","is kissing","","html-keyboard-response","312","1481591","0.0-17.0-2.16","5577","List1A","white","woman","","","","null","","","","","","","","",""
"17389.365000010002","","","survey-text","313","1498991","0.0-17.0-3.16","5577","List1A","white","woman","","","","","{""Q0"":""beth is kissing ruth""}","<img src=""stim_listA/kiss7.gif""style=""height:400px;""></stim_listA>","is kissing","","","","","",""
"null","<div style=""font-size:60px;"">+</div>","","html-keyboard-response","314","1499495","0.0-17.0-0.17","5577","List1A","white","woman","","","","null","","","","","","","","",""
"null","<img src=""stim_listA/oppose2.gif""style=""height:400px;""></stim_listA>","","html-keyboard-response","315","1501505","0.0-17.0-1.17","5577","List1A","white","woman","","","","null","","","","","","","","",""
"null","is being opposed by","","html-keyboard-response","316","1503510","0.0-17.0-2.17","5577","List1A","white","woman","","","","null","","","","","","","","",""
"11548.064999980852","","","survey-text","317","1515070","0.0-17.0-3.17","5577","List1A","white","woman","","","","","{""Q0"":""beth is being opposed by fred""}","<img src=""stim_listA/oppose2.gif""style=""height:400px;""></stim_listA>","is being opposed by","","","","","",""
"null","<div style=""font-size:60px;"">+</div>","","html-keyboard-response","318","1515576","0.0-17.0-0.18","5577","List1A","white","woman","","","","null","","","","","","","","",""
"null","<img src=""stim_listA/shout7.gif""style=""height:400px;""></stim_listA>","","html-keyboard-response","319","1517585","0.0-17.0-1.18","5577","List1A","white","woman","","","","null","","","","","","","","",""
"null","is shouting at","","html-keyboard-response","320","1519590","0.0-17.0-2.18","5577","List1A","white","woman","","","","null","","","","","","","","",""
"8698.23500001803","","","survey-text","321","1528299","0.0-17.0-3.18","5577","List1A","white","woman","","","","","{""Q0"":""beth is shouting at ruth""}","<img src=""stim_listA/shout7.gif""style=""height:400px;""></stim_listA>","is shouting at","","","","","",""
"null","<div style=""font-size:60px;"">+</div>","","html-keyboard-response","322","1528803","0.0-17.0-0.19","5577","List1A","white","woman","","","","null","","","","","","","","",""
"null","<img src=""stim_listA/seduce4.gif""style=""height:400px;""></stim_listA>","","html-keyboard-response","323","1530812","0.0-17.0-1.19","5577","List1A","white","woman","","","","null","","","","","","","","",""
"null","is being seduced by","","html-keyboard-response","324","1532817","0.0-17.0-2.19","5577","List1A","white","woman","","","","null","","","","","","","","",""
"11587.104999984149","","","survey-text","325","1544417","0.0-17.0-3.19","5577","List1A","white","woman","","","","","{""Q0"":""ruth is being seduced by dave""}","<img src=""stim_listA/seduce4.gif""style=""height:400px;""></stim_listA>","is being seduced by","","","","","",""
"6039.5949999801815","<img src='img/portrait_matrix_list1.jpg' style='width:900px;height:500px;''></img><p>If you have memorised all the portraits and names and are ready to start, press Continue.</p><p><strong>Please note: Your memory of these faces will be tested 4 times during this experiment.</strong></p>","0","html-button-response","326","1550469","0.0-18.0-0.0","5577","List1A","white","woman","","","","","","","","","","","","",""
"2077.5399999693036","<img src=""portrait/BM1.jpg""style=""height:400px;""></img>","4","html-button-response","327","1553557","0.0-18.0-1.0","5577","List1A","white","woman","","true","4","","","","","","","","","",""
"null","CORRECT","","html-keyboard-response","328","1555063","0.0-18.0-2.0-0.0","5577","List1A","white","woman","","","","null","","","","","","","","",""
"1968.0800000205636","<img src=""portrait/BW2.jpg""style=""height:400px;""></img>","2","html-button-response","329","1557044","0.0-18.0-4.0","5577","List1A","white","woman","","true","2","","","","","","","","","",""
"null","CORRECT","","html-keyboard-response","330","1558550","0.0-18.0-5.0-0.0","5577","List1A","white","woman","","","","null","","","","","","","","",""
"3603.51000004448","<img src=""portrait/WM2.jpg""style=""height:400px;""></img>","7","html-button-response","331","1562164","0.0-18.0-7.0","5577","List1A","white","woman","","true","7","","","","","","","","","",""
"null","CORRECT","","html-keyboard-response","332","1563670","0.0-18.0-8.0-0.0","5577","List1A","white","woman","","","","null","","","","","","","","",""
"2472.2400000318885","<img src=""portrait/WM1.jpg""style=""height:400px;""></img>","6","html-button-response","333","1566152","0.0-18.0-10.0","5577","List1A","white","woman","","true","6","","","","","","","","","",""
"null","CORRECT","","html-keyboard-response","334","1567658","0.0-18.0-11.0-0.0","5577","List1A","white","woman","","","","null","","","","","","","","",""
"1701.070000010077","<img src=""portrait/WW2.jpg""style=""height:400px;""></img>","3","html-button-response","335","1569369","0.0-18.0-13.0","5577","List1A","white","woman","","true","3","","","","","","","","","",""
"null","CORRECT","","html-keyboard-response","336","1570875","0.0-18.0-14.0-0.0","5577","List1A","white","woman","","","","null","","","","","","","","",""
"2006.1700000078417","<img src=""portrait/BW1.jpg""style=""height:400px;""></img>","0","html-button-response","337","1572886","0.0-18.0-16.0","5577","List1A","white","woman","","true","0","","","","","","","","","",""
"null","CORRECT","","html-keyboard-response","338","1574391","0.0-18.0-17.0-0.0","5577","List1A","white","woman","","","","null","","","","","","","","",""
"2316.0700000007637","<img src=""portrait/BM2.jpg""style=""height:400px;""></img>","5","html-button-response","339","1576720","0.0-18.0-19.0","5577","List1A","white","woman","","true","5","","","","","","","","","",""
"null","CORRECT","","html-keyboard-response","340","1578227","0.0-18.0-20.0-0.0","5577","List1A","white","woman","","","","null","","","","","","","","",""
"1765.3799999970943","<img src=""portrait/WW1.jpg""style=""height:400px;""></img>","1","html-button-response","341","1580001","0.0-18.0-22.0","5577","List1A","white","woman","","true","1","","","","","","","","","",""
"null","CORRECT","","html-keyboard-response","342","1581507","0.0-18.0-23.0-0.0","5577","List1A","white","woman","","","","null","","","","","","","","",""
"2088.14499998698","<p>You got 8 out of 8 right first time. Press Continue.</p>","0","html-button-response","343","1583598","0.0-18.0-25.0","5577","List1A","white","woman","","","","","","","","","","","","",""
"null","<div style=""font-size:60px;"">+</div>","","html-keyboard-response","344","1585109","0.0-19.0-0.0","5577","List1A","white","woman","","","","null","","","","","","","","",""
"null","<img src=""stim_listA/kiss4.gif""style=""height:400px;""></stim_listA>","","html-keyboard-response","345","1587119","0.0-19.0-1.0","5577","List1A","white","woman","","","","null","","","","","","","","",""
"null","is being kissed by","","html-keyboard-response","346","1589124","0.0-19.0-2.0","5577","List1A","white","woman","","","","null","","","","","","","","",""
"9292.934999975841","","","survey-text","347","1598426","0.0-19.0-3.0","5577","List1A","white","woman","","","","","{""Q0"":""dave is being kissed by jane""}","<img src=""stim_listA/kiss4.gif""style=""height:400px;""></stim_listA>","is being kissed by","","","","","",""
"null","<div style=""font-size:60px;"">+</div>","","html-keyboard-response","348","1598929","0.0-19.0-0.1","5577","List1A","white","woman","","","","null","","","","","","","","",""
"null","<img src=""stim_listA/hug8.gif""style=""height:400px;""></stim_listA>","","html-keyboard-response","349","1600939","0.0-19.0-1.1","5577","List1A","white","woman","","","","null","","","","","","","","",""
"null","is being hugged by","","html-keyboard-response","350","1602943","0.0-19.0-2.1","5577","List1A","white","woman","","","","null","","","","","","","","",""
"9101.829999999609","","","survey-text","351","1612058","0.0-19.0-3.1","5577","List1A","white","woman","","","","","{""Q0"":""kate is being hugged by jane""}","<img src=""stim_listA/hug8.gif""style=""height:400px;""></stim_listA>","is being hugged by","","","","","",""
"null","<div style=""font-size:60px;"">+</div>","","html-keyboard-response","352","1612563","0.0-19.0-0.2","5577","List1A","white","woman","","","","null","","","","","","","","",""
"null","<img src=""stim_listA/hug3.gif""style=""height:400px;""></stim_listA>","","html-keyboard-response","353","1614570","0.0-19.0-1.2","5577","List1A","white","woman","","","","null","","","","","","","","",""
"null","is hugging","","html-keyboard-response","354","1616576","0.0-19.0-2.2","5577","List1A","white","woman","","","","null","","","","","","","","",""
"10765.054999967106","","","survey-text","355","1627352","0.0-19.0-3.2","5577","List1A","white","woman","","","","","{""Q0"":""luke is hugging ruth""}","<img src=""stim_listA/hug3.gif""style=""height:400px;""></stim_listA>","is hugging","","","","","",""
"null","<div style=""font-size:60px;"">+</div>","","html-keyboard-response","356","1627855","0.0-19.0-0.3","5577","List1A","white","woman","","","","null","","","","","","","","",""
"null","<img src=""stim_listA/oppose7.gif""style=""height:400px;""></stim_listA>","","html-keyboard-response","357","1629861","0.0-19.0-1.3","5577","List1A","white","woman","","","","null","","","","","","","","",""
"null","is opposing","","html-keyboard-response","358","1631867","0.0-19.0-2.3","5577","List1A","white","woman","","","","null","","","","","","","","",""
"9248.48499998916","","","survey-text","359","1641125","0.0-19.0-3.3","5577","List1A","white","woman","","","","","{""Q0"":""kate is opposing jane""}","<img src=""stim_listA/oppose7.gif""style=""height:400px;""></stim_listA>","is opposing","","","","","",""
"null","<div style=""font-size:60px;"">+</div>","","html-keyboard-response","360","1641627","0.0-19.0-0.4","5577","List1A","white","woman","","","","null","","","","","","","","",""
"null","<img src=""stim_listA/touch3.gif""style=""height:400px;""></stim_listA>","","html-keyboard-response","361","1643632","0.0-19.0-1.4","5577","List1A","white","woman","","","","null","","","","","","","","",""
"null","is touching","","html-keyboard-response","362","1645636","0.0-19.0-2.4","5577","List1A","white","woman","","","","null","","","","","","","","",""
"8498.790000041481","","","survey-text","363","1654142","0.0-19.0-3.4","5577","List1A","white","woman","","","","","{""Q0"":""luke is touching jane""}","<img src=""stim_listA/touch3.gif""style=""height:400px;""></stim_listA>","is touching","","","","","",""
"null","<div style=""font-size:60px;"">+</div>","","html-keyboard-response","364","1654648","0.0-19.0-0.5","5577","List1A","white","woman","","","","null","","","","","","","","",""
"null","<img src=""stim_listA/shout1.gif""style=""height:400px;""></stim_listA>","","html-keyboard-response","365","1656657","0.0-19.0-1.5","5577","List1A","white","woman","","","","null","","","","","","","","",""
"null","is shouting at","","html-keyboard-response","366","1658662","0.0-19.0-2.5","5577","List1A","white","woman","","","","null","","","","","","","","",""
"9960.375000024214","","","survey-text","367","1668631","0.0-19.0-3.5","5577","List1A","white","woman","","","","","{""Q0"":""fred is shouting at beth""}","<img src=""stim_listA/shout1.gif""style=""height:400px;""></stim_listA>","is shouting at","","","","","",""
"null","<div style=""font-size:60px;"">+</div>","","html-keyboard-response","368","1669136","0.0-19.0-0.6","5577","List1A","white","woman","","","","null","","","","","","","","",""
"null","<img src=""stim_listA/challenge7.gif""style=""height:400px;""></stim_listA>","","html-keyboard-response","369","1671146","0.0-19.0-1.6","5577","List1A","white","woman","","","","null","","","","","","","","",""
"null","is challenging","","html-keyboard-response","370","1673151","0.0-19.0-2.6","5577","List1A","white","woman","","","","null","","","","","","","","",""
"9841.119999997318","","","survey-text","371","1683007","0.0-19.0-3.6","5577","List1A","white","woman","","","","","{""Q0"":""ruth is challenging kate""}","<img src=""stim_listA/challenge7.gif""style=""height:400px;""></stim_listA>","is challenging","","","","","",""
"null","<div style=""font-size:60px;"">+</div>","","html-keyboard-response","372","1683512","0.0-19.0-0.7","5577","List1A","white","woman","","","","null","","","","","","","","",""
"null","<img src=""stim_listA/greet6.gif""style=""height:400px;""></stim_listA>","","html-keyboard-response","373","1685521","0.0-19.0-1.7","5577","List1A","white","woman","","","","null","","","","","","","","",""
"null","is being greeted by","","html-keyboard-response","374","1687526","0.0-19.0-2.7","5577","List1A","white","woman","","","","null","","","","","","","","",""
"23196.54500001343","","","survey-text","375","1710733","0.0-19.0-3.7","5577","List1A","white","woman","","","","","{""Q0"":""fred is greeted by dave""}","<img src=""stim_listA/greet6.gif""style=""height:400px;""></stim_listA>","is being greeted by","","","","","",""
"null","<div style=""font-size:60px;"">+</div>","","html-keyboard-response","376","1711237","0.0-19.0-0.8","5577","List1A","white","woman","","","","null","","","","","","","","",""
"null","<img src=""stim_listA/greet4.gif""style=""height:400px;""></stim_listA>","","html-keyboard-response","377","1713248","0.0-19.0-1.8","5577","List1A","white","woman","","","","null","","","","","","","","",""
"null","is being greeted by","","html-keyboard-response","378","1715255","0.0-19.0-2.8","5577","List1A","white","woman","","","","null","","","","","","","","",""
"27133.55500000762","","","survey-text","379","1742401","0.0-19.0-3.8","5577","List1A","white","woman","","","","","{""Q0"":""jane is being greeted by luke""}","<img src=""stim_listA/greet4.gif""style=""height:400px;""></stim_listA>","is being greeted by","","","","","",""
"null","<div style=""font-size:60px;"">+</div>","","html-keyboard-response","380","1742908","0.0-19.0-0.9","5577","List1A","white","woman","","","","null","","","","","","","","",""
"null","<img src=""stim_listA/challenge3.gif""style=""height:400px;""></stim_listA>","","html-keyboard-response","381","1744917","0.0-19.0-1.9","5577","List1A","white","woman","","","","null","","","","","","","","",""
"null","is challenging","","html-keyboard-response","382","1746930","0.0-19.0-2.9","5577","List1A","white","woman","","","","null","","","","","","","","",""
"12961.17999998387","","","survey-text","383","1759902","0.0-19.0-3.9","5577","List1A","white","woman","","","","","{""Q0"":""dave is challenging ruth""}","<img src=""stim_listA/challenge3.gif""style=""height:400px;""></stim_listA>","is challenging","","","","","",""
"null","<div style=""font-size:60px;"">+</div>","","html-keyboard-response","384","1760407","0.0-19.0-0.10","5577","List1A","white","woman","","","","null","","","","","","","","",""
"null","<img src=""stim_listA/challenge6.gif""style=""height:400px;""></stim_listA>","","html-keyboard-response","385","1762416","0.0-19.0-1.10","5577","List1A","white","woman","","","","null","","","","","","","","",""
"null","is being challenged by","","html-keyboard-response","386","1764423","0.0-19.0-2.10","5577","List1A","white","woman","","","","null","","","","","","","","",""
"12553.0049999943","","","survey-text","387","1776986","0.0-19.0-3.10","5577","List1A","white","woman","","","","","{""Q0"":""dave is being challenged by fred""}","<img src=""stim_listA/challenge6.gif""style=""height:400px;""></stim_listA>","is being challenged by","","","","","",""
"null","<div style=""font-size:60px;"">+</div>","","html-keyboard-response","388","1777491","0.0-19.0-0.11","5577","List1A","white","woman","","","","null","","","","","","","","",""
"null","<img src=""stim_listA/shout5.gif""style=""height:400px;""></stim_listA>","","html-keyboard-response","389","1779500","0.0-19.0-1.11","5577","List1A","white","woman","","","","null","","","","","","","","",""
"null","is shouting at","","html-keyboard-response","390","1781502","0.0-19.0-2.11","5577","List1A","white","woman","","","","null","","","","","","","","",""
"10854.575000004843","","","survey-text","391","1792367","0.0-19.0-3.11","5577","List1A","white","woman","","","","","{""Q0"":""fred is shouting at luke""}","<img src=""stim_listA/shout5.gif""style=""height:400px;""></stim_listA>","is shouting at","","","","","",""
"null","<div style=""font-size:60px;"">+</div>","","html-keyboard-response","392","1792872","0.0-19.0-0.12","5577","List1A","white","woman","","","","null","","","","","","","","",""
"null","<img src=""stim_listA/greet2.gif""style=""height:400px;""></stim_listA>","","html-keyboard-response","393","1794882","0.0-19.0-1.12","5577","List1A","white","woman","","","","null","","","","","","","","",""
"null","is being greeted by","","html-keyboard-response","394","1796888","0.0-19.0-2.12","5577","List1A","white","woman","","","","null","","","","","","","","",""
"12070.055000018328","","","survey-text","395","1808971","0.0-19.0-3.12","5577","List1A","white","woman","","","","","{""Q0"":""kate is being greeted by fred""}","<img src=""stim_listA/greet2.gif""style=""height:400px;""></stim_listA>","is being greeted by","","","","","",""
"null","<div style=""font-size:60px;"">+</div>","","html-keyboard-response","396","1809476","0.0-19.0-0.13","5577","List1A","white","woman","","","","null","","","","","","","","",""
"null","<img src=""stim_listA/touch5.gif""style=""height:400px;""></stim_listA>","","html-keyboard-response","397","1811484","0.0-19.0-1.13","5577","List1A","white","woman","","","","null","","","","","","","","",""
"null","is touching","","html-keyboard-response","398","1813490","0.0-19.0-2.13","5577","List1A","white","woman","","","","null","","","","","","","","",""
"11837.24500000244","","","survey-text","399","1825340","0.0-19.0-3.13","5577","List1A","white","woman","","","","","{""Q0"":""mike is touching luke""}","<img src=""stim_listA/touch5.gif""style=""height:400px;""></stim_listA>","is touching","","","","","",""
"null","<div style=""font-size:60px;"">+</div>","","html-keyboard-response","400","1825844","0.0-19.0-0.14","5577","List1A","white","woman","","","","null","","","","","","","","",""
"null","<img src=""stim_listA/look8.gif""style=""height:400px;""></stim_listA>","","html-keyboard-response","401","1827853","0.0-19.0-1.14","5577","List1A","white","woman","","","","null","","","","","","","","",""
"null","is being looked at by","","html-keyboard-response","402","1829858","0.0-19.0-2.14","5577","List1A","white","woman","","","","null","","","","","","","","",""
"15448.070000042208","","","survey-text","403","1845315","0.0-19.0-3.14","5577","List1A","white","woman","","","","","{""Q0"":""kate is being looked at by jane""}","<img src=""stim_listA/look8.gif""style=""height:400px;""></stim_listA>","is being looked at by","","","","","",""
"null","<div style=""font-size:60px;"">+</div>","","html-keyboard-response","404","1845819","0.0-19.0-0.15","5577","List1A","white","woman","","","","null","","","","","","","","",""
"null","<img src=""stim_listA/copy3.gif""style=""height:400px;""></stim_listA>","","html-keyboard-response","405","1847828","0.0-19.0-1.15","5577","List1A","white","woman","","","","null","","","","","","","","",""
"null","is copying","","html-keyboard-response","406","1849836","0.0-19.0-2.15","5577","List1A","white","woman","","","","null","","","","","","","","",""
"13768.7900000019","","","survey-text","407","1863615","0.0-19.0-3.15","5577","List1A","white","woman","","","","","{""Q0"":""ruth is copying dave""}","<img src=""stim_listA/copy3.gif""style=""height:400px;""></stim_listA>","is copying","","","","","",""
"null","<div style=""font-size:60px;"">+</div>","","html-keyboard-response","408","1864119","0.0-19.0-0.16","5577","List1A","white","woman","","","","null","","","","","","","","",""
"null","<img src=""stim_listA/challenge1.gif""style=""height:400px;""></stim_listA>","","html-keyboard-response","409","1866126","0.0-19.0-1.16","5577","List1A","white","woman","","","","null","","","","","","","","",""
"null","is challenging","","html-keyboard-response","410","1868132","0.0-19.0-2.16","5577","List1A","white","woman","","","","null","","","","","","","","",""
"10078.355000005104","","","survey-text","411","1878221","0.0-19.0-3.16","5577","List1A","white","woman","","","","","{""Q0"":""mike is challenging beth""}","<img src=""stim_listA/challenge1.gif""style=""height:400px;""></stim_listA>","is challenging","","","","","",""
"null","<div style=""font-size:60px;"">+</div>","","html-keyboard-response","412","1878726","0.0-19.0-0.17","5577","List1A","white","woman","","","","null","","","","","","","","",""
"null","<img src=""stim_listA/touch6.gif""style=""height:400px;""></stim_listA>","","html-keyboard-response","413","1880736","0.0-19.0-1.17","5577","List1A","white","woman","","","","null","","","","","","","","",""
"null","is being touched by","","html-keyboard-response","414","1882741","0.0-19.0-2.17","5577","List1A","white","woman","","","","null","","","","","","","","",""
"11996.719999995548","","","survey-text","415","1894750","0.0-19.0-3.17","5577","List1A","white","woman","","","","","{""Q0"":""fred is being touched by luke""}","<img src=""stim_listA/touch6.gif""style=""height:400px;""></stim_listA>","is being touched by","","","","","",""
"null","<div style=""font-size:60px;"">+</div>","","html-keyboard-response","416","1895256","0.0-19.0-0.18","5577","List1A","white","woman","","","","null","","","","","","","","",""
"null","<img src=""stim_listA/greet3.gif""style=""height:400px;""></stim_listA>","","html-keyboard-response","417","1897266","0.0-19.0-1.18","5577","List1A","white","woman","","","","null","","","","","","","","",""
"null","is greeting","","html-keyboard-response","418","1899272","0.0-19.0-2.18","5577","List1A","white","woman","","","","null","","","","","","","","",""
"9365.665000048466","","","survey-text","419","1908650","0.0-19.0-3.18","5577","List1A","white","woman","","","","","{""Q0"":""ruth is greeting dave""}","<img src=""stim_listA/greet3.gif""style=""height:400px;""></stim_listA>","is greeting","","","","","",""
"null","<div style=""font-size:60px;"">+</div>","","html-keyboard-response","420","1909154","0.0-19.0-0.19","5577","List1A","white","woman","","","","null","","","","","","","","",""
"null","<img src=""stim_listA/challenge5.gif""style=""height:400px;""></stim_listA>","","html-keyboard-response","421","1911163","0.0-19.0-1.19","5577","List1A","white","woman","","","","null","","","","","","","","",""
"null","is challenging","","html-keyboard-response","422","1913168","0.0-19.0-2.19","5577","List1A","white","woman","","","","null","","","","","","","","",""
"24374.554999987595","","","survey-text","423","1937555","0.0-19.0-3.19","5577","List1A","white","woman","","","","","{""Q0"":""mike is challenging luke""}","<img src=""stim_listA/challenge5.gif""style=""height:400px;""></stim_listA>","is challenging","","","","","",""
"4966.795000014827","<p>Thank you for completing that task.</p><p>The final part of this session is a questionnaire that will take about 4 minutes.</p><p>Press Continue.</p>","0","html-button-response","424","1942527","0.0-20.0","5577","List1A","white","woman","","","","","","","","","","","","",""
"60028.805000009015","","","survey-text","425","2003579","0.0-21.0","5577","List1A","white","woman","","","","","{""Q0"":""30"",""Q1"":""Polish"",""Q2"":""English"",""Q3"":""United States"",""Q4"":""Polish"",""Q5"":""White"",""Q6"":""female""}","","","demographics","","","","",""
"3280.9249999700114","<p>Have you lived in the USA for the last 5 years or more?</p>","0","html-button-response","426","2006867","0.0-22.0","5577","List1A","white","woman","","","","","","","","fiveyears","","","","",""
"4515.654999995604","<p>Move the slider to show the extent to which you agree with the following statements.</p>","0","html-button-response","427","2012388","0.0-23.0","5577","List1A","white","woman","","","","","","","","","","","","",""
"7976.540000003297","","","html-slider-response","428","2021383","0.0-24.0-0.0-0.0","5577","List1A","white","woman","","","","","","","","survey_gender","52","","","I am similar to the average person of my gender.","similar"
"6725.259999977425","","","html-slider-response","429","2028119","0.0-24.0-0.0-0.1","5577","List1A","white","woman","","","","","","","","survey_gender","60","","","It is pleasant to be my gender.","pleasant"
"4099.61499995552","","","html-slider-response","430","2032227","0.0-24.0-0.0-0.2","5577","List1A","white","woman","","","","","","","","survey_gender","80","","","I consider myself a highly empathetic person.","filler"
"5661.48999996949","","","html-slider-response","431","2037895","0.0-24.0-0.0-0.3","5577","List1A","white","woman","","","","","","","","survey_gender","71","","","Being around my friends gives me a good feeling.","filler"
"3737.1450000209734","","","html-slider-response","432","2041641","0.0-24.0-0.0-0.4","5577","List1A","white","woman","","","","","","","","survey_gender","73","","","I often think about my actions.","filler"
"10919.77500001667","","","html-slider-response","433","2052565","0.0-24.0-0.0-0.5","5577","List1A","white","woman","","","","","","","","survey_gender","54","","","It is not always easy for people to know what I am thinking.","filler"
"5876.170000003185","","","html-slider-response","434","2058446","0.0-24.0-0.0-0.6","5577","List1A","white","woman","","","","","","","","survey_gender","62","","","People of my gender have a lot in common with each other.","common"
"5623.139999981504","","","html-slider-response","435","2064074","0.0-24.0-0.0-0.7","5577","List1A","white","woman","","","","","","","","survey_gender","44","","","Routine is not important to me.","filler"
"3788.620000006631","","","html-slider-response","436","2067868","0.0-24.0-0.0-0.8","5577","List1A","white","woman","","","","","","","","survey_gender","72","","","I think that my gender has a lot to be proud of.","proud"
"3143.1400000001304","","","html-slider-response","437","2071018","0.0-24.0-0.0-0.9","5577","List1A","white","woman","","","","","","","","survey_gender","63","","","I feel a bond with my gender.","bond"
"4581.8449999787845","","","html-slider-response","438","2075608","0.0-24.0-0.0-0.10","5577","List1A","white","woman","","","","","","","","survey_gender","58","","","I have a lot in common with the average person of my gender.","average"
"3588.3449999964796","","","html-slider-response","439","2079203","0.0-24.0-0.0-0.11","5577","List1A","white","woman","","","","","","","","survey_gender","59","","","I feel solidarity with my friends.","filler"
"5648.830000020098","","","html-slider-response","440","2084860","0.0-24.0-0.0-0.12","5577","List1A","white","woman","","","","","","","","survey_gender","54","","","Family is not more important to me than friendship.","filler"
"5008.580000023358","","","html-slider-response","441","2089876","0.0-24.0-0.0-0.13","5577","List1A","white","woman","","","","","","","","survey_gender","77","","","I feel a bond with my friends.","filler"
"3114.469999971334","","","html-slider-response","442","2092997","0.0-24.0-0.0-0.14","5577","List1A","white","woman","","","","","","","","survey_gender","58","","","I feel solidarity with my gender.","solidarity"
"7086.905000032857","","","html-slider-response","443","2100089","0.0-24.0-0.0-0.15","5577","List1A","white","woman","","","","","","","","survey_gender","51","","","My friends have a lot in common with each other.","filler"
"7688.12499998603","","","html-slider-response","444","2107785","0.0-24.0-0.0-0.16","5577","List1A","white","woman","","","","","","","","survey_gender","34","","","I often think about the fact that I am my gender.","often"
"5254.345000023022","","","html-slider-response","445","2113049","0.0-24.0-0.0-0.17","5577","List1A","white","woman","","","","","","","","survey_gender","94","","","I would say I am an animal person.","filler"
"2731.755000015255","","","html-slider-response","446","2115788","0.0-24.0-0.0-0.18","5577","List1A","white","woman","","","","","","","","survey_gender","54","","","My friends understand me.","filler"
"3348.040000011679","","","html-slider-response","447","2119142","0.0-24.0-0.0-0.19","5577","List1A","white","woman","","","","","","","","survey_gender","58","","","I am glad to be my gender.","glad"
"3897.950000013225","","","html-slider-response","448","2123047","0.0-24.0-0.0-0.20","5577","List1A","white","woman","","","","","","","","survey_gender","67","","","I feel committed to my gender.","committed"
"4113.815000047907","","","html-slider-response","449","2127169","0.0-24.0-0.0-0.21","5577","List1A","white","woman","","","","","","","","survey_gender","55","","","Being my gender gives me a good feeling.","feeling"
"3310.42500003241","","","html-slider-response","450","2130488","0.0-24.0-0.0-0.22","5577","List1A","white","woman","","","","","","","","survey_gender","56","","","People of my gender are very similar to each other.","verysimilar"
"5086.965000024065","","","html-slider-response","451","2135586","0.0-24.0-0.0-0.23","5577","List1A","white","woman","","","","","","","","survey_gender","44","","","Most of the friends in my life are very similar to me.","filler"
"6637.525000027381","","","html-slider-response","452","2142234","0.0-24.0-0.0-0.24","5577","List1A","white","woman","","","","","","","","survey_gender","88","","","I am glad to have the friends that I have.","filler"
"3547.5100000039674","","","html-slider-response","453","2145790","0.0-24.0-0.0-0.25","5577","List1A","white","woman","","","","","","","","survey_gender","58","","","Being my gender is an important part of how I see myself.","important"
"4127.325000008568","","","html-slider-response","454","2149924","0.0-24.0-0.0-0.26","5577","List1A","white","woman","","","","","","","","survey_gender","69","","","I have a lot in common with my friends.","filler"
"5025.400000042282","","","html-slider-response","455","2154958","0.0-24.0-0.0-0.27","5577","List1A","white","woman","","","","","","","","survey_gender","61","","","The fact that I am my gender is an important part of my identity.","identity"
"5180.879999999888","","","html-slider-response","456","2160148","0.0-24.0-1.0-0.0","5577","List1A","white","woman","","","","","","","","survey_race","49","","","I feel solidarity with my race.","solidarity"
"4168.680000002496","","","html-slider-response","457","2164329","0.0-24.0-1.0-0.1","5577","List1A","white","woman","","","","","","","","survey_race","48","","","I feel a bond with my race.","bond"
"3630.9499999624677","","","html-slider-response","458","2167967","0.0-24.0-1.0-0.2","5577","List1A","white","woman","","","","","","","","survey_race","76","","","I often think about the fact that I am my age.","filler"
"3890.160000009928","","","html-slider-response","459","2171864","0.0-24.0-1.0-0.3","5577","List1A","white","woman","","","","","","","","survey_race","53","","","I feel a bond with people the same age as me.","filler"
"4054.009999963455","","","html-slider-response","460","2175925","0.0-24.0-1.0-0.4","5577","List1A","white","woman","","","","","","","","survey_race","58","","","People of my race have a lot in common with each other.","common"
"4402.630000025965","","","html-slider-response","461","2180336","0.0-24.0-1.0-0.5","5577","List1A","white","woman","","","","","","","","survey_race","35","","","I feel committed to my race.","committed"
"3229.605000000447","","","html-slider-response","462","2183577","0.0-24.0-1.0-0.6","5577","List1A","white","woman","","","","","","","","survey_race","57","","","I am glad to be the age I am.","filler"
"3815.530000021681","","","html-slider-response","463","2187400","0.0-24.0-1.0-0.7","5577","List1A","white","woman","","","","","","","","survey_race","40","","","I think that my race has a lot to be proud of.","proud"
"5207.600000023376","","","html-slider-response","464","2192613","0.0-24.0-1.0-0.8","5577","List1A","white","woman","","","","","","","","survey_race","51","","","People my age have a lot in common with each other.","filler"
"3489.560000016354","","","html-slider-response","465","2196112","0.0-24.0-1.0-0.9","5577","List1A","white","woman","","","","","","","","survey_race","29","","","I consider myself an extrovert.","filler"
"5933.9250000193715","","","html-slider-response","466","2202053","0.0-24.0-1.0-0.10","5577","List1A","white","woman","","","","","","","","survey_race","71","","","My age is not an important part of who I am.","filler"
"4519.035000004806","","","html-slider-response","467","2206579","0.0-24.0-1.0-0.11","5577","List1A","white","woman","","","","","","","","survey_race","42","","","Getting older does not worry me.","filler"
"6677.874999993946","","","html-slider-response","468","2213266","0.0-24.0-1.0-0.12","5577","List1A","white","woman","","","","","","","","survey_race","39","","","People of my race are very similar to each other.","verysimilar"
"3455.6000000447966","","","html-slider-response","469","2216731","0.0-24.0-1.0-0.13","5577","List1A","white","woman","","","","","","","","survey_race","34","","","I often think about the fact that I am my race.","often"
"5266.3099999772385","","","html-slider-response","470","2222004","0.0-24.0-1.0-0.14","5577","List1A","white","woman","","","","","","","","survey_race","42","","","I have a lot in common with the average person of my race.","average"
"3933.61999996705","","","html-slider-response","471","2225942","0.0-24.0-1.0-0.15","5577","List1A","white","woman","","","","","","","","survey_race","47","","","It is pleasant to be my race.","pleasant"
"3607.7149999910034","","","html-slider-response","472","2229558","0.0-24.0-1.0-0.16","5577","List1A","white","woman","","","","","","","","survey_race","56","","","I am glad to be my age.","filler"
"3776.934999972582","","","html-slider-response","473","2233341","0.0-24.0-1.0-0.17","5577","List1A","white","woman","","","","","","","","survey_race","53","","","I feel solidarity with people the same age as me.","filler"
"4967.800000042189","","","html-slider-response","474","2238315","0.0-24.0-1.0-0.18","5577","List1A","white","woman","","","","","","","","survey_race","79","","","I consider myself an introvert.","filler"
