"rt","stimulus","button_pressed","trial_type","trial_index","time_elapsed","internal_node_id","subject","list","ppt_race","ppt_gender","url","first_guess","correct","key_press","responses","image_type","phrase_type","test_part","response","stimulus1","stimulus2","question_type","survey_item"
"3160.89999999851","Welcome to the experiment. Press Continue to begin.","0","html-button-response","0","3165","0.0-0.0","557","List2B","black","man","","","","","","","","","","","","",""
"69181","","","external-html","1","73690","0.0-1.0","557","List2B","black","man","consent.html","","","","","","","","","","","",""
"30270.80000000447","<p>On the next page, you will see portraits of 8 people and their names.</p><p>Your first task is to take a few minutes to memorise the names of these people.</p><p>You will have to recall their names during the rest of the experiment, so it is</p><p>essential that you try to memorise these people and their names as best as you can.</p><br><p><strong>You will then be tested on your memory of these names and portraits.</strong></p><br><p>The experiment will start after you have completed this memory test.</p><br><p>Ready?</p>","0","html-button-response","2","103963","0.0-2.0","557","List2B","black","man","","","","","","","","","","","","",""
"104206.5","<img src='img/portrait_matrix_list2.jpg' style='width:900px;height:500px;''></img><p>If you have memorised all the portraits and names and are ready to start, press Continue.</p><p><strong>Please note: Your memory of these faces will be tested 4 times during this experiment.</strong></p>","0","html-button-response","3","209173","0.0-3.0-0.0","557","List2B","black","man","","","","","","","","","","","","",""
"3950.89999999851","<img src=""portrait/BW2.jpg""style=""height:400px;""></img>","2","html-button-response","4","214128","0.0-3.0-1.0","557","List2B","black","man","","true","2","","","","","","","","","",""
"null","CORRECT","","html-keyboard-response","5","215632","0.0-3.0-2.0-0.0","557","List2B","black","man","","","","null","","","","","","","","",""
"3573.89999999851","<img src=""portrait/WW1.jpg""style=""height:400px;""></img>","1","html-button-response","6","219209","0.0-3.0-4.0","557","List2B","black","man","","true","1","","","","","","","","","",""
"null","CORRECT","","html-keyboard-response","7","220715","0.0-3.0-5.0-0.0","557","List2B","black","man","","","","null","","","","","","","","",""
"2791.39999999851","<img src=""portrait/BM2.jpg""style=""height:400px;""></img>","5","html-button-response","8","223509","0.0-3.0-7.0","557","List2B","black","man","","true","5","","","","","","","","","",""
"null","CORRECT","","html-keyboard-response","9","225012","0.0-3.0-8.0-0.0","557","List2B","black","man","","","","null","","","","","","","","",""
"2068.89999999851","<img src=""portrait/BM1.jpg""style=""height:400px;""></img>","4","html-button-response","10","227083","0.0-3.0-10.0","557","List2B","black","man","","true","4","","","","","","","","","",""
"null","CORRECT","","html-keyboard-response","11","228586","0.0-3.0-11.0-0.0","557","List2B","black","man","","","","null","","","","","","","","",""
"2962.89999999851","<img src=""portrait/WM1.jpg""style=""height:400px;""></img>","6","html-button-response","12","231551","0.0-3.0-13.0","557","List2B","black","man","","true","6","","","","","","","","","",""
"null","CORRECT","","html-keyboard-response","13","233054","0.0-3.0-14.0-0.0","557","List2B","black","man","","","","null","","","","","","","","",""
"1930.2999999970198","<img src=""portrait/WW2.jpg""style=""height:400px;""></img>","3","html-button-response","14","234987","0.0-3.0-16.0","557","List2B","black","man","","true","3","","","","","","","","","",""
"null","CORRECT","","html-keyboard-response","15","236490","0.0-3.0-17.0-0.0","557","List2B","black","man","","","","null","","","","","","","","",""
"3149","<img src=""portrait/BW1.jpg""style=""height:400px;""></img>","0","html-button-response","16","239641","0.0-3.0-19.0","557","List2B","black","man","","true","0","","","","","","","","","",""
"null","CORRECT","","html-keyboard-response","17","241144","0.0-3.0-20.0-0.0","557","List2B","black","man","","","","null","","","","","","","","",""
"3416.39999999851","<img src=""portrait/WM2.jpg""style=""height:400px;""></img>","7","html-button-response","18","244562","0.0-3.0-22.0","557","List2B","black","man","","true","7","","","","","","","","","",""
"null","CORRECT","","html-keyboard-response","19","246065","0.0-3.0-23.0-0.0","557","List2B","black","man","","","","null","","","","","","","","",""
"1891.7999999970198","<p>You got 8 out of 8 right first time. Press Continue.</p>","0","html-button-response","20","247959","0.0-3.0-25.0","557","List2B","black","man","","","","","","","","","","","","",""
"26680.30000000447","<p>In this experiment, you will view photographs of the people from the memory game interacting.</p><p>By using the <strong>exact</strong> phrase given <i>after</i> the photograph appears and recalling the correct names of the people in the photographs, form a sentence describing the interaction. You do not need to capitalise names.</p><p>Type your answer in the space provided. Please complete every sentence before moving onto the next trial.</p><p>You will only have a few seconds to memorise each given photograph and phrase before you can respond, so try your best to focus.</p><p>An example is given below. Press 'Continue' when you are ready.</p><img src='img/speaking_example.jpg' style='width:800px;height:460px;''></img>","0","html-button-response","21","275644","0.0-4.0","557","List2B","black","man","","","","","","","","","","","","",""
"2522.5","<p>Before the experiment starts, you will watch two example trials. Press 'Continue'.</p>","0","html-button-response","22","279169","0.0-5.0","557","List2B","black","man","","","","","","","","","","","","",""
"null","<img src='img/play_eg.gif' style='height:400px;''></img>","","html-keyboard-response","23","282172","0.0-6.0","557","List2B","black","man","","","","null","","","","","","","","",""
"null","<p>is playing with</p>","","html-keyboard-response","24","284174","0.0-7.0","557","List2B","black","man","","","","null","","","","","","","","",""
"3196.1999999955297","<p><b>Answer:</b> jane is playing with ruth</p>","0","html-button-response","25","287372","0.0-8.0","557","List2B","black","man","","","","","","","","","","","","",""
"null","<img src='img/dance_eg.gif' style='height:400px;''></img>","","html-keyboard-response","26","290375","0.0-9.0","557","List2B","black","man","","","","null","","","","","","","","",""
"null","<p>is being entertained by</p>","","html-keyboard-response","27","292377","0.0-10.0","557","List2B","black","man","","","","null","","","","","","","","",""
"4545.10000000149","<p><b>Answer:</b> fred is being entertained by mike</p>","0","html-button-response","28","296924","0.0-11.0","557","List2B","black","man","","","","","","","","","","","","",""
"10092.5","<p>Ready to start the experiment?</p><br><p><strong>Remember to describe the picture using a full sentence,</strong></p><p><strong>that combines the names of the people with the <i>exact</i> phrase given.</strong></p><p><strong>To receive full payment you must do this correctly.</strong></p><p><strong> You do not need to capitalise names or use punctuation.</strong></p><br><p>Press 'Continue' to begin.</p>","0","html-button-response","29","308020","0.0-12.0","557","List2B","black","man","","","","","","","","","","","","",""
"null","<div style=""font-size:60px;"">+</div>","","html-keyboard-response","30","309524","0.0-13.0-0.0","557","List2B","black","man","","","","null","","","","","","","","",""
"null","<img src=""stim_listB/oppose8.gif""style=""height:400px;""></stim_listB>","","html-keyboard-response","31","311527","0.0-13.0-1.0","557","List2B","black","man","","","","null","","","","","","","","",""
"null","is being opposed by","","html-keyboard-response","32","313530","0.0-13.0-2.0","557","List2B","black","man","","","","null","","","","","","","","",""
"7932.79999999702","","","survey-text","33","321467","0.0-13.0-3.0","557","List2B","black","man","","","","","{""Q0"":""ruth is being opposed by beth""}","<img src=""stim_listB/oppose8.gif""style=""height:400px;""></stim_listB>","is being opposed by","","","","","",""
"null","<div style=""font-size:60px;"">+</div>","","html-keyboard-response","34","321971","0.0-13.0-0.1","557","List2B","black","man","","","","null","","","","","","","","",""
"null","<img src=""stim_listB/greet3.gif""style=""height:400px;""></stim_listB>","","html-keyboard-response","35","323974","0.0-13.0-1.1","557","List2B","black","man","","","","null","","","","","","","","",""
"null","is greeting","","html-keyboard-response","36","325976","0.0-13.0-2.1","557","List2B","black","man","","","","null","","","","","","","","",""
"7993.10000000149","","","survey-text","37","333974","0.0-13.0-3.1","557","List2B","black","man","","","","","{""Q0"":""mike is greeting beth""}","<img src=""stim_listB/greet3.gif""style=""height:400px;""></stim_listB>","is greeting","","","","","",""
"null","<div style=""font-size:60px;"">+</div>","","html-keyboard-response","38","334477","0.0-13.0-0.2","557","List2B","black","man","","","","null","","","","","","","","",""
"null","<img src=""stim_listB/seduce6.gif""style=""height:400px;""></stim_listB>","","html-keyboard-response","39","336480","0.0-13.0-1.2","557","List2B","black","man","","","","null","","","","","","","","",""
"null","is being seduced by","","html-keyboard-response","40","338482","0.0-13.0-2.2","557","List2B","black","man","","","","null","","","","","","","","",""
"8058.19999999553","","","survey-text","41","346547","0.0-13.0-3.2","557","List2B","black","man","","","","","{""Q0"":""dave is being seduced by fred""}","<img src=""stim_listB/seduce6.gif""style=""height:400px;""></stim_listB>","is being seduced by","","","","","",""
"null","<div style=""font-size:60px;"">+</div>","","html-keyboard-response","42","347049","0.0-13.0-0.3","557","List2B","black","man","","","","null","","","","","","","","",""
"null","<img src=""stim_listB/copy8.gif""style=""height:400px;""></stim_listB>","","html-keyboard-response","43","349051","0.0-13.0-1.3","557","List2B","black","man","","","","null","","","","","","","","",""
"null","is being copied by","","html-keyboard-response","44","351052","0.0-13.0-2.3","557","List2B","black","man","","","","null","","","","","","","","",""
"21028","","","survey-text","45","372084","0.0-13.0-3.3","557","List2B","black","man","","","","","{""Q0"":""kate is being copied by ruth""}","<img src=""stim_listB/copy8.gif""style=""height:400px;""></stim_listB>","is being copied by","","","","","",""
"null","<div style=""font-size:60px;"">+</div>","","html-keyboard-response","46","372587","0.0-13.0-0.4","557","List2B","black","man","","","","null","","","","","","","","",""
"null","<img src=""stim_listB/challenge7.gif""style=""height:400px;""></stim_listB>","","html-keyboard-response","47","374590","0.0-13.0-1.4","557","List2B","black","man","","","","null","","","","","","","","",""
"null","is challenging","","html-keyboard-response","48","376591","0.0-13.0-2.4","557","List2B","black","man","","","","null","","","","","","","","",""
"8064.60000000149","","","survey-text","49","384659","0.0-13.0-3.4","557","List2B","black","man","","","","","{""Q0"":""jane is challenging beth""}","<img src=""stim_listB/challenge7.gif""style=""height:400px;""></stim_listB>","is challenging","","","","","",""
"null","<div style=""font-size:60px;"">+</div>","","html-keyboard-response","50","385166","0.0-13.0-0.5","557","List2B","black","man","","","","null","","","","","","","","",""
"null","<img src=""stim_listB/hug1.gif""style=""height:400px;""></stim_listB>","","html-keyboard-response","51","387168","0.0-13.0-1.5","557","List2B","black","man","","","","null","","","","","","","","",""
"null","is hugging","","html-keyboard-response","52","389170","0.0-13.0-2.5","557","List2B","black","man","","","","null","","","","","","","","",""
"8673.60000000149","","","survey-text","53","397848","0.0-13.0-3.5","557","List2B","black","man","","","","","{""Q0"":""ruth is hugging luke""}","<img src=""stim_listB/hug1.gif""style=""height:400px;""></stim_listB>","is hugging","","","","","",""
"null","<div style=""font-size:60px;"">+</div>","","html-keyboard-response","54","398350","0.0-13.0-0.6","557","List2B","black","man","","","","null","","","","","","","","",""
"null","<img src=""stim_listB/oppose6.gif""style=""height:400px;""></stim_listB>","","html-keyboard-response","55","400353","0.0-13.0-1.6","557","List2B","black","man","","","","null","","","","","","","","",""
"null","is being opposed by","","html-keyboard-response","56","402355","0.0-13.0-2.6","557","List2B","black","man","","","","null","","","","","","","","",""
"8243.5","","","survey-text","57","410602","0.0-13.0-3.6","557","List2B","black","man","","","","","{""Q0"":""luke is being opposed by fred""}","<img src=""stim_listB/oppose6.gif""style=""height:400px;""></stim_listB>","is being opposed by","","","","","",""
"null","<div style=""font-size:60px;"">+</div>","","html-keyboard-response","58","411105","0.0-13.0-0.7","557","List2B","black","man","","","","null","","","","","","","","",""
"null","<img src=""stim_listB/hug6.gif""style=""height:400px;""></stim_listB>","","html-keyboard-response","59","413107","0.0-13.0-1.7","557","List2B","black","man","","","","null","","","","","","","","",""
"null","is being hugged by","","html-keyboard-response","60","415109","0.0-13.0-2.7","557","List2B","black","man","","","","null","","","","","","","","",""
"7621.4000000059605","","","survey-text","61","422737","0.0-13.0-3.7","557","List2B","black","man","","","","","{""Q0"":""mike is being hugged by dave""}","<img src=""stim_listB/hug6.gif""style=""height:400px;""></stim_listB>","is being hugged by","","","","","",""
"null","<div style=""font-size:60px;"">+</div>","","html-keyboard-response","62","423240","0.0-13.0-0.8","557","List2B","black","man","","","","null","","","","","","","","",""
"null","<img src=""stim_listB/look2.gif""style=""height:400px;""></stim_listB>","","html-keyboard-response","63","425242","0.0-13.0-1.8","557","List2B","black","man","","","","null","","","","","","","","",""
"null","is being looked at by","","html-keyboard-response","64","427244","0.0-13.0-2.8","557","List2B","black","man","","","","null","","","","","","","","",""
"15072.5","","","survey-text","65","442322","0.0-13.0-3.8","557","List2B","black","man","","","","","{""Q0"":""jane is being looked at by dave""}","<img src=""stim_listB/look2.gif""style=""height:400px;""></stim_listB>","is being looked at by","","","","","",""
"null","<div style=""font-size:60px;"">+</div>","","html-keyboard-response","66","442825","0.0-13.0-0.9","557","List2B","black","man","","","","null","","","","","","","","",""
"null","<img src=""stim_listB/challenge4.gif""style=""height:400px;""></stim_listB>","","html-keyboard-response","67","444828","0.0-13.0-1.9","557","List2B","black","man","","","","null","","","","","","","","",""
"null","is being challenged by","","html-keyboard-response","68","446838","0.0-13.0-2.9","557","List2B","black","man","","","","null","","","","","","","","",""
"8652.29999999702","","","survey-text","69","455494","0.0-13.0-3.9","557","List2B","black","man","","","","","{""Q0"":""kate is challenged by fred""}","<img src=""stim_listB/challenge4.gif""style=""height:400px;""></stim_listB>","is being challenged by","","","","","",""
"null","<div style=""font-size:60px;"">+</div>","","html-keyboard-response","70","455997","0.0-13.0-0.10","557","List2B","black","man","","","","null","","","","","","","","",""
"null","<img src=""stim_listB/copy1.gif""style=""height:400px;""></stim_listB>","","html-keyboard-response","71","458000","0.0-13.0-1.10","557","List2B","black","man","","","","null","","","","","","","","",""
"null","is copying","","html-keyboard-response","72","460002","0.0-13.0-2.10","557","List2B","black","man","","","","null","","","","","","","","",""
"9091.80000000447","","","survey-text","73","469102","0.0-13.0-3.10","557","List2B","black","man","","","","","{""Q0"":""ruth is copying dave""}","<img src=""stim_listB/copy1.gif""style=""height:400px;""></stim_listB>","is copying","","","","","",""
"null","<div style=""font-size:60px;"">+</div>","","html-keyboard-response","74","469605","0.0-13.0-0.11","557","List2B","black","man","","","","null","","","","","","","","",""
"null","<img src=""stim_listB/challenge6.gif""style=""height:400px;""></stim_listB>","","html-keyboard-response","75","471607","0.0-13.0-1.11","557","List2B","black","man","","","","null","","","","","","","","",""
"null","is being challenged by","","html-keyboard-response","76","473609","0.0-13.0-2.11","557","List2B","black","man","","","","null","","","","","","","","",""
"9142.69999999553","","","survey-text","77","482755","0.0-13.0-3.11","557","List2B","black","man","","","","","{""Q0"":""mike is being challenged by luke""}","<img src=""stim_listB/challenge6.gif""style=""height:400px;""></stim_listB>","is being challenged by","","","","","",""
"null","<div style=""font-size:60px;"">+</div>","","html-keyboard-response","78","483259","0.0-13.0-0.12","557","List2B","black","man","","","","null","","","","","","","","",""
"null","<img src=""stim_listB/oppose5.gif""style=""height:400px;""></stim_listB>","","html-keyboard-response","79","485262","0.0-13.0-1.12","557","List2B","black","man","","","","null","","","","","","","","",""
"null","is opposing","","html-keyboard-response","80","487263","0.0-13.0-2.12","557","List2B","black","man","","","","null","","","","","","","","",""
"6828","","","survey-text","81","494095","0.0-13.0-3.12","557","List2B","black","man","","","","","{""Q0"":""dave is opposing mike""}","<img src=""stim_listB/oppose5.gif""style=""height:400px;""></stim_listB>","is opposing","","","","","",""
"null","<div style=""font-size:60px;"">+</div>","","html-keyboard-response","82","494598","0.0-13.0-0.13","557","List2B","black","man","","","","null","","","","","","","","",""
"null","<img src=""stim_listB/kiss2.gif""style=""height:400px;""></stim_listB>","","html-keyboard-response","83","496601","0.0-13.0-1.13","557","List2B","black","man","","","","null","","","","","","","","",""
"null","is being kissed by","","html-keyboard-response","84","498603","0.0-13.0-2.13","557","List2B","black","man","","","","null","","","","","","","","",""
"7543.29999999702","","","survey-text","85","506152","0.0-13.0-3.13","557","List2B","black","man","","","","","{""Q0"":""jane is being kissed by dave""}","<img src=""stim_listB/kiss2.gif""style=""height:400px;""></stim_listB>","is being kissed by","","","","","",""
"null","<div style=""font-size:60px;"">+</div>","","html-keyboard-response","86","506655","0.0-13.0-0.14","557","List2B","black","man","","","","null","","","","","","","","",""
"null","<img src=""stim_listB/shout4.gif""style=""height:400px;""></stim_listB>","","html-keyboard-response","87","508658","0.0-13.0-1.14","557","List2B","black","man","","","","null","","","","","","","","",""
"null","is being shouted at by","","html-keyboard-response","88","510661","0.0-13.0-2.14","557","List2B","black","man","","","","null","","","","","","","","",""
"11797.89999999851","","","survey-text","89","522463","0.0-13.0-3.14","557","List2B","black","man","","","","","{""Q0"":""mike is being shouted at by kate""}","<img src=""stim_listB/shout4.gif""style=""height:400px;""></stim_listB>","is being shouted at by","","","","","",""
"null","<div style=""font-size:60px;"">+</div>","","html-keyboard-response","90","522969","0.0-13.0-0.15","557","List2B","black","man","","","","null","","","","","","","","",""
"null","<img src=""stim_listB/greet5.gif""style=""height:400px;""></stim_listB>","","html-keyboard-response","91","524972","0.0-13.0-1.15","557","List2B","black","man","","","","null","","","","","","","","",""
"null","is greeting","","html-keyboard-response","92","526973","0.0-13.0-2.15","557","List2B","black","man","","","","null","","","","","","","","",""
"6856.60000000149","","","survey-text","93","533834","0.0-13.0-3.15","557","List2B","black","man","","","","","{""Q0"":""fred is greeting dave""}","<img src=""stim_listB/greet5.gif""style=""height:400px;""></stim_listB>","is greeting","","","","","",""
"null","<div style=""font-size:60px;"">+</div>","","html-keyboard-response","94","534341","0.0-13.0-0.16","557","List2B","black","man","","","","null","","","","","","","","",""
"null","<img src=""stim_listB/look5.gif""style=""height:400px;""></stim_listB>","","html-keyboard-response","95","536343","0.0-13.0-1.16","557","List2B","black","man","","","","null","","","","","","","","",""
"null","is looking at","","html-keyboard-response","96","538344","0.0-13.0-2.16","557","List2B","black","man","","","","null","","","","","","","","",""
"8033.10000000149","","","survey-text","97","546380","0.0-13.0-3.16","557","List2B","black","man","","","","","{""Q0"":""luke is looking at fred""}","<img src=""stim_listB/look5.gif""style=""height:400px;""></stim_listB>","is looking at","","","","","",""
"null","<div style=""font-size:60px;"">+</div>","","html-keyboard-response","98","546883","0.0-13.0-0.17","557","List2B","black","man","","","","null","","","","","","","","",""
"null","<img src=""stim_listB/oppose4.gif""style=""height:400px;""></stim_listB>","","html-keyboard-response","99","548885","0.0-13.0-1.17","557","List2B","black","man","","","","null","","","","","","","","",""
"null","is being opposed by","","html-keyboard-response","100","550886","0.0-13.0-2.17","557","List2B","black","man","","","","null","","","","","","","","",""
"8742.69999999553","","","survey-text","101","559632","0.0-13.0-3.17","557","List2B","black","man","","","","","{""Q0"":""beth is being opposed by fred""}","<img src=""stim_listB/oppose4.gif""style=""height:400px;""></stim_listB>","is being opposed by","","","","","",""
"null","<div style=""font-size:60px;"">+</div>","","html-keyboard-response","102","560134","0.0-13.0-0.18","557","List2B","black","man","","","","null","","","","","","","","",""
"null","<img src=""stim_listB/seduce8.gif""style=""height:400px;""></stim_listB>","","html-keyboard-response","103","562136","0.0-13.0-1.18","557","List2B","black","man","","","","null","","","","","","","","",""
"null","is being seduced by","","html-keyboard-response","104","564138","0.0-13.0-2.18","557","List2B","black","man","","","","null","","","","","","","","",""
"82078.5","","","survey-text","105","646219","0.0-13.0-3.18","557","List2B","black","man","","","","","{""Q0"":""jane is being seduced by beth""}","<img src=""stim_listB/seduce8.gif""style=""height:400px;""></stim_listB>","is being seduced by","","","","","",""
"null","<div style=""font-size:60px;"">+</div>","","html-keyboard-response","106","646721","0.0-13.0-0.19","557","List2B","black","man","","","","null","","","","","","","","",""
"null","<img src=""stim_listB/look4.gif""style=""height:400px;""></stim_listB>","","html-keyboard-response","107","648724","0.0-13.0-1.19","557","List2B","black","man","","","","null","","","","","","","","",""
"null","is being looked at by","","html-keyboard-response","108","650725","0.0-13.0-2.19","557","List2B","black","man","","","","null","","","","","","","","",""
"8541.5","","","survey-text","109","659270","0.0-13.0-3.19","557","List2B","black","man","","","","","{""Q0"":""mike is being looked at by kate""}","<img src=""stim_listB/look4.gif""style=""height:400px;""></stim_listB>","is being looked at by","","","","","",""
"22008.10000000149","<img src='img/portrait_matrix_list2.jpg' style='width:900px;height:500px;''></img><p>If you have memorised all the portraits and names and are ready to start, press Continue.</p><p><strong>Please note: Your memory of these faces will be tested 4 times during this experiment.</strong></p>","0","html-button-response","110","681281","0.0-14.0-0.0","557","List2B","black","man","","","","","","","","","","","","",""
"2722.60000000149","<img src=""portrait/WW1.jpg""style=""height:400px;""></img>","1","html-button-response","111","685007","0.0-14.0-1.0","557","List2B","black","man","","true","1","","","","","","","","","",""
"null","CORRECT","","html-keyboard-response","112","686511","0.0-14.0-2.0-0.0","557","List2B","black","man","","","","null","","","","","","","","",""
"3088.4000000059605","<img src=""portrait/BW1.jpg""style=""height:400px;""></img>","0","html-button-response","113","689602","0.0-14.0-4.0","557","List2B","black","man","","true","0","","","","","","","","","",""
"null","CORRECT","","html-keyboard-response","114","691105","0.0-14.0-5.0-0.0","557","List2B","black","man","","","","null","","","","","","","","",""
"1860.8999999985099","<img src=""portrait/BM1.jpg""style=""height:400px;""></img>","4","html-button-response","115","692968","0.0-14.0-7.0","557","List2B","black","man","","true","4","","","","","","","","","",""
"null","CORRECT","","html-keyboard-response","116","694472","0.0-14.0-8.0-0.0","557","List2B","black","man","","","","null","","","","","","","","",""
"1962.7000000029802","<img src=""portrait/BM2.jpg""style=""height:400px;""></img>","5","html-button-response","117","696437","0.0-14.0-10.0","557","List2B","black","man","","true","5","","","","","","","","","",""
"null","CORRECT","","html-keyboard-response","118","697939","0.0-14.0-11.0-0.0","557","List2B","black","man","","","","null","","","","","","","","",""
"1677.1000000014901","<img src=""portrait/WM2.jpg""style=""height:400px;""></img>","7","html-button-response","119","699619","0.0-14.0-13.0","557","List2B","black","man","","true","7","","","","","","","","","",""
"null","CORRECT","","html-keyboard-response","120","701122","0.0-14.0-14.0-0.0","557","List2B","black","man","","","","null","","","","","","","","",""
"2094.8000000044703","<img src=""portrait/WM1.jpg""style=""height:400px;""></img>","6","html-button-response","121","703220","0.0-14.0-16.0","557","List2B","black","man","","true","6","","","","","","","","","",""
"null","CORRECT","","html-keyboard-response","122","704723","0.0-14.0-17.0-0.0","557","List2B","black","man","","","","null","","","","","","","","",""
"1650.5","<img src=""portrait/BW2.jpg""style=""height:400px;""></img>","2","html-button-response","123","706377","0.0-14.0-19.0","557","List2B","black","man","","true","2","","","","","","","","","",""
"null","CORRECT","","html-keyboard-response","124","707879","0.0-14.0-20.0-0.0","557","List2B","black","man","","","","null","","","","","","","","",""
"1439.8999999985099","<img src=""portrait/WW2.jpg""style=""height:400px;""></img>","3","html-button-response","125","709322","0.0-14.0-22.0","557","List2B","black","man","","true","3","","","","","","","","","",""
"null","CORRECT","","html-keyboard-response","126","710824","0.0-14.0-23.0-0.0","557","List2B","black","man","","","","null","","","","","","","","",""
"2919","<p>You got 8 out of 8 right first time. Press Continue.</p>","0","html-button-response","127","713746","0.0-14.0-25.0","557","List2B","black","man","","","","","","","","","","","","",""
"null","<div style=""font-size:60px;"">+</div>","","html-keyboard-response","128","715249","0.0-15.0-0.0","557","List2B","black","man","","","","null","","","","","","","","",""
"null","<img src=""stim_listB/seduce2.gif""style=""height:400px;""></stim_listB>","","html-keyboard-response","129","717252","0.0-15.0-1.0","557","List2B","black","man","","","","null","","","","","","","","",""
"null","is being seduced by","","html-keyboard-response","130","719254","0.0-15.0-2.0","557","List2B","black","man","","","","null","","","","","","","","",""
"9352.69999999553","","","survey-text","131","728616","0.0-15.0-3.0","557","List2B","black","man","","","","","{""Q0"":""ruth is being seduced by dave""}","<img src=""stim_listB/seduce2.gif""style=""height:400px;""></stim_listB>","is being seduced by","","","","","",""
"null","<div style=""font-size:60px;"">+</div>","","html-keyboard-response","132","729118","0.0-15.0-0.1","557","List2B","black","man","","","","null","","","","","","","","",""
"null","<img src=""stim_listB/kiss6.gif""style=""height:400px;""></stim_listB>","","html-keyboard-response","133","731121","0.0-15.0-1.1","557","List2B","black","man","","","","null","","","","","","","","",""
"null","is being kissed by","","html-keyboard-response","134","733123","0.0-15.0-2.1","557","List2B","black","man","","","","null","","","","","","","","",""
"8429.79999999702","","","survey-text","135","741559","0.0-15.0-3.1","557","List2B","black","man","","","","","{""Q0"":""mike is being kissed by dave""}","<img src=""stim_listB/kiss6.gif""style=""height:400px;""></stim_listB>","is being kissed by","","","","","",""
"null","<div style=""font-size:60px;"">+</div>","","html-keyboard-response","136","742063","0.0-15.0-0.2","557","List2B","black","man","","","","null","","","","","","","","",""
"null","<img src=""stim_listB/shout6.gif""style=""height:400px;""></stim_listB>","","html-keyboard-response","137","744065","0.0-15.0-1.2","557","List2B","black","man","","","","null","","","","","","","","",""
"null","is being shouted at by","","html-keyboard-response","138","746068","0.0-15.0-2.2","557","List2B","black","man","","","","null","","","","","","","","",""
"8755.69999999553","","","survey-text","139","754832","0.0-15.0-3.2","557","List2B","black","man","","","","","{""Q0"":""mike is being shouted at by dave""}","<img src=""stim_listB/shout6.gif""style=""height:400px;""></stim_listB>","is being shouted at by","","","","","",""
"null","<div style=""font-size:60px;"">+</div>","","html-keyboard-response","140","755335","0.0-15.0-0.3","557","List2B","black","man","","","","null","","","","","","","","",""
"null","<img src=""stim_listB/challenge1.gif""style=""height:400px;""></stim_listB>","","html-keyboard-response","141","757338","0.0-15.0-1.3","557","List2B","black","man","","","","null","","","","","","","","",""
"null","is challenging","","html-keyboard-response","142","759340","0.0-15.0-2.3","557","List2B","black","man","","","","null","","","","","","","","",""
"8945.40000000596","","","survey-text","143","768289","0.0-15.0-3.3","557","List2B","black","man","","","","","{""Q0"":""ruth is challenging dave""}","<img src=""stim_listB/challenge1.gif""style=""height:400px;""></stim_listB>","is challenging","","","","","",""
"null","<div style=""font-size:60px;"">+</div>","","html-keyboard-response","144","768792","0.0-15.0-0.4","557","List2B","black","man","","","","null","","","","","","","","",""
"null","<img src=""stim_listB/shout2.gif""style=""height:400px;""></stim_listB>","","html-keyboard-response","145","770795","0.0-15.0-1.4","557","List2B","black","man","","","","null","","","","","","","","",""
"null","is being shouted at by","","html-keyboard-response","146","772797","0.0-15.0-2.4","557","List2B","black","man","","","","null","","","","","","","","",""
"12204.70000000298","","","survey-text","147","785006","0.0-15.0-3.4","557","List2B","black","man","","","","","{""Q0"":""dave is being shouted at by jane""}","<img src=""stim_listB/shout2.gif""style=""height:400px;""></stim_listB>","is being shouted at by","","","","","",""
"null","<div style=""font-size:60px;"">+</div>","","html-keyboard-response","148","785509","0.0-15.0-0.5","557","List2B","black","man","","","","null","","","","","","","","",""
"null","<img src=""stim_listB/copy6.gif""style=""height:400px;""></stim_listB>","","html-keyboard-response","149","787512","0.0-15.0-1.5","557","List2B","black","man","","","","null","","","","","","","","",""
"null","is being copied by","","html-keyboard-response","150","789514","0.0-15.0-2.5","557","List2B","black","man","","","","null","","","","","","","","",""
"8703.5","","","survey-text","151","798221","0.0-15.0-3.5","557","List2B","black","man","","","","","{""Q0"":""mike is being copied by luke""}","<img src=""stim_listB/copy6.gif""style=""height:400px;""></stim_listB>","is being copied by","","","","","",""
"null","<div style=""font-size:60px;"">+</div>","","html-keyboard-response","152","798724","0.0-15.0-0.6","557","List2B","black","man","","","","null","","","","","","","","",""
"null","<img src=""stim_listB/look3.gif""style=""height:400px;""></stim_listB>","","html-keyboard-response","153","800727","0.0-15.0-1.6","557","List2B","black","man","","","","null","","","","","","","","",""
"null","is looking at","","html-keyboard-response","154","802730","0.0-15.0-2.6","557","List2B","black","man","","","","null","","","","","","","","",""
"6283.70000000298","","","survey-text","155","809017","0.0-15.0-3.6","557","List2B","black","man","","","","","{""Q0"":""beth is looking at fred""}","<img src=""stim_listB/look3.gif""style=""height:400px;""></stim_listB>","is looking at","","","","","",""
"null","<div style=""font-size:60px;"">+</div>","","html-keyboard-response","156","809519","0.0-15.0-0.7","557","List2B","black","man","","","","null","","","","","","","","",""
"null","<img src=""stim_listB/touch1.gif""style=""height:400px;""></stim_listB>","","html-keyboard-response","157","811522","0.0-15.0-1.7","557","List2B","black","man","","","","null","","","","","","","","",""
"null","is touching","","html-keyboard-response","158","813523","0.0-15.0-2.7","557","List2B","black","man","","","","null","","","","","","","","",""
"7694.89999999851","","","survey-text","159","821220","0.0-15.0-3.7","557","List2B","black","man","","","","","{""Q0"":""jane is touching dave""}","<img src=""stim_listB/touch1.gif""style=""height:400px;""></stim_listB>","is touching","","","","","",""
"null","<div style=""font-size:60px;"">+</div>","","html-keyboard-response","160","821727","0.0-15.0-0.8","557","List2B","black","man","","","","null","","","","","","","","",""
"null","<img src=""stim_listB/shout8.gif""style=""height:400px;""></stim_listB>","","html-keyboard-response","161","823730","0.0-15.0-1.8","557","List2B","black","man","","","","null","","","","","","","","",""
"null","is being shouted at by","","html-keyboard-response","162","825731","0.0-15.0-2.8","557","List2B","black","man","","","","null","","","","","","","","",""
"9402.60000000149","","","survey-text","163","835137","0.0-15.0-3.8","557","List2B","black","man","","","","","{""Q0"":""jane is being shouted at by kate""}","<img src=""stim_listB/shout8.gif""style=""height:400px;""></stim_listB>","is being shouted at by","","","","","",""
"null","<div style=""font-size:60px;"">+</div>","","html-keyboard-response","164","835639","0.0-15.0-0.9","557","List2B","black","man","","","","null","","","","","","","","",""
"null","<img src=""stim_listB/touch6.gif""style=""height:400px;""></stim_listB>","","html-keyboard-response","165","837642","0.0-15.0-1.9","557","List2B","black","man","","","","null","","","","","","","","",""
"null","is being touched by","","html-keyboard-response","166","839643","0.0-15.0-2.9","557","List2B","black","man","","","","null","","","","","","","","",""
"7141.5","","","survey-text","167","846788","0.0-15.0-3.9","557","List2B","black","man","","","","","{""Q0"":""luke is being touched by fred""}","<img src=""stim_listB/touch6.gif""style=""height:400px;""></stim_listB>","is being touched by","","","","","",""
"null","<div style=""font-size:60px;"">+</div>","","html-keyboard-response","168","847291","0.0-15.0-0.10","557","List2B","black","man","","","","null","","","","","","","","",""
"null","<img src=""stim_listB/look8.gif""style=""height:400px;""></stim_listB>","","html-keyboard-response","169","849293","0.0-15.0-1.10","557","List2B","black","man","","","","null","","","","","","","","",""
"null","is being looked at by","","html-keyboard-response","170","851295","0.0-15.0-2.10","557","List2B","black","man","","","","null","","","","","","","","",""
"10721.89999999851","","","survey-text","171","862020","0.0-15.0-3.10","557","List2B","black","man","","","","","{""Q0"":""jane is being looked at by kate""}","<img src=""stim_listB/look8.gif""style=""height:400px;""></stim_listB>","is being looked at by","","","","","",""
"null","<div style=""font-size:60px;"">+</div>","","html-keyboard-response","172","862522","0.0-15.0-0.11","557","List2B","black","man","","","","null","","","","","","","","",""
"null","<img src=""stim_listB/copy4.gif""style=""height:400px;""></stim_listB>","","html-keyboard-response","173","864524","0.0-15.0-1.11","557","List2B","black","man","","","","null","","","","","","","","",""
"null","is being copied by","","html-keyboard-response","174","866526","0.0-15.0-2.11","557","List2B","black","man","","","","null","","","","","","","","",""
"11503.79999999702","","","survey-text","175","878034","0.0-15.0-3.11","557","List2B","black","man","","","","","{""Q0"":""fred is being copied by kate""}","<img src=""stim_listB/copy4.gif""style=""height:400px;""></stim_listB>","is being copied by","","","","","",""
"null","<div style=""font-size:60px;"">+</div>","","html-keyboard-response","176","878537","0.0-15.0-0.12","557","List2B","black","man","","","","null","","","","","","","","",""
"null","<img src=""stim_listB/greet7.gif""style=""height:400px;""></stim_listB>","","html-keyboard-response","177","880539","0.0-15.0-1.12","557","List2B","black","man","","","","null","","","","","","","","",""
"null","is greeting","","html-keyboard-response","178","882541","0.0-15.0-2.12","557","List2B","black","man","","","","null","","","","","","","","",""
"6466","","","survey-text","179","889010","0.0-15.0-3.12","557","List2B","black","man","","","","","{""Q0"":""beth is greeting jane""}","<img src=""stim_listB/greet7.gif""style=""height:400px;""></stim_listB>","is greeting","","","","","",""
"null","<div style=""font-size:60px;"">+</div>","","html-keyboard-response","180","889513","0.0-15.0-0.13","557","List2B","black","man","","","","null","","","","","","","","",""
"null","<img src=""stim_listB/oppose2.gif""style=""height:400px;""></stim_listB>","","html-keyboard-response","181","891515","0.0-15.0-1.13","557","List2B","black","man","","","","null","","","","","","","","",""
"null","is being opposed by","","html-keyboard-response","182","893517","0.0-15.0-2.13","557","List2B","black","man","","","","null","","","","","","","","",""
"9996.59999999404","","","survey-text","183","903517","0.0-15.0-3.13","557","List2B","black","man","","","","","{""Q0"":""ruth is being opposed by luke""}","<img src=""stim_listB/oppose2.gif""style=""height:400px;""></stim_listB>","is being opposed by","","","","","",""
"null","<div style=""font-size:60px;"">+</div>","","html-keyboard-response","184","904025","0.0-15.0-0.14","557","List2B","black","man","","","","null","","","","","","","","",""
"null","<img src=""stim_listB/touch5.gif""style=""height:400px;""></stim_listB>","","html-keyboard-response","185","906028","0.0-15.0-1.14","557","List2B","black","man","","","","null","","","","","","","","",""
"null","is touching","","html-keyboard-response","186","908029","0.0-15.0-2.14","557","List2B","black","man","","","","null","","","","","","","","",""
"9857.39999999851","","","survey-text","187","917891","0.0-15.0-3.14","557","List2B","black","man","","","","","{""Q0"":""mike is touching dave""}","<img src=""stim_listB/touch5.gif""style=""height:400px;""></stim_listB>","is touching","","","","","",""
"null","<div style=""font-size:60px;"">+</div>","","html-keyboard-response","188","918394","0.0-15.0-0.15","557","List2B","black","man","","","","null","","","","","","","","",""
"null","<img src=""stim_listB/hug5.gif""style=""height:400px;""></stim_listB>","","html-keyboard-response","189","920397","0.0-15.0-1.15","557","List2B","black","man","","","","null","","","","","","","","",""
"null","is hugging","","html-keyboard-response","190","922398","0.0-15.0-2.15","557","List2B","black","man","","","","null","","","","","","","","",""
"11545.80000000447","","","survey-text","191","933948","0.0-15.0-3.15","557","List2B","black","man","","","","","{""Q0"":""fred is hugging luke""}","<img src=""stim_listB/hug5.gif""style=""height:400px;""></stim_listB>","is hugging","","","","","",""
"null","<div style=""font-size:60px;"">+</div>","","html-keyboard-response","192","934450","0.0-15.0-0.16","557","List2B","black","man","","","","null","","","","","","","","",""
"null","<img src=""stim_listB/copy2.gif""style=""height:400px;""></stim_listB>","","html-keyboard-response","193","936453","0.0-15.0-1.16","557","List2B","black","man","","","","null","","","","","","","","",""
"null","is being copied by","","html-keyboard-response","194","938455","0.0-15.0-2.16","557","List2B","black","man","","","","null","","","","","","","","",""
"69589.60000000149","","","survey-text","195","1008048","0.0-15.0-3.16","557","List2B","black","man","","","","","{""Q0"":""luke is being copied by jane""}","<img src=""stim_listB/copy2.gif""style=""height:400px;""></stim_listB>","is being copied by","","","","","",""
"null","<div style=""font-size:60px;"">+</div>","","html-keyboard-response","196","1008551","0.0-15.0-0.17","557","List2B","black","man","","","","null","","","","","","","","",""
"null","<img src=""stim_listB/seduce1.gif""style=""height:400px;""></stim_listB>","","html-keyboard-response","197","1010554","0.0-15.0-1.17","557","List2B","black","man","","","","null","","","","","","","","",""
"null","is seducing","","html-keyboard-response","198","1012556","0.0-15.0-2.17","557","List2B","black","man","","","","null","","","","","","","","",""
"8537.40000000596","","","survey-text","199","1021097","0.0-15.0-3.17","557","List2B","black","man","","","","","{""Q0"":""jane is seducing luke""}","<img src=""stim_listB/seduce1.gif""style=""height:400px;""></stim_listB>","is seducing","","","","","",""
"null","<div style=""font-size:60px;"">+</div>","","html-keyboard-response","200","1021600","0.0-15.0-0.18","557","List2B","black","man","","","","null","","","","","","","","",""
"null","<img src=""stim_listB/greet4.gif""style=""height:400px;""></stim_listB>","","html-keyboard-response","201","1023603","0.0-15.0-1.18","557","List2B","black","man","","","","null","","","","","","","","",""
"null","is being greeted by","","html-keyboard-response","202","1025605","0.0-15.0-2.18","557","List2B","black","man","","","","null","","","","","","","","",""
"10077.5","","","survey-text","203","1035692","0.0-15.0-3.18","557","List2B","black","man","","","","","{""Q0"":""fred is being greeted by kate""}","<img src=""stim_listB/greet4.gif""style=""height:400px;""></stim_listB>","is being greeted by","","","","","",""
"null","<div style=""font-size:60px;"">+</div>","","html-keyboard-response","204","1036195","0.0-15.0-0.19","557","List2B","black","man","","","","null","","","","","","","","",""
"null","<img src=""stim_listB/hug3.gif""style=""height:400px;""></stim_listB>","","html-keyboard-response","205","1038198","0.0-15.0-1.19","557","List2B","black","man","","","","null","","","","","","","","",""
"null","is hugging","","html-keyboard-response","206","1040200","0.0-15.0-2.19","557","List2B","black","man","","","","null","","","","","","","","",""
"6354.5","","","survey-text","207","1046563","0.0-15.0-3.19","557","List2B","black","man","","","","","{""Q0"":""fred is hugging beth""}","<img src=""stim_listB/hug3.gif""style=""height:400px;""></stim_listB>","is hugging","","","","","",""
"16064.29999999702","<img src='img/portrait_matrix_list2.jpg' style='width:900px;height:500px;''></img><p>If you have memorised all the portraits and names and are ready to start, press Continue.</p><p><strong>Please note: Your memory of these faces will be tested 4 times during this experiment.</strong></p>","0","html-button-response","208","1062631","0.0-16.0-0.0","557","List2B","black","man","","","","","","","","","","","","",""
"2053.5","<img src=""portrait/BW1.jpg""style=""height:400px;""></img>","0","html-button-response","209","1065689","0.0-16.0-1.0","557","List2B","black","man","","true","0","","","","","","","","","",""
"null","CORRECT","","html-keyboard-response","210","1067193","0.0-16.0-2.0-0.0","557","List2B","black","man","","","","null","","","","","","","","",""
"1592.8000000044703","<img src=""portrait/BM1.jpg""style=""height:400px;""></img>","4","html-button-response","211","1068788","0.0-16.0-4.0","557","List2B","black","man","","true","4","","","","","","","","","",""
"null","CORRECT","","html-keyboard-response","212","1070291","0.0-16.0-5.0-0.0","557","List2B","black","man","","","","null","","","","","","","","",""
"1560.1999999955297","<img src=""portrait/WW1.jpg""style=""height:400px;""></img>","1","html-button-response","213","1071854","0.0-16.0-7.0","557","List2B","black","man","","true","1","","","","","","","","","",""
"null","CORRECT","","html-keyboard-response","214","1073358","0.0-16.0-8.0-0.0","557","List2B","black","man","","","","null","","","","","","","","",""
"1942.3999999985099","<img src=""portrait/WM1.jpg""style=""height:400px;""></img>","6","html-button-response","215","1075303","0.0-16.0-10.0","557","List2B","black","man","","true","6","","","","","","","","","",""
"null","CORRECT","","html-keyboard-response","216","1076808","0.0-16.0-11.0-0.0","557","List2B","black","man","","","","null","","","","","","","","",""
"1236.2000000029802","<img src=""portrait/WM2.jpg""style=""height:400px;""></img>","7","html-button-response","217","1078047","0.0-16.0-13.0","557","List2B","black","man","","true","7","","","","","","","","","",""
"null","CORRECT","","html-keyboard-response","218","1079551","0.0-16.0-14.0-0.0","557","List2B","black","man","","","","null","","","","","","","","",""
"2099.7000000029802","<img src=""portrait/BM2.jpg""style=""height:400px;""></img>","5","html-button-response","219","1081653","0.0-16.0-16.0","557","List2B","black","man","","true","5","","","","","","","","","",""
"null","CORRECT","","html-keyboard-response","220","1083156","0.0-16.0-17.0-0.0","557","List2B","black","man","","","","null","","","","","","","","",""
"1451.1000000014901","<img src=""portrait/WW2.jpg""style=""height:400px;""></img>","3","html-button-response","221","1084610","0.0-16.0-19.0","557","List2B","black","man","","true","3","","","","","","","","","",""
"null","CORRECT","","html-keyboard-response","222","1086114","0.0-16.0-20.0-0.0","557","List2B","black","man","","","","null","","","","","","","","",""
"1776.7000000029802","<img src=""portrait/BW2.jpg""style=""height:400px;""></img>","2","html-button-response","223","1087893","0.0-16.0-22.0","557","List2B","black","man","","true","2","","","","","","","","","",""
"null","CORRECT","","html-keyboard-response","224","1089397","0.0-16.0-23.0-0.0","557","List2B","black","man","","","","null","","","","","","","","",""
"1995.1000000014901","<p>You got 8 out of 8 right first time. Press Continue.</p>","0","html-button-response","225","1091395","0.0-16.0-25.0","557","List2B","black","man","","","","","","","","","","","","",""
"null","<div style=""font-size:60px;"">+</div>","","html-keyboard-response","226","1092899","0.0-17.0-0.0","557","List2B","black","man","","","","null","","","","","","","","",""
"null","<img src=""stim_listB/challenge5.gif""style=""height:400px;""></stim_listB>","","html-keyboard-response","227","1094902","0.0-17.0-1.0","557","List2B","black","man","","","","null","","","","","","","","",""
"null","is challenging","","html-keyboard-response","228","1096906","0.0-17.0-2.0","557","List2B","black","man","","","","null","","","","","","","","",""
"6912.10000000149","","","survey-text","229","1103823","0.0-17.0-3.0","557","List2B","black","man","","","","","{""Q0"":""dave is challenging fred""}","<img src=""stim_listB/challenge5.gif""style=""height:400px;""></stim_listB>","is challenging","","","","","",""
"null","<div style=""font-size:60px;"">+</div>","","html-keyboard-response","230","1104325","0.0-17.0-0.1","557","List2B","black","man","","","","null","","","","","","","","",""
"null","<img src=""stim_listB/touch4.gif""style=""height:400px;""></stim_listB>","","html-keyboard-response","231","1106328","0.0-17.0-1.1","557","List2B","black","man","","","","null","","","","","","","","",""
"null","is being touched by","","html-keyboard-response","232","1108329","0.0-17.0-2.1","557","List2B","black","man","","","","null","","","","","","","","",""
"7869.19999999553","","","survey-text","233","1116201","0.0-17.0-3.1","557","List2B","black","man","","","","","{""Q0"":""fred is being touched by beth""}","<img src=""stim_listB/touch4.gif""style=""height:400px;""></stim_listB>","is being touched by","","","","","",""
"null","<div style=""font-size:60px;"">+</div>","","html-keyboard-response","234","1116703","0.0-17.0-0.2","557","List2B","black","man","","","","null","","","","","","","","",""
"null","<img src=""stim_listB/oppose1.gif""style=""height:400px;""></stim_listB>","","html-keyboard-response","235","1118706","0.0-17.0-1.2","557","List2B","black","man","","","","null","","","","","","","","",""
"null","is opposing","","html-keyboard-response","236","1120708","0.0-17.0-2.2","557","List2B","black","man","","","","null","","","","","","","","",""
"6428.9000000059605","","","survey-text","237","1127140","0.0-17.0-3.2","557","List2B","black","man","","","","","{""Q0"":""jane is opposing dave""}","<img src=""stim_listB/oppose1.gif""style=""height:400px;""></stim_listB>","is opposing","","","","","",""
"null","<div style=""font-size:60px;"">+</div>","","html-keyboard-response","238","1127642","0.0-17.0-0.3","557","List2B","black","man","","","","null","","","","","","","","",""
"null","<img src=""stim_listB/copy3.gif""style=""height:400px;""></stim_listB>","","html-keyboard-response","239","1129644","0.0-17.0-1.3","557","List2B","black","man","","","","null","","","","","","","","",""
"null","is copying","","html-keyboard-response","240","1131646","0.0-17.0-2.3","557","List2B","black","man","","","","null","","","","","","","","",""
"6485.70000000298","","","survey-text","241","1138134","0.0-17.0-3.3","557","List2B","black","man","","","","","{""Q0"":""beth is copying mike""}","<img src=""stim_listB/copy3.gif""style=""height:400px;""></stim_listB>","is copying","","","","","",""
"null","<div style=""font-size:60px;"">+</div>","","html-keyboard-response","242","1138637","0.0-17.0-0.4","557","List2B","black","man","","","","null","","","","","","","","",""
"null","<img src=""stim_listB/shout5.gif""style=""height:400px;""></stim_listB>","","html-keyboard-response","243","1140639","0.0-17.0-1.4","557","List2B","black","man","","","","null","","","","","","","","",""
"null","is shouting at","","html-keyboard-response","244","1142641","0.0-17.0-2.4","557","List2B","black","man","","","","null","","","","","","","","",""
"7594.70000000298","","","survey-text","245","1150238","0.0-17.0-3.4","557","List2B","black","man","","","","","{""Q0"":""fred is shouting at luke""}","<img src=""stim_listB/shout5.gif""style=""height:400px;""></stim_listB>","is shouting at","","","","","",""
"null","<div style=""font-size:60px;"">+</div>","","html-keyboard-response","246","1150740","0.0-17.0-0.5","557","List2B","black","man","","","","null","","","","","","","","",""
"null","<img src=""stim_listB/greet8.gif""style=""height:400px;""></stim_listB>","","html-keyboard-response","247","1152743","0.0-17.0-1.5","557","List2B","black","man","","","","null","","","","","","","","",""
"null","is being greeted by","","html-keyboard-response","248","1154744","0.0-17.0-2.5","557","List2B","black","man","","","","null","","","","","","","","",""
"11182.39999999851","","","survey-text","249","1165934","0.0-17.0-3.5","557","List2B","black","man","","","","","{""Q0"":""ruth is being greeted by kate""}","<img src=""stim_listB/greet8.gif""style=""height:400px;""></stim_listB>","is being greeted by","","","","","",""
"null","<div style=""font-size:60px;"">+</div>","","html-keyboard-response","250","1166437","0.0-17.0-0.6","557","List2B","black","man","","","","null","","","","","","","","",""
"null","<img src=""stim_listB/look1.gif""style=""height:400px;""></stim_listB>","","html-keyboard-response","251","1168439","0.0-17.0-1.6","557","List2B","black","man","","","","null","","","","","","","","",""
"null","is looking at","","html-keyboard-response","252","1170440","0.0-17.0-2.6","557","List2B","black","man","","","","null","","","","","","","","",""
"7277.80000000447","","","survey-text","253","1177721","0.0-17.0-3.6","557","List2B","black","man","","","","","{""Q0"":""ruth is looking at luke""}","<img src=""stim_listB/look1.gif""style=""height:400px;""></stim_listB>","is looking at","","","","","",""
"null","<div style=""font-size:60px;"">+</div>","","html-keyboard-response","254","1178224","0.0-17.0-0.7","557","List2B","black","man","","","","null","","","","","","","","",""
"null","<img src=""stim_listB/seduce5.gif""style=""height:400px;""></stim_listB>","","html-keyboard-response","255","1180226","0.0-17.0-1.7","557","List2B","black","man","","","","null","","","","","","","","",""
"null","is seducing","","html-keyboard-response","256","1182228","0.0-17.0-2.7","557","List2B","black","man","","","","null","","","","","","","","",""
"7363.10000000149","","","survey-text","257","1189595","0.0-17.0-3.7","557","List2B","black","man","","","","","{""Q0"":""mike is seducing luke""}","<img src=""stim_listB/seduce5.gif""style=""height:400px;""></stim_listB>","is seducing","","","","","",""
"null","<div style=""font-size:60px;"">+</div>","","html-keyboard-response","258","1190097","0.0-17.0-0.8","557","List2B","black","man","","","","null","","","","","","","","",""
"null","<img src=""stim_listB/greet2.gif""style=""height:400px;""></stim_listB>","","html-keyboard-response","259","1192100","0.0-17.0-1.8","557","List2B","black","man","","","","null","","","","","","","","",""
"null","is being greeted by","","html-keyboard-response","260","1194101","0.0-17.0-2.8","557","List2B","black","man","","","","null","","","","","","","","",""
"18448.79999999702","","","survey-text","261","1212553","0.0-17.0-3.8","557","List2B","black","man","","","","","{""Q0"":""jane is beeing greeted by luke""}","<img src=""stim_listB/greet2.gif""style=""height:400px;""></stim_listB>","is being greeted by","","","","","",""
"null","<div style=""font-size:60px;"">+</div>","","html-keyboard-response","262","1213058","0.0-17.0-0.9","557","List2B","black","man","","","","null","","","","","","","","",""
"null","<img src=""stim_listB/touch2.gif""style=""height:400px;""></stim_listB>","","html-keyboard-response","263","1215060","0.0-17.0-1.9","557","List2B","black","man","","","","null","","","","","","","","",""
"null","is being touched by","","html-keyboard-response","264","1217062","0.0-17.0-2.9","557","List2B","black","man","","","","null","","","","","","","","",""
"12461.89999999851","","","survey-text","265","1229527","0.0-17.0-3.9","557","List2B","black","man","","","","","{""Q0"":""luke is being touched by ruth""}","<img src=""stim_listB/touch2.gif""style=""height:400px;""></stim_listB>","is being touched by","","","","","",""
"null","<div style=""font-size:60px;"">+</div>","","html-keyboard-response","266","1230030","0.0-17.0-0.10","557","List2B","black","man","","","","null","","","","","","","","",""
"null","<img src=""stim_listB/kiss1.gif""style=""height:400px;""></stim_listB>","","html-keyboard-response","267","1232033","0.0-17.0-1.10","557","List2B","black","man","","","","null","","","","","","","","",""
"null","is kissing","","html-keyboard-response","268","1234035","0.0-17.0-2.10","557","List2B","black","man","","","","null","","","","","","","","",""
"9220.09999999404","","","survey-text","269","1243258","0.0-17.0-3.10","557","List2B","black","man","","","","","{""Q0"":""luke is kissing ruth""}","<img src=""stim_listB/kiss1.gif""style=""height:400px;""></stim_listB>","is kissing","","","","","",""
"null","<div style=""font-size:60px;"">+</div>","","html-keyboard-response","270","1243761","0.0-17.0-0.11","557","List2B","black","man","","","","null","","","","","","","","",""
"null","<img src=""stim_listB/look7.gif""style=""height:400px;""></stim_listB>","","html-keyboard-response","271","1245763","0.0-17.0-1.11","557","List2B","black","man","","","","null","","","","","","","","",""
"null","is looking at","","html-keyboard-response","272","1247765","0.0-17.0-2.11","557","List2B","black","man","","","","null","","","","","","","","",""
"8942.89999999851","","","survey-text","273","1256712","0.0-17.0-3.11","557","List2B","black","man","","","","","{""Q0"":""beth is looking at ruth""}","<img src=""stim_listB/look7.gif""style=""height:400px;""></stim_listB>","is looking at","","","","","",""
"null","<div style=""font-size:60px;"">+</div>","","html-keyboard-response","274","1257219","0.0-17.0-0.12","557","List2B","black","man","","","","null","","","","","","","","",""
"null","<img src=""stim_listB/look6.gif""style=""height:400px;""></stim_listB>","","html-keyboard-response","275","1259221","0.0-17.0-1.12","557","List2B","black","man","","","","null","","","","","","","","",""
"null","is being looked at by","","html-keyboard-response","276","1261223","0.0-17.0-2.12","557","List2B","black","man","","","","null","","","","","","","","",""
"9104.19999999553","","","survey-text","277","1270331","0.0-17.0-3.12","557","List2B","black","man","","","","","{""Q0"":""dave is being looked at by mike""}","<img src=""stim_listB/look6.gif""style=""height:400px;""></stim_listB>","is being looked at by","","","","","",""
"null","<div style=""font-size:60px;"">+</div>","","html-keyboard-response","278","1270834","0.0-17.0-0.13","557","List2B","black","man","","","","null","","","","","","","","",""
"null","<img src=""stim_listB/oppose3.gif""style=""height:400px;""></stim_listB>","","html-keyboard-response","279","1272837","0.0-17.0-1.13","557","List2B","black","man","","","","null","","","","","","","","",""
"null","is opposing","","html-keyboard-response","280","1274839","0.0-17.0-2.13","557","List2B","black","man","","","","null","","","","","","","","",""
"6782.29999999702","","","survey-text","281","1281625","0.0-17.0-3.13","557","List2B","black","man","","","","","{""Q0"":""kate is opposing mike""}","<img src=""stim_listB/oppose3.gif""style=""height:400px;""></stim_listB>","is opposing","","","","","",""
"null","<div style=""font-size:60px;"">+</div>","","html-keyboard-response","282","1282128","0.0-17.0-0.14","557","List2B","black","man","","","","null","","","","","","","","",""
"null","<img src=""stim_listB/challenge2.gif""style=""height:400px;""></stim_listB>","","html-keyboard-response","283","1284130","0.0-17.0-1.14","557","List2B","black","man","","","","null","","","","","","","","",""
"null","is being challenged by","","html-keyboard-response","284","1286132","0.0-17.0-2.14","557","List2B","black","man","","","","null","","","","","","","","",""
"8309.5","","","survey-text","285","1294447","0.0-17.0-3.14","557","List2B","black","man","","","","","{""Q0"":""jane is being challenged by luke""}","<img src=""stim_listB/challenge2.gif""style=""height:400px;""></stim_listB>","is being challenged by","","","","","",""
"null","<div style=""font-size:60px;"">+</div>","","html-keyboard-response","286","1294950","0.0-17.0-0.15","557","List2B","black","man","","","","null","","","","","","","","",""
"null","<img src=""stim_listB/touch8.gif""style=""height:400px;""></stim_listB>","","html-keyboard-response","287","1296952","0.0-17.0-1.15","557","List2B","black","man","","","","null","","","","","","","","",""
"null","is being touched by","","html-keyboard-response","288","1298955","0.0-17.0-2.15","557","List2B","black","man","","","","null","","","","","","","","",""
"7969.39999999851","","","survey-text","289","1306929","0.0-17.0-3.15","557","List2B","black","man","","","","","{""Q0"":""beth is being touched by ruth""}","<img src=""stim_listB/touch8.gif""style=""height:400px;""></stim_listB>","is being touched by","","","","","",""
"null","<div style=""font-size:60px;"">+</div>","","html-keyboard-response","290","1307432","0.0-17.0-0.16","557","List2B","black","man","","","","null","","","","","","","","",""
"null","<img src=""stim_listB/copy7.gif""style=""height:400px;""></stim_listB>","","html-keyboard-response","291","1309434","0.0-17.0-1.16","557","List2B","black","man","","","","null","","","","","","","","",""
"null","is copying","","html-keyboard-response","292","1311436","0.0-17.0-2.16","557","List2B","black","man","","","","null","","","","","","","","",""
"6360.0999999940395","","","survey-text","293","1317800","0.0-17.0-3.16","557","List2B","black","man","","","","","{""Q0"":""jane is copying beth""}","<img src=""stim_listB/copy7.gif""style=""height:400px;""></stim_listB>","is copying","","","","","",""
"null","<div style=""font-size:60px;"">+</div>","","html-keyboard-response","294","1318302","0.0-17.0-0.17","557","List2B","black","man","","","","null","","","","","","","","",""
"null","<img src=""stim_listB/seduce3.gif""style=""height:400px;""></stim_listB>","","html-keyboard-response","295","1320305","0.0-17.0-1.17","557","List2B","black","man","","","","null","","","","","","","","",""
"null","is seducing","","html-keyboard-response","296","1322307","0.0-17.0-2.17","557","List2B","black","man","","","","null","","","","","","","","",""
"6671.5","","","survey-text","297","1328983","0.0-17.0-3.17","557","List2B","black","man","","","","","{""Q0"":""kate is seducing fred""}","<img src=""stim_listB/seduce3.gif""style=""height:400px;""></stim_listB>","is seducing","","","","","",""
"null","<div style=""font-size:60px;"">+</div>","","html-keyboard-response","298","1329486","0.0-17.0-0.18","557","List2B","black","man","","","","null","","","","","","","","",""
"null","<img src=""stim_listB/kiss3.gif""style=""height:400px;""></stim_listB>","","html-keyboard-response","299","1331489","0.0-17.0-1.18","557","List2B","black","man","","","","null","","","","","","","","",""
"null","is kissing","","html-keyboard-response","300","1333491","0.0-17.0-2.18","557","List2B","black","man","","","","null","","","","","","","","",""
"5672","","","survey-text","301","1339171","0.0-17.0-3.18","557","List2B","black","man","","","","","{""Q0"":""fred is kissing beth""}","<img src=""stim_listB/kiss3.gif""style=""height:400px;""></stim_listB>","is kissing","","","","","",""
"null","<div style=""font-size:60px;"">+</div>","","html-keyboard-response","302","1339674","0.0-17.0-0.19","557","List2B","black","man","","","","null","","","","","","","","",""
"null","<img src=""stim_listB/copy5.gif""style=""height:400px;""></stim_listB>","","html-keyboard-response","303","1341677","0.0-17.0-1.19","557","List2B","black","man","","","","null","","","","","","","","",""
"null","is copying","","html-keyboard-response","304","1343679","0.0-17.0-2.19","557","List2B","black","man","","","","null","","","","","","","","",""
"6516.29999999702","","","survey-text","305","1350201","0.0-17.0-3.19","557","List2B","black","man","","","","","{""Q0"":""fred is copying dave""}","<img src=""stim_listB/copy5.gif""style=""height:400px;""></stim_listB>","is copying","","","","","",""
"8470.19999999553","<img src='img/portrait_matrix_list2.jpg' style='width:900px;height:500px;''></img><p>If you have memorised all the portraits and names and are ready to start, press Continue.</p><p><strong>Please note: Your memory of these faces will be tested 4 times during this experiment.</strong></p>","0","html-button-response","306","1358675","0.0-18.0-0.0","557","List2B","black","man","","","","","","","","","","","","",""
"1717.1999999955297","<img src=""portrait/BW2.jpg""style=""height:400px;""></img>","2","html-button-response","307","1361397","0.0-18.0-1.0","557","List2B","black","man","","true","2","","","","","","","","","",""
"null","CORRECT","","html-keyboard-response","308","1362900","0.0-18.0-2.0-0.0","557","List2B","black","man","","","","null","","","","","","","","",""
"2866.3000000044703","<img src=""portrait/WW1.jpg""style=""height:400px;""></img>","1","html-button-response","309","1365770","0.0-18.0-4.0","557","List2B","black","man","","true","1","","","","","","","","","",""
"null","CORRECT","","html-keyboard-response","310","1367273","0.0-18.0-5.0-0.0","557","List2B","black","man","","","","null","","","","","","","","",""
"1832.1000000014901","<img src=""portrait/BM2.jpg""style=""height:400px;""></img>","5","html-button-response","311","1369108","0.0-18.0-7.0","557","List2B","black","man","","true","5","","","","","","","","","",""
"null","CORRECT","","html-keyboard-response","312","1370612","0.0-18.0-8.0-0.0","557","List2B","black","man","","","","null","","","","","","","","",""
"1250.3000000044703","<img src=""portrait/BM1.jpg""style=""height:400px;""></img>","4","html-button-response","313","1371865","0.0-18.0-10.0","557","List2B","black","man","","true","4","","","","","","","","","",""
"null","CORRECT","","html-keyboard-response","314","1373369","0.0-18.0-11.0-0.0","557","List2B","black","man","","","","null","","","","","","","","",""
"2153.5","<img src=""portrait/BW1.jpg""style=""height:400px;""></img>","0","html-button-response","315","1375525","0.0-18.0-13.0","557","List2B","black","man","","true","0","","","","","","","","","",""
"null","CORRECT","","html-keyboard-response","316","1377028","0.0-18.0-14.0-0.0","557","List2B","black","man","","","","null","","","","","","","","",""
"1619.5999999940395","<img src=""portrait/WW2.jpg""style=""height:400px;""></img>","3","html-button-response","317","1378649","0.0-18.0-16.0","557","List2B","black","man","","true","3","","","","","","","","","",""
"null","CORRECT","","html-keyboard-response","318","1380152","0.0-18.0-17.0-0.0","557","List2B","black","man","","","","null","","","","","","","","",""
"1777.3000000044703","<img src=""portrait/WM2.jpg""style=""height:400px;""></img>","7","html-button-response","319","1381931","0.0-18.0-19.0","557","List2B","black","man","","true","7","","","","","","","","","",""
"null","CORRECT","","html-keyboard-response","320","1383434","0.0-18.0-20.0-0.0","557","List2B","black","man","","","","null","","","","","","","","",""
"2455","<img src=""portrait/WM1.jpg""style=""height:400px;""></img>","6","html-button-response","321","1385891","0.0-18.0-22.0","557","List2B","black","man","","true","6","","","","","","","","","",""
"null","CORRECT","","html-keyboard-response","322","1387394","0.0-18.0-23.0-0.0","557","List2B","black","man","","","","null","","","","","","","","",""
"1358","<p>You got 8 out of 8 right first time. Press Continue.</p>","0","html-button-response","323","1388754","0.0-18.0-25.0","557","List2B","black","man","","","","","","","","","","","","",""
"null","<div style=""font-size:60px;"">+</div>","","html-keyboard-response","324","1390257","0.0-19.0-0.0","557","List2B","black","man","","","","null","","","","","","","","",""
"null","<img src=""stim_listB/hug7.gif""style=""height:400px;""></stim_listB>","","html-keyboard-response","325","1392259","0.0-19.0-1.0","557","List2B","black","man","","","","null","","","","","","","","",""
"null","is hugging","","html-keyboard-response","326","1394260","0.0-19.0-2.0","557","List2B","black","man","","","","null","","","","","","","","",""
"6832.30000000447","","","survey-text","327","1401096","0.0-19.0-3.0","557","List2B","black","man","","","","","{""Q0"":""ruth is hugging beth""}","<img src=""stim_listB/hug7.gif""style=""height:400px;""></stim_listB>","is hugging","","","","","",""
"null","<div style=""font-size:60px;"">+</div>","","html-keyboard-response","328","1401598","0.0-19.0-0.1","557","List2B","black","man","","","","null","","","","","","","","",""
"null","<img src=""stim_listB/seduce4.gif""style=""height:400px;""></stim_listB>","","html-keyboard-response","329","1403600","0.0-19.0-1.1","557","List2B","black","man","","","","null","","","","","","","","",""
"null","is being seduced by","","html-keyboard-response","330","1405602","0.0-19.0-2.1","557","List2B","black","man","","","","null","","","","","","","","",""
"12130.30000000447","","","survey-text","331","1417735","0.0-19.0-3.1","557","List2B","black","man","","","","","{""Q0"":""mike is being seduced by beth""}","<img src=""stim_listB/seduce4.gif""style=""height:400px;""></stim_listB>","is being seduced by","","","","","",""
"null","<div style=""font-size:60px;"">+</div>","","html-keyboard-response","332","1418238","0.0-19.0-0.2","557","List2B","black","man","","","","null","","","","","","","","",""
"null","<img src=""stim_listB/kiss5.gif""style=""height:400px;""></stim_listB>","","html-keyboard-response","333","1420240","0.0-19.0-1.2","557","List2B","black","man","","","","null","","","","","","","","",""
"null","is kissing","","html-keyboard-response","334","1422242","0.0-19.0-2.2","557","List2B","black","man","","","","null","","","","","","","","",""
"11229.60000000149","","","survey-text","335","1433475","0.0-19.0-3.2","557","List2B","black","man","","","","","{""Q0"":""luke is kissing fred""}","<img src=""stim_listB/kiss5.gif""style=""height:400px;""></stim_listB>","is kissing","","","","","",""
"null","<div style=""font-size:60px;"">+</div>","","html-keyboard-response","336","1433977","0.0-19.0-0.3","557","List2B","black","man","","","","null","","","","","","","","",""
"null","<img src=""stim_listB/kiss7.gif""style=""height:400px;""></stim_listB>","","html-keyboard-response","337","1435980","0.0-19.0-1.3","557","List2B","black","man","","","","null","","","","","","","","",""
"null","is kissing","","html-keyboard-response","338","1437981","0.0-19.0-2.3","557","List2B","black","man","","","","null","","","","","","","","",""
"11762.39999999851","","","survey-text","339","1449747","0.0-19.0-3.3","557","List2B","black","man","","","","","{""Q0"":""ruth is kissing beth""}","<img src=""stim_listB/kiss7.gif""style=""height:400px;""></stim_listB>","is kissing","","","","","",""
"null","<div style=""font-size:60px;"">+</div>","","html-keyboard-response","340","1450249","0.0-19.0-0.4","557","List2B","black","man","","","","null","","","","","","","","",""
"null","<img src=""stim_listB/hug4.gif""style=""height:400px;""></stim_listB>","","html-keyboard-response","341","1452252","0.0-19.0-1.4","557","List2B","black","man","","","","null","","","","","","","","",""
"null","is being hugged by","","html-keyboard-response","342","1454254","0.0-19.0-2.4","557","List2B","black","man","","","","null","","","","","","","","",""
"7386.80000000447","","","survey-text","343","1461645","0.0-19.0-3.4","557","List2B","black","man","","","","","{""Q0"":""mike is being hugged by kate""}","<img src=""stim_listB/hug4.gif""style=""height:400px;""></stim_listB>","is being hugged by","","","","","",""
"null","<div style=""font-size:60px;"">+</div>","","html-keyboard-response","344","1462148","0.0-19.0-0.5","557","List2B","black","man","","","","null","","","","","","","","",""
"null","<img src=""stim_listB/shout7.gif""style=""height:400px;""></stim_listB>","","html-keyboard-response","345","1464150","0.0-19.0-1.5","557","List2B","black","man","","","","null","","","","","","","","",""
"null","is shouting at","","html-keyboard-response","346","1466152","0.0-19.0-2.5","557","List2B","black","man","","","","null","","","","","","","","",""
"8100.19999999553","","","survey-text","347","1474256","0.0-19.0-3.5","557","List2B","black","man","","","","","{""Q0"":""ruth is shouting at beth""}","<img src=""stim_listB/shout7.gif""style=""height:400px;""></stim_listB>","is shouting at","","","","","",""
"null","<div style=""font-size:60px;"">+</div>","","html-keyboard-response","348","1474758","0.0-19.0-0.6","557","List2B","black","man","","","","null","","","","","","","","",""
"null","<img src=""stim_listB/oppose7.gif""style=""height:400px;""></stim_listB>","","html-keyboard-response","349","1476761","0.0-19.0-1.6","557","List2B","black","man","","","","null","","","","","","","","",""
"null","is opposing","","html-keyboard-response","350","1478762","0.0-19.0-2.6","557","List2B","black","man","","","","null","","","","","","","","",""
"6028.10000000149","","","survey-text","351","1484794","0.0-19.0-3.6","557","List2B","black","man","","","","","{""Q0"":""kate is opposing jane""}","<img src=""stim_listB/oppose7.gif""style=""height:400px;""></stim_listB>","is opposing","","","","","",""
"null","<div style=""font-size:60px;"">+</div>","","html-keyboard-response","352","1485297","0.0-19.0-0.7","557","List2B","black","man","","","","null","","","","","","","","",""
"null","<img src=""stim_listB/kiss8.gif""style=""height:400px;""></stim_listB>","","html-keyboard-response","353","1487300","0.0-19.0-1.7","557","List2B","black","man","","","","null","","","","","","","","",""
"null","is being kissed by","","html-keyboard-response","354","1489301","0.0-19.0-2.7","557","List2B","black","man","","","","null","","","","","","","","",""
"9961.5","","","survey-text","355","1499267","0.0-19.0-3.7","557","List2B","black","man","","","","","{""Q0"":""kate is being kissed by jane""}","<img src=""stim_listB/kiss8.gif""style=""height:400px;""></stim_listB>","is being kissed by","","","","","",""
"null","<div style=""font-size:60px;"">+</div>","","html-keyboard-response","356","1499770","0.0-19.0-0.8","557","List2B","black","man","","","","null","","","","","","","","",""
"null","<img src=""stim_listB/seduce7.gif""style=""height:400px;""></stim_listB>","","html-keyboard-response","357","1501772","0.0-19.0-1.8","557","List2B","black","man","","","","null","","","","","","","","",""
"null","is seducing","","html-keyboard-response","358","1503774","0.0-19.0-2.8","557","List2B","black","man","","","","null","","","","","","","","",""
"7774.10000000149","","","survey-text","359","1511556","0.0-19.0-3.8","557","List2B","black","man","","","","","{""Q0"":""kate is seducing ruth""}","<img src=""stim_listB/seduce7.gif""style=""height:400px;""></stim_listB>","is seducing","","","","","",""
"null","<div style=""font-size:60px;"">+</div>","","html-keyboard-response","360","1512058","0.0-19.0-0.9","557","List2B","black","man","","","","null","","","","","","","","",""
"null","<img src=""stim_listB/shout3.gif""style=""height:400px;""></stim_listB>","","html-keyboard-response","361","1514061","0.0-19.0-1.9","557","List2B","black","man","","","","null","","","","","","","","",""
"null","is shouting at","","html-keyboard-response","362","1516063","0.0-19.0-2.9","557","List2B","black","man","","","","null","","","","","","","","",""
"6932.4000000059605","","","survey-text","363","1522999","0.0-19.0-3.9","557","List2B","black","man","","","","","{""Q0"":""fred is shouting at beth""}","<img src=""stim_listB/shout3.gif""style=""height:400px;""></stim_listB>","is shouting at","","","","","",""
"null","<div style=""font-size:60px;"">+</div>","","html-keyboard-response","364","1523501","0.0-19.0-0.10","557","List2B","black","man","","","","null","","","","","","","","",""
"null","<img src=""stim_listB/kiss4.gif""style=""height:400px;""></stim_listB>","","html-keyboard-response","365","1525504","0.0-19.0-1.10","557","List2B","black","man","","","","null","","","","","","","","",""
"null","is being kissed by","","html-keyboard-response","366","1527506","0.0-19.0-2.10","557","List2B","black","man","","","","null","","","","","","","","",""
"8837.30000000447","","","survey-text","367","1536348","0.0-19.0-3.10","557","List2B","black","man","","","","","{""Q0"":""mike is being kissed by kate""}","<img src=""stim_listB/kiss4.gif""style=""height:400px;""></stim_listB>","is being kissed by","","","","","",""
"null","<div style=""font-size:60px;"">+</div>","","html-keyboard-response","368","1536850","0.0-19.0-0.11","557","List2B","black","man","","","","null","","","","","","","","",""
"null","<img src=""stim_listB/shout1.gif""style=""height:400px;""></stim_listB>","","html-keyboard-response","369","1538853","0.0-19.0-1.11","557","List2B","black","man","","","","null","","","","","","","","",""
"null","is shouting at","","html-keyboard-response","370","1540855","0.0-19.0-2.11","557","List2B","black","man","","","","null","","","","","","","","",""
"8013.79999999702","","","survey-text","371","1548872","0.0-19.0-3.11","557","List2B","black","man","","","","","{""Q0"":""ruth is shouting at luke""}","<img src=""stim_listB/shout1.gif""style=""height:400px;""></stim_listB>","is shouting at","","","","","",""
"null","<div style=""font-size:60px;"">+</div>","","html-keyboard-response","372","1549375","0.0-19.0-0.12","557","List2B","black","man","","","","null","","","","","","","","",""
"null","<img src=""stim_listB/hug8.gif""style=""height:400px;""></stim_listB>","","html-keyboard-response","373","1551378","0.0-19.0-1.12","557","List2B","black","man","","","","null","","","","","","","","",""
"null","is being hugged by","","html-keyboard-response","374","1553380","0.0-19.0-2.12","557","List2B","black","man","","","","null","","","","","","","","",""
"51110.80000000447","","","survey-text","375","1604497","0.0-19.0-3.12","557","List2B","black","man","","","","","{""Q0"":""jane is being hugged by kate""}","<img src=""stim_listB/hug8.gif""style=""height:400px;""></stim_listB>","is being hugged by","","","","","",""
"null","<div style=""font-size:60px;"">+</div>","","html-keyboard-response","376","1605000","0.0-19.0-0.13","557","List2B","black","man","","","","null","","","","","","","","",""
"null","<img src=""stim_listB/hug2.gif""style=""height:400px;""></stim_listB>","","html-keyboard-response","377","1607002","0.0-19.0-1.13","557","List2B","black","man","","","","null","","","","","","","","",""
"null","is being hugged by","","html-keyboard-response","378","1609004","0.0-19.0-2.13","557","List2B","black","man","","","","null","","","","","","","","",""
"8573.39999999851","","","survey-text","379","1617586","0.0-19.0-3.13","557","List2B","black","man","","","","","{""Q0"":""dave is being hugged by jane""}","<img src=""stim_listB/hug2.gif""style=""height:400px;""></stim_listB>","is being hugged by","","","","","",""
"null","<div style=""font-size:60px;"">+</div>","","html-keyboard-response","380","1618089","0.0-19.0-0.14","557","List2B","black","man","","","","null","","","","","","","","",""
"null","<img src=""stim_listB/greet1.gif""style=""height:400px;""></stim_listB>","","html-keyboard-response","381","1620092","0.0-19.0-1.14","557","List2B","black","man","","","","null","","","","","","","","",""
"null","is greeting","","html-keyboard-response","382","1622094","0.0-19.0-2.14","557","List2B","black","man","","","","null","","","","","","","","",""
"18803.89999999851","","","survey-text","383","1640902","0.0-19.0-3.14","557","List2B","black","man","","","","","{""Q0"":""ruth is greeting dave""}","<img src=""stim_listB/greet1.gif""style=""height:400px;""></stim_listB>","is greeting","","","","","",""
"null","<div style=""font-size:60px;"">+</div>","","html-keyboard-response","384","1641405","0.0-19.0-0.15","557","List2B","black","man","","","","null","","","","","","","","",""
"null","<img src=""stim_listB/touch7.gif""style=""height:400px;""></stim_listB>","","html-keyboard-response","385","1643408","0.0-19.0-1.15","557","List2B","black","man","","","","null","","","","","","","","",""
"null","is touching","","html-keyboard-response","386","1645410","0.0-19.0-2.15","557","List2B","black","man","","","","null","","","","","","","","",""
"7073.79999999702","","","survey-text","387","1652489","0.0-19.0-3.15","557","List2B","black","man","","","","","{""Q0"":""kate is touching jane""}","<img src=""stim_listB/touch7.gif""style=""height:400px;""></stim_listB>","is touching","","","","","",""
"null","<div style=""font-size:60px;"">+</div>","","html-keyboard-response","388","1652992","0.0-19.0-0.16","557","List2B","black","man","","","","null","","","","","","","","",""
"null","<img src=""stim_listB/challenge3.gif""style=""height:400px;""></stim_listB>","","html-keyboard-response","389","1654995","0.0-19.0-1.16","557","List2B","black","man","","","","null","","","","","","","","",""
"null","is challenging","","html-keyboard-response","390","1656997","0.0-19.0-2.16","557","List2B","black","man","","","","null","","","","","","","","",""
"9332.90000000596","","","survey-text","391","1666335","0.0-19.0-3.16","557","List2B","black","man","","","","","{""Q0"":""beth is challenging mike""}","<img src=""stim_listB/challenge3.gif""style=""height:400px;""></stim_listB>","is challenging","","","","","",""
"null","<div style=""font-size:60px;"">+</div>","","html-keyboard-response","392","1666838","0.0-19.0-0.17","557","List2B","black","man","","","","null","","","","","","","","",""
"null","<img src=""stim_listB/challenge8.gif""style=""height:400px;""></stim_listB>","","html-keyboard-response","393","1668841","0.0-19.0-1.17","557","List2B","black","man","","","","null","","","","","","","","",""
"null","is being challenged by","","html-keyboard-response","394","1670843","0.0-19.0-2.17","557","List2B","black","man","","","","null","","","","","","","","",""
"9736.10000000149","","","survey-text","395","1680584","0.0-19.0-3.17","557","List2B","black","man","","","","","{""Q0"":""ruth is being challenged by kate""}","<img src=""stim_listB/challenge8.gif""style=""height:400px;""></stim_listB>","is being challenged by","","","","","",""
"null","<div style=""font-size:60px;"">+</div>","","html-keyboard-response","396","1681087","0.0-19.0-0.18","557","List2B","black","man","","","","null","","","","","","","","",""
"null","<img src=""stim_listB/greet6.gif""style=""height:400px;""></stim_listB>","","html-keyboard-response","397","1683091","0.0-19.0-1.18","557","List2B","black","man","","","","null","","","","","","","","",""
"null","is being greeted by","","html-keyboard-response","398","1685093","0.0-19.0-2.18","557","List2B","black","man","","","","null","","","","","","","","",""
"10978.59999999404","","","survey-text","399","1696076","0.0-19.0-3.18","557","List2B","black","man","","","","","{""Q0"":""luke is being greeted by mike""}","<img src=""stim_listB/greet6.gif""style=""height:400px;""></stim_listB>","is being greeted by","","","","","",""
"null","<div style=""font-size:60px;"">+</div>","","html-keyboard-response","400","1696579","0.0-19.0-0.19","557","List2B","black","man","","","","null","","","","","","","","",""
"null","<img src=""stim_listB/touch3.gif""style=""height:400px;""></stim_listB>","","html-keyboard-response","401","1698582","0.0-19.0-1.19","557","List2B","black","man","","","","null","","","","","","","","",""
"null","is touching","","html-keyboard-response","402","1700585","0.0-19.0-2.19","557","List2B","black","man","","","","null","","","","","","","","",""
"8101","","","survey-text","403","1708689","0.0-19.0-3.19","557","List2B","black","man","","","","","{""Q0"":""kate is touching mike""}","<img src=""stim_listB/touch3.gif""style=""height:400px;""></stim_listB>","is touching","","","","","",""
"2305.7000000029802","<p>Thank you for completing that task.</p><p>The final part of this session is a questionnaire that will take about 4 minutes.</p><p>Press Continue.</p>","0","html-button-response","404","1710998","0.0-20.0","557","List2B","black","man","","","","","","","","","","","","",""
"31741.29999999702","","","survey-text","405","1743752","0.0-21.0","557","List2B","black","man","","","","","{""Q0"":""20"",""Q1"":""english"",""Q2"":""english"",""Q3"":""United States"",""Q4"":""Nigerian"",""Q5"":""Black"",""Q6"":""Male""}","","","demographics","","","","",""
"2231.7000000029802","<p>Have you lived in the USA for the last 5 years or more?</p>","0","html-button-response","406","1745987","0.0-22.0","557","List2B","black","man","","","","","","","","fiveyears","","","","",""
"2122.39999999851","<p>Move the slider to show the extent to which you agree with the following statements.</p>","0","html-button-response","407","1749112","0.0-23.0","557","List2B","black","man","","","","","","","","","","","","",""
"4648.20000000298","","","html-slider-response","408","1754764","0.0-24.0-0.0-0.0","557","List2B","black","man","","","","","","","","survey_race","82","","","I feel solidarity with people the same age as me.","filler"
"5120.79999999702","","","html-slider-response","409","1759888","0.0-24.0-0.0-0.1","557","List2B","black","man","","","","","","","","survey_race","94","","","I often think about the fact that I am my race.","often"
"3952.5","","","html-slider-response","410","1763844","0.0-24.0-0.0-0.2","557","List2B","black","man","","","","","","","","survey_race","67","","","I have a lot in common with the average person of my race.","average"
"3676.7999999970198","","","html-slider-response","411","1767524","0.0-24.0-0.0-0.3","557","List2B","black","man","","","","","","","","survey_race","78","","","I enjoy being in large groups.","filler"
"2915.6999999955297","","","html-slider-response","412","1770443","0.0-24.0-0.0-0.4","557","List2B","black","man","","","","","","","","survey_race","65","","","I feel a bond with my race.","bond"
"5245.0999999940395","","","html-slider-response","413","1775691","0.0-24.0-0.0-0.5","557","List2B","black","man","","","","","","","","survey_race","69","","","People of my race have a lot in common with each other.","common"
"6182.69999999553","","","html-slider-response","414","1781877","0.0-24.0-0.0-0.6","557","List2B","black","man","","","","","","","","survey_race","94","","","People my age have a lot in common with each other.","filler"
"3888.9000000059605","","","html-slider-response","415","1785770","0.0-24.0-0.0-0.7","557","List2B","black","man","","","","","","","","survey_race","93","","","I am glad to be my race.","glad"
"3346.89999999851","","","html-slider-response","416","1789120","0.0-24.0-0.0-0.8","557","List2B","black","man","","","","","","","","survey_race","77","","","Being my race is an important part of how I see myself.","important"
"6481.89999999851","","","html-slider-response","417","1795606","0.0-24.0-0.0-0.9","557","List2B","black","man","","","","","","","","survey_race","48","","","I consider myself an introvert.","filler"
"3790.6999999955297","","","html-slider-response","418","1799400","0.0-24.0-0.0-0.10","557","List2B","black","man","","","","","","","","survey_race","7","","","Getting older does not worry me.","filler"
"3988.5","","","html-slider-response","419","1803391","0.0-24.0-0.0-0.11","557","List2B","black","man","","","","","","","","survey_race","68","","","Being my race gives me a good feeling.","feeling"
"4291.9000000059605","","","html-slider-response","420","1807686","0.0-24.0-0.0-0.12","557","List2B","black","man","","","","","","","","survey_race","62","","","I consider myself an extrovert.","filler"
"4072.2000000029802","","","html-slider-response","421","1811762","0.0-24.0-0.0-0.13","557","List2B","black","man","","","","","","","","survey_race","81","","","I often think about the fact that I am my age.","filler"
"3901.7999999970198","","","html-slider-response","422","1815667","0.0-24.0-0.0-0.14","557","List2B","black","man","","","","","","","","survey_race","97","","","The older I get, the wiser I feel.","filler"
"3468.0999999940395","","","html-slider-response","423","1819138","0.0-24.0-0.0-0.15","557","List2B","black","man","","","","","","","","survey_race","0","","","My age is not an important part of who I am.","filler"
"2860.3000000044703","","","html-slider-response","424","1822002","0.0-24.0-0.0-0.16","557","List2B","black","man","","","","","","","","survey_race","62","","","People of my race are very similar to each other.","verysimilar"
"3157.39999999851","","","html-slider-response","425","1825164","0.0-24.0-0.0-0.17","557","List2B","black","man","","","","","","","","survey_race","61","","","Being my age gives me a good feeling.","filler"
"2984.89999999851","","","html-slider-response","426","1828152","0.0-24.0-0.0-0.18","557","List2B","black","man","","","","","","","","survey_race","62","","","I think that my race has a lot to be proud of.","proud"
"3848.89999999851","","","html-slider-response","427","1832004","0.0-24.0-0.0-0.19","557","List2B","black","man","","","","","","","","survey_race","83","","","I feel a bond with people the same age as me.","filler"
"2686.2000000029802","","","html-slider-response","428","1834694","0.0-24.0-0.0-0.20","557","List2B","black","man","","","","","","","","survey_race","70","","","I am glad to be the age I am.","filler"
"3034.39999999851","","","html-slider-response","429","1837731","0.0-24.0-0.0-0.21","557","List2B","black","man","","","","","","","","survey_race","59","","","The fact that I am my race is an important part of my identity.","identity"
"2806.89999999851","","","html-slider-response","430","1840542","0.0-24.0-0.0-0.22","557","List2B","black","man","","","","","","","","survey_race","58","","","I am similar to the average person of my race.","similar"
"3061.8000000044703","","","html-slider-response","431","1843607","0.0-24.0-0.0-0.23","557","List2B","black","man","","","","","","","","survey_race","55","","","It is pleasant to be my race.","pleasant"
"4206.30000000447","","","html-slider-response","432","1847816","0.0-24.0-0.0-0.24","557","List2B","black","man","","","","","","","","survey_race","97","","","I have a lot in common with people of a similar age to me.","filler"
"3569.7999999970198","","","html-slider-response","433","1851390","0.0-24.0-0.0-0.25","557","List2B","black","man","","","","","","","","survey_race","69","","","I feel committed to my race.","committed"
"3113.39999999851","","","html-slider-response","434","1854505","0.0-24.0-0.0-0.26","557","List2B","black","man","","","","","","","","survey_race","66","","","I feel solidarity with my race.","solidarity"
"2785.5","","","html-slider-response","435","1857294","0.0-24.0-0.0-0.27","557","List2B","black","man","","","","","","","","survey_race","70","","","I am glad to be my age.","filler"
"3319.7000000029802","","","html-slider-response","436","1860616","0.0-24.0-1.0-0.0","557","List2B","black","man","","","","","","","","survey_gender","38","","","Routine is not important to me.","filler"
"3345.10000000149","","","html-slider-response","437","1863964","0.0-24.0-1.0-0.1","557","List2B","black","man","","","","","","","","survey_gender","67","","","I feel solidarity with my friends.","filler"
"3241.39999999851","","","html-slider-response","438","1867209","0.0-24.0-1.0-0.2","557","List2B","black","man","","","","","","","","survey_gender","66","","","I feel a bond with my friends.","filler"
"6695.79999999702","","","html-slider-response","439","1873907","0.0-24.0-1.0-0.3","557","List2B","black","man","","","","","","","","survey_gender","34","","","I have a lot in common with the average person of my gender.","average"
"3576.5","","","html-slider-response","440","1877488","0.0-24.0-1.0-0.4","557","List2B","black","man","","","","","","","","survey_gender","33","","","I feel committed to my gender.","committed"
"3274.2000000029802","","","html-slider-response","441","1880765","0.0-24.0-1.0-0.5","557","List2B","black","man","","","","","","","","survey_gender","60","","","I am glad to be my gender.","glad"
"3026.1999999955297","","","html-slider-response","442","1883795","0.0-24.0-1.0-0.6","557","List2B","black","man","","","","","","","","survey_gender","62","","","I feel a bond with my gender.","bond"
"3590.60000000149","","","html-slider-response","443","1887389","0.0-24.0-1.0-0.7","557","List2B","black","man","","","","","","","","survey_gender","100","","","I am glad to have the friends that I have.","filler"
"3776.60000000149","","","html-slider-response","444","1891170","0.0-24.0-1.0-0.8","557","List2B","black","man","","","","","","","","survey_gender","96","","","Being around my friends gives me a good feeling.","filler"
"4115.20000000298","","","html-slider-response","445","1895289","0.0-24.0-1.0-0.9","557","List2B","black","man","","","","","","","","survey_gender","55","","","People of my gender are very similar to each other.","verysimilar"
"2951.10000000149","","","html-slider-response","446","1898244","0.0-24.0-1.0-0.10","557","List2B","black","man","","","","","","","","survey_gender","43","","","I feel solidarity with my gender.","solidarity"
"2950.4000000059605","","","html-slider-response","447","1901197","0.0-24.0-1.0-0.11","557","List2B","black","man","","","","","","","","survey_gender","38","","","I think that my gender has a lot to be proud of.","proud"
"4876.10000000149","","","html-slider-response","448","1906077","0.0-24.0-1.0-0.12","557","List2B","black","man","","","","","","","","survey_gender","58","","","Being my gender gives me a good feeling.","feeling"
"4078","","","html-slider-response","449","1910157","0.0-24.0-1.0-0.13","557","List2B","black","man","","","","","","","","survey_gender","18","","","I would say I am an animal person.","filler"
"4160.80000000447","","","html-slider-response","450","1914321","0.0-24.0-1.0-0.14","557","List2B","black","man","","","","","","","","survey_gender","79","","","Family is not more important to me than friendship.","filler"
"4551.70000000298","","","html-slider-response","451","1918875","0.0-24.0-1.0-0.15","557","List2B","black","man","","","","","","","","survey_gender","93","","","Most of the friends in my life are very similar to me.","filler"
"3099.7000000029802","","","html-slider-response","452","1921979","0.0-24.0-1.0-0.16","557","List2B","black","man","","","","","","","","survey_gender","80","","","I consider myself a highly empathetic person.","filler"
"2603.6999999955297","","","html-slider-response","453","1924586","0.0-24.0-1.0-0.17","557","List2B","black","man","","","","","","","","survey_gender","80","","","My friends have a lot in common with each other.","filler"
"3377.1999999955297","","","html-slider-response","454","1927967","0.0-24.0-1.0-0.18","557","List2B","black","man","","","","","","","","survey_gender","87","","","I have a lot in common with my friends.","filler"
"3250.9000000059605","","","html-slider-response","455","1931221","0.0-24.0-1.0-0.19","557","List2B","black","man","","","","","","","","survey_gender","71","","","Being my gender is an important part of how I see myself.","important"
"3206.2999999970198","","","html-slider-response","456","1934430","0.0-24.0-1.0-0.20","557","List2B","black","man","","","","","","","","survey_gender","88","","","It is not always easy for people to know what I am thinking.","filler"
"4567.39999999851","","","html-slider-response","457","1939001","0.0-24.0-1.0-0.21","557","List2B","black","man","","","","","","","","survey_gender","96","","","I often think about my actions.","filler"
"2505.2999999970198","","","html-slider-response","458","1941510","0.0-24.0-1.0-0.22","557","List2B","black","man","","","","","","","","survey_gender","72","","","I often think about the fact that I am my gender.","often"
"2412","","","html-slider-response","459","1943925","0.0-24.0-1.0-0.23","557","List2B","black","man","","","","","","","","survey_gender","74","","","My friends understand me.","filler"
"5188","","","html-slider-response","460","1949117","0.0-24.0-1.0-0.24","557","List2B","black","man","","","","","","","","survey_gender","25","","","I am similar to the average person of my gender.","similar"
"3326.5999999940395","","","html-slider-response","461","1952447","0.0-24.0-1.0-0.25","557","List2B","black","man","","","","","","","","survey_gender","55","","","The fact that I am my gender is an important part of my identity.","identity"
"3715.6999999955297","","","html-slider-response","462","1956167","0.0-24.0-1.0-0.26","557","List2B","black","man","","","","","","","","survey_gender","60","","","It is pleasant to be my gender.","pleasant"
"3278.4000000059605","","","html-slider-response","463","1959449","0.0-24.0-1.0-0.27","557","List2B","black","man","","","","","","","","survey_gender","38","","","People of my gender have a lot in common with each other.","common"
"10742.59999999404","","","survey-text","464","1970223","0.0-25.0","557","List2B","black","man","","","","","{""Q0"":""60ffa92c1888476d53b086f1""}","","","worker_id","","","","",""
"24389.89999999851","","","external-html","465","1995178","0.0-26.0","557","List2B","black","man","debrief.html","","","","","","","","","","","",""
