rt,stimulus,button_pressed,trial_type,trial_index,time_elapsed,internal_node_id,subject,list,ppt_race,ppt_gender,url,first_guess,correct,key_press,responses,image_type,phrase_type,test_part,response,stimulus1,stimulus2,question_type,survey_item
7621.6,Welcome to the experiment. Press Continue to begin.,0,html-button-response,0,7623,0.0-0.0,56062,List2A,black,man,,,,,,,,,,,,,
9541.1,,,external-html,1,18175,0.0-1.0,56062,List2A,black,man,consent.html,,,,,,,,,,,,
1462.4,"<p>On the next page, you will see portraits of 8 people and their names.</p><p>Your first task is to take a few minutes to memorise the names of these people.</p><p>You will have to recall their names during the rest of the experiment, so it is</p><p>essential that you try to memorise these people and their names as best as you can.</p><br><p><strong>You will then be tested on your memory of these names and portraits.</strong></p><br><p>The experiment will start after you have completed this memory test.</p><br><p>Ready?</p>",0,html-button-response,2,19638,0.0-2.0,56062,List2A,black,man,,,,,,,,,,,,,
4557.7,"<img src='img/portrait_matrix_list2.jpg' style='width:900px;height:500px;''></img><p>If you have memorised all the portraits and names and are ready to start, press Continue.</p><p><strong>Please note: Your memory of these faces will be tested 4 times during this experiment.</strong></p>",0,html-button-response,3,25200,0.0-3.0-0.0,56062,List2A,black,man,,,,,,,,,,,,,
2016.2,"<img src=""portrait/BM1.jpg""style=""height:400px;""></img>",4,html-button-response,4,28223,0.0-3.0-1.0,56062,List2A,black,man,,TRUE,4,,,,,,,,,,
null,CORRECT,,html-keyboard-response,5,29732,0.0-3.0-2.0-0.0,56062,List2A,black,man,,,,null,,,,,,,,,
2928.7,"<img src=""portrait/BM2.jpg""style=""height:400px;""></img>",5,html-button-response,6,32663,0.0-3.0-4.0,56062,List2A,black,man,,TRUE,5,,,,,,,,,,
null,CORRECT,,html-keyboard-response,7,34950,0.0-3.0-5.0-0.0,56062,List2A,black,man,,,,null,,,,,,,,,
2455.3,"<img src=""portrait/WM1.jpg""style=""height:400px;""></img>",6,html-button-response,8,37407,0.0-3.0-7.0,56062,List2A,black,man,,TRUE,6,,,,,,,,,,
null,CORRECT,,html-keyboard-response,9,38916,0.0-3.0-8.0-0.0,56062,List2A,black,man,,,,null,,,,,,,,,
2568.6,"<img src=""portrait/WW1.jpg""style=""height:400px;""></img>",1,html-button-response,10,41487,0.0-3.0-10.0,56062,List2A,black,man,,TRUE,1,,,,,,,,,,
null,CORRECT,,html-keyboard-response,11,42994,0.0-3.0-11.0-0.0,56062,List2A,black,man,,,,null,,,,,,,,,
1275.1,"<img src=""portrait/BW2.jpg""style=""height:400px;""></img>",2,html-button-response,12,44271,0.0-3.0-13.0,56062,List2A,black,man,,TRUE,2,,,,,,,,,,
null,CORRECT,,html-keyboard-response,13,45778,0.0-3.0-14.0-0.0,56062,List2A,black,man,,,,null,,,,,,,,,
1610,"<img src=""portrait/WW2.jpg""style=""height:400px;""></img>",3,html-button-response,14,47391,0.0-3.0-16.0,56062,List2A,black,man,,TRUE,3,,,,,,,,,,
null,CORRECT,,html-keyboard-response,15,48898,0.0-3.0-17.0-0.0,56062,List2A,black,man,,,,null,,,,,,,,,
2347,"<img src=""portrait/WM2.jpg""style=""height:400px;""></img>",7,html-button-response,16,51247,0.0-3.0-19.0,56062,List2A,black,man,,TRUE,7,,,,,,,,,,
null,CORRECT,,html-keyboard-response,17,52753,0.0-3.0-20.0-0.0,56062,List2A,black,man,,,,null,,,,,,,,,
1996.1,"<img src=""portrait/BW1.jpg""style=""height:400px;""></img>",0,html-button-response,18,54751,0.0-3.0-22.0,56062,List2A,black,man,,TRUE,0,,,,,,,,,,
null,CORRECT,,html-keyboard-response,19,57047,0.0-3.0-23.0-0.0,56062,List2A,black,man,,,,null,,,,,,,,,
1437.2,<p>You got 8 out of 8 right first time. Press Continue.</p>,0,html-button-response,20,58490,0.0-3.0-25.0,56062,List2A,black,man,,,,,,,,,,,,,
2080.9,"<p>In this experiment, you will view photographs of the people from the memory game interacting.</p><p>By using the <strong>exact</strong> phrase given <i>after</i> the photograph appears and recalling the correct names of the people in the photographs, form a sentence describing the interaction. You do not need to capitalise names.</p><p>Type your answer in the space provided. Please complete every sentence before moving onto the next trial.</p><p>You will only have a few seconds to memorise each given photograph and phrase before you can respond, so try your best to focus.</p><p>An example is given below. Press 'Continue' when you are ready.</p><img src='img/speaking_example.jpg' style='width:800px;height:460px;''></img>",0,html-button-response,21,61578,0.0-4.0,56062,List2A,black,man,,,,,,,,,,,,,
1030.2,"<p>Before the experiment starts, you will watch two example trials. Press 'Continue'.</p>",0,html-button-response,22,63610,0.0-5.0,56062,List2A,black,man,,,,,,,,,,,,,
null,<img src='img/play_eg.gif' style='height:400px;''></img>,,html-keyboard-response,23,66616,0.0-6.0,56062,List2A,black,man,,,,null,,,,,,,,,
null,<p>is playing with</p>,,html-keyboard-response,24,68619,0.0-7.0,56062,List2A,black,man,,,,null,,,,,,,,,
2877.3,<p><b>Answer:</b> jane is playing with ruth</p>,0,html-button-response,25,71498,0.0-8.0,56062,List2A,black,man,,,,,,,,,,,,,
null,<img src='img/dance_eg.gif' style='height:400px;''></img>,,html-keyboard-response,26,74510,0.0-9.0,56062,List2A,black,man,,,,null,,,,,,,,,
null,<p>is being entertained by</p>,,html-keyboard-response,27,76511,0.0-10.0,56062,List2A,black,man,,,,null,,,,,,,,,
1488.7,<p><b>Answer:</b> fred is being entertained by mike</p>,0,html-button-response,28,78002,0.0-11.0,56062,List2A,black,man,,,,,,,,,,,,,
1675.4,"<p>Ready to start the experiment?</p><br><p><strong>Remember to describe the picture using a full sentence,</strong></p><p><strong>that combines the names of the people with the <i>exact</i> phrase given.</strong></p><p><strong>To receive full payment you must do this correctly.</strong></p><p><strong> You do not need to capitalise names or use punctuation.</strong></p><br><p>Press 'Continue' to begin.</p>",0,html-button-response,29,80682,0.0-12.0,56062,List2A,black,man,,,,,,,,,,,,,
null,"<div style=""font-size:60px;"">+</div>",,html-keyboard-response,30,82186,0.0-13.0-0.0,56062,List2A,black,man,,,,null,,,,,,,,,
null,"<img src=""stim_listA/oppose2.gif""style=""height:400px;""></stim_listA>",,html-keyboard-response,31,84194,0.0-13.0-1.0,56062,List2A,black,man,,,,null,,,,,,,,,
null,is being opposed by,,html-keyboard-response,32,86201,0.0-13.0-2.0,56062,List2A,black,man,,,,null,,,,,,,,,
7422.3,,,survey-text,33,93630,0.0-13.0-3.0,56062,List2A,black,man,,,,,"{""Q0"":""ruth is being opposed by luke ""}","<img src=""stim_listA/oppose2.gif""style=""height:400px;""></stim_listA>",is being opposed by,,,,,,
null,"<div style=""font-size:60px;"">+</div>",,html-keyboard-response,34,94134,0.0-13.0-0.1,56062,List2A,black,man,,,,null,,,,,,,,,
null,"<img src=""stim_listA/oppose3.gif""style=""height:400px;""></stim_listA>",,html-keyboard-response,35,96139,0.0-13.0-1.1,56062,List2A,black,man,,,,null,,,,,,,,,
null,is opposing,,html-keyboard-response,36,98142,0.0-13.0-2.1,56062,List2A,black,man,,,,null,,,,,,,,,
34700.2,,,survey-text,37,132847,0.0-13.0-3.1,56062,List2A,black,man,,,,,"{""Q0"":""mike is opposing kate""}","<img src=""stim_listA/oppose3.gif""style=""height:400px;""></stim_listA>",is opposing,,,,,,
null,"<div style=""font-size:60px;"">+</div>",,html-keyboard-response,38,133350,0.0-13.0-0.2,56062,List2A,black,man,,,,null,,,,,,,,,
null,"<img src=""stim_listA/kiss8.gif""style=""height:400px;""></stim_listA>",,html-keyboard-response,39,135355,0.0-13.0-1.2,56062,List2A,black,man,,,,null,,,,,,,,,
null,is being kissed by,,html-keyboard-response,40,137361,0.0-13.0-2.2,56062,List2A,black,man,,,,null,,,,,,,,,
8117,,,survey-text,41,145482,0.0-13.0-3.2,56062,List2A,black,man,,,,,"{""Q0"":""jane is being kissed by kate""}","<img src=""stim_listA/kiss8.gif""style=""height:400px;""></stim_listA>",is being kissed by,,,,,,
null,"<div style=""font-size:60px;"">+</div>",,html-keyboard-response,42,145987,0.0-13.0-0.3,56062,List2A,black,man,,,,null,,,,,,,,,
null,"<img src=""stim_listA/hug6.gif""style=""height:400px;""></stim_listA>",,html-keyboard-response,43,147993,0.0-13.0-1.3,56062,List2A,black,man,,,,null,,,,,,,,,
null,is being hugged by,,html-keyboard-response,44,149999,0.0-13.0-2.3,56062,List2A,black,man,,,,null,,,,,,,,,
8934.6,,,survey-text,45,158937,0.0-13.0-3.3,56062,List2A,black,man,,,,,"{""Q0"":""mike is being hugged by dave ""}","<img src=""stim_listA/hug6.gif""style=""height:400px;""></stim_listA>",is being hugged by,,,,,,
null,"<div style=""font-size:60px;"">+</div>",,html-keyboard-response,46,159443,0.0-13.0-0.4,56062,List2A,black,man,,,,null,,,,,,,,,
null,"<img src=""stim_listA/challenge7.gif""style=""height:400px;""></stim_listA>",,html-keyboard-response,47,161450,0.0-13.0-1.4,56062,List2A,black,man,,,,null,,,,,,,,,
null,is challenging,,html-keyboard-response,48,163456,0.0-13.0-2.4,56062,List2A,black,man,,,,null,,,,,,,,,
6924.6,,,survey-text,49,170384,0.0-13.0-3.4,56062,List2A,black,man,,,,,"{""Q0"":""jane is challenging beth""}","<img src=""stim_listA/challenge7.gif""style=""height:400px;""></stim_listA>",is challenging,,,,,,
null,"<div style=""font-size:60px;"">+</div>",,html-keyboard-response,50,170890,0.0-13.0-0.5,56062,List2A,black,man,,,,null,,,,,,,,,
null,"<img src=""stim_listA/shout1.gif""style=""height:400px;""></stim_listA>",,html-keyboard-response,51,172894,0.0-13.0-1.5,56062,List2A,black,man,,,,null,,,,,,,,,
null,is shouting at,,html-keyboard-response,52,174898,0.0-13.0-2.5,56062,List2A,black,man,,,,null,,,,,,,,,
6798.6,,,survey-text,53,181698,0.0-13.0-3.5,56062,List2A,black,man,,,,,"{""Q0"":""luke is shouting at ruth""}","<img src=""stim_listA/shout1.gif""style=""height:400px;""></stim_listA>",is shouting at,,,,,,
null,"<div style=""font-size:60px;"">+</div>",,html-keyboard-response,54,182201,0.0-13.0-0.6,56062,List2A,black,man,,,,null,,,,,,,,,
null,"<img src=""stim_listA/seduce7.gif""style=""height:400px;""></stim_listA>",,html-keyboard-response,55,184206,0.0-13.0-1.6,56062,List2A,black,man,,,,null,,,,,,,,,
null,is seducing,,html-keyboard-response,56,186210,0.0-13.0-2.6,56062,List2A,black,man,,,,null,,,,,,,,,
11448.3,,,survey-text,57,197660,0.0-13.0-3.6,56062,List2A,black,man,,,,,"{""Q0"":""kate is seducing ruth""}","<img src=""stim_listA/seduce7.gif""style=""height:400px;""></stim_listA>",is seducing,,,,,,
null,"<div style=""font-size:60px;"">+</div>",,html-keyboard-response,58,198162,0.0-13.0-0.7,56062,List2A,black,man,,,,null,,,,,,,,,
null,"<img src=""stim_listA/hug1.gif""style=""height:400px;""></stim_listA>",,html-keyboard-response,59,200169,0.0-13.0-1.7,56062,List2A,black,man,,,,null,,,,,,,,,
null,is hugging,,html-keyboard-response,60,202172,0.0-13.0-2.7,56062,List2A,black,man,,,,null,,,,,,,,,
4853.2,,,survey-text,61,207029,0.0-13.0-3.7,56062,List2A,black,man,,,,,"{""Q0"":""luke is hugging ruth""}","<img src=""stim_listA/hug1.gif""style=""height:400px;""></stim_listA>",is hugging,,,,,,
null,"<div style=""font-size:60px;"">+</div>",,html-keyboard-response,62,207535,0.0-13.0-0.8,56062,List2A,black,man,,,,null,,,,,,,,,
null,"<img src=""stim_listA/greet2.gif""style=""height:400px;""></stim_listA>",,html-keyboard-response,63,209544,0.0-13.0-1.8,56062,List2A,black,man,,,,null,,,,,,,,,
null,is being greeted by,,html-keyboard-response,64,211548,0.0-13.0-2.8,56062,List2A,black,man,,,,null,,,,,,,,,
10508.1,,,survey-text,65,222062,0.0-13.0-3.8,56062,List2A,black,man,,,,,"{""Q0"":""jane is being greeted by luke ""}","<img src=""stim_listA/greet2.gif""style=""height:400px;""></stim_listA>",is being greeted by,,,,,,
null,"<div style=""font-size:60px;"">+</div>",,html-keyboard-response,66,222565,0.0-13.0-0.9,56062,List2A,black,man,,,,null,,,,,,,,,
null,"<img src=""stim_listA/look4.gif""style=""height:400px;""></stim_listA>",,html-keyboard-response,67,224570,0.0-13.0-1.9,56062,List2A,black,man,,,,null,,,,,,,,,
null,is being looked at by,,html-keyboard-response,68,226580,0.0-13.0-2.9,56062,List2A,black,man,,,,null,,,,,,,,,
9308.4,,,survey-text,69,235893,0.0-13.0-3.9,56062,List2A,black,man,,,,,"{""Q0"":""mike is being looked at by kate""}","<img src=""stim_listA/look4.gif""style=""height:400px;""></stim_listA>",is being looked at by,,,,,,
null,"<div style=""font-size:60px;"">+</div>",,html-keyboard-response,70,236398,0.0-13.0-0.10,56062,List2A,black,man,,,,null,,,,,,,,,
null,"<img src=""stim_listA/shout3.gif""style=""height:400px;""></stim_listA>",,html-keyboard-response,71,238407,0.0-13.0-1.10,56062,List2A,black,man,,,,null,,,,,,,,,
null,is shouting at,,html-keyboard-response,72,240417,0.0-13.0-2.10,56062,List2A,black,man,,,,null,,,,,,,,,
9738.8,,,survey-text,73,250160,0.0-13.0-3.10,56062,List2A,black,man,,,,,"{""Q0"":""fred is shouting at beth""}","<img src=""stim_listA/shout3.gif""style=""height:400px;""></stim_listA>",is shouting at,,,,,,
null,"<div style=""font-size:60px;"">+</div>",,html-keyboard-response,74,250665,0.0-13.0-0.11,56062,List2A,black,man,,,,null,,,,,,,,,
null,"<img src=""stim_listA/hug5.gif""style=""height:400px;""></stim_listA>",,html-keyboard-response,75,252669,0.0-13.0-1.11,56062,List2A,black,man,,,,null,,,,,,,,,
null,is hugging,,html-keyboard-response,76,254675,0.0-13.0-2.11,56062,List2A,black,man,,,,null,,,,,,,,,
6560.3,,,survey-text,77,261239,0.0-13.0-3.11,56062,List2A,black,man,,,,,"{""Q0"":""fred is hugging luke ""}","<img src=""stim_listA/hug5.gif""style=""height:400px;""></stim_listA>",is hugging,,,,,,
null,"<div style=""font-size:60px;"">+</div>",,html-keyboard-response,78,261741,0.0-13.0-0.12,56062,List2A,black,man,,,,null,,,,,,,,,
null,"<img src=""stim_listA/challenge1.gif""style=""height:400px;""></stim_listA>",,html-keyboard-response,79,263748,0.0-13.0-1.12,56062,List2A,black,man,,,,null,,,,,,,,,
null,is challenging,,html-keyboard-response,80,265751,0.0-13.0-2.12,56062,List2A,black,man,,,,null,,,,,,,,,
6796,,,survey-text,81,272552,0.0-13.0-3.12,56062,List2A,black,man,,,,,"{""Q0"":""dave is challenging ruth""}","<img src=""stim_listA/challenge1.gif""style=""height:400px;""></stim_listA>",is challenging,,,,,,
null,"<div style=""font-size:60px;"">+</div>",,html-keyboard-response,82,273057,0.0-13.0-0.13,56062,List2A,black,man,,,,null,,,,,,,,,
null,"<img src=""stim_listA/copy1.gif""style=""height:400px;""></stim_listA>",,html-keyboard-response,83,275064,0.0-13.0-1.13,56062,List2A,black,man,,,,null,,,,,,,,,
null,is copying,,html-keyboard-response,84,277070,0.0-13.0-2.13,56062,List2A,black,man,,,,null,,,,,,,,,
6251.8,,,survey-text,85,283326,0.0-13.0-3.13,56062,List2A,black,man,,,,,"{""Q0"":""dave is copying ruth ""}","<img src=""stim_listA/copy1.gif""style=""height:400px;""></stim_listA>",is copying,,,,,,
null,"<div style=""font-size:60px;"">+</div>",,html-keyboard-response,86,283832,0.0-13.0-0.14,56062,List2A,black,man,,,,null,,,,,,,,,
null,"<img src=""stim_listA/hug8.gif""style=""height:400px;""></stim_listA>",,html-keyboard-response,87,285838,0.0-13.0-1.14,56062,List2A,black,man,,,,null,,,,,,,,,
null,is being hugged by,,html-keyboard-response,88,287841,0.0-13.0-2.14,56062,List2A,black,man,,,,null,,,,,,,,,
8303.1,,,survey-text,89,296149,0.0-13.0-3.14,56062,List2A,black,man,,,,,"{""Q0"":""jane is being hugged by kate ""}","<img src=""stim_listA/hug8.gif""style=""height:400px;""></stim_listA>",is being hugged by,,,,,,
null,"<div style=""font-size:60px;"">+</div>",,html-keyboard-response,90,296653,0.0-13.0-0.15,56062,List2A,black,man,,,,null,,,,,,,,,
null,"<img src=""stim_listA/touch2.gif""style=""height:400px;""></stim_listA>",,html-keyboard-response,91,298659,0.0-13.0-1.15,56062,List2A,black,man,,,,null,,,,,,,,,
null,is being touched by,,html-keyboard-response,92,300662,0.0-13.0-2.15,56062,List2A,black,man,,,,null,,,,,,,,,
12141,,,survey-text,93,312807,0.0-13.0-3.15,56062,List2A,black,man,,,,,"{""Q0"":""ruth is being touched by luke ""}","<img src=""stim_listA/touch2.gif""style=""height:400px;""></stim_listA>",is being touched by,,,,,,
null,"<div style=""font-size:60px;"">+</div>",,html-keyboard-response,94,313312,0.0-13.0-0.16,56062,List2A,black,man,,,,null,,,,,,,,,
null,"<img src=""stim_listA/seduce4.gif""style=""height:400px;""></stim_listA>",,html-keyboard-response,95,315315,0.0-13.0-1.16,56062,List2A,black,man,,,,null,,,,,,,,,
null,is being seduced by,,html-keyboard-response,96,317321,0.0-13.0-2.16,56062,List2A,black,man,,,,null,,,,,,,,,
10942.6,,,survey-text,97,328267,0.0-13.0-3.16,56062,List2A,black,man,,,,,"{""Q0"":""mike is being seduced by beth ""}","<img src=""stim_listA/seduce4.gif""style=""height:400px;""></stim_listA>",is being seduced by,,,,,,
null,"<div style=""font-size:60px;"">+</div>",,html-keyboard-response,98,328773,0.0-13.0-0.17,56062,List2A,black,man,,,,null,,,,,,,,,
null,"<img src=""stim_listA/challenge8.gif""style=""height:400px;""></stim_listA>",,html-keyboard-response,99,330781,0.0-13.0-1.17,56062,List2A,black,man,,,,null,,,,,,,,,
null,is being challenged by,,html-keyboard-response,100,332783,0.0-13.0-2.17,56062,List2A,black,man,,,,null,,,,,,,,,
9886.4,,,survey-text,101,342674,0.0-13.0-3.17,56062,List2A,black,man,,,,,"{""Q0"":""kate is being challenged by ruth ""}","<img src=""stim_listA/challenge8.gif""style=""height:400px;""></stim_listA>",is being challenged by,,,,,,
null,"<div style=""font-size:60px;"">+</div>",,html-keyboard-response,102,343179,0.0-13.0-0.18,56062,List2A,black,man,,,,null,,,,,,,,,
null,"<img src=""stim_listA/copy7.gif""style=""height:400px;""></stim_listA>",,html-keyboard-response,103,345188,0.0-13.0-1.18,56062,List2A,black,man,,,,null,,,,,,,,,
null,is copying,,html-keyboard-response,104,347194,0.0-13.0-2.18,56062,List2A,black,man,,,,null,,,,,,,,,
8190.2,,,survey-text,105,355388,0.0-13.0-3.18,56062,List2A,black,man,,,,,"{""Q0"":""beth is copying jane""}","<img src=""stim_listA/copy7.gif""style=""height:400px;""></stim_listA>",is copying,,,,,,
null,"<div style=""font-size:60px;"">+</div>",,html-keyboard-response,106,355893,0.0-13.0-0.19,56062,List2A,black,man,,,,null,,,,,,,,,
null,"<img src=""stim_listA/shout7.gif""style=""height:400px;""></stim_listA>",,html-keyboard-response,107,357900,0.0-13.0-1.19,56062,List2A,black,man,,,,null,,,,,,,,,
null,is shouting at,,html-keyboard-response,108,359905,0.0-13.0-2.19,56062,List2A,black,man,,,,null,,,,,,,,,
6702.2,,,survey-text,109,366608,0.0-13.0-3.19,56062,List2A,black,man,,,,,"{""Q0"":""beth is shouting at ruth ""}","<img src=""stim_listA/shout7.gif""style=""height:400px;""></stim_listA>",is shouting at,,,,,,
3182.8,"<img src='img/portrait_matrix_list2.jpg' style='width:900px;height:500px;''></img><p>If you have memorised all the portraits and names and are ready to start, press Continue.</p><p><strong>Please note: Your memory of these faces will be tested 4 times during this experiment.</strong></p>",0,html-button-response,110,369792,0.0-14.0-0.0,56062,List2A,black,man,,,,,,,,,,,,,
2326.5,"<img src=""portrait/BM2.jpg""style=""height:400px;""></img>",5,html-button-response,111,373122,0.0-14.0-1.0,56062,List2A,black,man,,TRUE,5,,,,,,,,,,
null,CORRECT,,html-keyboard-response,112,374626,0.0-14.0-2.0-0.0,56062,List2A,black,man,,,,null,,,,,,,,,
3036.2,"<img src=""portrait/WM2.jpg""style=""height:400px;""></img>",7,html-button-response,113,377664,0.0-14.0-4.0,56062,List2A,black,man,,TRUE,7,,,,,,,,,,
null,CORRECT,,html-keyboard-response,114,379170,0.0-14.0-5.0-0.0,56062,List2A,black,man,,,,null,,,,,,,,,
2396.1,"<img src=""portrait/BW1.jpg""style=""height:400px;""></img>",0,html-button-response,115,381568,0.0-14.0-7.0,56062,List2A,black,man,,TRUE,0,,,,,,,,,,
null,CORRECT,,html-keyboard-response,116,383070,0.0-14.0-8.0-0.0,56062,List2A,black,man,,,,null,,,,,,,,,
2128.3,"<img src=""portrait/WM1.jpg""style=""height:400px;""></img>",6,html-button-response,117,385200,0.0-14.0-10.0,56062,List2A,black,man,,TRUE,6,,,,,,,,,,
null,CORRECT,,html-keyboard-response,118,386708,0.0-14.0-11.0-0.0,56062,List2A,black,man,,,,null,,,,,,,,,
1234.3,"<img src=""portrait/WW2.jpg""style=""height:400px;""></img>",3,html-button-response,119,387944,0.0-14.0-13.0,56062,List2A,black,man,,TRUE,3,,,,,,,,,,
null,CORRECT,,html-keyboard-response,120,389451,0.0-14.0-14.0-0.0,56062,List2A,black,man,,,,null,,,,,,,,,
1339.3,"<img src=""portrait/BM1.jpg""style=""height:400px;""></img>",4,html-button-response,121,390793,0.0-14.0-16.0,56062,List2A,black,man,,TRUE,4,,,,,,,,,,
null,CORRECT,,html-keyboard-response,122,392300,0.0-14.0-17.0-0.0,56062,List2A,black,man,,,,null,,,,,,,,,
3282.7,"<img src=""portrait/BW2.jpg""style=""height:400px;""></img>",2,html-button-response,123,395585,0.0-14.0-19.0,56062,List2A,black,man,,TRUE,2,,,,,,,,,,
null,CORRECT,,html-keyboard-response,124,397094,0.0-14.0-20.0-0.0,56062,List2A,black,man,,,,null,,,,,,,,,
2625.1,"<img src=""portrait/WW1.jpg""style=""height:400px;""></img>",1,html-button-response,125,399721,0.0-14.0-22.0,56062,List2A,black,man,,TRUE,1,,,,,,,,,,
null,CORRECT,,html-keyboard-response,126,401230,0.0-14.0-23.0-0.0,56062,List2A,black,man,,,,null,,,,,,,,,
12463.8,<p>You got 8 out of 8 right first time. Press Continue.</p>,0,html-button-response,127,413696,0.0-14.0-25.0,56062,List2A,black,man,,,,,,,,,,,,,
null,"<div style=""font-size:60px;"">+</div>",,html-keyboard-response,128,415205,0.0-15.0-0.0,56062,List2A,black,man,,,,null,,,,,,,,,
null,"<img src=""stim_listA/kiss4.gif""style=""height:400px;""></stim_listA>",,html-keyboard-response,129,417209,0.0-15.0-1.0,56062,List2A,black,man,,,,null,,,,,,,,,
null,is being kissed by,,html-keyboard-response,130,419214,0.0-15.0-2.0,56062,List2A,black,man,,,,null,,,,,,,,,
9488.9,,,survey-text,131,428709,0.0-15.0-3.0,56062,List2A,black,man,,,,,"{""Q0"":""kate is being kissed by mike ""}","<img src=""stim_listA/kiss4.gif""style=""height:400px;""></stim_listA>",is being kissed by,,,,,,
null,"<div style=""font-size:60px;"">+</div>",,html-keyboard-response,132,429214,0.0-15.0-0.1,56062,List2A,black,man,,,,null,,,,,,,,,
null,"<img src=""stim_listA/greet5.gif""style=""height:400px;""></stim_listA>",,html-keyboard-response,133,431222,0.0-15.0-1.1,56062,List2A,black,man,,,,null,,,,,,,,,
null,is greeting,,html-keyboard-response,134,433229,0.0-15.0-2.1,56062,List2A,black,man,,,,null,,,,,,,,,
9325.9,,,survey-text,135,442559,0.0-15.0-3.1,56062,List2A,black,man,,,,,"{""Q0"":""fred is greeting dave ""}","<img src=""stim_listA/greet5.gif""style=""height:400px;""></stim_listA>",is greeting,,,,,,
null,"<div style=""font-size:60px;"">+</div>",,html-keyboard-response,136,443063,0.0-15.0-0.2,56062,List2A,black,man,,,,null,,,,,,,,,
null,"<img src=""stim_listA/oppose8.gif""style=""height:400px;""></stim_listA>",,html-keyboard-response,137,445067,0.0-15.0-1.2,56062,List2A,black,man,,,,null,,,,,,,,,
null,is being opposed by,,html-keyboard-response,138,447069,0.0-15.0-2.2,56062,List2A,black,man,,,,null,,,,,,,,,
8051,,,survey-text,139,455124,0.0-15.0-3.2,56062,List2A,black,man,,,,,"{""Q0"":""beth is being opposed by ruth ""}","<img src=""stim_listA/oppose8.gif""style=""height:400px;""></stim_listA>",is being opposed by,,,,,,
null,"<div style=""font-size:60px;"">+</div>",,html-keyboard-response,140,455629,0.0-15.0-0.3,56062,List2A,black,man,,,,null,,,,,,,,,
null,"<img src=""stim_listA/copy4.gif""style=""height:400px;""></stim_listA>",,html-keyboard-response,141,457635,0.0-15.0-1.3,56062,List2A,black,man,,,,null,,,,,,,,,
null,is being copied by,,html-keyboard-response,142,459640,0.0-15.0-2.3,56062,List2A,black,man,,,,null,,,,,,,,,
6675.7,,,survey-text,143,466319,0.0-15.0-3.3,56062,List2A,black,man,,,,,"{""Q0"":""fred is being copied by kate ""}","<img src=""stim_listA/copy4.gif""style=""height:400px;""></stim_listA>",is being copied by,,,,,,
null,"<div style=""font-size:60px;"">+</div>",,html-keyboard-response,144,466822,0.0-15.0-0.4,56062,List2A,black,man,,,,null,,,,,,,,,
null,"<img src=""stim_listA/look6.gif""style=""height:400px;""></stim_listA>",,html-keyboard-response,145,468827,0.0-15.0-1.4,56062,List2A,black,man,,,,null,,,,,,,,,
null,is being looked at by,,html-keyboard-response,146,470832,0.0-15.0-2.4,56062,List2A,black,man,,,,null,,,,,,,,,
8979.9,,,survey-text,147,479816,0.0-15.0-3.4,56062,List2A,black,man,,,,,"{""Q0"":""mike is being looked at by dave ""}","<img src=""stim_listA/look6.gif""style=""height:400px;""></stim_listA>",is being looked at by,,,,,,
null,"<div style=""font-size:60px;"">+</div>",,html-keyboard-response,148,480319,0.0-15.0-0.5,56062,List2A,black,man,,,,null,,,,,,,,,
null,"<img src=""stim_listA/shout6.gif""style=""height:400px;""></stim_listA>",,html-keyboard-response,149,482320,0.0-15.0-1.5,56062,List2A,black,man,,,,null,,,,,,,,,
null,is being shouted at by,,html-keyboard-response,150,484326,0.0-15.0-2.5,56062,List2A,black,man,,,,null,,,,,,,,,
10483.3,,,survey-text,151,494812,0.0-15.0-3.5,56062,List2A,black,man,,,,,"{""Q0"":""dave is being shouted at by mike ""}","<img src=""stim_listA/shout6.gif""style=""height:400px;""></stim_listA>",is being shouted at by,,,,,,
null,"<div style=""font-size:60px;"">+</div>",,html-keyboard-response,152,495315,0.0-15.0-0.6,56062,List2A,black,man,,,,null,,,,,,,,,
null,"<img src=""stim_listA/seduce1.gif""style=""height:400px;""></stim_listA>",,html-keyboard-response,153,497321,0.0-15.0-1.6,56062,List2A,black,man,,,,null,,,,,,,,,
null,is seducing,,html-keyboard-response,154,499327,0.0-15.0-2.6,56062,List2A,black,man,,,,null,,,,,,,,,
9915.9,,,survey-text,155,509248,0.0-15.0-3.6,56062,List2A,black,man,,,,,"{""Q0"":""jane is seducing luke ""}","<img src=""stim_listA/seduce1.gif""style=""height:400px;""></stim_listA>",is seducing,,,,,,
null,"<div style=""font-size:60px;"">+</div>",,html-keyboard-response,156,509753,0.0-15.0-0.7,56062,List2A,black,man,,,,null,,,,,,,,,
null,"<img src=""stim_listA/touch5.gif""style=""height:400px;""></stim_listA>",,html-keyboard-response,157,511761,0.0-15.0-1.7,56062,List2A,black,man,,,,null,,,,,,,,,
null,is touching,,html-keyboard-response,158,513766,0.0-15.0-2.7,56062,List2A,black,man,,,,null,,,,,,,,,
5860,,,survey-text,159,519630,0.0-15.0-3.7,56062,List2A,black,man,,,,,"{""Q0"":""dave is touching mike ""}","<img src=""stim_listA/touch5.gif""style=""height:400px;""></stim_listA>",is touching,,,,,,
null,"<div style=""font-size:60px;"">+</div>",,html-keyboard-response,160,520132,0.0-15.0-0.8,56062,List2A,black,man,,,,null,,,,,,,,,
null,"<img src=""stim_listA/touch6.gif""style=""height:400px;""></stim_listA>",,html-keyboard-response,161,522138,0.0-15.0-1.8,56062,List2A,black,man,,,,null,,,,,,,,,
null,is being touched by,,html-keyboard-response,162,524142,0.0-15.0-2.8,56062,List2A,black,man,,,,null,,,,,,,,,
10328.3,,,survey-text,163,534474,0.0-15.0-3.8,56062,List2A,black,man,,,,,"{""Q0"":""fred is being touched by luke ""}","<img src=""stim_listA/touch6.gif""style=""height:400px;""></stim_listA>",is being touched by,,,,,,
null,"<div style=""font-size:60px;"">+</div>",,html-keyboard-response,164,534980,0.0-15.0-0.9,56062,List2A,black,man,,,,null,,,,,,,,,
null,"<img src=""stim_listA/look2.gif""style=""height:400px;""></stim_listA>",,html-keyboard-response,165,536987,0.0-15.0-1.9,56062,List2A,black,man,,,,null,,,,,,,,,
null,is being looked at by,,html-keyboard-response,166,538989,0.0-15.0-2.9,56062,List2A,black,man,,,,null,,,,,,,,,
8778.5,,,survey-text,167,547771,0.0-15.0-3.9,56062,List2A,black,man,,,,,"{""Q0"":""dave is being looked at by jane ""}","<img src=""stim_listA/look2.gif""style=""height:400px;""></stim_listA>",is being looked at by,,,,,,
null,"<div style=""font-size:60px;"">+</div>",,html-keyboard-response,168,548274,0.0-15.0-0.10,56062,List2A,black,man,,,,null,,,,,,,,,
null,"<img src=""stim_listA/challenge3.gif""style=""height:400px;""></stim_listA>",,html-keyboard-response,169,550281,0.0-15.0-1.10,56062,List2A,black,man,,,,null,,,,,,,,,
null,is challenging,,html-keyboard-response,170,552286,0.0-15.0-2.10,56062,List2A,black,man,,,,null,,,,,,,,,
7540.3,,,survey-text,171,559830,0.0-15.0-3.10,56062,List2A,black,man,,,,,"{""Q0"":""beth is challenging mike ""}","<img src=""stim_listA/challenge3.gif""style=""height:400px;""></stim_listA>",is challenging,,,,,,
null,"<div style=""font-size:60px;"">+</div>",,html-keyboard-response,172,560334,0.0-15.0-0.11,56062,List2A,black,man,,,,null,,,,,,,,,
null,"<img src=""stim_listA/greet6.gif""style=""height:400px;""></stim_listA>",,html-keyboard-response,173,562342,0.0-15.0-1.11,56062,List2A,black,man,,,,null,,,,,,,,,
null,is being greeted by,,html-keyboard-response,174,564344,0.0-15.0-2.11,56062,List2A,black,man,,,,null,,,,,,,,,
10286.3,,,survey-text,175,574635,0.0-15.0-3.11,56062,List2A,black,man,,,,,"{""Q0"":""mike is being greeted by luke ""}","<img src=""stim_listA/greet6.gif""style=""height:400px;""></stim_listA>",is being greeted by,,,,,,
null,"<div style=""font-size:60px;"">+</div>",,html-keyboard-response,176,575140,0.0-15.0-0.12,56062,List2A,black,man,,,,null,,,,,,,,,
null,"<img src=""stim_listA/look3.gif""style=""height:400px;""></stim_listA>",,html-keyboard-response,177,577147,0.0-15.0-1.12,56062,List2A,black,man,,,,null,,,,,,,,,
null,is looking at,,html-keyboard-response,178,579154,0.0-15.0-2.12,56062,List2A,black,man,,,,null,,,,,,,,,
16304.3,,,survey-text,179,595462,0.0-15.0-3.12,56062,List2A,black,man,,,,,"{""Q0"":""beth is looking at fred ""}","<img src=""stim_listA/look3.gif""style=""height:400px;""></stim_listA>",is looking at,,,,,,
null,"<div style=""font-size:60px;"">+</div>",,html-keyboard-response,180,595968,0.0-15.0-0.13,56062,List2A,black,man,,,,null,,,,,,,,,
null,"<img src=""stim_listA/touch3.gif""style=""height:400px;""></stim_listA>",,html-keyboard-response,181,597974,0.0-15.0-1.13,56062,List2A,black,man,,,,null,,,,,,,,,
null,is touching,,html-keyboard-response,182,599978,0.0-15.0-2.13,56062,List2A,black,man,,,,null,,,,,,,,,
7763.6,,,survey-text,183,607750,0.0-15.0-3.13,56062,List2A,black,man,,,,,"{""Q0"":""kate is touching mike ""}","<img src=""stim_listA/touch3.gif""style=""height:400px;""></stim_listA>",is touching,,,,,,
null,"<div style=""font-size:60px;"">+</div>",,html-keyboard-response,184,608254,0.0-15.0-0.14,56062,List2A,black,man,,,,null,,,,,,,,,
null,"<img src=""stim_listA/hug3.gif""style=""height:400px;""></stim_listA>",,html-keyboard-response,185,610261,0.0-15.0-1.14,56062,List2A,black,man,,,,null,,,,,,,,,
null,is hugging,,html-keyboard-response,186,612265,0.0-15.0-2.14,56062,List2A,black,man,,,,null,,,,,,,,,
9824.6,,,survey-text,187,622095,0.0-15.0-3.14,56062,List2A,black,man,,,,,"{""Q0"":""fred is hugging beth ""}","<img src=""stim_listA/hug3.gif""style=""height:400px;""></stim_listA>",is hugging,,,,,,
null,"<div style=""font-size:60px;"">+</div>",,html-keyboard-response,188,622597,0.0-15.0-0.15,56062,List2A,black,man,,,,null,,,,,,,,,
null,"<img src=""stim_listA/hug7.gif""style=""height:400px;""></stim_listA>",,html-keyboard-response,189,624605,0.0-15.0-1.15,56062,List2A,black,man,,,,null,,,,,,,,,
null,is hugging,,html-keyboard-response,190,626612,0.0-15.0-2.15,56062,List2A,black,man,,,,null,,,,,,,,,
9031.3,,,survey-text,191,635647,0.0-15.0-3.15,56062,List2A,black,man,,,,,"{""Q0"":""beth is hugging ruth""}","<img src=""stim_listA/hug7.gif""style=""height:400px;""></stim_listA>",is hugging,,,,,,
null,"<div style=""font-size:60px;"">+</div>",,html-keyboard-response,192,636154,0.0-15.0-0.16,56062,List2A,black,man,,,,null,,,,,,,,,
null,"<img src=""stim_listA/copy3.gif""style=""height:400px;""></stim_listA>",,html-keyboard-response,193,638162,0.0-15.0-1.16,56062,List2A,black,man,,,,null,,,,,,,,,
null,is copying,,html-keyboard-response,194,640164,0.0-15.0-2.16,56062,List2A,black,man,,,,null,,,,,,,,,
7359.6,,,survey-text,195,647528,0.0-15.0-3.16,56062,List2A,black,man,,,,,"{""Q0"":""beth is copying mike ""}","<img src=""stim_listA/copy3.gif""style=""height:400px;""></stim_listA>",is copying,,,,,,
null,"<div style=""font-size:60px;"">+</div>",,html-keyboard-response,196,648034,0.0-15.0-0.17,56062,List2A,black,man,,,,null,,,,,,,,,
null,"<img src=""stim_listA/greet3.gif""style=""height:400px;""></stim_listA>",,html-keyboard-response,197,650038,0.0-15.0-1.17,56062,List2A,black,man,,,,null,,,,,,,,,
null,is greeting,,html-keyboard-response,198,652042,0.0-15.0-2.17,56062,List2A,black,man,,,,null,,,,,,,,,
7248.2,,,survey-text,199,659294,0.0-15.0-3.17,56062,List2A,black,man,,,,,"{""Q0"":""beth is greeting mike ""}","<img src=""stim_listA/greet3.gif""style=""height:400px;""></stim_listA>",is greeting,,,,,,
null,"<div style=""font-size:60px;"">+</div>",,html-keyboard-response,200,659801,0.0-15.0-0.18,56062,List2A,black,man,,,,null,,,,,,,,,
null,"<img src=""stim_listA/touch7.gif""style=""height:400px;""></stim_listA>",,html-keyboard-response,201,661804,0.0-15.0-1.18,56062,List2A,black,man,,,,null,,,,,,,,,
null,is touching,,html-keyboard-response,202,663806,0.0-15.0-2.18,56062,List2A,black,man,,,,null,,,,,,,,,
9519.4,,,survey-text,203,673331,0.0-15.0-3.18,56062,List2A,black,man,,,,,"{""Q0"":""kate is touching jane ""}","<img src=""stim_listA/touch7.gif""style=""height:400px;""></stim_listA>",is touching,,,,,,
null,"<div style=""font-size:60px;"">+</div>",,html-keyboard-response,204,673836,0.0-15.0-0.19,56062,List2A,black,man,,,,null,,,,,,,,,
null,"<img src=""stim_listA/greet4.gif""style=""height:400px;""></stim_listA>",,html-keyboard-response,205,675840,0.0-15.0-1.19,56062,List2A,black,man,,,,null,,,,,,,,,
null,is being greeted by,,html-keyboard-response,206,677846,0.0-15.0-2.19,56062,List2A,black,man,,,,null,,,,,,,,,
11205.9,,,survey-text,207,689055,0.0-15.0-3.19,56062,List2A,black,man,,,,,"{""Q0"":""fred is being greeted by kate ""}","<img src=""stim_listA/greet4.gif""style=""height:400px;""></stim_listA>",is being greeted by,,,,,,
6673.5,"<img src='img/portrait_matrix_list2.jpg' style='width:900px;height:500px;''></img><p>If you have memorised all the portraits and names and are ready to start, press Continue.</p><p><strong>Please note: Your memory of these faces will be tested 4 times during this experiment.</strong></p>",0,html-button-response,208,695730,0.0-16.0-0.0,56062,List2A,black,man,,,,,,,,,,,,,
2689.8,"<img src=""portrait/WW2.jpg""style=""height:400px;""></img>",3,html-button-response,209,699426,0.0-16.0-1.0,56062,List2A,black,man,,TRUE,3,,,,,,,,,,
null,CORRECT,,html-keyboard-response,210,700934,0.0-16.0-2.0-0.0,56062,List2A,black,man,,,,null,,,,,,,,,
2057.6,"<img src=""portrait/WW1.jpg""style=""height:400px;""></img>",1,html-button-response,211,702995,0.0-16.0-4.0,56062,List2A,black,man,,TRUE,1,,,,,,,,,,
null,CORRECT,,html-keyboard-response,212,704501,0.0-16.0-5.0-0.0,56062,List2A,black,man,,,,null,,,,,,,,,
1803.7,"<img src=""portrait/BM1.jpg""style=""height:400px;""></img>",4,html-button-response,213,706306,0.0-16.0-7.0,56062,List2A,black,man,,TRUE,4,,,,,,,,,,
null,CORRECT,,html-keyboard-response,214,707816,0.0-16.0-8.0-0.0,56062,List2A,black,man,,,,null,,,,,,,,,
2504.2,"<img src=""portrait/BW1.jpg""style=""height:400px;""></img>",0,html-button-response,215,710322,0.0-16.0-10.0,56062,List2A,black,man,,TRUE,0,,,,,,,,,,
null,CORRECT,,html-keyboard-response,216,711828,0.0-16.0-11.0-0.0,56062,List2A,black,man,,,,null,,,,,,,,,
2500,"<img src=""portrait/WM2.jpg""style=""height:400px;""></img>",7,html-button-response,217,714331,0.0-16.0-13.0,56062,List2A,black,man,,TRUE,7,,,,,,,,,,
null,CORRECT,,html-keyboard-response,218,715834,0.0-16.0-14.0-0.0,56062,List2A,black,man,,,,null,,,,,,,,,
1661.9,"<img src=""portrait/BM2.jpg""style=""height:400px;""></img>",5,html-button-response,219,717499,0.0-16.0-16.0,56062,List2A,black,man,,TRUE,5,,,,,,,,,,
null,CORRECT,,html-keyboard-response,220,719004,0.0-16.0-17.0-0.0,56062,List2A,black,man,,,,null,,,,,,,,,
1755.9,"<img src=""portrait/WM1.jpg""style=""height:400px;""></img>",6,html-button-response,221,720762,0.0-16.0-19.0,56062,List2A,black,man,,TRUE,6,,,,,,,,,,
null,CORRECT,,html-keyboard-response,222,722266,0.0-16.0-20.0-0.0,56062,List2A,black,man,,,,null,,,,,,,,,
3588.3,"<img src=""portrait/BW2.jpg""style=""height:400px;""></img>",2,html-button-response,223,725856,0.0-16.0-22.0,56062,List2A,black,man,,TRUE,2,,,,,,,,,,
null,CORRECT,,html-keyboard-response,224,727363,0.0-16.0-23.0-0.0,56062,List2A,black,man,,,,null,,,,,,,,,
1106.6,<p>You got 8 out of 8 right first time. Press Continue.</p>,0,html-button-response,225,728472,0.0-16.0-25.0,56062,List2A,black,man,,,,,,,,,,,,,
null,"<div style=""font-size:60px;"">+</div>",,html-keyboard-response,226,729976,0.0-17.0-0.0,56062,List2A,black,man,,,,null,,,,,,,,,
null,"<img src=""stim_listA/kiss3.gif""style=""height:400px;""></stim_listA>",,html-keyboard-response,227,731984,0.0-17.0-1.0,56062,List2A,black,man,,,,null,,,,,,,,,
null,is kissing,,html-keyboard-response,228,733986,0.0-17.0-2.0,56062,List2A,black,man,,,,null,,,,,,,,,
5526.4,,,survey-text,229,739516,0.0-17.0-3.0,56062,List2A,black,man,,,,,"{""Q0"":""fred is kissing beth ""}","<img src=""stim_listA/kiss3.gif""style=""height:400px;""></stim_listA>",is kissing,,,,,,
null,"<div style=""font-size:60px;"">+</div>",,html-keyboard-response,230,740019,0.0-17.0-0.1,56062,List2A,black,man,,,,null,,,,,,,,,
null,"<img src=""stim_listA/oppose7.gif""style=""height:400px;""></stim_listA>",,html-keyboard-response,231,742027,0.0-17.0-1.1,56062,List2A,black,man,,,,null,,,,,,,,,
null,is opposing,,html-keyboard-response,232,744031,0.0-17.0-2.1,56062,List2A,black,man,,,,null,,,,,,,,,
6379.1,,,survey-text,233,750414,0.0-17.0-3.1,56062,List2A,black,man,,,,,"{""Q0"":""jane is opposing kate ""}","<img src=""stim_listA/oppose7.gif""style=""height:400px;""></stim_listA>",is opposing,,,,,,
null,"<div style=""font-size:60px;"">+</div>",,html-keyboard-response,234,750918,0.0-17.0-0.2,56062,List2A,black,man,,,,null,,,,,,,,,
null,"<img src=""stim_listA/challenge5.gif""style=""height:400px;""></stim_listA>",,html-keyboard-response,235,752924,0.0-17.0-1.2,56062,List2A,black,man,,,,null,,,,,,,,,
null,is challenging,,html-keyboard-response,236,754930,0.0-17.0-2.2,56062,List2A,black,man,,,,null,,,,,,,,,
7002.4,,,survey-text,237,761936,0.0-17.0-3.2,56062,List2A,black,man,,,,,"{""Q0"":""dave is challenging fred""}","<img src=""stim_listA/challenge5.gif""style=""height:400px;""></stim_listA>",is challenging,,,,,,
null,"<div style=""font-size:60px;"">+</div>",,html-keyboard-response,238,762440,0.0-17.0-0.3,56062,List2A,black,man,,,,null,,,,,,,,,
null,"<img src=""stim_listA/greet1.gif""style=""height:400px;""></stim_listA>",,html-keyboard-response,239,764446,0.0-17.0-1.3,56062,List2A,black,man,,,,null,,,,,,,,,
null,is greeting,,html-keyboard-response,240,766452,0.0-17.0-2.3,56062,List2A,black,man,,,,null,,,,,,,,,
5179.6,,,survey-text,241,771636,0.0-17.0-3.3,56062,List2A,black,man,,,,,"{""Q0"":""ruth is greeting dave ""}","<img src=""stim_listA/greet1.gif""style=""height:400px;""></stim_listA>",is greeting,,,,,,
null,"<div style=""font-size:60px;"">+</div>",,html-keyboard-response,242,772141,0.0-17.0-0.4,56062,List2A,black,man,,,,null,,,,,,,,,
null,"<img src=""stim_listA/seduce5.gif""style=""height:400px;""></stim_listA>",,html-keyboard-response,243,774145,0.0-17.0-1.4,56062,List2A,black,man,,,,null,,,,,,,,,
null,is seducing,,html-keyboard-response,244,776543,0.0-17.0-2.4,56062,List2A,black,man,,,,null,,,,,,,,,
9742.3,,,survey-text,245,786299,0.0-17.0-3.4,56062,List2A,black,man,,,,,"{""Q0"":""mike is seducing luke ""}","<img src=""stim_listA/seduce5.gif""style=""height:400px;""></stim_listA>",is seducing,,,,,,
null,"<div style=""font-size:60px;"">+</div>",,html-keyboard-response,246,786805,0.0-17.0-0.5,56062,List2A,black,man,,,,null,,,,,,,,,
null,"<img src=""stim_listA/touch4.gif""style=""height:400px;""></stim_listA>",,html-keyboard-response,247,788812,0.0-17.0-1.5,56062,List2A,black,man,,,,null,,,,,,,,,
null,is being touched by,,html-keyboard-response,248,790815,0.0-17.0-2.5,56062,List2A,black,man,,,,null,,,,,,,,,
7869.2,,,survey-text,249,798688,0.0-17.0-3.5,56062,List2A,black,man,,,,,"{""Q0"":""fred is being touched by beth""}","<img src=""stim_listA/touch4.gif""style=""height:400px;""></stim_listA>",is being touched by,,,,,,
null,"<div style=""font-size:60px;"">+</div>",,html-keyboard-response,250,799191,0.0-17.0-0.6,56062,List2A,black,man,,,,null,,,,,,,,,
null,"<img src=""stim_listA/oppose5.gif""style=""height:400px;""></stim_listA>",,html-keyboard-response,251,801194,0.0-17.0-1.6,56062,List2A,black,man,,,,null,,,,,,,,,
null,is opposing,,html-keyboard-response,252,803196,0.0-17.0-2.6,56062,List2A,black,man,,,,null,,,,,,,,,
9935.7,,,survey-text,253,813136,0.0-17.0-3.6,56062,List2A,black,man,,,,,"{""Q0"":""dave is opposing mike ""}","<img src=""stim_listA/oppose5.gif""style=""height:400px;""></stim_listA>",is opposing,,,,,,
null,"<div style=""font-size:60px;"">+</div>",,html-keyboard-response,254,813641,0.0-17.0-0.7,56062,List2A,black,man,,,,null,,,,,,,,,
null,"<img src=""stim_listA/shout5.gif""style=""height:400px;""></stim_listA>",,html-keyboard-response,255,815648,0.0-17.0-1.7,56062,List2A,black,man,,,,null,,,,,,,,,
null,is shouting at,,html-keyboard-response,256,817653,0.0-17.0-2.7,56062,List2A,black,man,,,,null,,,,,,,,,
8232.2,,,survey-text,257,825889,0.0-17.0-3.7,56062,List2A,black,man,,,,,"{""Q0"":""luke is shouting at fred ""}","<img src=""stim_listA/shout5.gif""style=""height:400px;""></stim_listA>",is shouting at,,,,,,
null,"<div style=""font-size:60px;"">+</div>",,html-keyboard-response,258,826392,0.0-17.0-0.8,56062,List2A,black,man,,,,null,,,,,,,,,
null,"<img src=""stim_listA/look7.gif""style=""height:400px;""></stim_listA>",,html-keyboard-response,259,828399,0.0-17.0-1.8,56062,List2A,black,man,,,,null,,,,,,,,,
null,is looking at,,html-keyboard-response,260,830403,0.0-17.0-2.8,56062,List2A,black,man,,,,null,,,,,,,,,
6034.8,,,survey-text,261,836441,0.0-17.0-3.8,56062,List2A,black,man,,,,,"{""Q0"":""beth is looking at ruth ""}","<img src=""stim_listA/look7.gif""style=""height:400px;""></stim_listA>",is looking at,,,,,,
null,"<div style=""font-size:60px;"">+</div>",,html-keyboard-response,262,836946,0.0-17.0-0.9,56062,List2A,black,man,,,,null,,,,,,,,,
null,"<img src=""stim_listA/oppose6.gif""style=""height:400px;""></stim_listA>",,html-keyboard-response,263,838951,0.0-17.0-1.9,56062,List2A,black,man,,,,null,,,,,,,,,
null,is being opposed by,,html-keyboard-response,264,840956,0.0-17.0-2.9,56062,List2A,black,man,,,,null,,,,,,,,,
13077.2,,,survey-text,265,854039,0.0-17.0-3.9,56062,List2A,black,man,,,,,"{""Q0"":""fred is being opposed by luke ""}","<img src=""stim_listA/oppose6.gif""style=""height:400px;""></stim_listA>",is being opposed by,,,,,,
null,"<div style=""font-size:60px;"">+</div>",,html-keyboard-response,266,854541,0.0-17.0-0.10,56062,List2A,black,man,,,,null,,,,,,,,,
null,"<img src=""stim_listA/kiss2.gif""style=""height:400px;""></stim_listA>",,html-keyboard-response,267,856549,0.0-17.0-1.10,56062,List2A,black,man,,,,null,,,,,,,,,
null,is being kissed by,,html-keyboard-response,268,858556,0.0-17.0-2.10,56062,List2A,black,man,,,,null,,,,,,,,,
6305.7,,,survey-text,269,864867,0.0-17.0-3.10,56062,List2A,black,man,,,,,"{""Q0"":""dave is being kissed by jane ""}","<img src=""stim_listA/kiss2.gif""style=""height:400px;""></stim_listA>",is being kissed by,,,,,,
null,"<div style=""font-size:60px;"">+</div>",,html-keyboard-response,270,865371,0.0-17.0-0.11,56062,List2A,black,man,,,,null,,,,,,,,,
null,"<img src=""stim_listA/look5.gif""style=""height:400px;""></stim_listA>",,html-keyboard-response,271,867376,0.0-17.0-1.11,56062,List2A,black,man,,,,null,,,,,,,,,
null,is looking at,,html-keyboard-response,272,869383,0.0-17.0-2.11,56062,List2A,black,man,,,,null,,,,,,,,,
10628.7,,,survey-text,273,880016,0.0-17.0-3.11,56062,List2A,black,man,,,,,"{""Q0"":""luke is looking at fred""}","<img src=""stim_listA/look5.gif""style=""height:400px;""></stim_listA>",is looking at,,,,,,
null,"<div style=""font-size:60px;"">+</div>",,html-keyboard-response,274,880522,0.0-17.0-0.12,56062,List2A,black,man,,,,null,,,,,,,,,
null,"<img src=""stim_listA/seduce2.gif""style=""height:400px;""></stim_listA>",,html-keyboard-response,275,882526,0.0-17.0-1.12,56062,List2A,black,man,,,,null,,,,,,,,,
null,is being seduced by,,html-keyboard-response,276,884532,0.0-17.0-2.12,56062,List2A,black,man,,,,null,,,,,,,,,
12323.5,,,survey-text,277,896859,0.0-17.0-3.12,56062,List2A,black,man,,,,,"{""Q0"":""ruth is seducing dave ""}","<img src=""stim_listA/seduce2.gif""style=""height:400px;""></stim_listA>",is being seduced by,,,,,,
null,"<div style=""font-size:60px;"">+</div>",,html-keyboard-response,278,897364,0.0-17.0-0.13,56062,List2A,black,man,,,,null,,,,,,,,,
null,"<img src=""stim_listA/greet7.gif""style=""height:400px;""></stim_listA>",,html-keyboard-response,279,899369,0.0-17.0-1.13,56062,List2A,black,man,,,,null,,,,,,,,,
null,is greeting,,html-keyboard-response,280,901371,0.0-17.0-2.13,56062,List2A,black,man,,,,null,,,,,,,,,
6238.9,,,survey-text,281,907614,0.0-17.0-3.13,56062,List2A,black,man,,,,,"{""Q0"":""jane is greeting beth ""}","<img src=""stim_listA/greet7.gif""style=""height:400px;""></stim_listA>",is greeting,,,,,,
null,"<div style=""font-size:60px;"">+</div>",,html-keyboard-response,282,908119,0.0-17.0-0.14,56062,List2A,black,man,,,,null,,,,,,,,,
null,"<img src=""stim_listA/touch1.gif""style=""height:400px;""></stim_listA>",,html-keyboard-response,283,910127,0.0-17.0-1.14,56062,List2A,black,man,,,,null,,,,,,,,,
null,is touching,,html-keyboard-response,284,912133,0.0-17.0-2.14,56062,List2A,black,man,,,,null,,,,,,,,,
7227.4,,,survey-text,285,919364,0.0-17.0-3.14,56062,List2A,black,man,,,,,"{""Q0"":""dave is touching jane ""}","<img src=""stim_listA/touch1.gif""style=""height:400px;""></stim_listA>",is touching,,,,,,
null,"<div style=""font-size:60px;"">+</div>",,html-keyboard-response,286,919866,0.0-17.0-0.15,56062,List2A,black,man,,,,null,,,,,,,,,
null,"<img src=""stim_listA/shout4.gif""style=""height:400px;""></stim_listA>",,html-keyboard-response,287,921871,0.0-17.0-1.15,56062,List2A,black,man,,,,null,,,,,,,,,
null,is being shouted at by,,html-keyboard-response,288,923878,0.0-17.0-2.15,56062,List2A,black,man,,,,null,,,,,,,,,
9850.1,,,survey-text,289,933732,0.0-17.0-3.15,56062,List2A,black,man,,,,,"{""Q0"":""kate is being shouted at by mike ""}","<img src=""stim_listA/shout4.gif""style=""height:400px;""></stim_listA>",is being shouted at by,,,,,,
null,"<div style=""font-size:60px;"">+</div>",,html-keyboard-response,290,934234,0.0-17.0-0.16,56062,List2A,black,man,,,,null,,,,,,,,,
null,"<img src=""stim_listA/hug2.gif""style=""height:400px;""></stim_listA>",,html-keyboard-response,291,936240,0.0-17.0-1.16,56062,List2A,black,man,,,,null,,,,,,,,,
null,is being hugged by,,html-keyboard-response,292,938245,0.0-17.0-2.16,56062,List2A,black,man,,,,null,,,,,,,,,
8387.6,,,survey-text,293,946638,0.0-17.0-3.16,56062,List2A,black,man,,,,,"{""Q0"":""dave is being hugged by jane ""}","<img src=""stim_listA/hug2.gif""style=""height:400px;""></stim_listA>",is being hugged by,,,,,,
null,"<div style=""font-size:60px;"">+</div>",,html-keyboard-response,294,947141,0.0-17.0-0.17,56062,List2A,black,man,,,,null,,,,,,,,,
null,"<img src=""stim_listA/copy6.gif""style=""height:400px;""></stim_listA>",,html-keyboard-response,295,949147,0.0-17.0-1.17,56062,List2A,black,man,,,,null,,,,,,,,,
null,is being copied by,,html-keyboard-response,296,951152,0.0-17.0-2.17,56062,List2A,black,man,,,,null,,,,,,,,,
10992.2,,,survey-text,297,962148,0.0-17.0-3.17,56062,List2A,black,man,,,,,"{""Q0"":""mike is being copied by luke ""}","<img src=""stim_listA/copy6.gif""style=""height:400px;""></stim_listA>",is being copied by,,,,,,
null,"<div style=""font-size:60px;"">+</div>",,html-keyboard-response,298,962654,0.0-17.0-0.18,56062,List2A,black,man,,,,null,,,,,,,,,
null,"<img src=""stim_listA/challenge6.gif""style=""height:400px;""></stim_listA>",,html-keyboard-response,299,964661,0.0-17.0-1.18,56062,List2A,black,man,,,,null,,,,,,,,,
null,is being challenged by,,html-keyboard-response,300,966667,0.0-17.0-2.18,56062,List2A,black,man,,,,null,,,,,,,,,
11275.7,,,survey-text,301,977947,0.0-17.0-3.18,56062,List2A,black,man,,,,,"{""Q0"":""mike is being challenged by luke ""}","<img src=""stim_listA/challenge6.gif""style=""height:400px;""></stim_listA>",is being challenged by,,,,,,
null,"<div style=""font-size:60px;"">+</div>",,html-keyboard-response,302,978452,0.0-17.0-0.19,56062,List2A,black,man,,,,null,,,,,,,,,
null,"<img src=""stim_listA/hug4.gif""style=""height:400px;""></stim_listA>",,html-keyboard-response,303,980458,0.0-17.0-1.19,56062,List2A,black,man,,,,null,,,,,,,,,
null,is being hugged by,,html-keyboard-response,304,982465,0.0-17.0-2.19,56062,List2A,black,man,,,,null,,,,,,,,,
8742,,,survey-text,305,991211,0.0-17.0-3.19,56062,List2A,black,man,,,,,"{""Q0"":""kate is being hugged my mike ""}","<img src=""stim_listA/hug4.gif""style=""height:400px;""></stim_listA>",is being hugged by,,,,,,
2813,"<img src='img/portrait_matrix_list2.jpg' style='width:900px;height:500px;''></img><p>If you have memorised all the portraits and names and are ready to start, press Continue.</p><p><strong>Please note: Your memory of these faces will be tested 4 times during this experiment.</strong></p>",0,html-button-response,306,994027,0.0-18.0-0.0,56062,List2A,black,man,,,,,,,,,,,,,
5119.6,"<img src=""portrait/BM1.jpg""style=""height:400px;""></img>",4,html-button-response,307,1000155,0.0-18.0-1.0,56062,List2A,black,man,,TRUE,4,,,,,,,,,,
null,CORRECT,,html-keyboard-response,308,1001659,0.0-18.0-2.0-0.0,56062,List2A,black,man,,,,null,,,,,,,,,
1525.5,"<img src=""portrait/BM2.jpg""style=""height:400px;""></img>",5,html-button-response,309,1003186,0.0-18.0-4.0,56062,List2A,black,man,,TRUE,5,,,,,,,,,,
null,CORRECT,,html-keyboard-response,310,1004697,0.0-18.0-5.0-0.0,56062,List2A,black,man,,,,null,,,,,,,,,
2383.5,"<img src=""portrait/WM2.jpg""style=""height:400px;""></img>",7,html-button-response,311,1007083,0.0-18.0-7.0,56062,List2A,black,man,,TRUE,7,,,,,,,,,,
null,CORRECT,,html-keyboard-response,312,1008593,0.0-18.0-8.0-0.0,56062,List2A,black,man,,,,null,,,,,,,,,
1623.6,"<img src=""portrait/BW2.jpg""style=""height:400px;""></img>",2,html-button-response,313,1010218,0.0-18.0-10.0,56062,List2A,black,man,,TRUE,2,,,,,,,,,,
null,CORRECT,,html-keyboard-response,314,1011725,0.0-18.0-11.0-0.0,56062,List2A,black,man,,,,null,,,,,,,,,
2243.4,"<img src=""portrait/WM1.jpg""style=""height:400px;""></img>",6,html-button-response,315,1013971,0.0-18.0-13.0,56062,List2A,black,man,,TRUE,6,,,,,,,,,,
null,CORRECT,,html-keyboard-response,316,1015474,0.0-18.0-14.0-0.0,56062,List2A,black,man,,,,null,,,,,,,,,
1110.3,"<img src=""portrait/WW2.jpg""style=""height:400px;""></img>",3,html-button-response,317,1016586,0.0-18.0-16.0,56062,List2A,black,man,,TRUE,3,,,,,,,,,,
null,CORRECT,,html-keyboard-response,318,1018095,0.0-18.0-17.0-0.0,56062,List2A,black,man,,,,null,,,,,,,,,
1545.7,"<img src=""portrait/BW1.jpg""style=""height:400px;""></img>",0,html-button-response,319,1019642,0.0-18.0-19.0,56062,List2A,black,man,,TRUE,0,,,,,,,,,,
null,CORRECT,,html-keyboard-response,320,1021147,0.0-18.0-20.0-0.0,56062,List2A,black,man,,,,null,,,,,,,,,
1173.6,"<img src=""portrait/WW1.jpg""style=""height:400px;""></img>",1,html-button-response,321,1022323,0.0-18.0-22.0,56062,List2A,black,man,,TRUE,1,,,,,,,,,,
null,CORRECT,,html-keyboard-response,322,1023825,0.0-18.0-23.0-0.0,56062,List2A,black,man,,,,null,,,,,,,,,
1357.9,<p>You got 8 out of 8 right first time. Press Continue.</p>,0,html-button-response,323,1025185,0.0-18.0-25.0,56062,List2A,black,man,,,,,,,,,,,,,
null,"<div style=""font-size:60px;"">+</div>",,html-keyboard-response,324,1026692,0.0-19.0-0.0,56062,List2A,black,man,,,,null,,,,,,,,,
null,"<img src=""stim_listA/greet8.gif""style=""height:400px;""></stim_listA>",,html-keyboard-response,325,1028697,0.0-19.0-1.0,56062,List2A,black,man,,,,null,,,,,,,,,
null,is being greeted by,,html-keyboard-response,326,1030699,0.0-19.0-2.0,56062,List2A,black,man,,,,null,,,,,,,,,
10227.2,,,survey-text,327,1040930,0.0-19.0-3.0,56062,List2A,black,man,,,,,"{""Q0"":""kate is being greeted by ruth""}","<img src=""stim_listA/greet8.gif""style=""height:400px;""></stim_listA>",is being greeted by,,,,,,
null,"<div style=""font-size:60px;"">+</div>",,html-keyboard-response,328,1041433,0.0-19.0-0.1,56062,List2A,black,man,,,,null,,,,,,,,,
null,"<img src=""stim_listA/shout8.gif""style=""height:400px;""></stim_listA>",,html-keyboard-response,329,1043440,0.0-19.0-1.1,56062,List2A,black,man,,,,null,,,,,,,,,
null,is being shouted at by,,html-keyboard-response,330,1045442,0.0-19.0-2.1,56062,List2A,black,man,,,,null,,,,,,,,,
7936.3,,,survey-text,331,1053381,0.0-19.0-3.1,56062,List2A,black,man,,,,,"{""Q0"":""jane is being shouted by kate""}","<img src=""stim_listA/shout8.gif""style=""height:400px;""></stim_listA>",is being shouted at by,,,,,,
null,"<div style=""font-size:60px;"">+</div>",,html-keyboard-response,332,1053884,0.0-19.0-0.2,56062,List2A,black,man,,,,null,,,,,,,,,
null,"<img src=""stim_listA/look8.gif""style=""height:400px;""></stim_listA>",,html-keyboard-response,333,1055890,0.0-19.0-1.2,56062,List2A,black,man,,,,null,,,,,,,,,
null,is being looked at by,,html-keyboard-response,334,1057896,0.0-19.0-2.2,56062,List2A,black,man,,,,null,,,,,,,,,
9869.5,,,survey-text,335,1067769,0.0-19.0-3.2,56062,List2A,black,man,,,,,"{""Q0"":""jane is being looked at by kate""}","<img src=""stim_listA/look8.gif""style=""height:400px;""></stim_listA>",is being looked at by,,,,,,
null,"<div style=""font-size:60px;"">+</div>",,html-keyboard-response,336,1068273,0.0-19.0-0.3,56062,List2A,black,man,,,,null,,,,,,,,,
null,"<img src=""stim_listA/look1.gif""style=""height:400px;""></stim_listA>",,html-keyboard-response,337,1070280,0.0-19.0-1.3,56062,List2A,black,man,,,,null,,,,,,,,,
null,is looking at,,html-keyboard-response,338,1072285,0.0-19.0-2.3,56062,List2A,black,man,,,,null,,,,,,,,,
7836.8,,,survey-text,339,1080126,0.0-19.0-3.3,56062,List2A,black,man,,,,,"{""Q0"":""luke is looking at ruth ""}","<img src=""stim_listA/look1.gif""style=""height:400px;""></stim_listA>",is looking at,,,,,,
null,"<div style=""font-size:60px;"">+</div>",,html-keyboard-response,340,1080628,0.0-19.0-0.4,56062,List2A,black,man,,,,null,,,,,,,,,
null,"<img src=""stim_listA/challenge4.gif""style=""height:400px;""></stim_listA>",,html-keyboard-response,341,1082634,0.0-19.0-1.4,56062,List2A,black,man,,,,null,,,,,,,,,
null,is being challenged by,,html-keyboard-response,342,1084638,0.0-19.0-2.4,56062,List2A,black,man,,,,null,,,,,,,,,
10280.2,,,survey-text,343,1094922,0.0-19.0-3.4,56062,List2A,black,man,,,,,"{""Q0"":""fred is being challenged by kate ""}","<img src=""stim_listA/challenge4.gif""style=""height:400px;""></stim_listA>",is being challenged by,,,,,,
null,"<div style=""font-size:60px;"">+</div>",,html-keyboard-response,344,1095424,0.0-19.0-0.5,56062,List2A,black,man,,,,null,,,,,,,,,
null,"<img src=""stim_listA/touch8.gif""style=""height:400px;""></stim_listA>",,html-keyboard-response,345,1097431,0.0-19.0-1.5,56062,List2A,black,man,,,,null,,,,,,,,,
null,is being touched by,,html-keyboard-response,346,1099437,0.0-19.0-2.5,56062,List2A,black,man,,,,null,,,,,,,,,
8551.9,,,survey-text,347,1107993,0.0-19.0-3.5,56062,List2A,black,man,,,,,"{""Q0"":""beth is being touched by ruth""}","<img src=""stim_listA/touch8.gif""style=""height:400px;""></stim_listA>",is being touched by,,,,,,
null,"<div style=""font-size:60px;"">+</div>",,html-keyboard-response,348,1108496,0.0-19.0-0.6,56062,List2A,black,man,,,,null,,,,,,,,,
null,"<img src=""stim_listA/kiss5.gif""style=""height:400px;""></stim_listA>",,html-keyboard-response,349,1110501,0.0-19.0-1.6,56062,List2A,black,man,,,,null,,,,,,,,,
null,is kissing,,html-keyboard-response,350,1112507,0.0-19.0-2.6,56062,List2A,black,man,,,,null,,,,,,,,,
7968.7,,,survey-text,351,1120481,0.0-19.0-3.6,56062,List2A,black,man,,,,,"{""Q0"":""fred is kissing luke""}","<img src=""stim_listA/kiss5.gif""style=""height:400px;""></stim_listA>",is kissing,,,,,,
null,"<div style=""font-size:60px;"">+</div>",,html-keyboard-response,352,1120986,0.0-19.0-0.7,56062,List2A,black,man,,,,null,,,,,,,,,
null,"<img src=""stim_listA/shout2.gif""style=""height:400px;""></stim_listA>",,html-keyboard-response,353,1122990,0.0-19.0-1.7,56062,List2A,black,man,,,,null,,,,,,,,,
null,is being shouted at by,,html-keyboard-response,354,1124994,0.0-19.0-2.7,56062,List2A,black,man,,,,null,,,,,,,,,
27731.6,,,survey-text,355,1152729,0.0-19.0-3.7,56062,List2A,black,man,,,,,"{""Q0"":""fred is being shouted at by luke""}","<img src=""stim_listA/shout2.gif""style=""height:400px;""></stim_listA>",is being shouted at by,,,,,,
null,"<div style=""font-size:60px;"">+</div>",,html-keyboard-response,356,1153231,0.0-19.0-0.8,56062,List2A,black,man,,,,null,,,,,,,,,
null,"<img src=""stim_listA/kiss6.gif""style=""height:400px;""></stim_listA>",,html-keyboard-response,357,1155234,0.0-19.0-1.8,56062,List2A,black,man,,,,null,,,,,,,,,
null,is being kissed by,,html-keyboard-response,358,1157240,0.0-19.0-2.8,56062,List2A,black,man,,,,null,,,,,,,,,
10419.3,,,survey-text,359,1167663,0.0-19.0-3.8,56062,List2A,black,man,,,,,"{""Q0"":""dave is being kissed by mike ""}","<img src=""stim_listA/kiss6.gif""style=""height:400px;""></stim_listA>",is being kissed by,,,,,,
null,"<div style=""font-size:60px;"">+</div>",,html-keyboard-response,360,1168169,0.0-19.0-0.9,56062,List2A,black,man,,,,null,,,,,,,,,
null,"<img src=""stim_listA/oppose4.gif""style=""height:400px;""></stim_listA>",,html-keyboard-response,361,1170174,0.0-19.0-1.9,56062,List2A,black,man,,,,null,,,,,,,,,
null,is being opposed by,,html-keyboard-response,362,1172178,0.0-19.0-2.9,56062,List2A,black,man,,,,null,,,,,,,,,
10460.9,,,survey-text,363,1182642,0.0-19.0-3.9,56062,List2A,black,man,,,,,"{""Q0"":""beth is being opposed by fred ""}","<img src=""stim_listA/oppose4.gif""style=""height:400px;""></stim_listA>",is being opposed by,,,,,,
null,"<div style=""font-size:60px;"">+</div>",,html-keyboard-response,364,1183147,0.0-19.0-0.10,56062,List2A,black,man,,,,null,,,,,,,,,
null,"<img src=""stim_listA/copy2.gif""style=""height:400px;""></stim_listA>",,html-keyboard-response,365,1185153,0.0-19.0-1.10,56062,List2A,black,man,,,,null,,,,,,,,,
null,is being copied by,,html-keyboard-response,366,1187157,0.0-19.0-2.10,56062,List2A,black,man,,,,null,,,,,,,,,
9876.8,,,survey-text,367,1197038,0.0-19.0-3.10,56062,List2A,black,man,,,,,"{""Q0"":""luke is being copied by jane ""}","<img src=""stim_listA/copy2.gif""style=""height:400px;""></stim_listA>",is being copied by,,,,,,
null,"<div style=""font-size:60px;"">+</div>",,html-keyboard-response,368,1197539,0.0-19.0-0.11,56062,List2A,black,man,,,,null,,,,,,,,,
null,"<img src=""stim_listA/copy5.gif""style=""height:400px;""></stim_listA>",,html-keyboard-response,369,1199546,0.0-19.0-1.11,56062,List2A,black,man,,,,null,,,,,,,,,
null,is copying,,html-keyboard-response,370,1201550,0.0-19.0-2.11,56062,List2A,black,man,,,,null,,,,,,,,,
9432.2,,,survey-text,371,1210988,0.0-19.0-3.11,56062,List2A,black,man,,,,,"{""Q0"":""fred is being copied by dave ""}","<img src=""stim_listA/copy5.gif""style=""height:400px;""></stim_listA>",is copying,,,,,,
null,"<div style=""font-size:60px;"">+</div>",,html-keyboard-response,372,1211493,0.0-19.0-0.12,56062,List2A,black,man,,,,null,,,,,,,,,
null,"<img src=""stim_listA/seduce6.gif""style=""height:400px;""></stim_listA>",,html-keyboard-response,373,1213498,0.0-19.0-1.12,56062,List2A,black,man,,,,null,,,,,,,,,
null,is being seduced by,,html-keyboard-response,374,1215502,0.0-19.0-2.12,56062,List2A,black,man,,,,null,,,,,,,,,
14969.1,,,survey-text,375,1230476,0.0-19.0-3.12,56062,List2A,black,man,,,,,"{""Q0"":""dave is being seduced by fred ""}","<img src=""stim_listA/seduce6.gif""style=""height:400px;""></stim_listA>",is being seduced by,,,,,,
null,"<div style=""font-size:60px;"">+</div>",,html-keyboard-response,376,1230981,0.0-19.0-0.13,56062,List2A,black,man,,,,null,,,,,,,,,
null,"<img src=""stim_listA/copy8.gif""style=""height:400px;""></stim_listA>",,html-keyboard-response,377,1232989,0.0-19.0-1.13,56062,List2A,black,man,,,,null,,,,,,,,,
null,is being copied by,,html-keyboard-response,378,1234993,0.0-19.0-2.13,56062,List2A,black,man,,,,null,,,,,,,,,
9283.8,,,survey-text,379,1244281,0.0-19.0-3.13,56062,List2A,black,man,,,,,"{""Q0"":""kate is being copied by ruth ""}","<img src=""stim_listA/copy8.gif""style=""height:400px;""></stim_listA>",is being copied by,,,,,,
null,"<div style=""font-size:60px;"">+</div>",,html-keyboard-response,380,1244786,0.0-19.0-0.14,56062,List2A,black,man,,,,null,,,,,,,,,
null,"<img src=""stim_listA/seduce8.gif""style=""height:400px;""></stim_listA>",,html-keyboard-response,381,1246791,0.0-19.0-1.14,56062,List2A,black,man,,,,null,,,,,,,,,
null,is being seduced by,,html-keyboard-response,382,1248797,0.0-19.0-2.14,56062,List2A,black,man,,,,null,,,,,,,,,
20442.1,,,survey-text,383,1269242,0.0-19.0-3.14,56062,List2A,black,man,,,,,"{""Q0"":""beth is being seduced by jane ""}","<img src=""stim_listA/seduce8.gif""style=""height:400px;""></stim_listA>",is being seduced by,,,,,,
null,"<div style=""font-size:60px;"">+</div>",,html-keyboard-response,384,1269745,0.0-19.0-0.15,56062,List2A,black,man,,,,null,,,,,,,,,
null,"<img src=""stim_listA/seduce3.gif""style=""height:400px;""></stim_listA>",,html-keyboard-response,385,1271748,0.0-19.0-1.15,56062,List2A,black,man,,,,null,,,,,,,,,
null,is seducing,,html-keyboard-response,386,1273751,0.0-19.0-2.15,56062,List2A,black,man,,,,null,,,,,,,,,
6643.8,,,survey-text,387,1280400,0.0-19.0-3.15,56062,List2A,black,man,,,,,"{""Q0"":""fred is seducing kate""}","<img src=""stim_listA/seduce3.gif""style=""height:400px;""></stim_listA>",is seducing,,,,,,
null,"<div style=""font-size:60px;"">+</div>",,html-keyboard-response,388,1280905,0.0-19.0-0.16,56062,List2A,black,man,,,,null,,,,,,,,,
null,"<img src=""stim_listA/kiss1.gif""style=""height:400px;""></stim_listA>",,html-keyboard-response,389,1282914,0.0-19.0-1.16,56062,List2A,black,man,,,,null,,,,,,,,,
null,is kissing,,html-keyboard-response,390,1284916,0.0-19.0-2.16,56062,List2A,black,man,,,,null,,,,,,,,,
11633.5,,,survey-text,391,1296558,0.0-19.0-3.16,56062,List2A,black,man,,,,,"{""Q0"":""ruth is kissing luke ""}","<img src=""stim_listA/kiss1.gif""style=""height:400px;""></stim_listA>",is kissing,,,,,,
null,"<div style=""font-size:60px;"">+</div>",,html-keyboard-response,392,1297063,0.0-19.0-0.17,56062,List2A,black,man,,,,null,,,,,,,,,
null,"<img src=""stim_listA/oppose1.gif""style=""height:400px;""></stim_listA>",,html-keyboard-response,393,1299069,0.0-19.0-1.17,56062,List2A,black,man,,,,null,,,,,,,,,
null,is opposing,,html-keyboard-response,394,1301075,0.0-19.0-2.17,56062,List2A,black,man,,,,null,,,,,,,,,
71267.4,,,survey-text,395,1372347,0.0-19.0-3.17,56062,List2A,black,man,,,,,"{""Q0"":""jane is opposing dave ""}","<img src=""stim_listA/oppose1.gif""style=""height:400px;""></stim_listA>",is opposing,,,,,,
null,"<div style=""font-size:60px;"">+</div>",,html-keyboard-response,396,1372848,0.0-19.0-0.18,56062,List2A,black,man,,,,null,,,,,,,,,
null,"<img src=""stim_listA/challenge2.gif""style=""height:400px;""></stim_listA>",,html-keyboard-response,397,1374851,0.0-19.0-1.18,56062,List2A,black,man,,,,null,,,,,,,,,
null,is being challenged by,,html-keyboard-response,398,1376854,0.0-19.0-2.18,56062,List2A,black,man,,,,null,,,,,,,,,
9422,,,survey-text,399,1386279,0.0-19.0-3.18,56062,List2A,black,man,,,,,"{""Q0"":""luke is being challenged by jane ""}","<img src=""stim_listA/challenge2.gif""style=""height:400px;""></stim_listA>",is being challenged by,,,,,,
null,"<div style=""font-size:60px;"">+</div>",,html-keyboard-response,400,1386780,0.0-19.0-0.19,56062,List2A,black,man,,,,null,,,,,,,,,
null,"<img src=""stim_listA/kiss7.gif""style=""height:400px;""></stim_listA>",,html-keyboard-response,401,1388784,0.0-19.0-1.19,56062,List2A,black,man,,,,null,,,,,,,,,
null,is kissing,,html-keyboard-response,402,1390789,0.0-19.0-2.19,56062,List2A,black,man,,,,null,,,,,,,,,
10866.6,,,survey-text,403,1401658,0.0-19.0-3.19,56062,List2A,black,man,,,,,"{""Q0"":""beth is kissing ruth ""}","<img src=""stim_listA/kiss7.gif""style=""height:400px;""></stim_listA>",is kissing,,,,,,
2279,<p>Thank you for completing that task.</p><p>The final part of this session is a questionnaire that will take about 4 minutes.</p><p>Press Continue.</p>,0,html-button-response,404,1403939,0.0-20.0,56062,List2A,black,man,,,,,,,,,,,,,
56651.8,,,survey-text,405,1461595,0.0-21.0,56062,List2A,black,man,,,,,"{""Q0"":""30"",""Q1"":""English"",""Q2"":""English"",""Q3"":""USA"",""Q4"":""American"",""Q5"":""African/American "",""Q6"":""Male""}",,,demographics,,,,,
3429.6,<p>Have you lived in the USA for the last 5 years or more?</p>,0,html-button-response,406,1465027,0.0-22.0,56062,List2A,black,man,,,,,,,,fiveyears,,,,,
1238.7,<p>Move the slider to show the extent to which you agree with the following statements.</p>,0,html-button-response,407,1467267,0.0-23.0,56062,List2A,black,man,,,,,,,,,,,,,
2731.9,,,html-slider-response,408,1471003,0.0-24.0-0.0-0.0,56062,List2A,black,man,,,,,,,,survey_gender,96,,,I feel a bond with my friends.,filler
4150.3,,,html-slider-response,409,1475155,0.0-24.0-0.0-0.1,56062,List2A,black,man,,,,,,,,survey_gender,79,,,I am similar to the average person of my gender.,similar
5302.4,,,html-slider-response,410,1480459,0.0-24.0-0.0-0.2,56062,List2A,black,man,,,,,,,,survey_gender,88,,,It is pleasant to be my gender.,pleasant
2694.3,,,html-slider-response,411,1483155,0.0-24.0-0.0-0.3,56062,List2A,black,man,,,,,,,,survey_gender,100,,,I feel a bond with my gender.,bond
3022.6,,,html-slider-response,412,1486179,0.0-24.0-0.0-0.4,56062,List2A,black,man,,,,,,,,survey_gender,83,,,My friends have a lot in common with each other.,filler
4966.3,,,html-slider-response,413,1491147,0.0-24.0-0.0-0.5,56062,List2A,black,man,,,,,,,,survey_gender,100,,,I feel solidarity with my gender.,solidarity
2878.4,,,html-slider-response,414,1494027,0.0-24.0-0.0-0.6,56062,List2A,black,man,,,,,,,,survey_gender,66,,,Routine is not important to me.,filler
2894.5,,,html-slider-response,415,1496923,0.0-24.0-0.0-0.7,56062,List2A,black,man,,,,,,,,survey_gender,37,,,I would say I am an animal person.,filler
3862.4,,,html-slider-response,416,1500787,0.0-24.0-0.0-0.8,56062,List2A,black,man,,,,,,,,survey_gender,100,,,I think that my gender has a lot to be proud of.,proud
5390,,,html-slider-response,417,1506179,0.0-24.0-0.0-0.9,56062,List2A,black,man,,,,,,,,survey_gender,91,,,Being my gender gives me a good feeling.,feeling
4886,,,html-slider-response,418,1511067,0.0-24.0-0.0-0.10,56062,List2A,black,man,,,,,,,,survey_gender,100,,,I consider myself a highly empathetic person.,filler
5517.7,,,html-slider-response,419,1516587,0.0-24.0-0.0-0.11,56062,List2A,black,man,,,,,,,,survey_gender,91,,,It is not always easy for people to know what I am thinking.,filler
4270.5,,,html-slider-response,420,1520859,0.0-24.0-0.0-0.12,56062,List2A,black,man,,,,,,,,survey_gender,76,,,I have a lot in common with the average person of my gender.,average
2406.5,,,html-slider-response,421,1523267,0.0-24.0-0.0-0.13,56062,List2A,black,man,,,,,,,,survey_gender,100,,,I feel committed to my gender.,committed
3942.8,,,html-slider-response,422,1527211,0.0-24.0-0.0-0.14,56062,List2A,black,man,,,,,,,,survey_gender,73,,,Most of the friends in my life are very similar to me.,filler
3950.5,,,html-slider-response,423,1531163,0.0-24.0-0.0-0.15,56062,List2A,black,man,,,,,,,,survey_gender,99,,,Being my gender is an important part of how I see myself.,important
4790.4,,,html-slider-response,424,1535955,0.0-24.0-0.0-0.16,56062,List2A,black,man,,,,,,,,survey_gender,100,,,I often think about my actions.,filler
12590.4,,,html-slider-response,425,1548547,0.0-24.0-0.0-0.17,56062,List2A,black,man,,,,,,,,survey_gender,80,,,I have a lot in common with my friends.,filler
4108.8,,,html-slider-response,426,1552659,0.0-24.0-0.0-0.18,56062,List2A,black,man,,,,,,,,survey_gender,78,,,People of my gender are very similar to each other.,verysimilar
5766.4,,,html-slider-response,427,1558427,0.0-24.0-0.0-0.19,56062,List2A,black,man,,,,,,,,survey_gender,0,,,Family is not more important to me than friendship.,filler
3814.4,,,html-slider-response,428,1562243,0.0-24.0-0.0-0.20,56062,List2A,black,man,,,,,,,,survey_gender,78,,,I feel solidarity with my friends.,filler
9229.8,,,html-slider-response,429,1571474,0.0-24.0-0.0-0.21,56062,List2A,black,man,,,,,,,,survey_gender,88,,,I often think about the fact that I am my gender.,often
8559.5,,,html-slider-response,430,1580036,0.0-24.0-0.0-0.22,56062,List2A,black,man,,,,,,,,survey_gender,78,,,Being around my friends gives me a good feeling.,filler
4005.1,,,html-slider-response,431,1584042,0.0-24.0-0.0-0.23,56062,List2A,black,man,,,,,,,,survey_gender,100,,,I am glad to have the friends that I have.,filler
3102.8,,,html-slider-response,432,1587146,0.0-24.0-0.0-0.24,56062,List2A,black,man,,,,,,,,survey_gender,85,,,My friends understand me.,filler
2830.8,,,html-slider-response,433,1589979,0.0-24.0-0.0-0.25,56062,List2A,black,man,,,,,,,,survey_gender,100,,,The fact that I am my gender is an important part of my identity.,identity
38238.6,,,html-slider-response,434,1628218,0.0-24.0-0.0-0.26,56062,List2A,black,man,,,,,,,,survey_gender,81,,,People of my gender have a lot in common with each other.,common
2830.2,,,html-slider-response,435,1631050,0.0-24.0-0.0-0.27,56062,List2A,black,man,,,,,,,,survey_gender,90,,,I am glad to be my gender.,glad
3086.6,,,html-slider-response,436,1634139,0.0-24.0-1.0-0.0,56062,List2A,black,man,,,,,,,,survey_race,100,,,Being my race is an important part of how I see myself.,important
15390.6,,,html-slider-response,437,1649531,0.0-24.0-1.0-0.1,56062,List2A,black,man,,,,,,,,survey_race,34,,,My age is not an important part of who I am.,filler
7686.3,,,html-slider-response,438,1657219,0.0-24.0-1.0-0.2,56062,List2A,black,man,,,,,,,,survey_race,72,,,People my age have a lot in common with each other.,filler
2526.4,,,html-slider-response,439,1659747,0.0-24.0-1.0-0.3,56062,List2A,black,man,,,,,,,,survey_race,100,,,I feel committed to my race.,committed
2815.1,,,html-slider-response,440,1662564,0.0-24.0-1.0-0.4,56062,List2A,black,man,,,,,,,,survey_race,100,,,I feel solidarity with my race.,solidarity
3237.8,,,html-slider-response,441,1665803,0.0-24.0-1.0-0.5,56062,List2A,black,man,,,,,,,,survey_race,89,,,I enjoy being in large groups.,filler
2742.5,,,html-slider-response,442,1668547,0.0-24.0-1.0-0.6,56062,List2A,black,man,,,,,,,,survey_race,70,,,I feel solidarity with people the same age as me.,filler
11037.7,,,html-slider-response,443,1679587,0.0-24.0-1.0-0.7,56062,List2A,black,man,,,,,,,,survey_race,100,,,I feel a bond with my race.,bond
3534.1,,,html-slider-response,444,1683123,0.0-24.0-1.0-0.8,56062,List2A,black,man,,,,,,,,survey_race,100,,,I am glad to be my age.,filler
11630.9,,,html-slider-response,445,1694755,0.0-24.0-1.0-0.9,56062,List2A,black,man,,,,,,,,survey_race,72,,,I consider myself an extrovert.,filler
5470.5,,,html-slider-response,446,1700227,0.0-24.0-1.0-0.10,56062,List2A,black,man,,,,,,,,survey_race,84,,,People of my race have a lot in common with each other.,common
4727.1,,,html-slider-response,447,1704956,0.0-24.0-1.0-0.11,56062,List2A,black,man,,,,,,,,survey_race,100,,,The fact that I am my race is an important part of my identity.,identity
5837.7,,,html-slider-response,448,1710795,0.0-24.0-1.0-0.12,56062,List2A,black,man,,,,,,,,survey_race,85,,,People of my race are very similar to each other.,verysimilar
2358.2,,,html-slider-response,449,1713155,0.0-24.0-1.0-0.13,56062,List2A,black,man,,,,,,,,survey_race,100,,,I am glad to be the age I am.,filler
4542.7,,,html-slider-response,450,1717699,0.0-24.0-1.0-0.14,56062,List2A,black,man,,,,,,,,survey_race,100,,,I often think about the fact that I am my race.,often
1982.4,,,html-slider-response,451,1719683,0.0-24.0-1.0-0.15,56062,List2A,black,man,,,,,,,,survey_race,100,,,I am glad to be my race.,glad
3078.5,,,html-slider-response,452,1722763,0.0-24.0-1.0-0.16,56062,List2A,black,man,,,,,,,,survey_race,100,,,I often think about the fact that I am my age.,filler
3207.3,,,html-slider-response,453,1725972,0.0-24.0-1.0-0.17,56062,List2A,black,man,,,,,,,,survey_race,100,,,Being my age gives me a good feeling.,filler
2373.8,,,html-slider-response,454,1728347,0.0-24.0-1.0-0.18,56062,List2A,black,man,,,,,,,,survey_race,100,,,I consider myself an introvert.,filler
3406.6,,,html-slider-response,455,1731755,0.0-24.0-1.0-0.19,56062,List2A,black,man,,,,,,,,survey_race,87,,,"The older I get, the wiser I feel.",filler
3470.3,,,html-slider-response,456,1735227,0.0-24.0-1.0-0.20,56062,List2A,black,man,,,,,,,,survey_race,72,,,I feel a bond with people the same age as me.,filler
3206.2,,,html-slider-response,457,1738435,0.0-24.0-1.0-0.21,56062,List2A,black,man,,,,,,,,survey_race,71,,,I think that my race has a lot to be proud of.,proud
4166.5,,,html-slider-response,458,1742603,0.0-24.0-1.0-0.22,56062,List2A,black,man,,,,,,,,survey_race,100,,,Being my race gives me a good feeling.,feeling
3926.3,,,html-slider-response,459,1746531,0.0-24.0-1.0-0.23,56062,List2A,black,man,,,,,,,,survey_race,100,,,It is pleasant to be my race.,pleasant
6798.5,,,html-slider-response,460,1753331,0.0-24.0-1.0-0.24,56062,List2A,black,man,,,,,,,,survey_race,75,,,I am similar to the average person of my race.,similar
2582.2,,,html-slider-response,461,1755915,0.0-24.0-1.0-0.25,56062,List2A,black,man,,,,,,,,survey_race,70,,,Getting older does not worry me.,filler
2823,,,html-slider-response,462,1758739,0.0-24.0-1.0-0.26,56062,List2A,black,man,,,,,,,,survey_race,78,,,I have a lot in common with people of a similar age to me.,filler
5830.9,,,html-slider-response,463,1764571,0.0-24.0-1.0-0.27,56062,List2A,black,man,,,,,,,,survey_race,71,,,I have a lot in common with the average person of my race.,average
40389.4,,,survey-text,464,1804963,0.0-25.0,56062,List2A,black,man,,,,,"{""Q0"":""ccc""}",,,worker_id,,,,,
3247.9,,,external-html,465,1810483,0.0-26.0,56062,List2A,black,man,debrief.html,,,,,,,,,,,,
