"rt","stimulus","button_pressed","trial_type","trial_index","time_elapsed","internal_node_id","subject","list","ppt_race","ppt_gender","url","first_guess","correct","key_press","responses","image_type","phrase_type","test_part","response","stimulus1","stimulus2","question_type","survey_item"
"2559.7000000476837","Welcome to the experiment. Press Continue to begin.","0","html-button-response","0","2563","0.0-0.0","56362","List1B","black","woman","","","","","","","","","","","","",""
"6022.600000023842","","","external-html","1","9602","0.0-1.0","56362","List1B","black","woman","consent.html","","","","","","","","","","","",""
"1352.1999999284744","<p>On the next page, you will see portraits of 8 people and their names.</p><p>Your first task is to take a few minutes to memorise the names of these people.</p><p>You will have to recall their names during the rest of the experiment, so it is</p><p>essential that you try to memorise these people and their names as best as you can.</p><br><p><strong>You will then be tested on your memory of these names and portraits.</strong></p><br><p>The experiment will start after you have completed this memory test.</p><br><p>Ready?</p>","0","html-button-response","2","10956","0.0-2.0","56362","List1B","black","woman","","","","","","","","","","","","",""
"3734.7000000476837","<img src='img/portrait_matrix_list1.jpg' style='width:900px;height:500px;''></img><p>If you have memorised all the portraits and names and are ready to start, press Continue.</p><p><strong>Please note: Your memory of these faces will be tested 4 times during this experiment.</strong></p>","0","html-button-response","3","15694","0.0-3.0-0.0","56362","List1B","black","woman","","","","","","","","","","","","",""
"20073.400000095367","<img src=""portrait/BM2.jpg""style=""height:400px;""></img>","5","html-button-response","4","36776","0.0-3.0-1.0","56362","List1B","black","woman","","true","5","","","","","","","","","",""
"null","CORRECT","","html-keyboard-response","5","38313","0.0-3.0-2.0-0.0","56362","List1B","black","woman","","","","null","","","","","","","","",""
"13522.700000047684","<img src=""portrait/BM1.jpg""style=""height:400px;""></img>","4","html-button-response","6","51837","0.0-3.0-4.0","56362","List1B","black","woman","","true","4","","","","","","","","","",""
"null","CORRECT","","html-keyboard-response","7","53355","0.0-3.0-5.0-0.0","56362","List1B","black","woman","","","","null","","","","","","","","",""
"11094.800000071526","<img src=""portrait/WM2.jpg""style=""height:400px;""></img>","7","html-button-response","8","64459","0.0-3.0-7.0","56362","List1B","black","woman","","true","7","","","","","","","","","",""
"null","CORRECT","","html-keyboard-response","9","65982","0.0-3.0-8.0-0.0","56362","List1B","black","woman","","","","null","","","","","","","","",""
"7288","<img src=""portrait/WW1.jpg""style=""height:400px;""></img>","1","html-button-response","10","73271","0.0-3.0-10.0","56362","List1B","black","woman","","true","1","","","","","","","","","",""
"null","CORRECT","","html-keyboard-response","11","74784","0.0-3.0-11.0-0.0","56362","List1B","black","woman","","","","null","","","","","","","","",""
"6484.399999976158","<img src=""portrait/WW2.jpg""style=""height:400px;""></img>","3","html-button-response","12","81269","0.0-3.0-13.0","56362","List1B","black","woman","","true","3","","","","","","","","","",""
"null","CORRECT","","html-keyboard-response","13","82786","0.0-3.0-14.0-0.0","56362","List1B","black","woman","","","","null","","","","","","","","",""
"9669","<img src=""portrait/WM1.jpg""style=""height:400px;""></img>","6","html-button-response","14","92456","0.0-3.0-16.0","56362","List1B","black","woman","","true","6","","","","","","","","","",""
"null","CORRECT","","html-keyboard-response","15","93968","0.0-3.0-17.0-0.0","56362","List1B","black","woman","","","","null","","","","","","","","",""
"23350.600000023842","<img src=""portrait/BW2.jpg""style=""height:400px;""></img>","2","html-button-response","16","117319","0.0-3.0-19.0","56362","List1B","black","woman","","true","2","","","","","","","","","",""
"null","CORRECT","","html-keyboard-response","17","118844","0.0-3.0-20.0-0.0","56362","List1B","black","woman","","","","null","","","","","","","","",""
"8847","<img src=""portrait/BW1.jpg""style=""height:400px;""></img>","0","html-button-response","18","127693","0.0-3.0-22.0","56362","List1B","black","woman","","true","0","","","","","","","","","",""
"null","CORRECT","","html-keyboard-response","19","129219","0.0-3.0-23.0-0.0","56362","List1B","black","woman","","","","null","","","","","","","","",""
"2915","<p>You got 8 out of 8 right first time. Press Continue.</p>","0","html-button-response","20","132136","0.0-3.0-25.0","56362","List1B","black","woman","","","","","","","","","","","","",""
"260808.70000004768","<p>In this experiment, you will view photographs of the people from the memory game interacting.</p><p>By using the <strong>exact</strong> phrase given <i>after</i> the photograph appears and recalling the correct names of the people in the photographs, form a sentence describing the interaction. You do not need to capitalise names.</p><p>Type your answer in the space provided. Please complete every sentence before moving onto the next trial.</p><p>You will only have a few seconds to memorise each given photograph and phrase before you can respond, so try your best to focus.</p><p>An example is given below. Press 'Continue' when you are ready.</p><img src='img/speaking_example.jpg' style='width:800px;height:460px;''></img>","0","html-button-response","21","393987","0.0-4.0","56362","List1B","black","woman","","","","","","","","","","","","",""
"3436.100000023842","<p>Before the experiment starts, you will watch two example trials. Press 'Continue'.</p>","0","html-button-response","22","398429","0.0-5.0","56362","List1B","black","woman","","","","","","","","","","","","",""
"null","<img src='img/play_eg.gif' style='height:400px;''></img>","","html-keyboard-response","23","401444","0.0-6.0","56362","List1B","black","woman","","","","null","","","","","","","","",""
"null","<p>is playing with</p>","","html-keyboard-response","24","403450","0.0-7.0","56362","List1B","black","woman","","","","null","","","","","","","","",""
"5525.899999976158","<p><b>Answer:</b> kate is playing with beth</p>","0","html-button-response","25","408976","0.0-8.0","56362","List1B","black","woman","","","","","","","","","","","","",""
"null","<img src='img/dance_eg.gif' style='height:400px;''></img>","","html-keyboard-response","26","411989","0.0-9.0","56362","List1B","black","woman","","","","null","","","","","","","","",""
"null","<p>is being entertained by</p>","","html-keyboard-response","27","413995","0.0-10.0","56362","List1B","black","woman","","","","null","","","","","","","","",""
"5343.799999952316","<p><b>Answer:</b> luke is being entertained by dave</p>","0","html-button-response","28","419340","0.0-11.0","56362","List1B","black","woman","","","","","","","","","","","","",""
"8975.200000047684","<p>Ready to start the experiment?</p><br><p><strong>Remember to describe the picture using a full sentence,</strong></p><p><strong>that combines the names of the people with the <i>exact</i> phrase given.</strong></p><p><strong>To receive full payment you must do this correctly.</strong></p><p><strong> You do not need to capitalise names or use punctuation.</strong></p><br><p>Press 'Continue' to begin.</p>","0","html-button-response","29","429320","0.0-12.0","56362","List1B","black","woman","","","","","","","","","","","","",""
"null","<div style=""font-size:60px;"">+</div>","","html-keyboard-response","30","430849","0.0-13.0-0.0","56362","List1B","black","woman","","","","null","","","","","","","","",""
"null","<img src=""stim_listB/shout4.gif""style=""height:400px;""></stim_listB>","","html-keyboard-response","31","432853","0.0-13.0-1.0","56362","List1B","black","woman","","","","null","","","","","","","","",""
"null","is being shouted at by","","html-keyboard-response","32","434859","0.0-13.0-2.0","56362","List1B","black","woman","","","","null","","","","","","","","",""
"77820.60000002384","","","survey-text","33","512699","0.0-13.0-3.0","56362","List1B","black","woman","","","","","{""Q0"":""jane is shouting at dave""}","<img src=""stim_listB/shout4.gif""style=""height:400px;""></stim_listB>","is being shouted at by","","","","","",""
"null","<div style=""font-size:60px;"">+</div>","","html-keyboard-response","34","513204","0.0-13.0-0.1","56362","List1B","black","woman","","","","null","","","","","","","","",""
"null","<img src=""stim_listB/kiss2.gif""style=""height:400px;""></stim_listB>","","html-keyboard-response","35","515209","0.0-13.0-1.1","56362","List1B","black","woman","","","","null","","","","","","","","",""
"null","is being kissed by","","html-keyboard-response","36","517214","0.0-13.0-2.1","56362","List1B","black","woman","","","","null","","","","","","","","",""
"43830.39999997616","","","survey-text","37","561054","0.0-13.0-3.1","56362","List1B","black","woman","","","","","{""Q0"":""Kate is kissed by Mike""}","<img src=""stim_listB/kiss2.gif""style=""height:400px;""></stim_listB>","is being kissed by","","","","","",""
"null","<div style=""font-size:60px;"">+</div>","","html-keyboard-response","38","561564","0.0-13.0-0.2","56362","List1B","black","woman","","","","null","","","","","","","","",""
"null","<img src=""stim_listB/touch3.gif""style=""height:400px;""></stim_listB>","","html-keyboard-response","39","563569","0.0-13.0-1.2","56362","List1B","black","woman","","","","null","","","","","","","","",""
"null","is touching","","html-keyboard-response","40","565575","0.0-13.0-2.2","56362","List1B","black","woman","","","","null","","","","","","","","",""
"59279.5","","","survey-text","41","624863","0.0-13.0-3.2","56362","List1B","black","woman","","","","","{""Q0"":""Jane is touching Dave""}","<img src=""stim_listB/touch3.gif""style=""height:400px;""></stim_listB>","is touching","","","","","",""
"null","<div style=""font-size:60px;"">+</div>","","html-keyboard-response","42","625368","0.0-13.0-0.3","56362","List1B","black","woman","","","","null","","","","","","","","",""
"null","<img src=""stim_listB/copy4.gif""style=""height:400px;""></stim_listB>","","html-keyboard-response","43","627374","0.0-13.0-1.3","56362","List1B","black","woman","","","","null","","","","","","","","",""
"null","is being copied by","","html-keyboard-response","44","629379","0.0-13.0-2.3","56362","List1B","black","woman","","","","null","","","","","","","","",""
"115705.70000004768","","","survey-text","45","745094","0.0-13.0-3.3","56362","List1B","black","woman","","","","","{""Q0"":""Luke is being copied by Jane""}","<img src=""stim_listB/copy4.gif""style=""height:400px;""></stim_listB>","is being copied by","","","","","",""
"null","<div style=""font-size:60px;"">+</div>","","html-keyboard-response","46","745607","0.0-13.0-0.4","56362","List1B","black","woman","","","","null","","","","","","","","",""
"null","<img src=""stim_listB/look6.gif""style=""height:400px;""></stim_listB>","","html-keyboard-response","47","747612","0.0-13.0-1.4","56362","List1B","black","woman","","","","null","","","","","","","","",""
"null","is being looked at by","","html-keyboard-response","48","749618","0.0-13.0-2.4","56362","List1B","black","woman","","","","null","","","","","","","","",""
"87462.60000002384","","","survey-text","49","837085","0.0-13.0-3.4","56362","List1B","black","woman","","","","","{""Q0"":""Mike is being looked at by Dave""}","<img src=""stim_listB/look6.gif""style=""height:400px;""></stim_listB>","is being looked at by","","","","","",""
"null","<div style=""font-size:60px;"">+</div>","","html-keyboard-response","50","837594","0.0-13.0-0.5","56362","List1B","black","woman","","","","null","","","","","","","","",""
"null","<img src=""stim_listB/hug3.gif""style=""height:400px;""></stim_listB>","","html-keyboard-response","51","839598","0.0-13.0-1.5","56362","List1B","black","woman","","","","null","","","","","","","","",""
"null","is hugging","","html-keyboard-response","52","841604","0.0-13.0-2.5","56362","List1B","black","woman","","","","null","","","","","","","","",""
"32474.600000023842","","","survey-text","53","874085","0.0-13.0-3.5","56362","List1B","black","woman","","","","","{""Q0"":""Luke is hugging Ruth""}","<img src=""stim_listB/hug3.gif""style=""height:400px;""></stim_listB>","is hugging","","","","","",""
"null","<div style=""font-size:60px;"">+</div>","","html-keyboard-response","54","874588","0.0-13.0-0.6","56362","List1B","black","woman","","","","null","","","","","","","","",""
"null","<img src=""stim_listB/hug6.gif""style=""height:400px;""></stim_listB>","","html-keyboard-response","55","876592","0.0-13.0-1.6","56362","List1B","black","woman","","","","null","","","","","","","","",""
"null","is being hugged by","","html-keyboard-response","56","878597","0.0-13.0-2.6","56362","List1B","black","woman","","","","null","","","","","","","","",""
"63519.5","","","survey-text","57","942122","0.0-13.0-3.6","56362","List1B","black","woman","","","","","{""Q0"":""Mike is being hugged by Dave""}","<img src=""stim_listB/hug6.gif""style=""height:400px;""></stim_listB>","is being hugged by","","","","","",""
"null","<div style=""font-size:60px;"">+</div>","","html-keyboard-response","58","942626","0.0-13.0-0.7","56362","List1B","black","woman","","","","null","","","","","","","","",""
"null","<img src=""stim_listB/kiss8.gif""style=""height:400px;""></stim_listB>","","html-keyboard-response","59","944631","0.0-13.0-1.7","56362","List1B","black","woman","","","","null","","","","","","","","",""
"null","is being kissed by","","html-keyboard-response","60","946636","0.0-13.0-2.7","56362","List1B","black","woman","","","","null","","","","","","","","",""
"91542.90000009537","","","survey-text","61","1038185","0.0-13.0-3.7","56362","List1B","black","woman","","","","","{""Q0"":""Kate is being kissed by Jane""}","<img src=""stim_listB/kiss8.gif""style=""height:400px;""></stim_listB>","is being kissed by","","","","","",""
"null","<div style=""font-size:60px;"">+</div>","","html-keyboard-response","62","1038695","0.0-13.0-0.8","56362","List1B","black","woman","","","","null","","","","","","","","",""
"null","<img src=""stim_listB/greet7.gif""style=""height:400px;""></stim_listB>","","html-keyboard-response","63","1040700","0.0-13.0-1.8","56362","List1B","black","woman","","","","null","","","","","","","","",""
"null","is greeting","","html-keyboard-response","64","1042709","0.0-13.0-2.8","56362","List1B","black","woman","","","","null","","","","","","","","",""
"36818.40000009537","","","survey-text","65","1079530","0.0-13.0-3.8","56362","List1B","black","woman","","","","","{""Q0"":""Ruth is greeting Kate""}","<img src=""stim_listB/greet7.gif""style=""height:400px;""></stim_listB>","is greeting","","","","","",""
"null","<div style=""font-size:60px;"">+</div>","","html-keyboard-response","66","1080036","0.0-13.0-0.9","56362","List1B","black","woman","","","","null","","","","","","","","",""
"null","<img src=""stim_listB/copy8.gif""style=""height:400px;""></stim_listB>","","html-keyboard-response","67","1082042","0.0-13.0-1.9","56362","List1B","black","woman","","","","null","","","","","","","","",""
"null","is being copied by","","html-keyboard-response","68","1084048","0.0-13.0-2.9","56362","List1B","black","woman","","","","null","","","","","","","","",""
"92983.10000002384","","","survey-text","69","1177040","0.0-13.0-3.9","56362","List1B","black","woman","","","","","{""Q0"":""Beth is being copied by Jane""}","<img src=""stim_listB/copy8.gif""style=""height:400px;""></stim_listB>","is being copied by","","","","","",""
"null","<div style=""font-size:60px;"">+</div>","","html-keyboard-response","70","1177553","0.0-13.0-0.10","56362","List1B","black","woman","","","","null","","","","","","","","",""
"null","<img src=""stim_listB/greet1.gif""style=""height:400px;""></stim_listB>","","html-keyboard-response","71","1179558","0.0-13.0-1.10","56362","List1B","black","woman","","","","null","","","","","","","","",""
"null","is greeting","","html-keyboard-response","72","1181564","0.0-13.0-2.10","56362","List1B","black","woman","","","","null","","","","","","","","",""
"74448.19999992847","","","survey-text","73","1256018","0.0-13.0-3.10","56362","List1B","black","woman","","","","","{""Q0"":""Mike is greeting Beth""}","<img src=""stim_listB/greet1.gif""style=""height:400px;""></stim_listB>","is greeting","","","","","",""
"null","<div style=""font-size:60px;"">+</div>","","html-keyboard-response","74","1256525","0.0-13.0-0.11","56362","List1B","black","woman","","","","null","","","","","","","","",""
"null","<img src=""stim_listB/kiss4.gif""style=""height:400px;""></stim_listB>","","html-keyboard-response","75","1258529","0.0-13.0-1.11","56362","List1B","black","woman","","","","null","","","","","","","","",""
"null","is being kissed by","","html-keyboard-response","76","1260534","0.0-13.0-2.11","56362","List1B","black","woman","","","","null","","","","","","","","",""
"51878.39999997616","","","survey-text","77","1312419","0.0-13.0-3.11","56362","List1B","black","woman","","","","","{""Q0"":""Jane is being kissed by Dave""}","<img src=""stim_listB/kiss4.gif""style=""height:400px;""></stim_listB>","is being kissed by","","","","","",""
"null","<div style=""font-size:60px;"">+</div>","","html-keyboard-response","78","1312928","0.0-13.0-0.12","56362","List1B","black","woman","","","","null","","","","","","","","",""
"null","<img src=""stim_listB/hug2.gif""style=""height:400px;""></stim_listB>","","html-keyboard-response","79","1314935","0.0-13.0-1.12","56362","List1B","black","woman","","","","null","","","","","","","","",""
"null","is being hugged by","","html-keyboard-response","80","1316938","0.0-13.0-2.12","56362","List1B","black","woman","","","","null","","","","","","","","",""
"55649.60000002384","","","survey-text","81","1372593","0.0-13.0-3.12","56362","List1B","black","woman","","","","","{""Q0"":""Mike is being hugged by Kate""}","<img src=""stim_listB/hug2.gif""style=""height:400px;""></stim_listB>","is being hugged by","","","","","",""
"null","<div style=""font-size:60px;"">+</div>","","html-keyboard-response","82","1373104","0.0-13.0-0.13","56362","List1B","black","woman","","","","null","","","","","","","","",""
"null","<img src=""stim_listB/oppose6.gif""style=""height:400px;""></stim_listB>","","html-keyboard-response","83","1375108","0.0-13.0-1.13","56362","List1B","black","woman","","","","null","","","","","","","","",""
"null","is being opposed by","","html-keyboard-response","84","1377114","0.0-13.0-2.13","56362","List1B","black","woman","","","","null","","","","","","","","",""
"48951.60000002384","","","survey-text","85","1426071","0.0-13.0-3.13","56362","List1B","black","woman","","","","","{""Q0"":""Luke is being opposed by Fred""}","<img src=""stim_listB/oppose6.gif""style=""height:400px;""></stim_listB>","is being opposed by","","","","","",""
"null","<div style=""font-size:60px;"">+</div>","","html-keyboard-response","86","1426594","0.0-13.0-0.14","56362","List1B","black","woman","","","","null","","","","","","","","",""
"null","<img src=""stim_listB/oppose7.gif""style=""height:400px;""></stim_listB>","","html-keyboard-response","87","1428600","0.0-13.0-1.14","56362","List1B","black","woman","","","","null","","","","","","","","",""
"null","is opposing","","html-keyboard-response","88","1430606","0.0-13.0-2.14","56362","List1B","black","woman","","","","null","","","","","","","","",""
"33887.60000002384","","","survey-text","89","1464495","0.0-13.0-3.14","56362","List1B","black","woman","","","","","{""Q0"":""Kate is opposing Jane""}","<img src=""stim_listB/oppose7.gif""style=""height:400px;""></stim_listB>","is opposing","","","","","",""
"null","<div style=""font-size:60px;"">+</div>","","html-keyboard-response","90","1465003","0.0-13.0-0.15","56362","List1B","black","woman","","","","null","","","","","","","","",""
"null","<img src=""stim_listB/kiss3.gif""style=""height:400px;""></stim_listB>","","html-keyboard-response","91","1467009","0.0-13.0-1.15","56362","List1B","black","woman","","","","null","","","","","","","","",""
"null","is kissing","","html-keyboard-response","92","1469015","0.0-13.0-2.15","56362","List1B","black","woman","","","","null","","","","","","","","",""
"32357.400000095367","","","survey-text","93","1501374","0.0-13.0-3.15","56362","List1B","black","woman","","","","","{""Q0"":""Ruth is kissing Luke""}","<img src=""stim_listB/kiss3.gif""style=""height:400px;""></stim_listB>","is kissing","","","","","",""
"null","<div style=""font-size:60px;"">+</div>","","html-keyboard-response","94","1501889","0.0-13.0-0.16","56362","List1B","black","woman","","","","null","","","","","","","","",""
"null","<img src=""stim_listB/look7.gif""style=""height:400px;""></stim_listB>","","html-keyboard-response","95","1503895","0.0-13.0-1.16","56362","List1B","black","woman","","","","null","","","","","","","","",""
"null","is looking at","","html-keyboard-response","96","1505901","0.0-13.0-2.16","56362","List1B","black","woman","","","","null","","","","","","","","",""
"41858.300000071526","","","survey-text","97","1547764","0.0-13.0-3.16","56362","List1B","black","woman","","","","","{""Q0"":""Beth is looking at Ruth""}","<img src=""stim_listB/look7.gif""style=""height:400px;""></stim_listB>","is looking at","","","","","",""
"null","<div style=""font-size:60px;"">+</div>","","html-keyboard-response","98","1548265","0.0-13.0-0.17","56362","List1B","black","woman","","","","null","","","","","","","","",""
"null","<img src=""stim_listB/shout7.gif""style=""height:400px;""></stim_listB>","","html-keyboard-response","99","1550270","0.0-13.0-1.17","56362","List1B","black","woman","","","","null","","","","","","","","",""
"null","is shouting at","","html-keyboard-response","100","1552276","0.0-13.0-2.17","56362","List1B","black","woman","","","","null","","","","","","","","",""
"39682.60000002384","","","survey-text","101","1591964","0.0-13.0-3.17","56362","List1B","black","woman","","","","","{""Q0"":""Beth is shouting at Ruth""}","<img src=""stim_listB/shout7.gif""style=""height:400px;""></stim_listB>","is shouting at","","","","","",""
"null","<div style=""font-size:60px;"">+</div>","","html-keyboard-response","102","1592472","0.0-13.0-0.18","56362","List1B","black","woman","","","","null","","","","","","","","",""
"null","<img src=""stim_listB/shout3.gif""style=""height:400px;""></stim_listB>","","html-keyboard-response","103","1594477","0.0-13.0-1.18","56362","List1B","black","woman","","","","null","","","","","","","","",""
"null","is shouting at","","html-keyboard-response","104","1596483","0.0-13.0-2.18","56362","List1B","black","woman","","","","null","","","","","","","","",""
"81705.89999997616","","","survey-text","105","1678195","0.0-13.0-3.18","56362","List1B","black","woman","","","","","{""Q0"":""Ruth is shouting at Luke""}","<img src=""stim_listB/shout3.gif""style=""height:400px;""></stim_listB>","is shouting at","","","","","",""
"null","<div style=""font-size:60px;"">+</div>","","html-keyboard-response","106","1678704","0.0-13.0-0.19","56362","List1B","black","woman","","","","null","","","","","","","","",""
"null","<img src=""stim_listB/seduce5.gif""style=""height:400px;""></stim_listB>","","html-keyboard-response","107","1680709","0.0-13.0-1.19","56362","List1B","black","woman","","","","null","","","","","","","","",""
"null","is seducing","","html-keyboard-response","108","1682715","0.0-13.0-2.19","56362","List1B","black","woman","","","","null","","","","","","","","",""
"68034.10000002384","","","survey-text","109","1750754","0.0-13.0-3.19","56362","List1B","black","woman","","","","","{""Q0"":""Fred is seducing  Dave""}","<img src=""stim_listB/seduce5.gif""style=""height:400px;""></stim_listB>","is seducing","","","","","",""
"36845.39999997616","<img src='img/portrait_matrix_list1.jpg' style='width:900px;height:500px;''></img><p>If you have memorised all the portraits and names and are ready to start, press Continue.</p><p><strong>Please note: Your memory of these faces will be tested 4 times during this experiment.</strong></p>","0","html-button-response","110","1787606","0.0-14.0-0.0","56362","List1B","black","woman","","","","","","","","","","","","",""
"8300.299999952316","<img src=""portrait/BM1.jpg""style=""height:400px;""></img>","4","html-button-response","111","1796924","0.0-14.0-1.0","56362","List1B","black","woman","","true","4","","","","","","","","","",""
"null","CORRECT","","html-keyboard-response","112","1798429","0.0-14.0-2.0-0.0","56362","List1B","black","woman","","","","null","","","","","","","","",""
"3920.899999976158","<img src=""portrait/WM1.jpg""style=""height:400px;""></img>","6","html-button-response","113","1802352","0.0-14.0-4.0","56362","List1B","black","woman","","true","6","","","","","","","","","",""
"null","CORRECT","","html-keyboard-response","114","1803884","0.0-14.0-5.0-0.0","56362","List1B","black","woman","","","","null","","","","","","","","",""
"2280.8000000715256","<img src=""portrait/BW2.jpg""style=""height:400px;""></img>","2","html-button-response","115","1806167","0.0-14.0-7.0","56362","List1B","black","woman","","true","2","","","","","","","","","",""
"null","CORRECT","","html-keyboard-response","116","1807691","0.0-14.0-8.0-0.0","56362","List1B","black","woman","","","","null","","","","","","","","",""
"2535.5","<img src=""portrait/WM2.jpg""style=""height:400px;""></img>","7","html-button-response","117","1810228","0.0-14.0-10.0","56362","List1B","black","woman","","true","7","","","","","","","","","",""
"null","CORRECT","","html-keyboard-response","118","1811740","0.0-14.0-11.0-0.0","56362","List1B","black","woman","","","","null","","","","","","","","",""
"2734.4000000953674","<img src=""portrait/BM2.jpg""style=""height:400px;""></img>","5","html-button-response","119","1814476","0.0-14.0-13.0","56362","List1B","black","woman","","true","5","","","","","","","","","",""
"null","CORRECT","","html-keyboard-response","120","1816007","0.0-14.0-14.0-0.0","56362","List1B","black","woman","","","","null","","","","","","","","",""
"2700","<img src=""portrait/WW1.jpg""style=""height:400px;""></img>","1","html-button-response","121","1818708","0.0-14.0-16.0","56362","List1B","black","woman","","true","1","","","","","","","","","",""
"null","CORRECT","","html-keyboard-response","122","1820213","0.0-14.0-17.0-0.0","56362","List1B","black","woman","","","","null","","","","","","","","",""
"2210","<img src=""portrait/WW2.jpg""style=""height:400px;""></img>","3","html-button-response","123","1822424","0.0-14.0-19.0","56362","List1B","black","woman","","true","3","","","","","","","","","",""
"null","CORRECT","","html-keyboard-response","124","1823957","0.0-14.0-20.0-0.0","56362","List1B","black","woman","","","","null","","","","","","","","",""
"3968.8000000715256","<img src=""portrait/BW1.jpg""style=""height:400px;""></img>","0","html-button-response","125","1827927","0.0-14.0-22.0","56362","List1B","black","woman","","true","0","","","","","","","","","",""
"null","CORRECT","","html-keyboard-response","126","1829443","0.0-14.0-23.0-0.0","56362","List1B","black","woman","","","","null","","","","","","","","",""
"6138.100000023842","<p>You got 8 out of 8 right first time. Press Continue.</p>","0","html-button-response","127","1835582","0.0-14.0-25.0","56362","List1B","black","woman","","","","","","","","","","","","",""
"null","<div style=""font-size:60px;"">+</div>","","html-keyboard-response","128","1837098","0.0-15.0-0.0","56362","List1B","black","woman","","","","null","","","","","","","","",""
"null","<img src=""stim_listB/oppose2.gif""style=""height:400px;""></stim_listB>","","html-keyboard-response","129","1839104","0.0-15.0-1.0","56362","List1B","black","woman","","","","null","","","","","","","","",""
"null","is being opposed by","","html-keyboard-response","130","1841110","0.0-15.0-2.0","56362","List1B","black","woman","","","","null","","","","","","","","",""
"38360.89999997616","","","survey-text","131","1879476","0.0-15.0-3.0","56362","List1B","black","woman","","","","","{""Q0"":""Beth is being opposed by Fred""}","<img src=""stim_listB/oppose2.gif""style=""height:400px;""></stim_listB>","is being opposed by","","","","","",""
"null","<div style=""font-size:60px;"">+</div>","","html-keyboard-response","132","1879989","0.0-15.0-0.1","56362","List1B","black","woman","","","","null","","","","","","","","",""
"null","<img src=""stim_listB/challenge4.gif""style=""height:400px;""></stim_listB>","","html-keyboard-response","133","1881994","0.0-15.0-1.1","56362","List1B","black","woman","","","","null","","","","","","","","",""
"null","is being challenged by","","html-keyboard-response","134","1884000","0.0-15.0-2.1","56362","List1B","black","woman","","","","null","","","","","","","","",""
"43353.199999928474","","","survey-text","135","1927357","0.0-15.0-3.1","56362","List1B","black","woman","","","","","{""Q0"":""Jane is being challenged by Luke""}","<img src=""stim_listB/challenge4.gif""style=""height:400px;""></stim_listB>","is being challenged by","","","","","",""
"null","<div style=""font-size:60px;"">+</div>","","html-keyboard-response","136","1927865","0.0-15.0-0.2","56362","List1B","black","woman","","","","null","","","","","","","","",""
"null","<img src=""stim_listB/seduce3.gif""style=""height:400px;""></stim_listB>","","html-keyboard-response","137","1929870","0.0-15.0-1.2","56362","List1B","black","woman","","","","null","","","","","","","","",""
"null","is seducing","","html-keyboard-response","138","1931876","0.0-15.0-2.2","56362","List1B","black","woman","","","","null","","","","","","","","",""
"31322.299999952316","","","survey-text","139","1963201","0.0-15.0-3.2","56362","List1B","black","woman","","","","","{""Q0"":""Jane is seducing Luke""}","<img src=""stim_listB/seduce3.gif""style=""height:400px;""></stim_listB>","is seducing","","","","","",""
"null","<div style=""font-size:60px;"">+</div>","","html-keyboard-response","140","1963715","0.0-15.0-0.3","56362","List1B","black","woman","","","","null","","","","","","","","",""
"null","<img src=""stim_listB/seduce8.gif""style=""height:400px;""></stim_listB>","","html-keyboard-response","141","1965719","0.0-15.0-1.3","56362","List1B","black","woman","","","","null","","","","","","","","",""
"null","is being seduced by","","html-keyboard-response","142","1967727","0.0-15.0-2.3","56362","List1B","black","woman","","","","null","","","","","","","","",""
"74390.79999995232","","","survey-text","143","2042122","0.0-15.0-3.3","56362","List1B","black","woman","","","","","{""Q0"":""Ruth is being seduced by Kate""}","<img src=""stim_listB/seduce8.gif""style=""height:400px;""></stim_listB>","is being seduced by","","","","","",""
"null","<div style=""font-size:60px;"">+</div>","","html-keyboard-response","144","2042626","0.0-15.0-0.4","56362","List1B","black","woman","","","","null","","","","","","","","",""
"null","<img src=""stim_listB/hug1.gif""style=""height:400px;""></stim_listB>","","html-keyboard-response","145","2044631","0.0-15.0-1.4","56362","List1B","black","woman","","","","null","","","","","","","","",""
"null","is hugging","","html-keyboard-response","146","2046637","0.0-15.0-2.4","56362","List1B","black","woman","","","","null","","","","","","","","",""
"28097.100000023842","","","survey-text","147","2074736","0.0-15.0-3.4","56362","List1B","black","woman","","","","","{""Q0"":""Beth is hugging Fred""}","<img src=""stim_listB/hug1.gif""style=""height:400px;""></stim_listB>","is hugging","","","","","",""
"null","<div style=""font-size:60px;"">+</div>","","html-keyboard-response","148","2075254","0.0-15.0-0.5","56362","List1B","black","woman","","","","null","","","","","","","","",""
"null","<img src=""stim_listB/touch5.gif""style=""height:400px;""></stim_listB>","","html-keyboard-response","149","2077258","0.0-15.0-1.5","56362","List1B","black","woman","","","","null","","","","","","","","",""
"null","is touching","","html-keyboard-response","150","2079265","0.0-15.0-2.5","56362","List1B","black","woman","","","","null","","","","","","","","",""
"18927.100000023842","","","survey-text","151","2098196","0.0-15.0-3.5","56362","List1B","black","woman","","","","","{""Q0"":""Mike is touching Dave""}","<img src=""stim_listB/touch5.gif""style=""height:400px;""></stim_listB>","is touching","","","","","",""
"null","<div style=""font-size:60px;"">+</div>","","html-keyboard-response","152","2098708","0.0-15.0-0.6","56362","List1B","black","woman","","","","null","","","","","","","","",""
"null","<img src=""stim_listB/copy2.gif""style=""height:400px;""></stim_listB>","","html-keyboard-response","153","2100713","0.0-15.0-1.6","56362","List1B","black","woman","","","","null","","","","","","","","",""
"null","is being copied by","","html-keyboard-response","154","2102720","0.0-15.0-2.6","56362","List1B","black","woman","","","","null","","","","","","","","",""
"17518","","","survey-text","155","2120240","0.0-15.0-3.6","56362","List1B","black","woman","","","","","{""Q0"":""Kate is being copied by Fred""}","<img src=""stim_listB/copy2.gif""style=""height:400px;""></stim_listB>","is being copied by","","","","","",""
"null","<div style=""font-size:60px;"">+</div>","","html-keyboard-response","156","2120756","0.0-15.0-0.7","56362","List1B","black","woman","","","","null","","","","","","","","",""
"null","<img src=""stim_listB/kiss1.gif""style=""height:400px;""></stim_listB>","","html-keyboard-response","157","2122762","0.0-15.0-1.7","56362","List1B","black","woman","","","","null","","","","","","","","",""
"null","is kissing","","html-keyboard-response","158","2124764","0.0-15.0-2.7","56362","List1B","black","woman","","","","null","","","","","","","","",""
"11794","","","survey-text","159","2136560","0.0-15.0-3.7","56362","List1B","black","woman","","","","","{""Q0"":""Fred is kissing Beth""}","<img src=""stim_listB/kiss1.gif""style=""height:400px;""></stim_listB>","is kissing","","","","","",""
"null","<div style=""font-size:60px;"">+</div>","","html-keyboard-response","160","2137069","0.0-15.0-0.8","56362","List1B","black","woman","","","","null","","","","","","","","",""
"null","<img src=""stim_listB/challenge1.gif""style=""height:400px;""></stim_listB>","","html-keyboard-response","161","2139073","0.0-15.0-1.8","56362","List1B","black","woman","","","","null","","","","","","","","",""
"null","is challenging","","html-keyboard-response","162","2141079","0.0-15.0-2.8","56362","List1B","black","woman","","","","null","","","","","","","","",""
"17537.200000047684","","","survey-text","163","2158620","0.0-15.0-3.8","56362","List1B","black","woman","","","","","{""Q0"":""Beth is challenging Mike""}","<img src=""stim_listB/challenge1.gif""style=""height:400px;""></stim_listB>","is challenging","","","","","",""
"null","<div style=""font-size:60px;"">+</div>","","html-keyboard-response","164","2159136","0.0-15.0-0.9","56362","List1B","black","woman","","","","null","","","","","","","","",""
"null","<img src=""stim_listB/seduce2.gif""style=""height:400px;""></stim_listB>","","html-keyboard-response","165","2161141","0.0-15.0-1.9","56362","List1B","black","woman","","","","null","","","","","","","","",""
"null","is being seduced by","","html-keyboard-response","166","2163147","0.0-15.0-2.9","56362","List1B","black","woman","","","","null","","","","","","","","",""
"21305.899999976158","","","survey-text","167","2184454","0.0-15.0-3.9","56362","List1B","black","woman","","","","","{""Q0"":""Mike is being seduced by Beth""}","<img src=""stim_listB/seduce2.gif""style=""height:400px;""></stim_listB>","is being seduced by","","","","","",""
"null","<div style=""font-size:60px;"">+</div>","","html-keyboard-response","168","2184969","0.0-15.0-0.10","56362","List1B","black","woman","","","","null","","","","","","","","",""
"null","<img src=""stim_listB/seduce7.gif""style=""height:400px;""></stim_listB>","","html-keyboard-response","169","2186974","0.0-15.0-1.10","56362","List1B","black","woman","","","","null","","","","","","","","",""
"null","is seducing","","html-keyboard-response","170","2188980","0.0-15.0-2.10","56362","List1B","black","woman","","","","null","","","","","","","","",""
"26724.899999976158","","","survey-text","171","2215709","0.0-15.0-3.10","56362","List1B","black","woman","","","","","{""Q0"":""Beth is seducing Jane""}","<img src=""stim_listB/seduce7.gif""style=""height:400px;""></stim_listB>","is seducing","","","","","",""
"null","<div style=""font-size:60px;"">+</div>","","html-keyboard-response","172","2216211","0.0-15.0-0.11","56362","List1B","black","woman","","","","null","","","","","","","","",""
"null","<img src=""stim_listB/oppose1.gif""style=""height:400px;""></stim_listB>","","html-keyboard-response","173","2218217","0.0-15.0-1.11","56362","List1B","black","woman","","","","null","","","","","","","","",""
"null","is opposing","","html-keyboard-response","174","2220222","0.0-15.0-2.11","56362","List1B","black","woman","","","","null","","","","","","","","",""
"11992.200000047684","","","survey-text","175","2232217","0.0-15.0-3.11","56362","List1B","black","woman","","","","","{""Q0"":""Kate is opposing Mike""}","<img src=""stim_listB/oppose1.gif""style=""height:400px;""></stim_listB>","is opposing","","","","","",""
"null","<div style=""font-size:60px;"">+</div>","","html-keyboard-response","176","2232718","0.0-15.0-0.12","56362","List1B","black","woman","","","","null","","","","","","","","",""
"null","<img src=""stim_listB/greet8.gif""style=""height:400px;""></stim_listB>","","html-keyboard-response","177","2234723","0.0-15.0-1.12","56362","List1B","black","woman","","","","null","","","","","","","","",""
"null","is being greeted by","","html-keyboard-response","178","2236729","0.0-15.0-2.12","56362","List1B","black","woman","","","","null","","","","","","","","",""
"20140.599999904633","","","survey-text","179","2256871","0.0-15.0-3.12","56362","List1B","black","woman","","","","","{""Q0"":""Jane is being greeted by Beth""}","<img src=""stim_listB/greet8.gif""style=""height:400px;""></stim_listB>","is being greeted by","","","","","",""
"null","<div style=""font-size:60px;"">+</div>","","html-keyboard-response","180","2257384","0.0-15.0-0.13","56362","List1B","black","woman","","","","null","","","","","","","","",""
"null","<img src=""stim_listB/greet5.gif""style=""height:400px;""></stim_listB>","","html-keyboard-response","181","2259388","0.0-15.0-1.13","56362","List1B","black","woman","","","","null","","","","","","","","",""
"null","is greeting","","html-keyboard-response","182","2261390","0.0-15.0-2.13","56362","List1B","black","woman","","","","null","","","","","","","","",""
"17450.899999976158","","","survey-text","183","2278846","0.0-15.0-3.13","56362","List1B","black","woman","","","","","{""Q0"":""Mike is greeting Luke""}","<img src=""stim_listB/greet5.gif""style=""height:400px;""></stim_listB>","is greeting","","","","","",""
"null","<div style=""font-size:60px;"">+</div>","","html-keyboard-response","184","2279353","0.0-15.0-0.14","56362","List1B","black","woman","","","","null","","","","","","","","",""
"null","<img src=""stim_listB/seduce6.gif""style=""height:400px;""></stim_listB>","","html-keyboard-response","185","2281358","0.0-15.0-1.14","56362","List1B","black","woman","","","","null","","","","","","","","",""
"null","is being seduced by","","html-keyboard-response","186","2283362","0.0-15.0-2.14","56362","List1B","black","woman","","","","null","","","","","","","","",""
"19679.5","","","survey-text","187","2303043","0.0-15.0-3.14","56362","List1B","black","woman","","","","","{""Q0"":""Luke is being seduced by Mike""}","<img src=""stim_listB/seduce6.gif""style=""height:400px;""></stim_listB>","is being seduced by","","","","","",""
"null","<div style=""font-size:60px;"">+</div>","","html-keyboard-response","188","2303554","0.0-15.0-0.15","56362","List1B","black","woman","","","","null","","","","","","","","",""
"null","<img src=""stim_listB/look5.gif""style=""height:400px;""></stim_listB>","","html-keyboard-response","189","2305560","0.0-15.0-1.15","56362","List1B","black","woman","","","","null","","","","","","","","",""
"null","is looking at","","html-keyboard-response","190","2307561","0.0-15.0-2.15","56362","List1B","black","woman","","","","null","","","","","","","","",""
"15062.700000047684","","","survey-text","191","2322626","0.0-15.0-3.15","56362","List1B","black","woman","","","","","{""Q0"":""Fred is looking at Luke""}","<img src=""stim_listB/look5.gif""style=""height:400px;""></stim_listB>","is looking at","","","","","",""
"null","<div style=""font-size:60px;"">+</div>","","html-keyboard-response","192","2323140","0.0-15.0-0.16","56362","List1B","black","woman","","","","null","","","","","","","","",""
"null","<img src=""stim_listB/shout8.gif""style=""height:400px;""></stim_listB>","","html-keyboard-response","193","2325145","0.0-15.0-1.16","56362","List1B","black","woman","","","","null","","","","","","","","",""
"null","is being shouted at by","","html-keyboard-response","194","2327151","0.0-15.0-2.16","56362","List1B","black","woman","","","","null","","","","","","","","",""
"22528","","","survey-text","195","2349684","0.0-15.0-3.16","56362","List1B","black","woman","","","","","{""Q0"":""Jane is being shouted at by Kate""}","<img src=""stim_listB/shout8.gif""style=""height:400px;""></stim_listB>","is being shouted at by","","","","","",""
"null","<div style=""font-size:60px;"">+</div>","","html-keyboard-response","196","2350186","0.0-15.0-0.17","56362","List1B","black","woman","","","","null","","","","","","","","",""
"null","<img src=""stim_listB/greet2.gif""style=""height:400px;""></stim_listB>","","html-keyboard-response","197","2352191","0.0-15.0-1.17","56362","List1B","black","woman","","","","null","","","","","","","","",""
"null","is being greeted by","","html-keyboard-response","198","2354196","0.0-15.0-2.17","56362","List1B","black","woman","","","","null","","","","","","","","",""
"68941.30000007153","","","survey-text","199","2423142","0.0-15.0-3.17","56362","List1B","black","woman","","","","","{""Q0"":""Fred is being greeted at by Kate""}","<img src=""stim_listB/greet2.gif""style=""height:400px;""></stim_listB>","is being greeted by","","","","","",""
"null","<div style=""font-size:60px;"">+</div>","","html-keyboard-response","200","2423656","0.0-15.0-0.18","56362","List1B","black","woman","","","","null","","","","","","","","",""
"null","<img src=""stim_listB/shout1.gif""style=""height:400px;""></stim_listB>","","html-keyboard-response","201","2425661","0.0-15.0-1.18","56362","List1B","black","woman","","","","null","","","","","","","","",""
"null","is shouting at","","html-keyboard-response","202","2427667","0.0-15.0-2.18","56362","List1B","black","woman","","","","null","","","","","","","","",""
"14503.200000047684","","","survey-text","203","2442172","0.0-15.0-3.18","56362","List1B","black","woman","","","","","{""Q0"":""Beth is shouting at Fred""}","<img src=""stim_listB/shout1.gif""style=""height:400px;""></stim_listB>","is shouting at","","","","","",""
"null","<div style=""font-size:60px;"">+</div>","","html-keyboard-response","204","2442679","0.0-15.0-0.19","56362","List1B","black","woman","","","","null","","","","","","","","",""
"null","<img src=""stim_listB/greet4.gif""style=""height:400px;""></stim_listB>","","html-keyboard-response","205","2444685","0.0-15.0-1.19","56362","List1B","black","woman","","","","null","","","","","","","","",""
"null","is being greeted by","","html-keyboard-response","206","2446691","0.0-15.0-2.19","56362","List1B","black","woman","","","","null","","","","","","","","",""
"26181.100000023842","","","survey-text","207","2472876","0.0-15.0-3.19","56362","List1B","black","woman","","","","","{""Q0"":""Jane is being greeted by Luke""}","<img src=""stim_listB/greet4.gif""style=""height:400px;""></stim_listB>","is being greeted by","","","","","",""
"5868.900000095367","<img src='img/portrait_matrix_list1.jpg' style='width:900px;height:500px;''></img><p>If you have memorised all the portraits and names and are ready to start, press Continue.</p><p><strong>Please note: Your memory of these faces will be tested 4 times during this experiment.</strong></p>","0","html-button-response","208","2478746","0.0-16.0-0.0","56362","List1B","black","woman","","","","","","","","","","","","",""
"2151","<img src=""portrait/BW2.jpg""style=""height:400px;""></img>","2","html-button-response","209","2481910","0.0-16.0-1.0","56362","List1B","black","woman","","true","2","","","","","","","","","",""
"null","CORRECT","","html-keyboard-response","210","2483413","0.0-16.0-2.0-0.0","56362","List1B","black","woman","","","","null","","","","","","","","",""
"2840.100000023842","<img src=""portrait/BM2.jpg""style=""height:400px;""></img>","5","html-button-response","211","2486254","0.0-16.0-4.0","56362","List1B","black","woman","","true","5","","","","","","","","","",""
"null","CORRECT","","html-keyboard-response","212","2487761","0.0-16.0-5.0-0.0","56362","List1B","black","woman","","","","null","","","","","","","","",""
"2443.399999976158","<img src=""portrait/BW1.jpg""style=""height:400px;""></img>","0","html-button-response","213","2490206","0.0-16.0-7.0","56362","List1B","black","woman","","true","0","","","","","","","","","",""
"null","CORRECT","","html-keyboard-response","214","2491710","0.0-16.0-8.0-0.0","56362","List1B","black","woman","","","","null","","","","","","","","",""
"2076.899999976158","<img src=""portrait/WM1.jpg""style=""height:400px;""></img>","6","html-button-response","215","2493788","0.0-16.0-10.0","56362","List1B","black","woman","","true","6","","","","","","","","","",""
"null","CORRECT","","html-keyboard-response","216","2495304","0.0-16.0-11.0-0.0","56362","List1B","black","woman","","","","null","","","","","","","","",""
"1744.8000000715256","<img src=""portrait/WW2.jpg""style=""height:400px;""></img>","3","html-button-response","217","2497050","0.0-16.0-13.0","56362","List1B","black","woman","","true","3","","","","","","","","","",""
"null","CORRECT","","html-keyboard-response","218","2498557","0.0-16.0-14.0-0.0","56362","List1B","black","woman","","","","null","","","","","","","","",""
"2591.600000023842","<img src=""portrait/WM2.jpg""style=""height:400px;""></img>","7","html-button-response","219","2501150","0.0-16.0-16.0","56362","List1B","black","woman","","true","7","","","","","","","","","",""
"null","CORRECT","","html-keyboard-response","220","2502663","0.0-16.0-17.0-0.0","56362","List1B","black","woman","","","","null","","","","","","","","",""
"3249.7000000476837","<img src=""portrait/BM1.jpg""style=""height:400px;""></img>","4","html-button-response","221","2505914","0.0-16.0-19.0","56362","List1B","black","woman","","true","4","","","","","","","","","",""
"null","CORRECT","","html-keyboard-response","222","2507438","0.0-16.0-20.0-0.0","56362","List1B","black","woman","","","","null","","","","","","","","",""
"1735.5","<img src=""portrait/WW1.jpg""style=""height:400px;""></img>","1","html-button-response","223","2509178","0.0-16.0-22.0","56362","List1B","black","woman","","true","1","","","","","","","","","",""
"null","CORRECT","","html-keyboard-response","224","2510717","0.0-16.0-23.0-0.0","56362","List1B","black","woman","","","","null","","","","","","","","",""
"2003.2999999523163","<p>You got 8 out of 8 right first time. Press Continue.</p>","0","html-button-response","225","2512722","0.0-16.0-25.0","56362","List1B","black","woman","","","","","","","","","","","","",""
"null","<div style=""font-size:60px;"">+</div>","","html-keyboard-response","226","2514241","0.0-17.0-0.0","56362","List1B","black","woman","","","","null","","","","","","","","",""
"null","<img src=""stim_listB/oppose4.gif""style=""height:400px;""></stim_listB>","","html-keyboard-response","227","2516246","0.0-17.0-1.0","56362","List1B","black","woman","","","","null","","","","","","","","",""
"null","is being opposed by","","html-keyboard-response","228","2518251","0.0-17.0-2.0","56362","List1B","black","woman","","","","null","","","","","","","","",""
"20305.300000071526","","","survey-text","229","2538559","0.0-17.0-3.0","56362","List1B","black","woman","","","","","{""Q0"":""Luke is being opposed by Ruth""}","<img src=""stim_listB/oppose4.gif""style=""height:400px;""></stim_listB>","is being opposed by","","","","","",""
"null","<div style=""font-size:60px;"">+</div>","","html-keyboard-response","230","2539062","0.0-17.0-0.1","56362","List1B","black","woman","","","","null","","","","","","","","",""
"null","<img src=""stim_listB/look3.gif""style=""height:400px;""></stim_listB>","","html-keyboard-response","231","2541067","0.0-17.0-1.1","56362","List1B","black","woman","","","","null","","","","","","","","",""
"null","is looking at","","html-keyboard-response","232","2543073","0.0-17.0-2.1","56362","List1B","black","woman","","","","null","","","","","","","","",""
"38813.5","","","survey-text","233","2581891","0.0-17.0-3.1","56362","List1B","black","woman","","","","","{""Q0"":""Ruth is looking at Luke""}","<img src=""stim_listB/look3.gif""style=""height:400px;""></stim_listB>","is looking at","","","","","",""
"null","<div style=""font-size:60px;"">+</div>","","html-keyboard-response","234","2582400","0.0-17.0-0.2","56362","List1B","black","woman","","","","null","","","","","","","","",""
"null","<img src=""stim_listB/seduce4.gif""style=""height:400px;""></stim_listB>","","html-keyboard-response","235","2584404","0.0-17.0-1.2","56362","List1B","black","woman","","","","null","","","","","","","","",""
"null","is being seduced by","","html-keyboard-response","236","2586410","0.0-17.0-2.2","56362","List1B","black","woman","","","","null","","","","","","","","",""
"25675.5","","","survey-text","237","2612087","0.0-17.0-3.2","56362","List1B","black","woman","","","","","{""Q0"":""Ruth is being seduced by Dave""}","<img src=""stim_listB/seduce4.gif""style=""height:400px;""></stim_listB>","is being seduced by","","","","","",""
"null","<div style=""font-size:60px;"">+</div>","","html-keyboard-response","238","2612589","0.0-17.0-0.3","56362","List1B","black","woman","","","","null","","","","","","","","",""
"null","<img src=""stim_listB/hug8.gif""style=""height:400px;""></stim_listB>","","html-keyboard-response","239","2614592","0.0-17.0-1.3","56362","List1B","black","woman","","","","null","","","","","","","","",""
"null","is being hugged by","","html-keyboard-response","240","2616594","0.0-17.0-2.3","56362","List1B","black","woman","","","","null","","","","","","","","",""
"31568.299999952316","","","survey-text","241","2648166","0.0-17.0-3.3","56362","List1B","black","woman","","","","","{""Q0"":""Kate is being hugged by Jane""}","<img src=""stim_listB/hug8.gif""style=""height:400px;""></stim_listB>","is being hugged by","","","","","",""
"null","<div style=""font-size:60px;"">+</div>","","html-keyboard-response","242","2648670","0.0-17.0-0.4","56362","List1B","black","woman","","","","null","","","","","","","","",""
"null","<img src=""stim_listB/kiss7.gif""style=""height:400px;""></stim_listB>","","html-keyboard-response","243","2650674","0.0-17.0-1.4","56362","List1B","black","woman","","","","null","","","","","","","","",""
"null","is kissing","","html-keyboard-response","244","2652675","0.0-17.0-2.4","56362","List1B","black","woman","","","","null","","","","","","","","",""
"17150.399999976158","","","survey-text","245","2669827","0.0-17.0-3.4","56362","List1B","black","woman","","","","","{""Q0"":""Beth is kissing Ruth""}","<img src=""stim_listB/kiss7.gif""style=""height:400px;""></stim_listB>","is kissing","","","","","",""
"null","<div style=""font-size:60px;"">+</div>","","html-keyboard-response","246","2670328","0.0-17.0-0.5","56362","List1B","black","woman","","","","null","","","","","","","","",""
"null","<img src=""stim_listB/copy1.gif""style=""height:400px;""></stim_listB>","","html-keyboard-response","247","2672333","0.0-17.0-1.5","56362","List1B","black","woman","","","","null","","","","","","","","",""
"null","is copying","","html-keyboard-response","248","2674339","0.0-17.0-2.5","56362","List1B","black","woman","","","","null","","","","","","","","",""
"16841","","","survey-text","249","2691184","0.0-17.0-3.5","56362","List1B","black","woman","","","","","{""Q0"":""Beth is copying Mike""}","<img src=""stim_listB/copy1.gif""style=""height:400px;""></stim_listB>","is copying","","","","","",""
"null","<div style=""font-size:60px;"">+</div>","","html-keyboard-response","250","2691694","0.0-17.0-0.6","56362","List1B","black","woman","","","","null","","","","","","","","",""
"null","<img src=""stim_listB/touch6.gif""style=""height:400px;""></stim_listB>","","html-keyboard-response","251","2693698","0.0-17.0-1.6","56362","List1B","black","woman","","","","null","","","","","","","","",""
"null","is being touched by","","html-keyboard-response","252","2695703","0.0-17.0-2.6","56362","List1B","black","woman","","","","null","","","","","","","","",""
"19945.300000071526","","","survey-text","253","2715650","0.0-17.0-3.6","56362","List1B","black","woman","","","","","{""Q0"":""Luke is being touched by Fred""}","<img src=""stim_listB/touch6.gif""style=""height:400px;""></stim_listB>","is being touched by","","","","","",""
"null","<div style=""font-size:60px;"">+</div>","","html-keyboard-response","254","2716159","0.0-17.0-0.7","56362","List1B","black","woman","","","","null","","","","","","","","",""
"null","<img src=""stim_listB/oppose5.gif""style=""height:400px;""></stim_listB>","","html-keyboard-response","255","2718163","0.0-17.0-1.7","56362","List1B","black","woman","","","","null","","","","","","","","",""
"null","is opposing","","html-keyboard-response","256","2720164","0.0-17.0-2.7","56362","List1B","black","woman","","","","null","","","","","","","","",""
"18341.600000023842","","","survey-text","257","2738508","0.0-17.0-3.7","56362","List1B","black","woman","","","","","{""Q0"":""Mike is opposing Dave""}","<img src=""stim_listB/oppose5.gif""style=""height:400px;""></stim_listB>","is opposing","","","","","",""
"null","<div style=""font-size:60px;"">+</div>","","html-keyboard-response","258","2739021","0.0-17.0-0.8","56362","List1B","black","woman","","","","null","","","","","","","","",""
"null","<img src=""stim_listB/copy5.gif""style=""height:400px;""></stim_listB>","","html-keyboard-response","259","2741028","0.0-17.0-1.8","56362","List1B","black","woman","","","","null","","","","","","","","",""
"null","is copying","","html-keyboard-response","260","2743033","0.0-17.0-2.8","56362","List1B","black","woman","","","","null","","","","","","","","",""
"14008.600000023842","","","survey-text","261","2757046","0.0-17.0-3.8","56362","List1B","black","woman","","","","","{""Q0"":""Mike is copying Luke""}","<img src=""stim_listB/copy5.gif""style=""height:400px;""></stim_listB>","is copying","","","","","",""
"null","<div style=""font-size:60px;"">+</div>","","html-keyboard-response","262","2757562","0.0-17.0-0.9","56362","List1B","black","woman","","","","null","","","","","","","","",""
"null","<img src=""stim_listB/touch7.gif""style=""height:400px;""></stim_listB>","","html-keyboard-response","263","2759566","0.0-17.0-1.9","56362","List1B","black","woman","","","","null","","","","","","","","",""
"null","is touching","","html-keyboard-response","264","2761572","0.0-17.0-2.9","56362","List1B","black","woman","","","","null","","","","","","","","",""
"22054.299999952316","","","survey-text","265","2783628","0.0-17.0-3.9","56362","List1B","black","woman","","","","","{""Q0"":""Kate is touching Jane""}","<img src=""stim_listB/touch7.gif""style=""height:400px;""></stim_listB>","is touching","","","","","",""
"null","<div style=""font-size:60px;"">+</div>","","html-keyboard-response","266","2784138","0.0-17.0-0.10","56362","List1B","black","woman","","","","null","","","","","","","","",""
"null","<img src=""stim_listB/challenge3.gif""style=""height:400px;""></stim_listB>","","html-keyboard-response","267","2786143","0.0-17.0-1.10","56362","List1B","black","woman","","","","null","","","","","","","","",""
"null","is challenging","","html-keyboard-response","268","2788148","0.0-17.0-2.10","56362","List1B","black","woman","","","","null","","","","","","","","",""
"24218.300000071526","","","survey-text","269","2812371","0.0-17.0-3.10","56362","List1B","black","woman","","","","","{""Q0"":""Ruth is challenging  Dave""}","<img src=""stim_listB/challenge3.gif""style=""height:400px;""></stim_listB>","is challenging","","","","","",""
"null","<div style=""font-size:60px;"">+</div>","","html-keyboard-response","270","2812876","0.0-17.0-0.11","56362","List1B","black","woman","","","","null","","","","","","","","",""
"null","<img src=""stim_listB/look8.gif""style=""height:400px;""></stim_listB>","","html-keyboard-response","271","2814881","0.0-17.0-1.11","56362","List1B","black","woman","","","","null","","","","","","","","",""
"null","is being looked at by","","html-keyboard-response","272","2816887","0.0-17.0-2.11","56362","List1B","black","woman","","","","null","","","","","","","","",""
"90519.29999995232","","","survey-text","273","2907410","0.0-17.0-3.11","56362","List1B","black","woman","","","","","{""Q0"":""Kate is being looked  by Jane""}","<img src=""stim_listB/look8.gif""style=""height:400px;""></stim_listB>","is being looked at by","","","","","",""
"null","<div style=""font-size:60px;"">+</div>","","html-keyboard-response","274","2907913","0.0-17.0-0.12","56362","List1B","black","woman","","","","null","","","","","","","","",""
"null","<img src=""stim_listB/shout6.gif""style=""height:400px;""></stim_listB>","","html-keyboard-response","275","2909917","0.0-17.0-1.12","56362","List1B","black","woman","","","","null","","","","","","","","",""
"null","is being shouted at by","","html-keyboard-response","276","2911922","0.0-17.0-2.12","56362","List1B","black","woman","","","","null","","","","","","","","",""
"33102.60000002384","","","survey-text","277","2945030","0.0-17.0-3.12","56362","List1B","black","woman","","","","","{""Q0"":""Dave is being shouted at by Mike""}","<img src=""stim_listB/shout6.gif""style=""height:400px;""></stim_listB>","is being shouted at by","","","","","",""
"null","<div style=""font-size:60px;"">+</div>","","html-keyboard-response","278","2945546","0.0-17.0-0.13","56362","List1B","black","woman","","","","null","","","","","","","","",""
"null","<img src=""stim_listB/hug4.gif""style=""height:400px;""></stim_listB>","","html-keyboard-response","279","2947551","0.0-17.0-1.13","56362","List1B","black","woman","","","","null","","","","","","","","",""
"null","is being hugged by","","html-keyboard-response","280","2949557","0.0-17.0-2.13","56362","List1B","black","woman","","","","null","","","","","","","","",""
"25297.899999976158","","","survey-text","281","2974857","0.0-17.0-3.13","56362","List1B","black","woman","","","","","{""Q0"":""Jane is being hugged by Dave""}","<img src=""stim_listB/hug4.gif""style=""height:400px;""></stim_listB>","is being hugged by","","","","","",""
"null","<div style=""font-size:60px;"">+</div>","","html-keyboard-response","282","2975372","0.0-17.0-0.14","56362","List1B","black","woman","","","","null","","","","","","","","",""
"null","<img src=""stim_listB/look2.gif""style=""height:400px;""></stim_listB>","","html-keyboard-response","283","2977377","0.0-17.0-1.14","56362","List1B","black","woman","","","","null","","","","","","","","",""
"null","is being looked at by","","html-keyboard-response","284","2979382","0.0-17.0-2.14","56362","List1B","black","woman","","","","null","","","","","","","","",""
"20042.600000023842","","","survey-text","285","2999429","0.0-17.0-3.14","56362","List1B","black","woman","","","","","{""Q0"":""Mike is being looked at by Kate""}","<img src=""stim_listB/look2.gif""style=""height:400px;""></stim_listB>","is being looked at by","","","","","",""
"null","<div style=""font-size:60px;"">+</div>","","html-keyboard-response","286","2999943","0.0-17.0-0.15","56362","List1B","black","woman","","","","null","","","","","","","","",""
"null","<img src=""stim_listB/challenge2.gif""style=""height:400px;""></stim_listB>","","html-keyboard-response","287","3001947","0.0-17.0-1.15","56362","List1B","black","woman","","","","null","","","","","","","","",""
"null","is being challenged by","","html-keyboard-response","288","3003953","0.0-17.0-2.15","56362","List1B","black","woman","","","","null","","","","","","","","",""
"21680.299999952316","","","survey-text","289","3025635","0.0-17.0-3.15","56362","List1B","black","woman","","","","","{""Q0"":""Fred is being challenged by Kate""}","<img src=""stim_listB/challenge2.gif""style=""height:400px;""></stim_listB>","is being challenged by","","","","","",""
"null","<div style=""font-size:60px;"">+</div>","","html-keyboard-response","290","3026148","0.0-17.0-0.16","56362","List1B","black","woman","","","","null","","","","","","","","",""
"null","<img src=""stim_listB/copy3.gif""style=""height:400px;""></stim_listB>","","html-keyboard-response","291","3028153","0.0-17.0-1.16","56362","List1B","black","woman","","","","null","","","","","","","","",""
"null","is copying","","html-keyboard-response","292","3030159","0.0-17.0-2.16","56362","List1B","black","woman","","","","null","","","","","","","","",""
"19539.600000023842","","","survey-text","293","3049701","0.0-17.0-3.16","56362","List1B","black","woman","","","","","{""Q0"":""Ruth is copying Dave""}","<img src=""stim_listB/copy3.gif""style=""height:400px;""></stim_listB>","is copying","","","","","",""
"null","<div style=""font-size:60px;"">+</div>","","html-keyboard-response","294","3050216","0.0-17.0-0.17","56362","List1B","black","woman","","","","null","","","","","","","","",""
"null","<img src=""stim_listB/copy6.gif""style=""height:400px;""></stim_listB>","","html-keyboard-response","295","3052221","0.0-17.0-1.17","56362","List1B","black","woman","","","","null","","","","","","","","",""
"null","is being copied by","","html-keyboard-response","296","3054227","0.0-17.0-2.17","56362","List1B","black","woman","","","","null","","","","","","","","",""
"18935.600000023842","","","survey-text","297","3073165","0.0-17.0-3.17","56362","List1B","black","woman","","","","","{""Q0"":""Fred is being copied by Dave""}","<img src=""stim_listB/copy6.gif""style=""height:400px;""></stim_listB>","is being copied by","","","","","",""
"null","<div style=""font-size:60px;"">+</div>","","html-keyboard-response","298","3073669","0.0-17.0-0.18","56362","List1B","black","woman","","","","null","","","","","","","","",""
"null","<img src=""stim_listB/copy7.gif""style=""height:400px;""></stim_listB>","","html-keyboard-response","299","3075672","0.0-17.0-1.18","56362","List1B","black","woman","","","","null","","","","","","","","",""
"null","is copying","","html-keyboard-response","300","3077677","0.0-17.0-2.18","56362","List1B","black","woman","","","","null","","","","","","","","",""
"14635.799999952316","","","survey-text","301","3092315","0.0-17.0-3.18","56362","List1B","black","woman","","","","","{""Q0"":""Ruth is copying Kate""}","<img src=""stim_listB/copy7.gif""style=""height:400px;""></stim_listB>","is copying","","","","","",""
"null","<div style=""font-size:60px;"">+</div>","","html-keyboard-response","302","3092824","0.0-17.0-0.19","56362","List1B","black","woman","","","","null","","","","","","","","",""
"null","<img src=""stim_listB/oppose3.gif""style=""height:400px;""></stim_listB>","","html-keyboard-response","303","3094828","0.0-17.0-1.19","56362","List1B","black","woman","","","","null","","","","","","","","",""
"null","is opposing","","html-keyboard-response","304","3096833","0.0-17.0-2.19","56362","List1B","black","woman","","","","null","","","","","","","","",""
"20143.400000095367","","","survey-text","305","3116982","0.0-17.0-3.19","56362","List1B","black","woman","","","","","{""Q0"":""Jane is opposing Dave""}","<img src=""stim_listB/oppose3.gif""style=""height:400px;""></stim_listB>","is opposing","","","","","",""
"10879.699999928474","<img src='img/portrait_matrix_list1.jpg' style='width:900px;height:500px;''></img><p>If you have memorised all the portraits and names and are ready to start, press Continue.</p><p><strong>Please note: Your memory of these faces will be tested 4 times during this experiment.</strong></p>","0","html-button-response","306","3127863","0.0-18.0-0.0","56362","List1B","black","woman","","","","","","","","","","","","",""
"2271.7999999523163","<img src=""portrait/WW2.jpg""style=""height:400px;""></img>","3","html-button-response","307","3131136","0.0-18.0-1.0","56362","List1B","black","woman","","true","3","","","","","","","","","",""
"null","CORRECT","","html-keyboard-response","308","3132662","0.0-18.0-2.0-0.0","56362","List1B","black","woman","","","","null","","","","","","","","",""
"2534.899999976158","<img src=""portrait/WM1.jpg""style=""height:400px;""></img>","6","html-button-response","309","3135198","0.0-18.0-4.0","56362","List1B","black","woman","","true","6","","","","","","","","","",""
"null","CORRECT","","html-keyboard-response","310","3136700","0.0-18.0-5.0-0.0","56362","List1B","black","woman","","","","null","","","","","","","","",""
"1684.7999999523163","<img src=""portrait/BM1.jpg""style=""height:400px;""></img>","4","html-button-response","311","3138386","0.0-18.0-7.0","56362","List1B","black","woman","","true","4","","","","","","","","","",""
"null","CORRECT","","html-keyboard-response","312","3139907","0.0-18.0-8.0-0.0","56362","List1B","black","woman","","","","null","","","","","","","","",""
"3474.100000023842","<img src=""portrait/BW1.jpg""style=""height:400px;""></img>","0","html-button-response","313","3143383","0.0-18.0-10.0","56362","List1B","black","woman","","true","0","","","","","","","","","",""
"null","CORRECT","","html-keyboard-response","314","3144888","0.0-18.0-11.0-0.0","56362","List1B","black","woman","","","","null","","","","","","","","",""
"2345.2000000476837","<img src=""portrait/BW2.jpg""style=""height:400px;""></img>","2","html-button-response","315","3147235","0.0-18.0-13.0","56362","List1B","black","woman","","true","2","","","","","","","","","",""
"null","CORRECT","","html-keyboard-response","316","3148759","0.0-18.0-14.0-0.0","56362","List1B","black","woman","","","","null","","","","","","","","",""
"2720.600000023842","<img src=""portrait/WM2.jpg""style=""height:400px;""></img>","7","html-button-response","317","3151481","0.0-18.0-16.0","56362","List1B","black","woman","","true","7","","","","","","","","","",""
"null","CORRECT","","html-keyboard-response","318","3153005","0.0-18.0-17.0-0.0","56362","List1B","black","woman","","","","null","","","","","","","","",""
"2781.3000000715256","<img src=""portrait/WW1.jpg""style=""height:400px;""></img>","1","html-button-response","319","3155788","0.0-18.0-19.0","56362","List1B","black","woman","","true","1","","","","","","","","","",""
"null","CORRECT","","html-keyboard-response","320","3157311","0.0-18.0-20.0-0.0","56362","List1B","black","woman","","","","null","","","","","","","","",""
"2304.1999999284744","<img src=""portrait/BM2.jpg""style=""height:400px;""></img>","5","html-button-response","321","3159616","0.0-18.0-22.0","56362","List1B","black","woman","","true","5","","","","","","","","","",""
"null","CORRECT","","html-keyboard-response","322","3161133","0.0-18.0-23.0-0.0","56362","List1B","black","woman","","","","null","","","","","","","","",""
"1842.6999999284744","<p>You got 8 out of 8 right first time. Press Continue.</p>","0","html-button-response","323","3162977","0.0-18.0-25.0","56362","List1B","black","woman","","","","","","","","","","","","",""
"null","<div style=""font-size:60px;"">+</div>","","html-keyboard-response","324","3164487","0.0-19.0-0.0","56362","List1B","black","woman","","","","null","","","","","","","","",""
"null","<img src=""stim_listB/challenge6.gif""style=""height:400px;""></stim_listB>","","html-keyboard-response","325","3166492","0.0-19.0-1.0","56362","List1B","black","woman","","","","null","","","","","","","","",""
"null","is being challenged by","","html-keyboard-response","326","3168498","0.0-19.0-2.0","56362","List1B","black","woman","","","","null","","","","","","","","",""
"71609","","","survey-text","327","3240114","0.0-19.0-3.0","56362","List1B","black","woman","","","","","{""Q0"":""Fred is being challenged by Dave""}","<img src=""stim_listB/challenge6.gif""style=""height:400px;""></stim_listB>","is being challenged by","","","","","",""
"null","<div style=""font-size:60px;"">+</div>","","html-keyboard-response","328","3240624","0.0-19.0-0.1","56362","List1B","black","woman","","","","null","","","","","","","","",""
"null","<img src=""stim_listB/touch4.gif""style=""height:400px;""></stim_listB>","","html-keyboard-response","329","3242643","0.0-19.0-1.1","56362","List1B","black","woman","","","","null","","","","","","","","",""
"null","is being touched by","","html-keyboard-response","330","3244650","0.0-19.0-2.1","56362","List1B","black","woman","","","","null","","","","","","","","",""
"14663.300000071526","","","survey-text","331","3259315","0.0-19.0-3.1","56362","List1B","black","woman","","","","","{""Q0"":""Ruth is being touched Luke""}","<img src=""stim_listB/touch4.gif""style=""height:400px;""></stim_listB>","is being touched by","","","","","",""
"null","<div style=""font-size:60px;"">+</div>","","html-keyboard-response","332","3259827","0.0-19.0-0.2","56362","List1B","black","woman","","","","null","","","","","","","","",""
"null","<img src=""stim_listB/touch2.gif""style=""height:400px;""></stim_listB>","","html-keyboard-response","333","3261843","0.0-19.0-1.2","56362","List1B","black","woman","","","","null","","","","","","","","",""
"null","is being touched by","","html-keyboard-response","334","3263858","0.0-19.0-2.2","56362","List1B","black","woman","","","","null","","","","","","","","",""
"33191.5","","","survey-text","335","3297053","0.0-19.0-3.2","56362","List1B","black","woman","","","","","{""Q0"":""Luke is being touched by Beth""}","<img src=""stim_listB/touch2.gif""style=""height:400px;""></stim_listB>","is being touched by","","","","","",""
"null","<div style=""font-size:60px;"">+</div>","","html-keyboard-response","336","3297561","0.0-19.0-0.3","56362","List1B","black","woman","","","","null","","","","","","","","",""
"null","<img src=""stim_listB/greet6.gif""style=""height:400px;""></stim_listB>","","html-keyboard-response","337","3299565","0.0-19.0-1.3","56362","List1B","black","woman","","","","null","","","","","","","","",""
"null","is being greeted by","","html-keyboard-response","338","3301577","0.0-19.0-2.3","56362","List1B","black","woman","","","","null","","","","","","","","",""
"28717.899999976158","","","survey-text","339","3330296","0.0-19.0-3.3","56362","List1B","black","woman","","","","","{""Q0"":""Fred is being greeted by Dave""}","<img src=""stim_listB/greet6.gif""style=""height:400px;""></stim_listB>","is being greeted by","","","","","",""
"null","<div style=""font-size:60px;"">+</div>","","html-keyboard-response","340","3330802","0.0-19.0-0.4","56362","List1B","black","woman","","","","null","","","","","","","","",""
"null","<img src=""stim_listB/challenge8.gif""style=""height:400px;""></stim_listB>","","html-keyboard-response","341","3332819","0.0-19.0-1.4","56362","List1B","black","woman","","","","null","","","","","","","","",""
"null","is being challenged by","","html-keyboard-response","342","3334833","0.0-19.0-2.4","56362","List1B","black","woman","","","","null","","","","","","","","",""
"30798.300000071526","","","survey-text","343","3365635","0.0-19.0-3.4","56362","List1B","black","woman","","","","","{""Q0"":""Jane is being challenged by Beth""}","<img src=""stim_listB/challenge8.gif""style=""height:400px;""></stim_listB>","is being challenged by","","","","","",""
"null","<div style=""font-size:60px;"">+</div>","","html-keyboard-response","344","3366142","0.0-19.0-0.5","56362","List1B","black","woman","","","","null","","","","","","","","",""
"null","<img src=""stim_listB/touch8.gif""style=""height:400px;""></stim_listB>","","html-keyboard-response","345","3368158","0.0-19.0-1.5","56362","List1B","black","woman","","","","null","","","","","","","","",""
"null","is being touched by","","html-keyboard-response","346","3370172","0.0-19.0-2.5","56362","List1B","black","woman","","","","null","","","","","","","","",""
"27610","","","survey-text","347","3397784","0.0-19.0-3.5","56362","List1B","black","woman","","","","","{""Q0"":""Ruth is being touched by Beth""}","<img src=""stim_listB/touch8.gif""style=""height:400px;""></stim_listB>","is being touched by","","","","","",""
"null","<div style=""font-size:60px;"">+</div>","","html-keyboard-response","348","3398300","0.0-19.0-0.6","56362","List1B","black","woman","","","","null","","","","","","","","",""
"null","<img src=""stim_listB/hug7.gif""style=""height:400px;""></stim_listB>","","html-keyboard-response","349","3400305","0.0-19.0-1.6","56362","List1B","black","woman","","","","null","","","","","","","","",""
"null","is hugging","","html-keyboard-response","350","3402319","0.0-19.0-2.6","56362","List1B","black","woman","","","","null","","","","","","","","",""
"64706.89999997616","","","survey-text","351","3467031","0.0-19.0-3.6","56362","List1B","black","woman","","","","","{""Q0"":""Beth is being hugged by Ruth""}","<img src=""stim_listB/hug7.gif""style=""height:400px;""></stim_listB>","is hugging","","","","","",""
"null","<div style=""font-size:60px;"">+</div>","","html-keyboard-response","352","3467544","0.0-19.0-0.7","56362","List1B","black","woman","","","","null","","","","","","","","",""
"null","<img src=""stim_listB/touch1.gif""style=""height:400px;""></stim_listB>","","html-keyboard-response","353","3469560","0.0-19.0-1.7","56362","List1B","black","woman","","","","null","","","","","","","","",""
"null","is touching","","html-keyboard-response","354","3471562","0.0-19.0-2.7","56362","List1B","black","woman","","","","null","","","","","","","","",""
"14040.200000047684","","","survey-text","355","3485606","0.0-19.0-3.7","56362","List1B","black","woman","","","","","{""Q0"":""Mike is touching Kate""}","<img src=""stim_listB/touch1.gif""style=""height:400px;""></stim_listB>","is touching","","","","","",""
"null","<div style=""font-size:60px;"">+</div>","","html-keyboard-response","356","3486114","0.0-19.0-0.8","56362","List1B","black","woman","","","","null","","","","","","","","",""
"null","<img src=""stim_listB/kiss5.gif""style=""height:400px;""></stim_listB>","","html-keyboard-response","357","3488129","0.0-19.0-1.8","56362","List1B","black","woman","","","","null","","","","","","","","",""
"null","is kissing","","html-keyboard-response","358","3490130","0.0-19.0-2.8","56362","List1B","black","woman","","","","null","","","","","","","","",""
"13198.600000023842","","","survey-text","359","3503331","0.0-19.0-3.8","56362","List1B","black","woman","","","","","{""Q0"":""Fred is kissing Luke""}","<img src=""stim_listB/kiss5.gif""style=""height:400px;""></stim_listB>","is kissing","","","","","",""
"null","<div style=""font-size:60px;"">+</div>","","html-keyboard-response","360","3503842","0.0-19.0-0.9","56362","List1B","black","woman","","","","null","","","","","","","","",""
"null","<img src=""stim_listB/challenge7.gif""style=""height:400px;""></stim_listB>","","html-keyboard-response","361","3505859","0.0-19.0-1.9","56362","List1B","black","woman","","","","null","","","","","","","","",""
"null","is challenging","","html-keyboard-response","362","3507874","0.0-19.0-2.9","56362","List1B","black","woman","","","","null","","","","","","","","",""
"24268.299999952316","","","survey-text","363","3532145","0.0-19.0-3.9","56362","List1B","black","woman","","","","","{""Q0"":""Kate is challenging Ruth""}","<img src=""stim_listB/challenge7.gif""style=""height:400px;""></stim_listB>","is challenging","","","","","",""
"null","<div style=""font-size:60px;"">+</div>","","html-keyboard-response","364","3532652","0.0-19.0-0.10","56362","List1B","black","woman","","","","null","","","","","","","","",""
"null","<img src=""stim_listB/oppose8.gif""style=""height:400px;""></stim_listB>","","html-keyboard-response","365","3534670","0.0-19.0-1.10","56362","List1B","black","woman","","","","null","","","","","","","","",""
"null","is being opposed by","","html-keyboard-response","366","3536672","0.0-19.0-2.10","56362","List1B","black","woman","","","","null","","","","","","","","",""
"21945.899999976158","","","survey-text","367","3558619","0.0-19.0-3.10","56362","List1B","black","woman","","","","","{""Q0"":""Ruth is being opposed by Beth""}","<img src=""stim_listB/oppose8.gif""style=""height:400px;""></stim_listB>","is being opposed by","","","","","",""
"null","<div style=""font-size:60px;"">+</div>","","html-keyboard-response","368","3559126","0.0-19.0-0.11","56362","List1B","black","woman","","","","null","","","","","","","","",""
"null","<img src=""stim_listB/greet3.gif""style=""height:400px;""></stim_listB>","","html-keyboard-response","369","3561127","0.0-19.0-1.11","56362","List1B","black","woman","","","","null","","","","","","","","",""
"null","is greeting","","html-keyboard-response","370","3563129","0.0-19.0-2.11","56362","List1B","black","woman","","","","null","","","","","","","","",""
"11650","","","survey-text","371","3574780","0.0-19.0-3.11","56362","List1B","black","woman","","","","","{""Q0"":""Dave is greeting Ruth""}","<img src=""stim_listB/greet3.gif""style=""height:400px;""></stim_listB>","is greeting","","","","","",""
"null","<div style=""font-size:60px;"">+</div>","","html-keyboard-response","372","3575282","0.0-19.0-0.12","56362","List1B","black","woman","","","","null","","","","","","","","",""
"null","<img src=""stim_listB/look1.gif""style=""height:400px;""></stim_listB>","","html-keyboard-response","373","3577294","0.0-19.0-1.12","56362","List1B","black","woman","","","","null","","","","","","","","",""
"null","is looking at","","html-keyboard-response","374","3579295","0.0-19.0-2.12","56362","List1B","black","woman","","","","null","","","","","","","","",""
"14484.099999904633","","","survey-text","375","3593781","0.0-19.0-3.12","56362","List1B","black","woman","","","","","{""Q0"":""Fred is looking at Beth""}","<img src=""stim_listB/look1.gif""style=""height:400px;""></stim_listB>","is looking at","","","","","",""
"null","<div style=""font-size:60px;"">+</div>","","html-keyboard-response","376","3594285","0.0-19.0-0.13","56362","List1B","black","woman","","","","null","","","","","","","","",""
"null","<img src=""stim_listB/seduce1.gif""style=""height:400px;""></stim_listB>","","html-keyboard-response","377","3596301","0.0-19.0-1.13","56362","List1B","black","woman","","","","null","","","","","","","","",""
"null","is seducing","","html-keyboard-response","378","3598302","0.0-19.0-2.13","56362","List1B","black","woman","","","","null","","","","","","","","",""
"13090.5","","","survey-text","379","3611394","0.0-19.0-3.13","56362","List1B","black","woman","","","","","{""Q0"":""Kate is seducing Fred""}","<img src=""stim_listB/seduce1.gif""style=""height:400px;""></stim_listB>","is seducing","","","","","",""
"null","<div style=""font-size:60px;"">+</div>","","html-keyboard-response","380","3611909","0.0-19.0-0.14","56362","List1B","black","woman","","","","null","","","","","","","","",""
"null","<img src=""stim_listB/look4.gif""style=""height:400px;""></stim_listB>","","html-keyboard-response","381","3613915","0.0-19.0-1.14","56362","List1B","black","woman","","","","null","","","","","","","","",""
"null","is being looked at by","","html-keyboard-response","382","3615917","0.0-19.0-2.14","56362","List1B","black","woman","","","","null","","","","","","","","",""
"20262.299999952316","","","survey-text","383","3636181","0.0-19.0-3.14","56362","List1B","black","woman","","","","","{""Q0"":""Jane is being looked at by Dave""}","<img src=""stim_listB/look4.gif""style=""height:400px;""></stim_listB>","is being looked at by","","","","","",""
"null","<div style=""font-size:60px;"">+</div>","","html-keyboard-response","384","3636690","0.0-19.0-0.15","56362","List1B","black","woman","","","","null","","","","","","","","",""
"null","<img src=""stim_listB/shout5.gif""style=""height:400px;""></stim_listB>","","html-keyboard-response","385","3638706","0.0-19.0-1.15","56362","List1B","black","woman","","","","null","","","","","","","","",""
"null","is shouting at","","html-keyboard-response","386","3640722","0.0-19.0-2.15","56362","List1B","black","woman","","","","null","","","","","","","","",""
"20577.799999952316","","","survey-text","387","3661303","0.0-19.0-3.15","56362","List1B","black","woman","","","","","{""Q0"":""Luke is shouting at Fred""}","<img src=""stim_listB/shout5.gif""style=""height:400px;""></stim_listB>","is shouting at","","","","","",""
"null","<div style=""font-size:60px;"">+</div>","","html-keyboard-response","388","3661808","0.0-19.0-0.16","56362","List1B","black","woman","","","","null","","","","","","","","",""
"null","<img src=""stim_listB/hug5.gif""style=""height:400px;""></stim_listB>","","html-keyboard-response","389","3663823","0.0-19.0-1.16","56362","List1B","black","woman","","","","null","","","","","","","","",""
"null","is hugging","","html-keyboard-response","390","3665824","0.0-19.0-2.16","56362","List1B","black","woman","","","","null","","","","","","","","",""
"11290.299999952316","","","survey-text","391","3677118","0.0-19.0-3.16","56362","List1B","black","woman","","","","","{""Q0"":""Luke is hugging Fred""}","<img src=""stim_listB/hug5.gif""style=""height:400px;""></stim_listB>","is hugging","","","","","",""
"null","<div style=""font-size:60px;"">+</div>","","html-keyboard-response","392","3677619","0.0-19.0-0.17","56362","List1B","black","woman","","","","null","","","","","","","","",""
"null","<img src=""stim_listB/kiss6.gif""style=""height:400px;""></stim_listB>","","html-keyboard-response","393","3679635","0.0-19.0-1.17","56362","List1B","black","woman","","","","null","","","","","","","","",""
"null","is being kissed by","","html-keyboard-response","394","3681651","0.0-19.0-2.17","56362","List1B","black","woman","","","","null","","","","","","","","",""
"12928.599999904633","","","survey-text","395","3694582","0.0-19.0-3.17","56362","List1B","black","woman","","","","","{""Q0"":""Mike is being kissed by Dave""}","<img src=""stim_listB/kiss6.gif""style=""height:400px;""></stim_listB>","is being kissed by","","","","","",""
"null","<div style=""font-size:60px;"">+</div>","","html-keyboard-response","396","3695088","0.0-19.0-0.18","56362","List1B","black","woman","","","","null","","","","","","","","",""
"null","<img src=""stim_listB/challenge5.gif""style=""height:400px;""></stim_listB>","","html-keyboard-response","397","3697104","0.0-19.0-1.18","56362","List1B","black","woman","","","","null","","","","","","","","",""
"null","is challenging","","html-keyboard-response","398","3699107","0.0-19.0-2.18","56362","List1B","black","woman","","","","null","","","","","","","","",""
"25204","","","survey-text","399","3724315","0.0-19.0-3.18","56362","List1B","black","woman","","","","","{""Q0"":""Luke is challenging Mike""}","<img src=""stim_listB/challenge5.gif""style=""height:400px;""></stim_listB>","is challenging","","","","","",""
"null","<div style=""font-size:60px;"">+</div>","","html-keyboard-response","400","3724818","0.0-19.0-0.19","56362","List1B","black","woman","","","","null","","","","","","","","",""
"null","<img src=""stim_listB/shout2.gif""style=""height:400px;""></stim_listB>","","html-keyboard-response","401","3726835","0.0-19.0-1.19","56362","List1B","black","woman","","","","null","","","","","","","","",""
"null","is being shouted at by","","html-keyboard-response","402","3728837","0.0-19.0-2.19","56362","List1B","black","woman","","","","null","","","","","","","","",""
"16090.899999976158","","","survey-text","403","3744929","0.0-19.0-3.19","56362","List1B","black","woman","","","","","{""Q0"":""Mike is being shouted at by Kate""}","<img src=""stim_listB/shout2.gif""style=""height:400px;""></stim_listB>","is being shouted at by","","","","","",""
"4097.600000023842","<p>Thank you for completing that task.</p><p>The final part of this session is a questionnaire that will take about 4 minutes.</p><p>Press Continue.</p>","0","html-button-response","404","3749028","0.0-20.0","56362","List1B","black","woman","","","","","","","","","","","","",""
"58470.10000002384","","","survey-text","405","3808511","0.0-21.0","56362","List1B","black","woman","","","","","{""Q0"":""53"",""Q1"":""English"",""Q2"":""English"",""Q3"":""USA"",""Q4"":""An American"",""Q5"":""Black American"",""Q6"":""Female""}","","","demographics","","","","",""
"4206.5","<p>Have you lived in the USA for the last 5 years or more?</p>","0","html-button-response","406","3812719","0.0-22.0","56362","List1B","black","woman","","","","","","","","fiveyears","","","","",""
"2464.600000023842","<p>Move the slider to show the extent to which you agree with the following statements.</p>","0","html-button-response","407","3816189","0.0-23.0","56362","List1B","black","woman","","","","","","","","","","","","",""
"7419.100000023842","","","html-slider-response","408","3824619","0.0-24.0-0.0-0.0","56362","List1B","black","woman","","","","","","","","survey_race","79","","","Getting older does not worry me.","filler"
"4094.9000000953674","","","html-slider-response","409","3828716","0.0-24.0-0.0-0.1","56362","List1B","black","woman","","","","","","","","survey_race","87","","","I have a lot in common with people of a similar age to me.","filler"
"5092.299999952316","","","html-slider-response","410","3833810","0.0-24.0-0.0-0.2","56362","List1B","black","woman","","","","","","","","survey_race","54","","","I feel solidarity with people the same age as me.","filler"
"3407.1999999284744","","","html-slider-response","411","3837221","0.0-24.0-0.0-0.3","56362","List1B","black","woman","","","","","","","","survey_race","67","","","I consider myself an introvert.","filler"
"5572.5","","","html-slider-response","412","3842795","0.0-24.0-0.0-0.4","56362","List1B","black","woman","","","","","","","","survey_race","99","","","The fact that I am my race is an important part of my identity.","identity"
"6543.900000095367","","","html-slider-response","413","3849341","0.0-24.0-0.0-0.5","56362","List1B","black","woman","","","","","","","","survey_race","66","","","Being my age gives me a good feeling.","filler"
"3923.7000000476837","","","html-slider-response","414","3853267","0.0-24.0-0.0-0.6","56362","List1B","black","woman","","","","","","","","survey_race","77","","","I am glad to be the age I am.","filler"
"3701.600000023842","","","html-slider-response","415","3856969","0.0-24.0-0.0-0.7","56362","List1B","black","woman","","","","","","","","survey_race","100","","","I feel committed to my race.","committed"
"3973","","","html-slider-response","416","3860945","0.0-24.0-0.0-0.8","56362","List1B","black","woman","","","","","","","","survey_race","100","","","It is pleasant to be my race.","pleasant"
"4918.599999904633","","","html-slider-response","417","3865866","0.0-24.0-0.0-0.9","56362","List1B","black","woman","","","","","","","","survey_race","96","","","I have a lot in common with the average person of my race.","average"
"5979.799999952316","","","html-slider-response","418","3871847","0.0-24.0-0.0-0.10","56362","List1B","black","woman","","","","","","","","survey_race","41","","","I consider myself an extrovert.","filler"
"7787.100000023842","","","html-slider-response","419","3879636","0.0-24.0-0.0-0.11","56362","List1B","black","woman","","","","","","","","survey_race","47","","","I often think about the fact that I am my age.","filler"
"12783.399999976158","","","html-slider-response","420","3892421","0.0-24.0-0.0-0.12","56362","List1B","black","woman","","","","","","","","survey_race","52","","","I often think about the fact that I am my race.","often"
"4772.300000071526","","","html-slider-response","421","3897197","0.0-24.0-0.0-0.13","56362","List1B","black","woman","","","","","","","","survey_race","70","","","The older I get, the wiser I feel.","filler"
"3812.5","","","html-slider-response","422","3901012","0.0-24.0-0.0-0.14","56362","List1B","black","woman","","","","","","","","survey_race","94","","","I enjoy being in large groups.","filler"
"4083","","","html-slider-response","423","3905098","0.0-24.0-0.0-0.15","56362","List1B","black","woman","","","","","","","","survey_race","89","","","I feel a bond with my race.","bond"
"3665.2999999523163","","","html-slider-response","424","3908764","0.0-24.0-0.0-0.16","56362","List1B","black","woman","","","","","","","","survey_race","85","","","I am similar to the average person of my race.","similar"
"3272.2000000476837","","","html-slider-response","425","3912038","0.0-24.0-0.0-0.17","56362","List1B","black","woman","","","","","","","","survey_race","80","","","I am glad to be my age.","filler"
"4317.299999952316","","","html-slider-response","426","3916357","0.0-24.0-0.0-0.18","56362","List1B","black","woman","","","","","","","","survey_race","34","","","My age is not an important part of who I am.","filler"
"5559.5","","","html-slider-response","427","3921919","0.0-24.0-0.0-0.19","56362","List1B","black","woman","","","","","","","","survey_race","92","","","Being my race is an important part of how I see myself.","important"
"4230.200000047684","","","html-slider-response","428","3926151","0.0-24.0-0.0-0.20","56362","List1B","black","woman","","","","","","","","survey_race","87","","","People my age have a lot in common with each other.","filler"
"4034.6999999284744","","","html-slider-response","429","3930188","0.0-24.0-0.0-0.21","56362","List1B","black","woman","","","","","","","","survey_race","82","","","People of my race have a lot in common with each other.","common"
"5018","","","html-slider-response","430","3935207","0.0-24.0-0.0-0.22","56362","List1B","black","woman","","","","","","","","survey_race","93","","","Being my race gives me a good feeling.","feeling"
"4871.5","","","html-slider-response","431","3940081","0.0-24.0-0.0-0.23","56362","List1B","black","woman","","","","","","","","survey_race","96","","","I think that my race has a lot to be proud of.","proud"
"4353.5","","","html-slider-response","432","3944436","0.0-24.0-0.0-0.24","56362","List1B","black","woman","","","","","","","","survey_race","95","","","I feel a bond with people the same age as me.","filler"
"3359","","","html-slider-response","433","3947796","0.0-24.0-0.0-0.25","56362","List1B","black","woman","","","","","","","","survey_race","97","","","I am glad to be my race.","glad"
"4858.700000047684","","","html-slider-response","434","3952657","0.0-24.0-0.0-0.26","56362","List1B","black","woman","","","","","","","","survey_race","61","","","I feel solidarity with my race.","solidarity"
"3800.5","","","html-slider-response","435","3956461","0.0-24.0-0.0-0.27","56362","List1B","black","woman","","","","","","","","survey_race","93","","","People of my race are very similar to each other.","verysimilar"
"3739.899999976158","","","html-slider-response","436","3960202","0.0-24.0-1.0-0.0","56362","List1B","black","woman","","","","","","","","survey_gender","83","","","People of my gender have a lot in common with each other.","common"
"4342.299999952316","","","html-slider-response","437","3964546","0.0-24.0-1.0-0.1","56362","List1B","black","woman","","","","","","","","survey_gender","99","","","The fact that I am my gender is an important part of my identity.","identity"
"3000.4000000953674","","","html-slider-response","438","3967548","0.0-24.0-1.0-0.2","56362","List1B","black","woman","","","","","","","","survey_gender","91","","","I feel committed to my gender.","committed"
"3530.100000023842","","","html-slider-response","439","3971080","0.0-24.0-1.0-0.3","56362","List1B","black","woman","","","","","","","","survey_gender","98","","","Being my gender gives me a good feeling.","feeling"
"5916.800000071526","","","html-slider-response","440","3976999","0.0-24.0-1.0-0.4","56362","List1B","black","woman","","","","","","","","survey_gender","56","","","I often think about the fact that I am my gender.","often"
"3112.100000023842","","","html-slider-response","441","3980113","0.0-24.0-1.0-0.5","56362","List1B","black","woman","","","","","","","","survey_gender","83","","","I think that my gender has a lot to be proud of.","proud"
"8477.400000095367","","","html-slider-response","442","3988591","0.0-24.0-1.0-0.6","56362","List1B","black","woman","","","","","","","","survey_gender","67","","","It is not always easy for people to know what I am thinking.","filler"
"3960.5","","","html-slider-response","443","3992554","0.0-24.0-1.0-0.7","56362","List1B","black","woman","","","","","","","","survey_gender","78","","","I often think about my actions.","filler"
"2927.7999999523163","","","html-slider-response","444","3995483","0.0-24.0-1.0-0.8","56362","List1B","black","woman","","","","","","","","survey_gender","87","","","It is pleasant to be my gender.","pleasant"
"6089.300000071526","","","html-slider-response","445","4001574","0.0-24.0-1.0-0.9","56362","List1B","black","woman","","","","","","","","survey_gender","92","","","I consider myself a highly empathetic person.","filler"
"2791.2000000476837","","","html-slider-response","446","4004367","0.0-24.0-1.0-0.10","56362","List1B","black","woman","","","","","","","","survey_gender","73","","","I feel solidarity with my friends.","filler"
"3862.0999999046326","","","html-slider-response","447","4008231","0.0-24.0-1.0-0.11","56362","List1B","black","woman","","","","","","","","survey_gender","89","","","I feel a bond with my gender.","bond"
"3124.2000000476837","","","html-slider-response","448","4011357","0.0-24.0-1.0-0.12","56362","List1B","black","woman","","","","","","","","survey_gender","89","","","I am glad to have the friends that I have.","filler"
"3344","","","html-slider-response","449","4014703","0.0-24.0-1.0-0.13","56362","List1B","black","woman","","","","","","","","survey_gender","94","","","My friends understand me.","filler"
"6828.699999928474","","","html-slider-response","450","4021534","0.0-24.0-1.0-0.14","56362","List1B","black","woman","","","","","","","","survey_gender","34","","","Family is not more important to me than friendship.","filler"
"4648.899999976158","","","html-slider-response","451","4026185","0.0-24.0-1.0-0.15","56362","List1B","black","woman","","","","","","","","survey_gender","46","","","Routine is not important to me.","filler"
"3282.5999999046326","","","html-slider-response","452","4029470","0.0-24.0-1.0-0.16","56362","List1B","black","woman","","","","","","","","survey_gender","83","","","I have a lot in common with the average person of my gender.","average"
"3296.0999999046326","","","html-slider-response","453","4032768","0.0-24.0-1.0-0.17","56362","List1B","black","woman","","","","","","","","survey_gender","94","","","I am glad to be my gender.","glad"
"6088.799999952316","","","html-slider-response","454","4038858","0.0-24.0-1.0-0.18","56362","List1B","black","woman","","","","","","","","survey_gender","0","","","I would say I am an animal person.","filler"
"4317.799999952316","","","html-slider-response","455","4043178","0.0-24.0-1.0-0.19","56362","List1B","black","woman","","","","","","","","survey_gender","94","","","Being my gender is an important part of how I see myself.","important"
"4464.199999928474","","","html-slider-response","456","4047643","0.0-24.0-1.0-0.20","56362","List1B","black","woman","","","","","","","","survey_gender","92","","","Most of the friends in my life are very similar to me.","filler"
"3554.5","","","html-slider-response","457","4051199","0.0-24.0-1.0-0.21","56362","List1B","black","woman","","","","","","","","survey_gender","84","","","I am similar to the average person of my gender.","similar"
"3038.399999976158","","","html-slider-response","458","4054239","0.0-24.0-1.0-0.22","56362","List1B","black","woman","","","","","","","","survey_gender","86","","","My friends have a lot in common with each other.","filler"
"2668.399999976158","","","html-slider-response","459","4056910","0.0-24.0-1.0-0.23","56362","List1B","black","woman","","","","","","","","survey_gender","94","","","I have a lot in common with my friends.","filler"
"2348.399999976158","","","html-slider-response","460","4059260","0.0-24.0-1.0-0.24","56362","List1B","black","woman","","","","","","","","survey_gender","92","","","I feel a bond with my friends.","filler"
"2791.7000000476837","","","html-slider-response","461","4062053","0.0-24.0-1.0-0.25","56362","List1B","black","woman","","","","","","","","survey_gender","81","","","I feel solidarity with my gender.","solidarity"
"3911.899999976158","","","html-slider-response","462","4065966","0.0-24.0-1.0-0.26","56362","List1B","black","woman","","","","","","","","survey_gender","85","","","Being around my friends gives me a good feeling.","filler"
"3173.899999976158","","","html-slider-response","463","4069141","0.0-24.0-1.0-0.27","56362","List1B","black","woman","","","","","","","","survey_gender","89","","","People of my gender are very similar to each other.","verysimilar"
"14381.899999976158","","","survey-text","464","4083527","0.0-25.0","56362","List1B","black","woman","","","","","{""Q0"":""612ca0f5acba9977d85c2a06""}","","","worker_id","","","","",""
"3537.2000000476837","","","external-html","465","4090835","0.0-26.0","56362","List1B","black","woman","debrief.html","","","","","","","","","","","",""
