"rt","stimulus","button_pressed","trial_type","trial_index","time_elapsed","internal_node_id","subject","list","ppt_race","ppt_gender","url","first_guess","correct","key_press","responses","image_type","phrase_type","test_part","response","stimulus1","stimulus2","question_type","survey_item"
"2916.4000000953674","Welcome to the experiment. Press Continue to begin.","0","html-button-response","0","2918","0.0-0.0","56410","List1A","white","man","","","","","","","","","","","","",""
"12243.5","","","external-html","1","16317","0.0-1.0","56410","List1A","white","man","consent.html","","","","","","","","","","","",""
"10111.100000023842","<p>On the next page, you will see portraits of 8 people and their names.</p><p>Your first task is to take a few minutes to memorise the names of these people.</p><p>You will have to recall their names during the rest of the experiment, so it is</p><p>essential that you try to memorise these people and their names as best as you can.</p><br><p><strong>You will then be tested on your memory of these names and portraits.</strong></p><br><p>The experiment will start after you have completed this memory test.</p><br><p>Ready?</p>","0","html-button-response","2","26429","0.0-2.0","56410","List1A","white","man","","","","","","","","","","","","",""
"47709.700000047684","<img src='img/portrait_matrix_list1.jpg' style='width:900px;height:500px;''></img><p>If you have memorised all the portraits and names and are ready to start, press Continue.</p><p><strong>Please note: Your memory of these faces will be tested 4 times during this experiment.</strong></p>","0","html-button-response","3","75141","0.0-3.0-0.0","56410","List1A","white","man","","","","","","","","","","","","",""
"4709.5","<img src=""portrait/BW1.jpg""style=""height:400px;""></img>","1","html-button-response","4","80854","0.0-3.0-1.0","56410","List1A","white","man","","true","0","","","","","","","","","",""
"3533.9000000953674","<img src=""portrait/BW1.jpg""style=""height:400px;""></img>","0","html-button-response","5","85390","0.0-3.0-3.0-0.0","56410","List1A","white","man","","false","0","","","","","","","","","",""
"null","CORRECT","","html-keyboard-response","6","86900","0.0-3.0-3.0-1.0-0.0","56410","List1A","white","man","","","","null","","","","","","","","",""
"3457.100000023842","<img src=""portrait/BM2.jpg""style=""height:400px;""></img>","5","html-button-response","7","90358","0.0-3.0-4.0","56410","List1A","white","man","","true","5","","","","","","","","","",""
"null","CORRECT","","html-keyboard-response","8","91861","0.0-3.0-5.0-0.0","56410","List1A","white","man","","","","null","","","","","","","","",""
"2128.399999976158","<img src=""portrait/WW1.jpg""style=""height:400px;""></img>","3","html-button-response","9","93990","0.0-3.0-7.0","56410","List1A","white","man","","true","1","","","","","","","","","",""
"1454.3000000715256","<img src=""portrait/WW1.jpg""style=""height:400px;""></img>","1","html-button-response","10","96446","0.0-3.0-9.0-0.0","56410","List1A","white","man","","false","1","","","","","","","","","",""
"null","CORRECT","","html-keyboard-response","11","97969","0.0-3.0-9.0-1.0-0.0","56410","List1A","white","man","","","","null","","","","","","","","",""
"2356.100000023842","<img src=""portrait/WM1.jpg""style=""height:400px;""></img>","6","html-button-response","12","100326","0.0-3.0-10.0","56410","List1A","white","man","","true","6","","","","","","","","","",""
"null","CORRECT","","html-keyboard-response","13","101837","0.0-3.0-11.0-0.0","56410","List1A","white","man","","","","null","","","","","","","","",""
"2832.4000000953674","<img src=""portrait/WM2.jpg""style=""height:400px;""></img>","7","html-button-response","14","104670","0.0-3.0-13.0","56410","List1A","white","man","","true","7","","","","","","","","","",""
"null","CORRECT","","html-keyboard-response","15","106201","0.0-3.0-14.0-0.0","56410","List1A","white","man","","","","null","","","","","","","","",""
"2244","<img src=""portrait/BM1.jpg""style=""height:400px;""></img>","4","html-button-response","16","108446","0.0-3.0-16.0","56410","List1A","white","man","","true","4","","","","","","","","","",""
"null","CORRECT","","html-keyboard-response","17","109961","0.0-3.0-17.0-0.0","56410","List1A","white","man","","","","null","","","","","","","","",""
"2515.7000000476837","<img src=""portrait/WW2.jpg""style=""height:400px;""></img>","3","html-button-response","18","112478","0.0-3.0-19.0","56410","List1A","white","man","","true","3","","","","","","","","","",""
"null","CORRECT","","html-keyboard-response","19","114005","0.0-3.0-20.0-0.0","56410","List1A","white","man","","","","null","","","","","","","","",""
"4383.600000023842","<img src=""portrait/BW2.jpg""style=""height:400px;""></img>","2","html-button-response","20","118390","0.0-3.0-22.0","56410","List1A","white","man","","true","2","","","","","","","","","",""
"null","CORRECT","","html-keyboard-response","21","119905","0.0-3.0-23.0-0.0","56410","List1A","white","man","","","","null","","","","","","","","",""
"1683.8999999761581","<p>You got 6 out of 8 right first time. Press Continue.</p>","0","html-button-response","22","121590","0.0-3.0-25.0","56410","List1A","white","man","","","","","","","","","","","","",""
"1767.2000000476837","As you did not score 100%, the memory game will repeat. Press Continue.","0","html-button-response","23","124357","0.0-3.0-26.0-0.0","56410","List1A","white","man","","","","","","","","","","","","",""
"8062.399999976158","<img src='img/portrait_matrix_list1.jpg' style='width:900px;height:500px;''></img><p>If you have memorised all the portraits and names and are ready to start, press Continue.</p><p><strong>Please note: Your memory of these faces will be tested 4 times during this experiment.</strong></p>","0","html-button-response","24","133422","0.0-3.1-0.1","56410","List1A","white","man","","","","","","","","","","","","",""
"943.1000000238419","<img src=""portrait/BW1.jpg""style=""height:400px;""></img>","0","html-button-response","25","135374","0.0-3.1-1.1","56410","List1A","white","man","","true","0","","","","","","","","","",""
"null","CORRECT","","html-keyboard-response","26","136876","0.0-3.1-2.1-0.1","56410","List1A","white","man","","","","null","","","","","","","","",""
"3681.2999999523163","<img src=""portrait/BM2.jpg""style=""height:400px;""></img>","5","html-button-response","27","140558","0.0-3.1-4.1","56410","List1A","white","man","","true","5","","","","","","","","","",""
"null","CORRECT","","html-keyboard-response","28","142071","0.0-3.1-5.1-0.1","56410","List1A","white","man","","","","null","","","","","","","","",""
"6461.600000023842","<img src=""portrait/WW1.jpg""style=""height:400px;""></img>","3","html-button-response","29","148534","0.0-3.1-7.1","56410","List1A","white","man","","true","1","","","","","","","","","",""
"1319.3999999761581","<img src=""portrait/WW1.jpg""style=""height:400px;""></img>","1","html-button-response","30","150870","0.0-3.1-9.1-0.1","56410","List1A","white","man","","false","1","","","","","","","","","",""
"null","CORRECT","","html-keyboard-response","31","152386","0.0-3.1-9.1-1.1-0.1","56410","List1A","white","man","","","","null","","","","","","","","",""
"1898.3999999761581","<img src=""portrait/WM1.jpg""style=""height:400px;""></img>","6","html-button-response","32","154285","0.0-3.1-10.1","56410","List1A","white","man","","true","6","","","","","","","","","",""
"null","CORRECT","","html-keyboard-response","33","155802","0.0-3.1-11.1-0.1","56410","List1A","white","man","","","","null","","","","","","","","",""
"1490.7999999523163","<img src=""portrait/WM2.jpg""style=""height:400px;""></img>","7","html-button-response","34","157294","0.0-3.1-13.1","56410","List1A","white","man","","true","7","","","","","","","","","",""
"null","CORRECT","","html-keyboard-response","35","158796","0.0-3.1-14.1-0.1","56410","List1A","white","man","","","","null","","","","","","","","",""
"1081","<img src=""portrait/BM1.jpg""style=""height:400px;""></img>","4","html-button-response","36","159878","0.0-3.1-16.1","56410","List1A","white","man","","true","4","","","","","","","","","",""
"null","CORRECT","","html-keyboard-response","37","161404","0.0-3.1-17.1-0.1","56410","List1A","white","man","","","","null","","","","","","","","",""
"1672.8999999761581","<img src=""portrait/WW2.jpg""style=""height:400px;""></img>","3","html-button-response","38","163078","0.0-3.1-19.1","56410","List1A","white","man","","true","3","","","","","","","","","",""
"null","CORRECT","","html-keyboard-response","39","164603","0.0-3.1-20.1-0.1","56410","List1A","white","man","","","","null","","","","","","","","",""
"1177.6000000238419","<img src=""portrait/BW2.jpg""style=""height:400px;""></img>","2","html-button-response","40","165781","0.0-3.1-22.1","56410","List1A","white","man","","true","2","","","","","","","","","",""
"null","CORRECT","","html-keyboard-response","41","167302","0.0-3.1-23.1-0.1","56410","List1A","white","man","","","","null","","","","","","","","",""
"886.5","<p>You got 7 out of 8 right first time. Press Continue.</p>","0","html-button-response","42","168190","0.0-3.1-25.1","56410","List1A","white","man","","","","","","","","","","","","",""
"926.6999999284744","As you did not score 100%, the memory game will repeat. Press Continue.","0","html-button-response","43","170117","0.0-3.1-26.1-0.1","56410","List1A","white","man","","","","","","","","","","","","",""
"7574.899999976158","<img src='img/portrait_matrix_list1.jpg' style='width:900px;height:500px;''></img><p>If you have memorised all the portraits and names and are ready to start, press Continue.</p><p><strong>Please note: Your memory of these faces will be tested 4 times during this experiment.</strong></p>","0","html-button-response","44","178693","0.0-3.2-0.2","56410","List1A","white","man","","","","","","","","","","","","",""
"2983.2999999523163","<img src=""portrait/BW1.jpg""style=""height:400px;""></img>","0","html-button-response","45","182678","0.0-3.2-1.2","56410","List1A","white","man","","true","0","","","","","","","","","",""
"null","CORRECT","","html-keyboard-response","46","184183","0.0-3.2-2.2-0.2","56410","List1A","white","man","","","","null","","","","","","","","",""
"1638.3999999761581","<img src=""portrait/BM2.jpg""style=""height:400px;""></img>","5","html-button-response","47","185821","0.0-3.2-4.2","56410","List1A","white","man","","true","5","","","","","","","","","",""
"null","CORRECT","","html-keyboard-response","48","187326","0.0-3.2-5.2-0.2","56410","List1A","white","man","","","","null","","","","","","","","",""
"1126.5","<img src=""portrait/WW1.jpg""style=""height:400px;""></img>","1","html-button-response","49","188453","0.0-3.2-7.2","56410","List1A","white","man","","true","1","","","","","","","","","",""
"null","CORRECT","","html-keyboard-response","50","189969","0.0-3.2-8.2-0.2","56410","List1A","white","man","","","","null","","","","","","","","",""
"1548.2999999523163","<img src=""portrait/WM1.jpg""style=""height:400px;""></img>","6","html-button-response","51","191518","0.0-3.2-10.2","56410","List1A","white","man","","true","6","","","","","","","","","",""
"null","CORRECT","","html-keyboard-response","52","193029","0.0-3.2-11.2-0.2","56410","List1A","white","man","","","","null","","","","","","","","",""
"1201.8999999761581","<img src=""portrait/WM2.jpg""style=""height:400px;""></img>","7","html-button-response","53","194231","0.0-3.2-13.2","56410","List1A","white","man","","true","7","","","","","","","","","",""
"null","CORRECT","","html-keyboard-response","54","195733","0.0-3.2-14.2-0.2","56410","List1A","white","man","","","","null","","","","","","","","",""
"1183.2000000476837","<img src=""portrait/BM1.jpg""style=""height:400px;""></img>","4","html-button-response","55","196917","0.0-3.2-16.2","56410","List1A","white","man","","true","4","","","","","","","","","",""
"null","CORRECT","","html-keyboard-response","56","198447","0.0-3.2-17.2-0.2","56410","List1A","white","man","","","","null","","","","","","","","",""
"1101","<img src=""portrait/WW2.jpg""style=""height:400px;""></img>","3","html-button-response","57","199549","0.0-3.2-19.2","56410","List1A","white","man","","true","3","","","","","","","","","",""
"null","CORRECT","","html-keyboard-response","58","201064","0.0-3.2-20.2-0.2","56410","List1A","white","man","","","","null","","","","","","","","",""
"1124.1000000238419","<img src=""portrait/BW2.jpg""style=""height:400px;""></img>","2","html-button-response","59","202189","0.0-3.2-22.2","56410","List1A","white","man","","true","2","","","","","","","","","",""
"null","CORRECT","","html-keyboard-response","60","203713","0.0-3.2-23.2-0.2","56410","List1A","white","man","","","","null","","","","","","","","",""
"667.7999999523163","<p>You got 8 out of 8 right first time. Press Continue.</p>","0","html-button-response","61","204381","0.0-3.2-25.2","56410","List1A","white","man","","","","","","","","","","","","",""
"19253.200000047684","<p>In this experiment, you will view photographs of the people from the memory game interacting.</p><p>By using the <strong>exact</strong> phrase given <i>after</i> the photograph appears and recalling the correct names of the people in the photographs, form a sentence describing the interaction. You do not need to capitalise names.</p><p>Type your answer in the space provided. Please complete every sentence before moving onto the next trial.</p><p>You will only have a few seconds to memorise each given photograph and phrase before you can respond, so try your best to focus.</p><p>An example is given below. Press 'Continue' when you are ready.</p><img src='img/speaking_example.jpg' style='width:800px;height:460px;''></img>","0","html-button-response","62","224645","0.0-4.0","56410","List1A","white","man","","","","","","","","","","","","",""
"1930.5999999046326","<p>Before the experiment starts, you will watch two example trials. Press 'Continue'.</p>","0","html-button-response","63","227581","0.0-5.0","56410","List1A","white","man","","","","","","","","","","","","",""
"null","<img src='img/play_eg.gif' style='height:400px;''></img>","","html-keyboard-response","64","230584","0.0-6.0","56410","List1A","white","man","","","","null","","","","","","","","",""
"null","<p>is playing with</p>","","html-keyboard-response","65","232599","0.0-7.0","56410","List1A","white","man","","","","null","","","","","","","","",""
"3485.100000023842","<p><b>Answer:</b> kate is playing with beth</p>","0","html-button-response","66","236085","0.0-8.0","56410","List1A","white","man","","","","","","","","","","","","",""
"null","<img src='img/dance_eg.gif' style='height:400px;''></img>","","html-keyboard-response","67","239097","0.0-9.0","56410","List1A","white","man","","","","null","","","","","","","","",""
"null","<p>is being entertained by</p>","","html-keyboard-response","68","241099","0.0-10.0","56410","List1A","white","man","","","","null","","","","","","","","",""
"3609.2999999523163","<p><b>Answer:</b> luke is being entertained by dave</p>","0","html-button-response","69","244709","0.0-11.0","56410","List1A","white","man","","","","","","","","","","","","",""
"7237.5","<p>Ready to start the experiment?</p><br><p><strong>Remember to describe the picture using a full sentence,</strong></p><p><strong>that combines the names of the people with the <i>exact</i> phrase given.</strong></p><p><strong>To receive full payment you must do this correctly.</strong></p><p><strong> You do not need to capitalise names or use punctuation.</strong></p><br><p>Press 'Continue' to begin.</p>","0","html-button-response","70","252951","0.0-12.0","56410","List1A","white","man","","","","","","","","","","","","",""
"null","<div style=""font-size:60px;"">+</div>","","html-keyboard-response","71","254454","0.0-13.0-0.0","56410","List1A","white","man","","","","null","","","","","","","","",""
"null","<img src=""stim_listA/oppose3.gif""style=""height:400px;""></stim_listA>","","html-keyboard-response","72","256459","0.0-13.0-1.0","56410","List1A","white","man","","","","null","","","","","","","","",""
"null","is opposing","","html-keyboard-response","73","258460","0.0-13.0-2.0","56410","List1A","white","man","","","","null","","","","","","","","",""
"10559.600000023842","","","survey-text","74","269021","0.0-13.0-3.0","56410","List1A","white","man","","","","","{""Q0"":""Dave is opposing Jane""}","<img src=""stim_listA/oppose3.gif""style=""height:400px;""></stim_listA>","is opposing","","","","","",""
"null","<div style=""font-size:60px;"">+</div>","","html-keyboard-response","75","269527","0.0-13.0-0.1","56410","List1A","white","man","","","","null","","","","","","","","",""
"null","<img src=""stim_listA/seduce7.gif""style=""height:400px;""></stim_listA>","","html-keyboard-response","76","271528","0.0-13.0-1.1","56410","List1A","white","man","","","","null","","","","","","","","",""
"null","is seducing","","html-keyboard-response","77","273532","0.0-13.0-2.1","56410","List1A","white","man","","","","null","","","","","","","","",""
"8121.400000095367","","","survey-text","78","281654","0.0-13.0-3.1","56410","List1A","white","man","","","","","{""Q0"":""Ruth is seducing Jane""}","<img src=""stim_listA/seduce7.gif""style=""height:400px;""></stim_listA>","is seducing","","","","","",""
"null","<div style=""font-size:60px;"">+</div>","","html-keyboard-response","79","282160","0.0-13.0-0.2","56410","List1A","white","man","","","","null","","","","","","","","",""
"null","<img src=""stim_listA/challenge6.gif""style=""height:400px;""></stim_listA>","","html-keyboard-response","80","284163","0.0-13.0-1.2","56410","List1A","white","man","","","","null","","","","","","","","",""
"null","is being challenged by","","html-keyboard-response","81","286165","0.0-13.0-2.2","56410","List1A","white","man","","","","null","","","","","","","","",""
"9615.399999976158","","","survey-text","82","295781","0.0-13.0-3.2","56410","List1A","white","man","","","","","{""Q0"":""Fred is being challenged by Dave""}","<img src=""stim_listA/challenge6.gif""style=""height:400px;""></stim_listA>","is being challenged by","","","","","",""
"null","<div style=""font-size:60px;"">+</div>","","html-keyboard-response","83","296285","0.0-13.0-0.3","56410","List1A","white","man","","","","null","","","","","","","","",""
"null","<img src=""stim_listA/kiss6.gif""style=""height:400px;""></stim_listA>","","html-keyboard-response","84","298292","0.0-13.0-1.3","56410","List1A","white","man","","","","null","","","","","","","","",""
"null","is being kissed by","","html-keyboard-response","85","300294","0.0-13.0-2.3","56410","List1A","white","man","","","","null","","","","","","","","",""
"6989.399999976158","","","survey-text","86","307286","0.0-13.0-3.3","56410","List1A","white","man","","","","","{""Q0"":""Dave is kissed by Mike""}","<img src=""stim_listA/kiss6.gif""style=""height:400px;""></stim_listA>","is being kissed by","","","","","",""
"null","<div style=""font-size:60px;"">+</div>","","html-keyboard-response","87","307787","0.0-13.0-0.4","56410","List1A","white","man","","","","null","","","","","","","","",""
"null","<img src=""stim_listA/seduce3.gif""style=""height:400px;""></stim_listA>","","html-keyboard-response","88","309802","0.0-13.0-1.4","56410","List1A","white","man","","","","null","","","","","","","","",""
"null","is seducing","","html-keyboard-response","89","311804","0.0-13.0-2.4","56410","List1A","white","man","","","","null","","","","","","","","",""
"5202.299999952316","","","survey-text","90","317007","0.0-13.0-3.4","56410","List1A","white","man","","","","","{""Q0"":""Luke is seducing Jane""}","<img src=""stim_listA/seduce3.gif""style=""height:400px;""></stim_listA>","is seducing","","","","","",""
"null","<div style=""font-size:60px;"">+</div>","","html-keyboard-response","91","317516","0.0-13.0-0.5","56410","List1A","white","man","","","","null","","","","","","","","",""
"null","<img src=""stim_listA/touch3.gif""style=""height:400px;""></stim_listA>","","html-keyboard-response","92","319519","0.0-13.0-1.5","56410","List1A","white","man","","","","null","","","","","","","","",""
"null","is touching","","html-keyboard-response","93","321520","0.0-13.0-2.5","56410","List1A","white","man","","","","null","","","","","","","","",""
"4755.800000071526","","","survey-text","94","326276","0.0-13.0-3.5","56410","List1A","white","man","","","","","{""Q0"":""Jane is touching Dave""}","<img src=""stim_listA/touch3.gif""style=""height:400px;""></stim_listA>","is touching","","","","","",""
"null","<div style=""font-size:60px;"">+</div>","","html-keyboard-response","95","326788","0.0-13.0-0.6","56410","List1A","white","man","","","","null","","","","","","","","",""
"null","<img src=""stim_listA/copy7.gif""style=""height:400px;""></stim_listA>","","html-keyboard-response","96","328791","0.0-13.0-1.6","56410","List1A","white","man","","","","null","","","","","","","","",""
"null","is copying","","html-keyboard-response","97","330792","0.0-13.0-2.6","56410","List1A","white","man","","","","null","","","","","","","","",""
"5610.100000023842","","","survey-text","98","336404","0.0-13.0-3.6","56410","List1A","white","man","","","","","{""Q0"":""Kate is copying Beth""}","<img src=""stim_listA/copy7.gif""style=""height:400px;""></stim_listA>","is copying","","","","","",""
"null","<div style=""font-size:60px;"">+</div>","","html-keyboard-response","99","336905","0.0-13.0-0.7","56410","List1A","white","man","","","","null","","","","","","","","",""
"null","<img src=""stim_listA/hug2.gif""style=""height:400px;""></stim_listA>","","html-keyboard-response","100","338912","0.0-13.0-1.7","56410","List1A","white","man","","","","null","","","","","","","","",""
"null","is being hugged by","","html-keyboard-response","101","340914","0.0-13.0-2.7","56410","List1A","white","man","","","","null","","","","","","","","",""
"5559.399999976158","","","survey-text","102","346476","0.0-13.0-3.7","56410","List1A","white","man","","","","","{""Q0"":""Kate is being hugged by Mike""}","<img src=""stim_listA/hug2.gif""style=""height:400px;""></stim_listA>","is being hugged by","","","","","",""
"null","<div style=""font-size:60px;"">+</div>","","html-keyboard-response","103","346977","0.0-13.0-0.8","56410","List1A","white","man","","","","null","","","","","","","","",""
"null","<img src=""stim_listA/greet4.gif""style=""height:400px;""></stim_listA>","","html-keyboard-response","104","348980","0.0-13.0-1.8","56410","List1A","white","man","","","","null","","","","","","","","",""
"null","is being greeted by","","html-keyboard-response","105","350982","0.0-13.0-2.8","56410","List1A","white","man","","","","null","","","","","","","","",""
"6861.699999928474","","","survey-text","106","357845","0.0-13.0-3.8","56410","List1A","white","man","","","","","{""Q0"":""Jane is greeted by Luke""}","<img src=""stim_listA/greet4.gif""style=""height:400px;""></stim_listA>","is being greeted by","","","","","",""
"null","<div style=""font-size:60px;"">+</div>","","html-keyboard-response","107","358352","0.0-13.0-0.9","56410","List1A","white","man","","","","null","","","","","","","","",""
"null","<img src=""stim_listA/copy4.gif""style=""height:400px;""></stim_listA>","","html-keyboard-response","108","360358","0.0-13.0-1.9","56410","List1A","white","man","","","","null","","","","","","","","",""
"null","is being copied by","","html-keyboard-response","109","362372","0.0-13.0-2.9","56410","List1A","white","man","","","","null","","","","","","","","",""
"5423.800000071526","","","survey-text","110","367797","0.0-13.0-3.9","56410","List1A","white","man","","","","","{""Q0"":""Luke is being copied by Jane""}","<img src=""stim_listA/copy4.gif""style=""height:400px;""></stim_listA>","is being copied by","","","","","",""
"null","<div style=""font-size:60px;"">+</div>","","html-keyboard-response","111","368307","0.0-13.0-0.10","56410","List1A","white","man","","","","null","","","","","","","","",""
"null","<img src=""stim_listA/challenge5.gif""style=""height:400px;""></stim_listA>","","html-keyboard-response","112","370309","0.0-13.0-1.10","56410","List1A","white","man","","","","null","","","","","","","","",""
"null","is challenging","","html-keyboard-response","113","372315","0.0-13.0-2.10","56410","List1A","white","man","","","","null","","","","","","","","",""
"4762","","","survey-text","114","377078","0.0-13.0-3.10","56410","List1A","white","man","","","","","{""Q0"":""Luke is challenging Mike""}","<img src=""stim_listA/challenge5.gif""style=""height:400px;""></stim_listA>","is challenging","","","","","",""
"null","<div style=""font-size:60px;"">+</div>","","html-keyboard-response","115","377586","0.0-13.0-0.11","56410","List1A","white","man","","","","null","","","","","","","","",""
"null","<img src=""stim_listA/shout6.gif""style=""height:400px;""></stim_listA>","","html-keyboard-response","116","379596","0.0-13.0-1.11","56410","List1A","white","man","","","","null","","","","","","","","",""
"null","is being shouted at by","","html-keyboard-response","117","381598","0.0-13.0-2.11","56410","List1A","white","man","","","","null","","","","","","","","",""
"9533.899999976158","","","survey-text","118","391133","0.0-13.0-3.11","56410","List1A","white","man","","","","","{""Q0"":""Mike is being shouted at by Dave""}","<img src=""stim_listA/shout6.gif""style=""height:400px;""></stim_listA>","is being shouted at by","","","","","",""
"null","<div style=""font-size:60px;"">+</div>","","html-keyboard-response","119","391634","0.0-13.0-0.12","56410","List1A","white","man","","","","null","","","","","","","","",""
"null","<img src=""stim_listA/seduce6.gif""style=""height:400px;""></stim_listA>","","html-keyboard-response","120","393645","0.0-13.0-1.12","56410","List1A","white","man","","","","null","","","","","","","","",""
"null","is being seduced by","","html-keyboard-response","121","395657","0.0-13.0-2.12","56410","List1A","white","man","","","","null","","","","","","","","",""
"6250.699999928474","","","survey-text","122","401909","0.0-13.0-3.12","56410","List1A","white","man","","","","","{""Q0"":""Mike is being seduced by Luke""}","<img src=""stim_listA/seduce6.gif""style=""height:400px;""></stim_listA>","is being seduced by","","","","","",""
"null","<div style=""font-size:60px;"">+</div>","","html-keyboard-response","123","402411","0.0-13.0-0.13","56410","List1A","white","man","","","","null","","","","","","","","",""
"null","<img src=""stim_listA/copy2.gif""style=""height:400px;""></stim_listA>","","html-keyboard-response","124","404422","0.0-13.0-1.13","56410","List1A","white","man","","","","null","","","","","","","","",""
"null","is being copied by","","html-keyboard-response","125","406424","0.0-13.0-2.13","56410","List1A","white","man","","","","null","","","","","","","","",""
"5715.5","","","survey-text","126","412141","0.0-13.0-3.13","56410","List1A","white","man","","","","","{""Q0"":""Fred is being copied by Kate""}","<img src=""stim_listA/copy2.gif""style=""height:400px;""></stim_listA>","is being copied by","","","","","",""
"null","<div style=""font-size:60px;"">+</div>","","html-keyboard-response","127","412642","0.0-13.0-0.14","56410","List1A","white","man","","","","null","","","","","","","","",""
"null","<img src=""stim_listA/hug8.gif""style=""height:400px;""></stim_listA>","","html-keyboard-response","128","414654","0.0-13.0-1.14","56410","List1A","white","man","","","","null","","","","","","","","",""
"null","is being hugged by","","html-keyboard-response","129","416655","0.0-13.0-2.14","56410","List1A","white","man","","","","null","","","","","","","","",""
"6364.5","","","survey-text","130","423021","0.0-13.0-3.14","56410","List1A","white","man","","","","","{""Q0"":""Kate is being hugged by Jane""}","<img src=""stim_listA/hug8.gif""style=""height:400px;""></stim_listA>","is being hugged by","","","","","",""
"null","<div style=""font-size:60px;"">+</div>","","html-keyboard-response","131","423522","0.0-13.0-0.15","56410","List1A","white","man","","","","null","","","","","","","","",""
"null","<img src=""stim_listA/kiss4.gif""style=""height:400px;""></stim_listA>","","html-keyboard-response","132","425524","0.0-13.0-1.15","56410","List1A","white","man","","","","null","","","","","","","","",""
"null","is being kissed by","","html-keyboard-response","133","427525","0.0-13.0-2.15","56410","List1A","white","man","","","","null","","","","","","","","",""
"6182.600000023842","","","survey-text","134","433709","0.0-13.0-3.15","56410","List1A","white","man","","","","","{""Q0"":""Jane is being kissed by Dave""}","<img src=""stim_listA/kiss4.gif""style=""height:400px;""></stim_listA>","is being kissed by","","","","","",""
"null","<div style=""font-size:60px;"">+</div>","","html-keyboard-response","135","434210","0.0-13.0-0.16","56410","List1A","white","man","","","","null","","","","","","","","",""
"null","<img src=""stim_listA/challenge2.gif""style=""height:400px;""></stim_listA>","","html-keyboard-response","136","436212","0.0-13.0-1.16","56410","List1A","white","man","","","","null","","","","","","","","",""
"null","is being challenged by","","html-keyboard-response","137","438213","0.0-13.0-2.16","56410","List1A","white","man","","","","null","","","","","","","","",""
"7533.200000047684","","","survey-text","138","445749","0.0-13.0-3.16","56410","List1A","white","man","","","","","{""Q0"":""Kate is being challenged by Fred""}","<img src=""stim_listA/challenge2.gif""style=""height:400px;""></stim_listA>","is being challenged by","","","","","",""
"null","<div style=""font-size:60px;"">+</div>","","html-keyboard-response","139","446250","0.0-13.0-0.17","56410","List1A","white","man","","","","null","","","","","","","","",""
"null","<img src=""stim_listA/greet3.gif""style=""height:400px;""></stim_listA>","","html-keyboard-response","140","448257","0.0-13.0-1.17","56410","List1A","white","man","","","","null","","","","","","","","",""
"null","is greeting","","html-keyboard-response","141","450258","0.0-13.0-2.17","56410","List1A","white","man","","","","null","","","","","","","","",""
"7891","","","survey-text","142","458150","0.0-13.0-3.17","56410","List1A","white","man","","","","","{""Q0"":""Dave is greeting Beth""}","<img src=""stim_listA/greet3.gif""style=""height:400px;""></stim_listA>","is greeting","","","","","",""
"null","<div style=""font-size:60px;"">+</div>","","html-keyboard-response","143","458663","0.0-13.0-0.18","56410","List1A","white","man","","","","null","","","","","","","","",""
"null","<img src=""stim_listA/look6.gif""style=""height:400px;""></stim_listA>","","html-keyboard-response","144","460672","0.0-13.0-1.18","56410","List1A","white","man","","","","null","","","","","","","","",""
"null","is being looked at by","","html-keyboard-response","145","462676","0.0-13.0-2.18","56410","List1A","white","man","","","","null","","","","","","","","",""
"7617","","","survey-text","146","470294","0.0-13.0-3.18","56410","List1A","white","man","","","","","{""Q0"":""Mike is being looked at by Dave""}","<img src=""stim_listA/look6.gif""style=""height:400px;""></stim_listA>","is being looked at by","","","","","",""
"null","<div style=""font-size:60px;"">+</div>","","html-keyboard-response","147","470805","0.0-13.0-0.19","56410","List1A","white","man","","","","null","","","","","","","","",""
"null","<img src=""stim_listA/look3.gif""style=""height:400px;""></stim_listA>","","html-keyboard-response","148","472810","0.0-13.0-1.19","56410","List1A","white","man","","","","null","","","","","","","","",""
"null","is looking at","","html-keyboard-response","149","474825","0.0-13.0-2.19","56410","List1A","white","man","","","","null","","","","","","","","",""
"5514.200000047684","","","survey-text","150","480340","0.0-13.0-3.19","56410","List1A","white","man","","","","","{""Q0"":""Luke is looking at Beth""}","<img src=""stim_listA/look3.gif""style=""height:400px;""></stim_listA>","is looking at","","","","","",""
"10038.900000095367","<img src='img/portrait_matrix_list1.jpg' style='width:900px;height:500px;''></img><p>If you have memorised all the portraits and names and are ready to start, press Continue.</p><p><strong>Please note: Your memory of these faces will be tested 4 times during this experiment.</strong></p>","0","html-button-response","151","490380","0.0-14.0-0.0","56410","List1A","white","man","","","","","","","","","","","","",""
"1677.8999999761581","<img src=""portrait/BM1.jpg""style=""height:400px;""></img>","4","html-button-response","152","493060","0.0-14.0-1.0","56410","List1A","white","man","","true","4","","","","","","","","","",""
"null","CORRECT","","html-keyboard-response","153","494580","0.0-14.0-2.0-0.0","56410","List1A","white","man","","","","null","","","","","","","","",""
"1478.9000000953674","<img src=""portrait/WM2.jpg""style=""height:400px;""></img>","7","html-button-response","154","496061","0.0-14.0-4.0","56410","List1A","white","man","","true","7","","","","","","","","","",""
"null","CORRECT","","html-keyboard-response","155","497576","0.0-14.0-5.0-0.0","56410","List1A","white","man","","","","null","","","","","","","","",""
"3507.3000000715256","<img src=""portrait/WW1.jpg""style=""height:400px;""></img>","1","html-button-response","156","501085","0.0-14.0-7.0","56410","List1A","white","man","","true","1","","","","","","","","","",""
"null","CORRECT","","html-keyboard-response","157","502587","0.0-14.0-8.0-0.0","56410","List1A","white","man","","","","null","","","","","","","","",""
"1144.3999999761581","<img src=""portrait/BW1.jpg""style=""height:400px;""></img>","0","html-button-response","158","503733","0.0-14.0-10.0","56410","List1A","white","man","","true","0","","","","","","","","","",""
"null","CORRECT","","html-keyboard-response","159","505236","0.0-14.0-11.0-0.0","56410","List1A","white","man","","","","null","","","","","","","","",""
"2071.7000000476837","<img src=""portrait/BM2.jpg""style=""height:400px;""></img>","5","html-button-response","160","507309","0.0-14.0-13.0","56410","List1A","white","man","","true","5","","","","","","","","","",""
"null","CORRECT","","html-keyboard-response","161","508810","0.0-14.0-14.0-0.0","56410","List1A","white","man","","","","null","","","","","","","","",""
"1752.8999999761581","<img src=""portrait/WM1.jpg""style=""height:400px;""></img>","6","html-button-response","162","510565","0.0-14.0-16.0","56410","List1A","white","man","","true","6","","","","","","","","","",""
"null","CORRECT","","html-keyboard-response","163","512066","0.0-14.0-17.0-0.0","56410","List1A","white","man","","","","null","","","","","","","","",""
"1099.7000000476837","<img src=""portrait/WW2.jpg""style=""height:400px;""></img>","3","html-button-response","164","513167","0.0-14.0-19.0","56410","List1A","white","man","","true","3","","","","","","","","","",""
"null","CORRECT","","html-keyboard-response","165","514675","0.0-14.0-20.0-0.0","56410","List1A","white","man","","","","null","","","","","","","","",""
"1081.1000000238419","<img src=""portrait/BW2.jpg""style=""height:400px;""></img>","2","html-button-response","166","515757","0.0-14.0-22.0","56410","List1A","white","man","","true","2","","","","","","","","","",""
"null","CORRECT","","html-keyboard-response","167","517272","0.0-14.0-23.0-0.0","56410","List1A","white","man","","","","null","","","","","","","","",""
"882.7000000476837","<p>You got 8 out of 8 right first time. Press Continue.</p>","0","html-button-response","168","518157","0.0-14.0-25.0","56410","List1A","white","man","","","","","","","","","","","","",""
"null","<div style=""font-size:60px;"">+</div>","","html-keyboard-response","169","519658","0.0-15.0-0.0","56410","List1A","white","man","","","","null","","","","","","","","",""
"null","<img src=""stim_listA/greet6.gif""style=""height:400px;""></stim_listA>","","html-keyboard-response","170","521673","0.0-15.0-1.0","56410","List1A","white","man","","","","null","","","","","","","","",""
"null","is being greeted by","","html-keyboard-response","171","523680","0.0-15.0-2.0","56410","List1A","white","man","","","","null","","","","","","","","",""
"6233.799999952316","","","survey-text","172","529917","0.0-15.0-3.0","56410","List1A","white","man","","","","","{""Q0"":""Fred is being greeted by Mike""}","<img src=""stim_listA/greet6.gif""style=""height:400px;""></stim_listA>","is being greeted by","","","","","",""
"null","<div style=""font-size:60px;"">+</div>","","html-keyboard-response","173","530417","0.0-15.0-0.1","56410","List1A","white","man","","","","null","","","","","","","","",""
"null","<img src=""stim_listA/oppose5.gif""style=""height:400px;""></stim_listA>","","html-keyboard-response","174","532418","0.0-15.0-1.1","56410","List1A","white","man","","","","null","","","","","","","","",""
"null","is opposing","","html-keyboard-response","175","534424","0.0-15.0-2.1","56410","List1A","white","man","","","","null","","","","","","","","",""
"6403.399999976158","","","survey-text","176","540829","0.0-15.0-3.1","56410","List1A","white","man","","","","","{""Q0"":""Mike is opposing Dave""}","<img src=""stim_listA/oppose5.gif""style=""height:400px;""></stim_listA>","is opposing","","","","","",""
"null","<div style=""font-size:60px;"">+</div>","","html-keyboard-response","177","541336","0.0-15.0-0.2","56410","List1A","white","man","","","","null","","","","","","","","",""
"null","<img src=""stim_listA/kiss2.gif""style=""height:400px;""></stim_listA>","","html-keyboard-response","178","543342","0.0-15.0-1.2","56410","List1A","white","man","","","","null","","","","","","","","",""
"null","is being kissed by","","html-keyboard-response","179","545343","0.0-15.0-2.2","56410","List1A","white","man","","","","null","","","","","","","","",""
"5110.5","","","survey-text","180","550455","0.0-15.0-3.2","56410","List1A","white","man","","","","","{""Q0"":""Kate is being kissed by Mike""}","<img src=""stim_listA/kiss2.gif""style=""height:400px;""></stim_listA>","is being kissed by","","","","","",""
"null","<div style=""font-size:60px;"">+</div>","","html-keyboard-response","181","550956","0.0-15.0-0.3","56410","List1A","white","man","","","","null","","","","","","","","",""
"null","<img src=""stim_listA/shout3.gif""style=""height:400px;""></stim_listA>","","html-keyboard-response","182","552957","0.0-15.0-1.3","56410","List1A","white","man","","","","null","","","","","","","","",""
"null","is shouting at","","html-keyboard-response","183","554970","0.0-15.0-2.3","56410","List1A","white","man","","","","null","","","","","","","","",""
"5570.100000023842","","","survey-text","184","560540","0.0-15.0-3.3","56410","List1A","white","man","","","","","{""Q0"":""Ruth is shouting at Luke""}","<img src=""stim_listA/shout3.gif""style=""height:400px;""></stim_listA>","is shouting at","","","","","",""
"null","<div style=""font-size:60px;"">+</div>","","html-keyboard-response","185","561052","0.0-15.0-0.4","56410","List1A","white","man","","","","null","","","","","","","","",""
"null","<img src=""stim_listA/kiss1.gif""style=""height:400px;""></stim_listA>","","html-keyboard-response","186","563053","0.0-15.0-1.4","56410","List1A","white","man","","","","null","","","","","","","","",""
"null","is kissing","","html-keyboard-response","187","565068","0.0-15.0-2.4","56410","List1A","white","man","","","","null","","","","","","","","",""
"4886.600000023842","","","survey-text","188","569956","0.0-15.0-3.4","56410","List1A","white","man","","","","","{""Q0"":""Fred is kissing Beth""}","<img src=""stim_listA/kiss1.gif""style=""height:400px;""></stim_listA>","is kissing","","","","","",""
"null","<div style=""font-size:60px;"">+</div>","","html-keyboard-response","189","570457","0.0-15.0-0.5","56410","List1A","white","man","","","","null","","","","","","","","",""
"null","<img src=""stim_listA/shout2.gif""style=""height:400px;""></stim_listA>","","html-keyboard-response","190","572458","0.0-15.0-1.5","56410","List1A","white","man","","","","null","","","","","","","","",""
"null","is being shouted at by","","html-keyboard-response","191","574458","0.0-15.0-2.5","56410","List1A","white","man","","","","null","","","","","","","","",""
"6672.299999952316","","","survey-text","192","581132","0.0-15.0-3.5","56410","List1A","white","man","","","","","{""Q0"":""Kate is being shouted at by Mike""}","<img src=""stim_listA/shout2.gif""style=""height:400px;""></stim_listA>","is being shouted at by","","","","","",""
"null","<div style=""font-size:60px;"">+</div>","","html-keyboard-response","193","581647","0.0-15.0-0.6","56410","List1A","white","man","","","","null","","","","","","","","",""
"null","<img src=""stim_listA/kiss5.gif""style=""height:400px;""></stim_listA>","","html-keyboard-response","194","583652","0.0-15.0-1.6","56410","List1A","white","man","","","","null","","","","","","","","",""
"null","is kissing","","html-keyboard-response","195","585654","0.0-15.0-2.6","56410","List1A","white","man","","","","null","","","","","","","","",""
"4222.799999952316","","","survey-text","196","589878","0.0-15.0-3.6","56410","List1A","white","man","","","","","{""Q0"":""Fred is kissing Luke""}","<img src=""stim_listA/kiss5.gif""style=""height:400px;""></stim_listA>","is kissing","","","","","",""
"null","<div style=""font-size:60px;"">+</div>","","html-keyboard-response","197","590393","0.0-15.0-0.7","56410","List1A","white","man","","","","null","","","","","","","","",""
"null","<img src=""stim_listA/greet1.gif""style=""height:400px;""></stim_listA>","","html-keyboard-response","198","592401","0.0-15.0-1.7","56410","List1A","white","man","","","","null","","","","","","","","",""
"null","is greeting","","html-keyboard-response","199","594403","0.0-15.0-2.7","56410","List1A","white","man","","","","null","","","","","","","","",""
"4599.299999952316","","","survey-text","200","599004","0.0-15.0-3.7","56410","List1A","white","man","","","","","{""Q0"":""Beth is greeting Mike""}","<img src=""stim_listA/greet1.gif""style=""height:400px;""></stim_listA>","is greeting","","","","","",""
"null","<div style=""font-size:60px;"">+</div>","","html-keyboard-response","201","599510","0.0-15.0-0.8","56410","List1A","white","man","","","","null","","","","","","","","",""
"null","<img src=""stim_listA/shout5.gif""style=""height:400px;""></stim_listA>","","html-keyboard-response","202","601514","0.0-15.0-1.8","56410","List1A","white","man","","","","null","","","","","","","","",""
"null","is shouting at","","html-keyboard-response","203","603523","0.0-15.0-2.8","56410","List1A","white","man","","","","null","","","","","","","","",""
"7254.899999976158","","","survey-text","204","610780","0.0-15.0-3.8","56410","List1A","white","man","","","","","{""Q0"":""Fred is shouting at Luke""}","<img src=""stim_listA/shout5.gif""style=""height:400px;""></stim_listA>","is shouting at","","","","","",""
"null","<div style=""font-size:60px;"">+</div>","","html-keyboard-response","205","611282","0.0-15.0-0.9","56410","List1A","white","man","","","","null","","","","","","","","",""
"null","<img src=""stim_listA/look1.gif""style=""height:400px;""></stim_listA>","","html-keyboard-response","206","613296","0.0-15.0-1.9","56410","List1A","white","man","","","","null","","","","","","","","",""
"null","is looking at","","html-keyboard-response","207","615308","0.0-15.0-2.9","56410","List1A","white","man","","","","null","","","","","","","","",""
"5119.700000047684","","","survey-text","208","620430","0.0-15.0-3.9","56410","List1A","white","man","","","","","{""Q0"":""Fred is looking at Beth""}","<img src=""stim_listA/look1.gif""style=""height:400px;""></stim_listA>","is looking at","","","","","",""
"null","<div style=""font-size:60px;"">+</div>","","html-keyboard-response","209","620931","0.0-15.0-0.10","56410","List1A","white","man","","","","null","","","","","","","","",""
"null","<img src=""stim_listA/greet2.gif""style=""height:400px;""></stim_listA>","","html-keyboard-response","210","622933","0.0-15.0-1.10","56410","List1A","white","man","","","","null","","","","","","","","",""
"null","is being greeted by","","html-keyboard-response","211","624939","0.0-15.0-2.10","56410","List1A","white","man","","","","null","","","","","","","","",""
"6103.100000023842","","","survey-text","212","631044","0.0-15.0-3.10","56410","List1A","white","man","","","","","{""Q0"":""Kate is being greeted by Fred""}","<img src=""stim_listA/greet2.gif""style=""height:400px;""></stim_listA>","is being greeted by","","","","","",""
"null","<div style=""font-size:60px;"">+</div>","","html-keyboard-response","213","631557","0.0-15.0-0.11","56410","List1A","white","man","","","","null","","","","","","","","",""
"null","<img src=""stim_listA/kiss8.gif""style=""height:400px;""></stim_listA>","","html-keyboard-response","214","633573","0.0-15.0-1.11","56410","List1A","white","man","","","","null","","","","","","","","",""
"null","is being kissed by","","html-keyboard-response","215","635577","0.0-15.0-2.11","56410","List1A","white","man","","","","null","","","","","","","","",""
"6735.5","","","survey-text","216","642316","0.0-15.0-3.11","56410","List1A","white","man","","","","","{""Q0"":""Jane is being kissed by Kate""}","<img src=""stim_listA/kiss8.gif""style=""height:400px;""></stim_listA>","is being kissed by","","","","","",""
"null","<div style=""font-size:60px;"">+</div>","","html-keyboard-response","217","642822","0.0-15.0-0.12","56410","List1A","white","man","","","","null","","","","","","","","",""
"null","<img src=""stim_listA/hug1.gif""style=""height:400px;""></stim_listA>","","html-keyboard-response","218","644826","0.0-15.0-1.12","56410","List1A","white","man","","","","null","","","","","","","","",""
"null","is hugging","","html-keyboard-response","219","646829","0.0-15.0-2.12","56410","List1A","white","man","","","","null","","","","","","","","",""
"4509.900000095367","","","survey-text","220","651340","0.0-15.0-3.12","56410","List1A","white","man","","","","","{""Q0"":""Beth is hugging Fred""}","<img src=""stim_listA/hug1.gif""style=""height:400px;""></stim_listA>","is hugging","","","","","",""
"null","<div style=""font-size:60px;"">+</div>","","html-keyboard-response","221","651856","0.0-15.0-0.13","56410","List1A","white","man","","","","null","","","","","","","","",""
"null","<img src=""stim_listA/touch5.gif""style=""height:400px;""></stim_listA>","","html-keyboard-response","222","653857","0.0-15.0-1.13","56410","List1A","white","man","","","","null","","","","","","","","",""
"null","is touching","","html-keyboard-response","223","655868","0.0-15.0-2.13","56410","List1A","white","man","","","","null","","","","","","","","",""
"4374.300000071526","","","survey-text","224","660244","0.0-15.0-3.13","56410","List1A","white","man","","","","","{""Q0"":""Mike is touching Dave""}","<img src=""stim_listA/touch5.gif""style=""height:400px;""></stim_listA>","is touching","","","","","",""
"null","<div style=""font-size:60px;"">+</div>","","html-keyboard-response","225","660753","0.0-15.0-0.14","56410","List1A","white","man","","","","null","","","","","","","","",""
"null","<img src=""stim_listA/seduce5.gif""style=""height:400px;""></stim_listA>","","html-keyboard-response","226","662763","0.0-15.0-1.14","56410","List1A","white","man","","","","null","","","","","","","","",""
"null","is seducing","","html-keyboard-response","227","664778","0.0-15.0-2.14","56410","List1A","white","man","","","","null","","","","","","","","",""
"5353.199999928474","","","survey-text","228","670132","0.0-15.0-3.14","56410","List1A","white","man","","","","","{""Q0"":""Fred is seducing Dave""}","<img src=""stim_listA/seduce5.gif""style=""height:400px;""></stim_listA>","is seducing","","","","","",""
"null","<div style=""font-size:60px;"">+</div>","","html-keyboard-response","229","670644","0.0-15.0-0.15","56410","List1A","white","man","","","","null","","","","","","","","",""
"null","<img src=""stim_listA/oppose6.gif""style=""height:400px;""></stim_listA>","","html-keyboard-response","230","672646","0.0-15.0-1.15","56410","List1A","white","man","","","","null","","","","","","","","",""
"null","is being opposed by","","html-keyboard-response","231","674653","0.0-15.0-2.15","56410","List1A","white","man","","","","null","","","","","","","","",""
"6821.600000023842","","","survey-text","232","681476","0.0-15.0-3.15","56410","List1A","white","man","","","","","{""Q0"":""Luke is being opposed by Fred""}","<img src=""stim_listA/oppose6.gif""style=""height:400px;""></stim_listA>","is being opposed by","","","","","",""
"null","<div style=""font-size:60px;"">+</div>","","html-keyboard-response","233","681976","0.0-15.0-0.16","56410","List1A","white","man","","","","null","","","","","","","","",""
"null","<img src=""stim_listA/seduce1.gif""style=""height:400px;""></stim_listA>","","html-keyboard-response","234","683978","0.0-15.0-1.16","56410","List1A","white","man","","","","null","","","","","","","","",""
"null","is seducing","","html-keyboard-response","235","685990","0.0-15.0-2.16","56410","List1A","white","man","","","","null","","","","","","","","",""
"4172.899999976158","","","survey-text","236","690164","0.0-15.0-3.16","56410","List1A","white","man","","","","","{""Q0"":""Fred is seducing Jane""}","<img src=""stim_listA/seduce1.gif""style=""height:400px;""></stim_listA>","is seducing","","","","","",""
"null","<div style=""font-size:60px;"">+</div>","","html-keyboard-response","237","690666","0.0-15.0-0.17","56410","List1A","white","man","","","","null","","","","","","","","",""
"null","<img src=""stim_listA/kiss7.gif""style=""height:400px;""></stim_listA>","","html-keyboard-response","238","692668","0.0-15.0-1.17","56410","List1A","white","man","","","","null","","","","","","","","",""
"null","is kissing","","html-keyboard-response","239","694680","0.0-15.0-2.17","56410","List1A","white","man","","","","null","","","","","","","","",""
"4634.5","","","survey-text","240","699317","0.0-15.0-3.17","56410","List1A","white","man","","","","","{""Q0"":""Beth is kissing Ruth""}","<img src=""stim_listA/kiss7.gif""style=""height:400px;""></stim_listA>","is kissing","","","","","",""
"null","<div style=""font-size:60px;"">+</div>","","html-keyboard-response","241","699819","0.0-15.0-0.18","56410","List1A","white","man","","","","null","","","","","","","","",""
"null","<img src=""stim_listA/look5.gif""style=""height:400px;""></stim_listA>","","html-keyboard-response","242","701820","0.0-15.0-1.18","56410","List1A","white","man","","","","null","","","","","","","","",""
"null","is looking at","","html-keyboard-response","243","703822","0.0-15.0-2.18","56410","List1A","white","man","","","","null","","","","","","","","",""
"5925.699999928474","","","survey-text","244","709749","0.0-15.0-3.18","56410","List1A","white","man","","","","","{""Q0"":""Fred is looking at Luke""}","<img src=""stim_listA/look5.gif""style=""height:400px;""></stim_listA>","is looking at","","","","","",""
"null","<div style=""font-size:60px;"">+</div>","","html-keyboard-response","245","710257","0.0-15.0-0.19","56410","List1A","white","man","","","","null","","","","","","","","",""
"null","<img src=""stim_listA/kiss3.gif""style=""height:400px;""></stim_listA>","","html-keyboard-response","246","712259","0.0-15.0-1.19","56410","List1A","white","man","","","","null","","","","","","","","",""
"null","is kissing","","html-keyboard-response","247","714265","0.0-15.0-2.19","56410","List1A","white","man","","","","null","","","","","","","","",""
"4945.5","","","survey-text","248","719212","0.0-15.0-3.19","56410","List1A","white","man","","","","","{""Q0"":""Ruth is kissing Luke""}","<img src=""stim_listA/kiss3.gif""style=""height:400px;""></stim_listA>","is kissing","","","","","",""
"2886.8000000715256","<img src='img/portrait_matrix_list1.jpg' style='width:900px;height:500px;''></img><p>If you have memorised all the portraits and names and are ready to start, press Continue.</p><p><strong>Please note: Your memory of these faces will be tested 4 times during this experiment.</strong></p>","0","html-button-response","249","722100","0.0-16.0-0.0","56410","List1A","white","man","","","","","","","","","","","","",""
"3061.600000023842","<img src=""portrait/WW2.jpg""style=""height:400px;""></img>","3","html-button-response","250","726164","0.0-16.0-1.0","56410","List1A","white","man","","true","3","","","","","","","","","",""
"null","CORRECT","","html-keyboard-response","251","727666","0.0-16.0-2.0-0.0","56410","List1A","white","man","","","","null","","","","","","","","",""
"2136.399999976158","<img src=""portrait/BM2.jpg""style=""height:400px;""></img>","5","html-button-response","252","729804","0.0-16.0-4.0","56410","List1A","white","man","","true","5","","","","","","","","","",""
"null","CORRECT","","html-keyboard-response","253","731307","0.0-16.0-5.0-0.0","56410","List1A","white","man","","","","null","","","","","","","","",""
"1423.5999999046326","<img src=""portrait/WM2.jpg""style=""height:400px;""></img>","7","html-button-response","254","732732","0.0-16.0-7.0","56410","List1A","white","man","","true","7","","","","","","","","","",""
"null","CORRECT","","html-keyboard-response","255","734253","0.0-16.0-8.0-0.0","56410","List1A","white","man","","","","null","","","","","","","","",""
"1719.1999999284744","<img src=""portrait/BW1.jpg""style=""height:400px;""></img>","0","html-button-response","256","735973","0.0-16.0-10.0","56410","List1A","white","man","","true","0","","","","","","","","","",""
"null","CORRECT","","html-keyboard-response","257","737494","0.0-16.0-11.0-0.0","56410","List1A","white","man","","","","null","","","","","","","","",""
"1884.1999999284744","<img src=""portrait/BW2.jpg""style=""height:400px;""></img>","2","html-button-response","258","739380","0.0-16.0-13.0","56410","List1A","white","man","","true","2","","","","","","","","","",""
"null","CORRECT","","html-keyboard-response","259","740902","0.0-16.0-14.0-0.0","56410","List1A","white","man","","","","null","","","","","","","","",""
"1380.2999999523163","<img src=""portrait/WM1.jpg""style=""height:400px;""></img>","6","html-button-response","260","742284","0.0-16.0-16.0","56410","List1A","white","man","","true","6","","","","","","","","","",""
"null","CORRECT","","html-keyboard-response","261","743798","0.0-16.0-17.0-0.0","56410","List1A","white","man","","","","null","","","","","","","","",""
"1501.3999999761581","<img src=""portrait/WW1.jpg""style=""height:400px;""></img>","1","html-button-response","262","745300","0.0-16.0-19.0","56410","List1A","white","man","","true","1","","","","","","","","","",""
"null","CORRECT","","html-keyboard-response","263","746815","0.0-16.0-20.0-0.0","56410","List1A","white","man","","","","null","","","","","","","","",""
"1259","<img src=""portrait/BM1.jpg""style=""height:400px;""></img>","4","html-button-response","264","748076","0.0-16.0-22.0","56410","List1A","white","man","","true","4","","","","","","","","","",""
"null","CORRECT","","html-keyboard-response","265","749602","0.0-16.0-23.0-0.0","56410","List1A","white","man","","","","null","","","","","","","","",""
"976.8999999761581","<p>You got 8 out of 8 right first time. Press Continue.</p>","0","html-button-response","266","750580","0.0-16.0-25.0","56410","List1A","white","man","","","","","","","","","","","","",""
"null","<div style=""font-size:60px;"">+</div>","","html-keyboard-response","267","752110","0.0-17.0-0.0","56410","List1A","white","man","","","","null","","","","","","","","",""
"null","<img src=""stim_listA/copy8.gif""style=""height:400px;""></stim_listA>","","html-keyboard-response","268","754111","0.0-17.0-1.0","56410","List1A","white","man","","","","null","","","","","","","","",""
"null","is being copied by","","html-keyboard-response","269","756116","0.0-17.0-2.0","56410","List1A","white","man","","","","null","","","","","","","","",""
"6359.899999976158","","","survey-text","270","762477","0.0-17.0-3.0","56410","List1A","white","man","","","","","{""Q0"":""Jane is being copied by Beth""}","<img src=""stim_listA/copy8.gif""style=""height:400px;""></stim_listA>","is being copied by","","","","","",""
"null","<div style=""font-size:60px;"">+</div>","","html-keyboard-response","271","762985","0.0-17.0-0.1","56410","List1A","white","man","","","","null","","","","","","","","",""
"null","<img src=""stim_listA/seduce8.gif""style=""height:400px;""></stim_listA>","","html-keyboard-response","272","764988","0.0-17.0-1.1","56410","List1A","white","man","","","","null","","","","","","","","",""
"null","is being seduced by","","html-keyboard-response","273","766989","0.0-17.0-2.1","56410","List1A","white","man","","","","null","","","","","","","","",""
"8831.5","","","survey-text","274","775822","0.0-17.0-3.1","56410","List1A","white","man","","","","","{""Q0"":""Ruth is being seduced by Kate""}","<img src=""stim_listA/seduce8.gif""style=""height:400px;""></stim_listA>","is being seduced by","","","","","",""
"null","<div style=""font-size:60px;"">+</div>","","html-keyboard-response","275","776330","0.0-17.0-0.2","56410","List1A","white","man","","","","null","","","","","","","","",""
"null","<img src=""stim_listA/greet5.gif""style=""height:400px;""></stim_listA>","","html-keyboard-response","276","778334","0.0-17.0-1.2","56410","List1A","white","man","","","","null","","","","","","","","",""
"null","is greeting","","html-keyboard-response","277","780335","0.0-17.0-2.2","56410","List1A","white","man","","","","null","","","","","","","","",""
"4290","","","survey-text","278","784628","0.0-17.0-3.2","56410","List1A","white","man","","","","","{""Q0"":""Mike is greeting Luke""}","<img src=""stim_listA/greet5.gif""style=""height:400px;""></stim_listA>","is greeting","","","","","",""
"null","<div style=""font-size:60px;"">+</div>","","html-keyboard-response","279","785131","0.0-17.0-0.3","56410","List1A","white","man","","","","null","","","","","","","","",""
"null","<img src=""stim_listA/greet8.gif""style=""height:400px;""></stim_listA>","","html-keyboard-response","280","787133","0.0-17.0-1.3","56410","List1A","white","man","","","","null","","","","","","","","",""
"null","is being greeted by","","html-keyboard-response","281","789139","0.0-17.0-2.3","56410","List1A","white","man","","","","null","","","","","","","","",""
"6695","","","survey-text","282","795836","0.0-17.0-3.3","56410","List1A","white","man","","","","","{""Q0"":""Jane is being greeted by Beth""}","<img src=""stim_listA/greet8.gif""style=""height:400px;""></stim_listA>","is being greeted by","","","","","",""
"null","<div style=""font-size:60px;"">+</div>","","html-keyboard-response","283","796337","0.0-17.0-0.4","56410","List1A","white","man","","","","null","","","","","","","","",""
"null","<img src=""stim_listA/look7.gif""style=""height:400px;""></stim_listA>","","html-keyboard-response","284","798339","0.0-17.0-1.4","56410","List1A","white","man","","","","null","","","","","","","","",""
"null","is looking at","","html-keyboard-response","285","800347","0.0-17.0-2.4","56410","List1A","white","man","","","","null","","","","","","","","",""
"5341","","","survey-text","286","805692","0.0-17.0-3.4","56410","List1A","white","man","","","","","{""Q0"":""Ruth is looking at Beth""}","<img src=""stim_listA/look7.gif""style=""height:400px;""></stim_listA>","is looking at","","","","","",""
"null","<div style=""font-size:60px;"">+</div>","","html-keyboard-response","287","806195","0.0-17.0-0.5","56410","List1A","white","man","","","","null","","","","","","","","",""
"null","<img src=""stim_listA/hug3.gif""style=""height:400px;""></stim_listA>","","html-keyboard-response","288","808198","0.0-17.0-1.5","56410","List1A","white","man","","","","null","","","","","","","","",""
"null","is hugging","","html-keyboard-response","289","810210","0.0-17.0-2.5","56410","List1A","white","man","","","","null","","","","","","","","",""
"4120.800000071526","","","survey-text","290","814332","0.0-17.0-3.5","56410","List1A","white","man","","","","","{""Q0"":""Luke is hugging Ruth""}","<img src=""stim_listA/hug3.gif""style=""height:400px;""></stim_listA>","is hugging","","","","","",""
"null","<div style=""font-size:60px;"">+</div>","","html-keyboard-response","291","814834","0.0-17.0-0.6","56410","List1A","white","man","","","","null","","","","","","","","",""
"null","<img src=""stim_listA/seduce4.gif""style=""height:400px;""></stim_listA>","","html-keyboard-response","292","816849","0.0-17.0-1.6","56410","List1A","white","man","","","","null","","","","","","","","",""
"null","is being seduced by","","html-keyboard-response","293","818862","0.0-17.0-2.6","56410","List1A","white","man","","","","null","","","","","","","","",""
"7011.100000023842","","","survey-text","294","825876","0.0-17.0-3.6","56410","List1A","white","man","","","","","{""Q0"":""Ruth is being seduced by Dave""}","<img src=""stim_listA/seduce4.gif""style=""height:400px;""></stim_listA>","is being seduced by","","","","","",""
"null","<div style=""font-size:60px;"">+</div>","","html-keyboard-response","295","826383","0.0-17.0-0.7","56410","List1A","white","man","","","","null","","","","","","","","",""
"null","<img src=""stim_listA/touch6.gif""style=""height:400px;""></stim_listA>","","html-keyboard-response","296","828395","0.0-17.0-1.7","56410","List1A","white","man","","","","null","","","","","","","","",""
"null","is being touched by","","html-keyboard-response","297","830396","0.0-17.0-2.7","56410","List1A","white","man","","","","null","","","","","","","","",""
"7094.700000047684","","","survey-text","298","837492","0.0-17.0-3.7","56410","List1A","white","man","","","","","{""Q0"":""Fred is being touched by Luke""}","<img src=""stim_listA/touch6.gif""style=""height:400px;""></stim_listA>","is being touched by","","","","","",""
"null","<div style=""font-size:60px;"">+</div>","","html-keyboard-response","299","837998","0.0-17.0-0.8","56410","List1A","white","man","","","","null","","","","","","","","",""
"null","<img src=""stim_listA/copy1.gif""style=""height:400px;""></stim_listA>","","html-keyboard-response","300","840001","0.0-17.0-1.8","56410","List1A","white","man","","","","null","","","","","","","","",""
"null","is copying","","html-keyboard-response","301","842003","0.0-17.0-2.8","56410","List1A","white","man","","","","null","","","","","","","","",""
"5373.900000095367","","","survey-text","302","847380","0.0-17.0-3.8","56410","List1A","white","man","","","","","{""Q0"":""Mike is copying Beth""}","<img src=""stim_listA/copy1.gif""style=""height:400px;""></stim_listA>","is copying","","","","","",""
"null","<div style=""font-size:60px;"">+</div>","","html-keyboard-response","303","847882","0.0-17.0-0.9","56410","List1A","white","man","","","","null","","","","","","","","",""
"null","<img src=""stim_listA/hug4.gif""style=""height:400px;""></stim_listA>","","html-keyboard-response","304","849896","0.0-17.0-1.9","56410","List1A","white","man","","","","null","","","","","","","","",""
"null","is being hugged by","","html-keyboard-response","305","851898","0.0-17.0-2.9","56410","List1A","white","man","","","","null","","","","","","","","",""
"5320.799999952316","","","survey-text","306","857222","0.0-17.0-3.9","56410","List1A","white","man","","","","","{""Q0"":""Jane is being hugged by Dave""}","<img src=""stim_listA/hug4.gif""style=""height:400px;""></stim_listA>","is being hugged by","","","","","",""
"null","<div style=""font-size:60px;"">+</div>","","html-keyboard-response","307","857723","0.0-17.0-0.10","56410","List1A","white","man","","","","null","","","","","","","","",""
"null","<img src=""stim_listA/seduce2.gif""style=""height:400px;""></stim_listA>","","html-keyboard-response","308","859727","0.0-17.0-1.10","56410","List1A","white","man","","","","null","","","","","","","","",""
"null","is being seduced by","","html-keyboard-response","309","861732","0.0-17.0-2.10","56410","List1A","white","man","","","","null","","","","","","","","",""
"5816.100000023842","","","survey-text","310","867549","0.0-17.0-3.10","56410","List1A","white","man","","","","","{""Q0"":""Beth is being seduced by Mike""}","<img src=""stim_listA/seduce2.gif""style=""height:400px;""></stim_listA>","is being seduced by","","","","","",""
"null","<div style=""font-size:60px;"">+</div>","","html-keyboard-response","311","868060","0.0-17.0-0.11","56410","List1A","white","man","","","","null","","","","","","","","",""
"null","<img src=""stim_listA/shout1.gif""style=""height:400px;""></stim_listA>","","html-keyboard-response","312","870076","0.0-17.0-1.11","56410","List1A","white","man","","","","null","","","","","","","","",""
"null","is shouting at","","html-keyboard-response","313","872079","0.0-17.0-2.11","56410","List1A","white","man","","","","null","","","","","","","","",""
"5066.799999952316","","","survey-text","314","877147","0.0-17.0-3.11","56410","List1A","white","man","","","","","{""Q0"":""Fred is shouting at Beth""}","<img src=""stim_listA/shout1.gif""style=""height:400px;""></stim_listA>","is shouting at","","","","","",""
"null","<div style=""font-size:60px;"">+</div>","","html-keyboard-response","315","877662","0.0-17.0-0.12","56410","List1A","white","man","","","","null","","","","","","","","",""
"null","<img src=""stim_listA/challenge8.gif""style=""height:400px;""></stim_listA>","","html-keyboard-response","316","879664","0.0-17.0-1.12","56410","List1A","white","man","","","","null","","","","","","","","",""
"null","is being challenged by","","html-keyboard-response","317","881674","0.0-17.0-2.12","56410","List1A","white","man","","","","null","","","","","","","","",""
"5466.299999952316","","","survey-text","318","887142","0.0-17.0-3.12","56410","List1A","white","man","","","","","{""Q0"":""Jane is being challenged by Beth""}","<img src=""stim_listA/challenge8.gif""style=""height:400px;""></stim_listA>","is being challenged by","","","","","",""
"null","<div style=""font-size:60px;"">+</div>","","html-keyboard-response","319","887649","0.0-17.0-0.13","56410","List1A","white","man","","","","null","","","","","","","","",""
"null","<img src=""stim_listA/copy3.gif""style=""height:400px;""></stim_listA>","","html-keyboard-response","320","889652","0.0-17.0-1.13","56410","List1A","white","man","","","","null","","","","","","","","",""
"null","is copying","","html-keyboard-response","321","891664","0.0-17.0-2.13","56410","List1A","white","man","","","","null","","","","","","","","",""
"4609.799999952316","","","survey-text","322","896275","0.0-17.0-3.13","56410","List1A","white","man","","","","","{""Q0"":""Ruth is copying Dave""}","<img src=""stim_listA/copy3.gif""style=""height:400px;""></stim_listA>","is copying","","","","","",""
"null","<div style=""font-size:60px;"">+</div>","","html-keyboard-response","323","896776","0.0-17.0-0.14","56410","List1A","white","man","","","","null","","","","","","","","",""
"null","<img src=""stim_listA/hug6.gif""style=""height:400px;""></stim_listA>","","html-keyboard-response","324","898793","0.0-17.0-1.14","56410","List1A","white","man","","","","null","","","","","","","","",""
"null","is being hugged by","","html-keyboard-response","325","900803","0.0-17.0-2.14","56410","List1A","white","man","","","","null","","","","","","","","",""
"7477.900000095367","","","survey-text","326","908283","0.0-17.0-3.14","56410","List1A","white","man","","","","","{""Q0"":""Dave is being hugged by Mike""}","<img src=""stim_listA/hug6.gif""style=""height:400px;""></stim_listA>","is being hugged by","","","","","",""
"null","<div style=""font-size:60px;"">+</div>","","html-keyboard-response","327","908796","0.0-17.0-0.15","56410","List1A","white","man","","","","null","","","","","","","","",""
"null","<img src=""stim_listA/oppose7.gif""style=""height:400px;""></stim_listA>","","html-keyboard-response","328","910800","0.0-17.0-1.15","56410","List1A","white","man","","","","null","","","","","","","","",""
"null","is opposing","","html-keyboard-response","329","912812","0.0-17.0-2.15","56410","List1A","white","man","","","","null","","","","","","","","",""
"4003.8000000715256","","","survey-text","330","916819","0.0-17.0-3.15","56410","List1A","white","man","","","","","{""Q0"":""Kate is opposing Jane""}","<img src=""stim_listA/oppose7.gif""style=""height:400px;""></stim_listA>","is opposing","","","","","",""
"null","<div style=""font-size:60px;"">+</div>","","html-keyboard-response","331","917330","0.0-17.0-0.16","56410","List1A","white","man","","","","null","","","","","","","","",""
"null","<img src=""stim_listA/challenge7.gif""style=""height:400px;""></stim_listA>","","html-keyboard-response","332","919333","0.0-17.0-1.16","56410","List1A","white","man","","","","null","","","","","","","","",""
"null","is challenging","","html-keyboard-response","333","921337","0.0-17.0-2.16","56410","List1A","white","man","","","","null","","","","","","","","",""
"4575.800000071526","","","survey-text","334","925915","0.0-17.0-3.16","56410","List1A","white","man","","","","","{""Q0"":""Kate is challenging Ruth""}","<img src=""stim_listA/challenge7.gif""style=""height:400px;""></stim_listA>","is challenging","","","","","",""
"null","<div style=""font-size:60px;"">+</div>","","html-keyboard-response","335","926417","0.0-17.0-0.17","56410","List1A","white","man","","","","null","","","","","","","","",""
"null","<img src=""stim_listA/oppose4.gif""style=""height:400px;""></stim_listA>","","html-keyboard-response","336","928419","0.0-17.0-1.17","56410","List1A","white","man","","","","null","","","","","","","","",""
"null","is being opposed by","","html-keyboard-response","337","930429","0.0-17.0-2.17","56410","List1A","white","man","","","","null","","","","","","","","",""
"6260.399999976158","","","survey-text","338","936691","0.0-17.0-3.17","56410","List1A","white","man","","","","","{""Q0"":""Ruth is being opposed by Luke""}","<img src=""stim_listA/oppose4.gif""style=""height:400px;""></stim_listA>","is being opposed by","","","","","",""
"null","<div style=""font-size:60px;"">+</div>","","html-keyboard-response","339","937198","0.0-17.0-0.18","56410","List1A","white","man","","","","null","","","","","","","","",""
"null","<img src=""stim_listA/oppose1.gif""style=""height:400px;""></stim_listA>","","html-keyboard-response","340","939199","0.0-17.0-1.18","56410","List1A","white","man","","","","null","","","","","","","","",""
"null","is opposing","","html-keyboard-response","341","941213","0.0-17.0-2.18","56410","List1A","white","man","","","","null","","","","","","","","",""
"4516.899999976158","","","survey-text","342","945731","0.0-17.0-3.18","56410","List1A","white","man","","","","","{""Q0"":""Mike is opposing Kate""}","<img src=""stim_listA/oppose1.gif""style=""height:400px;""></stim_listA>","is opposing","","","","","",""
"null","<div style=""font-size:60px;"">+</div>","","html-keyboard-response","343","946237","0.0-17.0-0.19","56410","List1A","white","man","","","","null","","","","","","","","",""
"null","<img src=""stim_listA/challenge3.gif""style=""height:400px;""></stim_listA>","","html-keyboard-response","344","948239","0.0-17.0-1.19","56410","List1A","white","man","","","","null","","","","","","","","",""
"null","is challenging","","html-keyboard-response","345","950241","0.0-17.0-2.19","56410","List1A","white","man","","","","null","","","","","","","","",""
"4928.5","","","survey-text","346","955171","0.0-17.0-3.19","56410","List1A","white","man","","","","","{""Q0"":""Dave is challenging Ruth""}","<img src=""stim_listA/challenge3.gif""style=""height:400px;""></stim_listA>","is challenging","","","","","",""
"1743","<img src='img/portrait_matrix_list1.jpg' style='width:900px;height:500px;''></img><p>If you have memorised all the portraits and names and are ready to start, press Continue.</p><p><strong>Please note: Your memory of these faces will be tested 4 times during this experiment.</strong></p>","0","html-button-response","347","956915","0.0-18.0-0.0","56410","List1A","white","man","","","","","","","","","","","","",""
"4498.699999928474","<img src=""portrait/BM2.jpg""style=""height:400px;""></img>","5","html-button-response","348","962421","0.0-18.0-1.0","56410","List1A","white","man","","true","5","","","","","","","","","",""
"null","CORRECT","","html-keyboard-response","349","963938","0.0-18.0-2.0-0.0","56410","List1A","white","man","","","","null","","","","","","","","",""
"4280","<img src=""portrait/WM1.jpg""style=""height:400px;""></img>","6","html-button-response","350","968219","0.0-18.0-4.0","56410","List1A","white","man","","true","6","","","","","","","","","",""
"null","CORRECT","","html-keyboard-response","351","969728","0.0-18.0-5.0-0.0","56410","List1A","white","man","","","","null","","","","","","","","",""
"1962.5999999046326","<img src=""portrait/BW2.jpg""style=""height:400px;""></img>","2","html-button-response","352","971691","0.0-18.0-7.0","56410","List1A","white","man","","true","2","","","","","","","","","",""
"null","CORRECT","","html-keyboard-response","353","973221","0.0-18.0-8.0-0.0","56410","List1A","white","man","","","","null","","","","","","","","",""
"2348.899999976158","<img src=""portrait/WW2.jpg""style=""height:400px;""></img>","3","html-button-response","354","975571","0.0-18.0-10.0","56410","List1A","white","man","","true","3","","","","","","","","","",""
"null","CORRECT","","html-keyboard-response","355","977102","0.0-18.0-11.0-0.0","56410","List1A","white","man","","","","null","","","","","","","","",""
"2861","<img src=""portrait/BW1.jpg""style=""height:400px;""></img>","0","html-button-response","356","979964","0.0-18.0-13.0","56410","List1A","white","man","","true","0","","","","","","","","","",""
"null","CORRECT","","html-keyboard-response","357","981477","0.0-18.0-14.0-0.0","56410","List1A","white","man","","","","null","","","","","","","","",""
"3412.899999976158","<img src=""portrait/WW1.jpg""style=""height:400px;""></img>","1","html-button-response","358","984891","0.0-18.0-16.0","56410","List1A","white","man","","true","1","","","","","","","","","",""
"null","CORRECT","","html-keyboard-response","359","986403","0.0-18.0-17.0-0.0","56410","List1A","white","man","","","","null","","","","","","","","",""
"2159.7999999523163","<img src=""portrait/WM2.jpg""style=""height:400px;""></img>","7","html-button-response","360","988563","0.0-18.0-19.0","56410","List1A","white","man","","true","7","","","","","","","","","",""
"null","CORRECT","","html-keyboard-response","361","990081","0.0-18.0-20.0-0.0","56410","List1A","white","man","","","","null","","","","","","","","",""
"1065.7999999523163","<img src=""portrait/BM1.jpg""style=""height:400px;""></img>","4","html-button-response","362","991148","0.0-18.0-22.0","56410","List1A","white","man","","true","4","","","","","","","","","",""
"null","CORRECT","","html-keyboard-response","363","992662","0.0-18.0-23.0-0.0","56410","List1A","white","man","","","","null","","","","","","","","",""
"1917.4000000953674","<p>You got 8 out of 8 right first time. Press Continue.</p>","0","html-button-response","364","994581","0.0-18.0-25.0","56410","List1A","white","man","","","","","","","","","","","","",""
"null","<div style=""font-size:60px;"">+</div>","","html-keyboard-response","365","996092","0.0-19.0-0.0","56410","List1A","white","man","","","","null","","","","","","","","",""
"null","<img src=""stim_listA/challenge4.gif""style=""height:400px;""></stim_listA>","","html-keyboard-response","366","998093","0.0-19.0-1.0","56410","List1A","white","man","","","","null","","","","","","","","",""
"null","is being challenged by","","html-keyboard-response","367","1000095","0.0-19.0-2.0","56410","List1A","white","man","","","","null","","","","","","","","",""
"19930.799999952316","","","survey-text","368","1020027","0.0-19.0-3.0","56410","List1A","white","man","","","","","{""Q0"":""Jane is being challenged by Luke""}","<img src=""stim_listA/challenge4.gif""style=""height:400px;""></stim_listA>","is being challenged by","","","","","",""
"null","<div style=""font-size:60px;"">+</div>","","html-keyboard-response","369","1020541","0.0-19.0-0.1","56410","List1A","white","man","","","","null","","","","","","","","",""
"null","<img src=""stim_listA/shout4.gif""style=""height:400px;""></stim_listA>","","html-keyboard-response","370","1022548","0.0-19.0-1.1","56410","List1A","white","man","","","","null","","","","","","","","",""
"null","is being shouted at by","","html-keyboard-response","371","1024552","0.0-19.0-2.1","56410","List1A","white","man","","","","null","","","","","","","","",""
"6346.399999976158","","","survey-text","372","1030899","0.0-19.0-3.1","56410","List1A","white","man","","","","","{""Q0"":""Jane is being shouted at by Dave""}","<img src=""stim_listA/shout4.gif""style=""height:400px;""></stim_listA>","is being shouted at by","","","","","",""
"null","<div style=""font-size:60px;"">+</div>","","html-keyboard-response","373","1031406","0.0-19.0-0.2","56410","List1A","white","man","","","","null","","","","","","","","",""
"null","<img src=""stim_listA/shout7.gif""style=""height:400px;""></stim_listA>","","html-keyboard-response","374","1033421","0.0-19.0-1.2","56410","List1A","white","man","","","","null","","","","","","","","",""
"null","is shouting at","","html-keyboard-response","375","1035428","0.0-19.0-2.2","56410","List1A","white","man","","","","null","","","","","","","","",""
"4087.5","","","survey-text","376","1039516","0.0-19.0-3.2","56410","List1A","white","man","","","","","{""Q0"":""Beth is shouting at Ruth""}","<img src=""stim_listA/shout7.gif""style=""height:400px;""></stim_listA>","is shouting at","","","","","",""
"null","<div style=""font-size:60px;"">+</div>","","html-keyboard-response","377","1040030","0.0-19.0-0.3","56410","List1A","white","man","","","","null","","","","","","","","",""
"null","<img src=""stim_listA/touch1.gif""style=""height:400px;""></stim_listA>","","html-keyboard-response","378","1042034","0.0-19.0-1.3","56410","List1A","white","man","","","","null","","","","","","","","",""
"null","is touching","","html-keyboard-response","379","1044039","0.0-19.0-2.3","56410","List1A","white","man","","","","null","","","","","","","","",""
"4258.699999928474","","","survey-text","380","1048299","0.0-19.0-3.3","56410","List1A","white","man","","","","","{""Q0"":""Mike is touching Kate""}","<img src=""stim_listA/touch1.gif""style=""height:400px;""></stim_listA>","is touching","","","","","",""
"null","<div style=""font-size:60px;"">+</div>","","html-keyboard-response","381","1048805","0.0-19.0-0.4","56410","List1A","white","man","","","","null","","","","","","","","",""
"null","<img src=""stim_listA/look8.gif""style=""height:400px;""></stim_listA>","","html-keyboard-response","382","1050809","0.0-19.0-1.4","56410","List1A","white","man","","","","null","","","","","","","","",""
"null","is being looked at by","","html-keyboard-response","383","1052823","0.0-19.0-2.4","56410","List1A","white","man","","","","null","","","","","","","","",""
"5306.899999976158","","","survey-text","384","1058131","0.0-19.0-3.4","56410","List1A","white","man","","","","","{""Q0"":""Jane is being looked at by Kate""}","<img src=""stim_listA/look8.gif""style=""height:400px;""></stim_listA>","is being looked at by","","","","","",""
"null","<div style=""font-size:60px;"">+</div>","","html-keyboard-response","385","1058638","0.0-19.0-0.5","56410","List1A","white","man","","","","null","","","","","","","","",""
"null","<img src=""stim_listA/greet7.gif""style=""height:400px;""></stim_listA>","","html-keyboard-response","386","1060641","0.0-19.0-1.5","56410","List1A","white","man","","","","null","","","","","","","","",""
"null","is greeting","","html-keyboard-response","387","1062642","0.0-19.0-2.5","56410","List1A","white","man","","","","null","","","","","","","","",""
"3815.2999999523163","","","survey-text","388","1066459","0.0-19.0-3.5","56410","List1A","white","man","","","","","{""Q0"":""Kate is greeting Ruth""}","<img src=""stim_listA/greet7.gif""style=""height:400px;""></stim_listA>","is greeting","","","","","",""
"null","<div style=""font-size:60px;"">+</div>","","html-keyboard-response","389","1066972","0.0-19.0-0.6","56410","List1A","white","man","","","","null","","","","","","","","",""
"null","<img src=""stim_listA/copy5.gif""style=""height:400px;""></stim_listA>","","html-keyboard-response","390","1068976","0.0-19.0-1.6","56410","List1A","white","man","","","","null","","","","","","","","",""
"null","is copying","","html-keyboard-response","391","1070978","0.0-19.0-2.6","56410","List1A","white","man","","","","null","","","","","","","","",""
"4202.200000047684","","","survey-text","392","1075182","0.0-19.0-3.6","56410","List1A","white","man","","","","","{""Q0"":""Mike is copying Luke""}","<img src=""stim_listA/copy5.gif""style=""height:400px;""></stim_listA>","is copying","","","","","",""
"null","<div style=""font-size:60px;"">+</div>","","html-keyboard-response","393","1075691","0.0-19.0-0.7","56410","List1A","white","man","","","","null","","","","","","","","",""
"null","<img src=""stim_listA/shout8.gif""style=""height:400px;""></stim_listA>","","html-keyboard-response","394","1077693","0.0-19.0-1.7","56410","List1A","white","man","","","","null","","","","","","","","",""
"null","is being shouted at by","","html-keyboard-response","395","1079705","0.0-19.0-2.7","56410","List1A","white","man","","","","null","","","","","","","","",""
"4946.700000047684","","","survey-text","396","1084653","0.0-19.0-3.7","56410","List1A","white","man","","","","","{""Q0"":""Jane is being shouted at by Kate""}","<img src=""stim_listA/shout8.gif""style=""height:400px;""></stim_listA>","is being shouted at by","","","","","",""
"null","<div style=""font-size:60px;"">+</div>","","html-keyboard-response","397","1085159","0.0-19.0-0.8","56410","List1A","white","man","","","","null","","","","","","","","",""
"null","<img src=""stim_listA/copy6.gif""style=""height:400px;""></stim_listA>","","html-keyboard-response","398","1087167","0.0-19.0-1.8","56410","List1A","white","man","","","","null","","","","","","","","",""
"null","is being copied by","","html-keyboard-response","399","1089173","0.0-19.0-2.8","56410","List1A","white","man","","","","null","","","","","","","","",""
"5103.399999976158","","","survey-text","400","1094278","0.0-19.0-3.8","56410","List1A","white","man","","","","","{""Q0"":""Dave is being copied by Fred""}","<img src=""stim_listA/copy6.gif""style=""height:400px;""></stim_listA>","is being copied by","","","","","",""
"null","<div style=""font-size:60px;"">+</div>","","html-keyboard-response","401","1094788","0.0-19.0-0.9","56410","List1A","white","man","","","","null","","","","","","","","",""
"null","<img src=""stim_listA/touch8.gif""style=""height:400px;""></stim_listA>","","html-keyboard-response","402","1096789","0.0-19.0-1.9","56410","List1A","white","man","","","","null","","","","","","","","",""
"null","is being touched by","","html-keyboard-response","403","1098796","0.0-19.0-2.9","56410","List1A","white","man","","","","null","","","","","","","","",""
"4859.200000047684","","","survey-text","404","1103659","0.0-19.0-3.9","56410","List1A","white","man","","","","","{""Q0"":""Ruth is being touched by Beth""}","<img src=""stim_listA/touch8.gif""style=""height:400px;""></stim_listA>","is being touched by","","","","","",""
"null","<div style=""font-size:60px;"">+</div>","","html-keyboard-response","405","1104168","0.0-19.0-0.10","56410","List1A","white","man","","","","null","","","","","","","","",""
"null","<img src=""stim_listA/touch7.gif""style=""height:400px;""></stim_listA>","","html-keyboard-response","406","1106170","0.0-19.0-1.10","56410","List1A","white","man","","","","null","","","","","","","","",""
"null","is touching","","html-keyboard-response","407","1108182","0.0-19.0-2.10","56410","List1A","white","man","","","","null","","","","","","","","",""
"3258.7000000476837","","","survey-text","408","1111443","0.0-19.0-3.10","56410","List1A","white","man","","","","","{""Q0"":""Kate is touching Jane""}","<img src=""stim_listA/touch7.gif""style=""height:400px;""></stim_listA>","is touching","","","","","",""
"null","<div style=""font-size:60px;"">+</div>","","html-keyboard-response","409","1111958","0.0-19.0-0.11","56410","List1A","white","man","","","","null","","","","","","","","",""
"null","<img src=""stim_listA/challenge1.gif""style=""height:400px;""></stim_listA>","","html-keyboard-response","410","1113972","0.0-19.0-1.11","56410","List1A","white","man","","","","null","","","","","","","","",""
"null","is challenging","","html-keyboard-response","411","1115973","0.0-19.0-2.11","56410","List1A","white","man","","","","null","","","","","","","","",""
"5500.700000047684","","","survey-text","412","1121475","0.0-19.0-3.11","56410","List1A","white","man","","","","","{""Q0"":""Mike is challenging Beth""}","<img src=""stim_listA/challenge1.gif""style=""height:400px;""></stim_listA>","is challenging","","","","","",""
"null","<div style=""font-size:60px;"">+</div>","","html-keyboard-response","413","1121988","0.0-19.0-0.12","56410","List1A","white","man","","","","null","","","","","","","","",""
"null","<img src=""stim_listA/touch4.gif""style=""height:400px;""></stim_listA>","","html-keyboard-response","414","1123991","0.0-19.0-1.12","56410","List1A","white","man","","","","null","","","","","","","","",""
"null","is being touched by","","html-keyboard-response","415","1125992","0.0-19.0-2.12","56410","List1A","white","man","","","","null","","","","","","","","",""
"5314.899999976158","","","survey-text","416","1131308","0.0-19.0-3.12","56410","List1A","white","man","","","","","{""Q0"":""Ruth is being touched by Luke""}","<img src=""stim_listA/touch4.gif""style=""height:400px;""></stim_listA>","is being touched by","","","","","",""
"null","<div style=""font-size:60px;"">+</div>","","html-keyboard-response","417","1131822","0.0-19.0-0.13","56410","List1A","white","man","","","","null","","","","","","","","",""
"null","<img src=""stim_listA/look4.gif""style=""height:400px;""></stim_listA>","","html-keyboard-response","418","1133824","0.0-19.0-1.13","56410","List1A","white","man","","","","null","","","","","","","","",""
"null","is being looked at by","","html-keyboard-response","419","1135835","0.0-19.0-2.13","56410","List1A","white","man","","","","null","","","","","","","","",""
"5159.199999928474","","","survey-text","420","1140995","0.0-19.0-3.13","56410","List1A","white","man","","","","","{""Q0"":""Jane is being looked at by Dave""}","<img src=""stim_listA/look4.gif""style=""height:400px;""></stim_listA>","is being looked at by","","","","","",""
"null","<div style=""font-size:60px;"">+</div>","","html-keyboard-response","421","1141501","0.0-19.0-0.14","56410","List1A","white","man","","","","null","","","","","","","","",""
"null","<img src=""stim_listA/oppose8.gif""style=""height:400px;""></stim_listA>","","html-keyboard-response","422","1143503","0.0-19.0-1.14","56410","List1A","white","man","","","","null","","","","","","","","",""
"null","is being opposed by","","html-keyboard-response","423","1145506","0.0-19.0-2.14","56410","List1A","white","man","","","","null","","","","","","","","",""
"5654.5","","","survey-text","424","1151163","0.0-19.0-3.14","56410","List1A","white","man","","","","","{""Q0"":""Ruth is being opposed by Beth""}","<img src=""stim_listA/oppose8.gif""style=""height:400px;""></stim_listA>","is being opposed by","","","","","",""
"null","<div style=""font-size:60px;"">+</div>","","html-keyboard-response","425","1151678","0.0-19.0-0.15","56410","List1A","white","man","","","","null","","","","","","","","",""
"null","<img src=""stim_listA/look2.gif""style=""height:400px;""></stim_listA>","","html-keyboard-response","426","1153684","0.0-19.0-1.15","56410","List1A","white","man","","","","null","","","","","","","","",""
"null","is being looked at by","","html-keyboard-response","427","1155697","0.0-19.0-2.15","56410","List1A","white","man","","","","null","","","","","","","","",""
"5736.799999952316","","","survey-text","428","1161435","0.0-19.0-3.15","56410","List1A","white","man","","","","","{""Q0"":""Kate is being looked at by Mike""}","<img src=""stim_listA/look2.gif""style=""height:400px;""></stim_listA>","is being looked at by","","","","","",""
"null","<div style=""font-size:60px;"">+</div>","","html-keyboard-response","429","1161940","0.0-19.0-0.16","56410","List1A","white","man","","","","null","","","","","","","","",""
"null","<img src=""stim_listA/touch2.gif""style=""height:400px;""></stim_listA>","","html-keyboard-response","430","1163951","0.0-19.0-1.16","56410","List1A","white","man","","","","null","","","","","","","","",""
"null","is being touched by","","html-keyboard-response","431","1165956","0.0-19.0-2.16","56410","List1A","white","man","","","","null","","","","","","","","",""
"4965.299999952316","","","survey-text","432","1170923","0.0-19.0-3.16","56410","List1A","white","man","","","","","{""Q0"":""Beth is being touched by Fred""}","<img src=""stim_listA/touch2.gif""style=""height:400px;""></stim_listA>","is being touched by","","","","","",""
"null","<div style=""font-size:60px;"">+</div>","","html-keyboard-response","433","1171424","0.0-19.0-0.17","56410","List1A","white","man","","","","null","","","","","","","","",""
"null","<img src=""stim_listA/hug7.gif""style=""height:400px;""></stim_listA>","","html-keyboard-response","434","1173433","0.0-19.0-1.17","56410","List1A","white","man","","","","null","","","","","","","","",""
"null","is hugging","","html-keyboard-response","435","1175445","0.0-19.0-2.17","56410","List1A","white","man","","","","null","","","","","","","","",""
"4140.600000023842","","","survey-text","436","1179587","0.0-19.0-3.17","56410","List1A","white","man","","","","","{""Q0"":""Beth is hugging Ruth""}","<img src=""stim_listA/hug7.gif""style=""height:400px;""></stim_listA>","is hugging","","","","","",""
"null","<div style=""font-size:60px;"">+</div>","","html-keyboard-response","437","1180099","0.0-19.0-0.18","56410","List1A","white","man","","","","null","","","","","","","","",""
"null","<img src=""stim_listA/oppose2.gif""style=""height:400px;""></stim_listA>","","html-keyboard-response","438","1182101","0.0-19.0-1.18","56410","List1A","white","man","","","","null","","","","","","","","",""
"null","is being opposed by","","html-keyboard-response","439","1184112","0.0-19.0-2.18","56410","List1A","white","man","","","","null","","","","","","","","",""
"5153.300000071526","","","survey-text","440","1189267","0.0-19.0-3.18","56410","List1A","white","man","","","","","{""Q0"":""Beth is being opposed by Fred""}","<img src=""stim_listA/oppose2.gif""style=""height:400px;""></stim_listA>","is being opposed by","","","","","",""
"null","<div style=""font-size:60px;"">+</div>","","html-keyboard-response","441","1189768","0.0-19.0-0.19","56410","List1A","white","man","","","","null","","","","","","","","",""
"null","<img src=""stim_listA/hug5.gif""style=""height:400px;""></stim_listA>","","html-keyboard-response","442","1191771","0.0-19.0-1.19","56410","List1A","white","man","","","","null","","","","","","","","",""
"null","is hugging","","html-keyboard-response","443","1193775","0.0-19.0-2.19","56410","List1A","white","man","","","","null","","","","","","","","",""
"4880.600000023842","","","survey-text","444","1198659","0.0-19.0-3.19","56410","List1A","white","man","","","","","{""Q0"":""Fred is hugging Luke""}","<img src=""stim_listA/hug5.gif""style=""height:400px;""></stim_listA>","is hugging","","","","","",""
"4134.899999976158","<p>Thank you for completing that task.</p><p>The final part of this session is a questionnaire that will take about 4 minutes.</p><p>Press Continue.</p>","0","html-button-response","445","1202795","0.0-20.0","56410","List1A","white","man","","","","","","","","","","","","",""
"20436.200000047684","","","survey-text","446","1224235","0.0-21.0","56410","List1A","white","man","","","","","{""Q0"":""31"",""Q1"":""English"",""Q2"":""English"",""Q3"":""United States"",""Q4"":""United States"",""Q5"":""White"",""Q6"":""Male""}","","","demographics","","","","",""
"2174.2999999523163","<p>Have you lived in the USA for the last 5 years or more?</p>","0","html-button-response","447","1226411","0.0-22.0","56410","List1A","white","man","","","","","","","","fiveyears","","","","",""
"2183","<p>Move the slider to show the extent to which you agree with the following statements.</p>","0","html-button-response","448","1229595","0.0-23.0","56410","List1A","white","man","","","","","","","","","","","","",""
"5608.900000095367","","","html-slider-response","449","1236219","0.0-24.0-0.0-0.0","56410","List1A","white","man","","","","","","","","survey_race","78","","","I am glad to be my race.","glad"
"3234.2000000476837","","","html-slider-response","450","1239454","0.0-24.0-0.0-0.1","56410","List1A","white","man","","","","","","","","survey_race","40","","","I consider myself an extrovert.","filler"
"4275.200000047684","","","html-slider-response","451","1243731","0.0-24.0-0.0-0.2","56410","List1A","white","man","","","","","","","","survey_race","86","","","I feel a bond with people the same age as me.","filler"
"2766.8000000715256","","","html-slider-response","452","1246498","0.0-24.0-0.0-0.3","56410","List1A","white","man","","","","","","","","survey_race","65","","","It is pleasant to be my race.","pleasant"
"2647.100000023842","","","html-slider-response","453","1249146","0.0-24.0-0.0-0.4","56410","List1A","white","man","","","","","","","","survey_race","58","","","Being my age gives me a good feeling.","filler"
"2311.7000000476837","","","html-slider-response","454","1251459","0.0-24.0-0.0-0.5","56410","List1A","white","man","","","","","","","","survey_race","25","","","I enjoy being in large groups.","filler"
"3489","","","html-slider-response","455","1254949","0.0-24.0-0.0-0.6","56410","List1A","white","man","","","","","","","","survey_race","30","","","I have a lot in common with people of a similar age to me.","filler"
"2423.2999999523163","","","html-slider-response","456","1257373","0.0-24.0-0.0-0.7","56410","List1A","white","man","","","","","","","","survey_race","76","","","I am glad to be my age.","filler"
"4124.899999976158","","","html-slider-response","457","1261498","0.0-24.0-0.0-0.8","56410","List1A","white","man","","","","","","","","survey_race","28","","","The fact that I am my race is an important part of my identity.","identity"
"2710.899999976158","","","html-slider-response","458","1264210","0.0-24.0-0.0-0.9","56410","List1A","white","man","","","","","","","","survey_race","26","","","I think that my race has a lot to be proud of.","proud"
"2719.4000000953674","","","html-slider-response","459","1266931","0.0-24.0-0.0-0.10","56410","List1A","white","man","","","","","","","","survey_race","72","","","I feel solidarity with people the same age as me.","filler"
"2790.5","","","html-slider-response","460","1269723","0.0-24.0-0.0-0.11","56410","List1A","white","man","","","","","","","","survey_race","81","","","People my age have a lot in common with each other.","filler"
"2087.399999976158","","","html-slider-response","461","1271811","0.0-24.0-0.0-0.12","56410","List1A","white","man","","","","","","","","survey_race","89","","","The older I get, the wiser I feel.","filler"
"2281.399999976158","","","html-slider-response","462","1274093","0.0-24.0-0.0-0.13","56410","List1A","white","man","","","","","","","","survey_race","55","","","I feel a bond with my race.","bond"
"3676.7999999523163","","","html-slider-response","463","1277770","0.0-24.0-0.0-0.14","56410","List1A","white","man","","","","","","","","survey_race","28","","","Getting older does not worry me.","filler"
"2982.6999999284744","","","html-slider-response","464","1280754","0.0-24.0-0.0-0.15","56410","List1A","white","man","","","","","","","","survey_race","73","","","People of my race have a lot in common with each other.","common"
"2288.899999976158","","","html-slider-response","465","1283044","0.0-24.0-0.0-0.16","56410","List1A","white","man","","","","","","","","survey_race","53","","","I feel solidarity with my race.","solidarity"
"1982.1000000238419","","","html-slider-response","466","1285027","0.0-24.0-0.0-0.17","56410","List1A","white","man","","","","","","","","survey_race","24","","","I feel committed to my race.","committed"
"2798.5","","","html-slider-response","467","1287826","0.0-24.0-0.0-0.18","56410","List1A","white","man","","","","","","","","survey_race","100","","","I often think about the fact that I am my age.","filler"
"2353.399999976158","","","html-slider-response","468","1290180","0.0-24.0-0.0-0.19","56410","List1A","white","man","","","","","","","","survey_race","25","","","Being my race gives me a good feeling.","feeling"
"2645.899999976158","","","html-slider-response","469","1292827","0.0-24.0-0.0-0.20","56410","List1A","white","man","","","","","","","","survey_race","76","","","I often think about the fact that I am my race.","often"
"3222","","","html-slider-response","470","1296050","0.0-24.0-0.0-0.21","56410","List1A","white","man","","","","","","","","survey_race","100","","","My age is not an important part of who I am.","filler"
"2095.7999999523163","","","html-slider-response","471","1298146","0.0-24.0-0.0-0.22","56410","List1A","white","man","","","","","","","","survey_race","72","","","I am glad to be the age I am.","filler"
"2399.2000000476837","","","html-slider-response","472","1300546","0.0-24.0-0.0-0.23","56410","List1A","white","man","","","","","","","","survey_race","24","","","Being my race is an important part of how I see myself.","important"
"2382.5","","","html-slider-response","473","1302930","0.0-24.0-0.0-0.24","56410","List1A","white","man","","","","","","","","survey_race","74","","","People of my race are very similar to each other.","verysimilar"
"2527.5","","","html-slider-response","474","1305458","0.0-24.0-0.0-0.25","56410","List1A","white","man","","","","","","","","survey_race","88","","","I have a lot in common with the average person of my race.","average"
"1921.5","","","html-slider-response","475","1307381","0.0-24.0-0.0-0.26","56410","List1A","white","man","","","","","","","","survey_race","100","","","I consider myself an introvert.","filler"
"2492.7999999523163","","","html-slider-response","476","1309874","0.0-24.0-0.0-0.27","56410","List1A","white","man","","","","","","","","survey_race","61","","","I am similar to the average person of my race.","similar"
"2783.1999999284744","","","html-slider-response","477","1312658","0.0-24.0-1.0-0.0","56410","List1A","white","man","","","","","","","","survey_gender","75","","","I often think about the fact that I am my gender.","often"
"2679","","","html-slider-response","478","1315338","0.0-24.0-1.0-0.1","56410","List1A","white","man","","","","","","","","survey_gender","19","","","The fact that I am my gender is an important part of my identity.","identity"
"2487.1999999284744","","","html-slider-response","479","1317826","0.0-24.0-1.0-0.2","56410","List1A","white","man","","","","","","","","survey_gender","71","","","I am glad to be my gender.","glad"
"4071.399999976158","","","html-slider-response","480","1321898","0.0-24.0-1.0-0.3","56410","List1A","white","man","","","","","","","","survey_gender","99","","","Family is not more important to me than friendship.","filler"
"3222.600000023842","","","html-slider-response","481","1325122","0.0-24.0-1.0-0.4","56410","List1A","white","man","","","","","","","","survey_gender","19","","","People of my gender are very similar to each other.","verysimilar"
