rt,stimulus,button_pressed,trial_type,trial_index,time_elapsed,internal_node_id,subject,list,ppt_race,ppt_gender,url,first_guess,correct,key_press,responses,image_type,phrase_type,test_part,response,stimulus1,stimulus2,question_type,survey_item
59751.2,Welcome to the experiment. Press Continue to begin.,0,html-button-response,0,59753,0.0-0.0,56833,List2A,white,man,,,,,,,,,,,,,
8377.7,,,external-html,1,70498,0.0-1.0,56833,List2A,white,man,consent.html,,,,,,,,,,,,
43155.1,"<p>On the next page, you will see portraits of 8 people and their names.</p><p>Your first task is to take a few minutes to memorise the names of these people.</p><p>You will have to recall their names during the rest of the experiment, so it is</p><p>essential that you try to memorise these people and their names as best as you can.</p><br><p><strong>You will then be tested on your memory of these names and portraits.</strong></p><br><p>The experiment will start after you have completed this memory test.</p><br><p>Ready?</p>",0,html-button-response,2,113654,0.0-2.0,56833,List2A,white,man,,,,,,,,,,,,,
81035.1,"<img src='img/portrait_matrix_list2.jpg' style='width:900px;height:500px;''></img><p>If you have memorised all the portraits and names and are ready to start, press Continue.</p><p><strong>Please note: Your memory of these faces will be tested 4 times during this experiment.</strong></p>",0,html-button-response,3,195697,0.0-3.0-0.0,56833,List2A,white,man,,,,,,,,,,,,,
7694,"<img src=""portrait/WW1.jpg""style=""height:400px;""></img>",1,html-button-response,4,204413,0.0-3.0-1.0,56833,List2A,white,man,,TRUE,1,,,,,,,,,,
null,CORRECT,,html-keyboard-response,5,205929,0.0-3.0-2.0-0.0,56833,List2A,white,man,,,,null,,,,,,,,,
6640.6,"<img src=""portrait/WM2.jpg""style=""height:400px;""></img>",7,html-button-response,6,212572,0.0-3.0-4.0,56833,List2A,white,man,,TRUE,7,,,,,,,,,,
null,CORRECT,,html-keyboard-response,7,214096,0.0-3.0-5.0-0.0,56833,List2A,white,man,,,,null,,,,,,,,,
6560.2,"<img src=""portrait/WM1.jpg""style=""height:400px;""></img>",6,html-button-response,8,220658,0.0-3.0-7.0,56833,List2A,white,man,,TRUE,6,,,,,,,,,,
null,CORRECT,,html-keyboard-response,9,222187,0.0-3.0-8.0-0.0,56833,List2A,white,man,,,,null,,,,,,,,,
5616.7,"<img src=""portrait/BW2.jpg""style=""height:400px;""></img>",2,html-button-response,10,227805,0.0-3.0-10.0,56833,List2A,white,man,,TRUE,2,,,,,,,,,,
null,CORRECT,,html-keyboard-response,11,229347,0.0-3.0-11.0-0.0,56833,List2A,white,man,,,,null,,,,,,,,,
5420.5,"<img src=""portrait/BM1.jpg""style=""height:400px;""></img>",4,html-button-response,12,234768,0.0-3.0-13.0,56833,List2A,white,man,,TRUE,4,,,,,,,,,,
null,CORRECT,,html-keyboard-response,13,236286,0.0-3.0-14.0-0.0,56833,List2A,white,man,,,,null,,,,,,,,,
5575.2,"<img src=""portrait/BW1.jpg""style=""height:400px;""></img>",0,html-button-response,14,241863,0.0-3.0-16.0,56833,List2A,white,man,,TRUE,0,,,,,,,,,,
null,CORRECT,,html-keyboard-response,15,243396,0.0-3.0-17.0-0.0,56833,List2A,white,man,,,,null,,,,,,,,,
5169.3,"<img src=""portrait/BM2.jpg""style=""height:400px;""></img>",5,html-button-response,16,248566,0.0-3.0-19.0,56833,List2A,white,man,,TRUE,5,,,,,,,,,,
null,CORRECT,,html-keyboard-response,17,250096,0.0-3.0-20.0-0.0,56833,List2A,white,man,,,,null,,,,,,,,,
5211.2,"<img src=""portrait/WW2.jpg""style=""height:400px;""></img>",3,html-button-response,18,255309,0.0-3.0-22.0,56833,List2A,white,man,,TRUE,3,,,,,,,,,,
null,CORRECT,,html-keyboard-response,19,256846,0.0-3.0-23.0-0.0,56833,List2A,white,man,,,,null,,,,,,,,,
1930.8,<p>You got 8 out of 8 right first time. Press Continue.</p>,0,html-button-response,20,258779,0.0-3.0-25.0,56833,List2A,white,man,,,,,,,,,,,,,
70740.3,"<p>In this experiment, you will view photographs of the people from the memory game interacting.</p><p>By using the <strong>exact</strong> phrase given <i>after</i> the photograph appears and recalling the correct names of the people in the photographs, form a sentence describing the interaction. You do not need to capitalise names.</p><p>Type your answer in the space provided. Please complete every sentence before moving onto the next trial.</p><p>You will only have a few seconds to memorise each given photograph and phrase before you can respond, so try your best to focus.</p><p>An example is given below. Press 'Continue' when you are ready.</p><img src='img/speaking_example.jpg' style='width:800px;height:460px;''></img>",0,html-button-response,21,330531,0.0-4.0,56833,List2A,white,man,,,,,,,,,,,,,
3295.2,"<p>Before the experiment starts, you will watch two example trials. Press 'Continue'.</p>",0,html-button-response,22,334833,0.0-5.0,56833,List2A,white,man,,,,,,,,,,,,,
null,<img src='img/play_eg.gif' style='height:400px;''></img>,,html-keyboard-response,23,337856,0.0-6.0,56833,List2A,white,man,,,,null,,,,,,,,,
null,<p>is playing with</p>,,html-keyboard-response,24,339877,0.0-7.0,56833,List2A,white,man,,,,null,,,,,,,,,
5068.2,<p><b>Answer:</b> jane is playing with ruth</p>,0,html-button-response,25,344946,0.0-8.0,56833,List2A,white,man,,,,,,,,,,,,,
null,<img src='img/dance_eg.gif' style='height:400px;''></img>,,html-keyboard-response,26,347976,0.0-9.0,56833,List2A,white,man,,,,null,,,,,,,,,
null,<p>is being entertained by</p>,,html-keyboard-response,27,349986,0.0-10.0,56833,List2A,white,man,,,,null,,,,,,,,,
11959.4,<p><b>Answer:</b> fred is being entertained by mike</p>,0,html-button-response,28,361947,0.0-11.0,56833,List2A,white,man,,,,,,,,,,,,,
21274.1,"<p>Ready to start the experiment?</p><br><p><strong>Remember to describe the picture using a full sentence,</strong></p><p><strong>that combines the names of the people with the <i>exact</i> phrase given.</strong></p><p><strong>To receive full payment you must do this correctly.</strong></p><p><strong> You do not need to capitalise names or use punctuation.</strong></p><br><p>Press 'Continue' to begin.</p>",0,html-button-response,29,384242,0.0-12.0,56833,List2A,white,man,,,,,,,,,,,,,
null,"<div style=""font-size:60px;"">+</div>",,html-keyboard-response,30,385767,0.0-13.0-0.0,56833,List2A,white,man,,,,null,,,,,,,,,
null,"<img src=""stim_listA/touch3.gif""style=""height:400px;""></stim_listA>",,html-keyboard-response,31,387787,0.0-13.0-1.0,56833,List2A,white,man,,,,null,,,,,,,,,
null,is touching,,html-keyboard-response,32,389797,0.0-13.0-2.0,56833,List2A,white,man,,,,null,,,,,,,,,
16334.8,,,survey-text,33,406136,0.0-13.0-3.0,56833,List2A,white,man,,,,,"{""Q0"":""mike is touching beth""}","<img src=""stim_listA/touch3.gif""style=""height:400px;""></stim_listA>",is touching,,,,,,
null,"<div style=""font-size:60px;"">+</div>",,html-keyboard-response,34,406656,0.0-13.0-0.1,56833,List2A,white,man,,,,null,,,,,,,,,
null,"<img src=""stim_listA/kiss5.gif""style=""height:400px;""></stim_listA>",,html-keyboard-response,35,408676,0.0-13.0-1.1,56833,List2A,white,man,,,,null,,,,,,,,,
null,is kissing,,html-keyboard-response,36,410687,0.0-13.0-2.1,56833,List2A,white,man,,,,null,,,,,,,,,
14881.7,,,survey-text,37,425571,0.0-13.0-3.1,56833,List2A,white,man,,,,,"{""Q0"":""fred is kissing luke""}","<img src=""stim_listA/kiss5.gif""style=""height:400px;""></stim_listA>",is kissing,,,,,,
null,"<div style=""font-size:60px;"">+</div>",,html-keyboard-response,38,426077,0.0-13.0-0.2,56833,List2A,white,man,,,,null,,,,,,,,,
null,"<img src=""stim_listA/oppose1.gif""style=""height:400px;""></stim_listA>",,html-keyboard-response,39,428097,0.0-13.0-1.2,56833,List2A,white,man,,,,null,,,,,,,,,
null,is opposing,,html-keyboard-response,40,430106,0.0-13.0-2.2,56833,List2A,white,man,,,,null,,,,,,,,,
28339.6,,,survey-text,41,458449,0.0-13.0-3.2,56833,List2A,white,man,,,,,"{""Q0"":""mike is opposing jane""}","<img src=""stim_listA/oppose1.gif""style=""height:400px;""></stim_listA>",is opposing,,,,,,
null,"<div style=""font-size:60px;"">+</div>",,html-keyboard-response,42,458966,0.0-13.0-0.3,56833,List2A,white,man,,,,null,,,,,,,,,
null,"<img src=""stim_listA/shout3.gif""style=""height:400px;""></stim_listA>",,html-keyboard-response,43,460986,0.0-13.0-1.3,56833,List2A,white,man,,,,null,,,,,,,,,
null,is shouting at,,html-keyboard-response,44,463007,0.0-13.0-2.3,56833,List2A,white,man,,,,null,,,,,,,,,
15426.8,,,survey-text,45,478437,0.0-13.0-3.3,56833,List2A,white,man,,,,,"{""Q0"":""fred is shouting at beth""}","<img src=""stim_listA/shout3.gif""style=""height:400px;""></stim_listA>",is shouting at,,,,,,
null,"<div style=""font-size:60px;"">+</div>",,html-keyboard-response,46,478941,0.0-13.0-0.4,56833,List2A,white,man,,,,null,,,,,,,,,
null,"<img src=""stim_listA/seduce8.gif""style=""height:400px;""></stim_listA>",,html-keyboard-response,47,480946,0.0-13.0-1.4,56833,List2A,white,man,,,,null,,,,,,,,,
null,is being seduced by,,html-keyboard-response,48,482948,0.0-13.0-2.4,56833,List2A,white,man,,,,null,,,,,,,,,
32780.7,,,survey-text,49,515732,0.0-13.0-3.4,56833,List2A,white,man,,,,,"{""Q0"":""kate is fletting with ruth""}","<img src=""stim_listA/seduce8.gif""style=""height:400px;""></stim_listA>",is being seduced by,,,,,,
null,"<div style=""font-size:60px;"">+</div>",,html-keyboard-response,50,516244,0.0-13.0-0.5,56833,List2A,white,man,,,,null,,,,,,,,,
null,"<img src=""stim_listA/oppose4.gif""style=""height:400px;""></stim_listA>",,html-keyboard-response,51,518246,0.0-13.0-1.5,56833,List2A,white,man,,,,null,,,,,,,,,
null,is being opposed by,,html-keyboard-response,52,520266,0.0-13.0-2.5,56833,List2A,white,man,,,,null,,,,,,,,,
19346.9,,,survey-text,53,539615,0.0-13.0-3.5,56833,List2A,white,man,,,,,"{""Q0"":""fred is opposed by kate ""}","<img src=""stim_listA/oppose4.gif""style=""height:400px;""></stim_listA>",is being opposed by,,,,,,
null,"<div style=""font-size:60px;"">+</div>",,html-keyboard-response,54,540126,0.0-13.0-0.6,56833,List2A,white,man,,,,null,,,,,,,,,
null,"<img src=""stim_listA/shout1.gif""style=""height:400px;""></stim_listA>",,html-keyboard-response,55,542136,0.0-13.0-1.6,56833,List2A,white,man,,,,null,,,,,,,,,
null,is shouting at,,html-keyboard-response,56,544146,0.0-13.0-2.6,56833,List2A,white,man,,,,null,,,,,,,,,
21105.2,,,survey-text,57,565254,0.0-13.0-3.6,56833,List2A,white,man,,,,,"{""Q0"":""luke is shouting at ruth""}","<img src=""stim_listA/shout1.gif""style=""height:400px;""></stim_listA>",is shouting at,,,,,,
null,"<div style=""font-size:60px;"">+</div>",,html-keyboard-response,58,565756,0.0-13.0-0.7,56833,List2A,white,man,,,,null,,,,,,,,,
null,"<img src=""stim_listA/oppose6.gif""style=""height:400px;""></stim_listA>",,html-keyboard-response,59,567776,0.0-13.0-1.7,56833,List2A,white,man,,,,null,,,,,,,,,
null,is being opposed by,,html-keyboard-response,60,569786,0.0-13.0-2.7,56833,List2A,white,man,,,,null,,,,,,,,,
56616.5,,,survey-text,61,626406,0.0-13.0-3.7,56833,List2A,white,man,,,,,"{""Q0"":""luke is opposed by fred""}","<img src=""stim_listA/oppose6.gif""style=""height:400px;""></stim_listA>",is being opposed by,,,,,,
null,"<div style=""font-size:60px;"">+</div>",,html-keyboard-response,62,626907,0.0-13.0-0.8,56833,List2A,white,man,,,,null,,,,,,,,,
null,"<img src=""stim_listA/touch5.gif""style=""height:400px;""></stim_listA>",,html-keyboard-response,63,628926,0.0-13.0-1.8,56833,List2A,white,man,,,,null,,,,,,,,,
null,is touching,,html-keyboard-response,64,630946,0.0-13.0-2.8,56833,List2A,white,man,,,,null,,,,,,,,,
12002.7,,,survey-text,65,642952,0.0-13.0-3.8,56833,List2A,white,man,,,,,"{""Q0"":""dave is touching mike""}","<img src=""stim_listA/touch5.gif""style=""height:400px;""></stim_listA>",is touching,,,,,,
null,"<div style=""font-size:60px;"">+</div>",,html-keyboard-response,66,643466,0.0-13.0-0.9,56833,List2A,white,man,,,,null,,,,,,,,,
null,"<img src=""stim_listA/touch6.gif""style=""height:400px;""></stim_listA>",,html-keyboard-response,67,645476,0.0-13.0-1.9,56833,List2A,white,man,,,,null,,,,,,,,,
null,is being touched by,,html-keyboard-response,68,647487,0.0-13.0-2.9,56833,List2A,white,man,,,,null,,,,,,,,,
18229.4,,,survey-text,69,665720,0.0-13.0-3.9,56833,List2A,white,man,,,,,"{""Q0"":""luke is touching fred""}","<img src=""stim_listA/touch6.gif""style=""height:400px;""></stim_listA>",is being touched by,,,,,,
null,"<div style=""font-size:60px;"">+</div>",,html-keyboard-response,70,666236,0.0-13.0-0.10,56833,List2A,white,man,,,,null,,,,,,,,,
null,"<img src=""stim_listA/copy1.gif""style=""height:400px;""></stim_listA>",,html-keyboard-response,71,668256,0.0-13.0-1.10,56833,List2A,white,man,,,,null,,,,,,,,,
null,is copying,,html-keyboard-response,72,670266,0.0-13.0-2.10,56833,List2A,white,man,,,,null,,,,,,,,,
12055.5,,,survey-text,73,682324,0.0-13.0-3.10,56833,List2A,white,man,,,,,"{""Q0"":""dave is copying ruth ""}","<img src=""stim_listA/copy1.gif""style=""height:400px;""></stim_listA>",is copying,,,,,,
null,"<div style=""font-size:60px;"">+</div>",,html-keyboard-response,74,682826,0.0-13.0-0.11,56833,List2A,white,man,,,,null,,,,,,,,,
null,"<img src=""stim_listA/seduce5.gif""style=""height:400px;""></stim_listA>",,html-keyboard-response,75,684847,0.0-13.0-1.11,56833,List2A,white,man,,,,null,,,,,,,,,
null,is seducing,,html-keyboard-response,76,686857,0.0-13.0-2.11,56833,List2A,white,man,,,,null,,,,,,,,,
20505.3,,,survey-text,77,707365,0.0-13.0-3.11,56833,List2A,white,man,,,,,"{""Q0"":""luke is seducing mike""}","<img src=""stim_listA/seduce5.gif""style=""height:400px;""></stim_listA>",is seducing,,,,,,
null,"<div style=""font-size:60px;"">+</div>",,html-keyboard-response,78,707867,0.0-13.0-0.12,56833,List2A,white,man,,,,null,,,,,,,,,
null,"<img src=""stim_listA/copy8.gif""style=""height:400px;""></stim_listA>",,html-keyboard-response,79,709877,0.0-13.0-1.12,56833,List2A,white,man,,,,null,,,,,,,,,
null,is being copied by,,html-keyboard-response,80,711897,0.0-13.0-2.12,56833,List2A,white,man,,,,null,,,,,,,,,
32725.3,,,survey-text,81,744625,0.0-13.0-3.12,56833,List2A,white,man,,,,,"{""Q0"":""ruth is touching kate""}","<img src=""stim_listA/copy8.gif""style=""height:400px;""></stim_listA>",is being copied by,,,,,,
null,"<div style=""font-size:60px;"">+</div>",,html-keyboard-response,82,745127,0.0-13.0-0.13,56833,List2A,white,man,,,,null,,,,,,,,,
null,"<img src=""stim_listA/look7.gif""style=""height:400px;""></stim_listA>",,html-keyboard-response,83,747147,0.0-13.0-1.13,56833,List2A,white,man,,,,null,,,,,,,,,
null,is looking at,,html-keyboard-response,84,749162,0.0-13.0-2.13,56833,List2A,white,man,,,,null,,,,,,,,,
27956.5,,,survey-text,85,777120,0.0-13.0-3.13,56833,List2A,white,man,,,,,"{""Q0"":""beth is looking at kate""}","<img src=""stim_listA/look7.gif""style=""height:400px;""></stim_listA>",is looking at,,,,,,
null,"<div style=""font-size:60px;"">+</div>",,html-keyboard-response,86,777627,0.0-13.0-0.14,56833,List2A,white,man,,,,null,,,,,,,,,
null,"<img src=""stim_listA/look8.gif""style=""height:400px;""></stim_listA>",,html-keyboard-response,87,779649,0.0-13.0-1.14,56833,List2A,white,man,,,,null,,,,,,,,,
null,is being looked at by,,html-keyboard-response,88,781667,0.0-13.0-2.14,56833,List2A,white,man,,,,null,,,,,,,,,
17182.2,,,survey-text,89,798853,0.0-13.0-3.14,56833,List2A,white,man,,,,,"{""Q0"":""jane is being looked at by kate""}","<img src=""stim_listA/look8.gif""style=""height:400px;""></stim_listA>",is being looked at by,,,,,,
null,"<div style=""font-size:60px;"">+</div>",,html-keyboard-response,90,799357,0.0-13.0-0.15,56833,List2A,white,man,,,,null,,,,,,,,,
null,"<img src=""stim_listA/hug6.gif""style=""height:400px;""></stim_listA>",,html-keyboard-response,91,801367,0.0-13.0-1.15,56833,List2A,white,man,,,,null,,,,,,,,,
null,is being hugged by,,html-keyboard-response,92,803387,0.0-13.0-2.15,56833,List2A,white,man,,,,null,,,,,,,,,
16055.8,,,survey-text,93,819445,0.0-13.0-3.15,56833,List2A,white,man,,,,,"{""Q0"":""dave is being hugged by mike""}","<img src=""stim_listA/hug6.gif""style=""height:400px;""></stim_listA>",is being hugged by,,,,,,
null,"<div style=""font-size:60px;"">+</div>",,html-keyboard-response,94,819966,0.0-13.0-0.16,56833,List2A,white,man,,,,null,,,,,,,,,
null,"<img src=""stim_listA/seduce2.gif""style=""height:400px;""></stim_listA>",,html-keyboard-response,95,821971,0.0-13.0-1.16,56833,List2A,white,man,,,,null,,,,,,,,,
null,is being seduced by,,html-keyboard-response,96,823986,0.0-13.0-2.16,56833,List2A,white,man,,,,null,,,,,,,,,
13193.1,,,survey-text,97,837183,0.0-13.0-3.16,56833,List2A,white,man,,,,,"{""Q0"":""dave is being seduced by ruth ""}","<img src=""stim_listA/seduce2.gif""style=""height:400px;""></stim_listA>",is being seduced by,,,,,,
null,"<div style=""font-size:60px;"">+</div>",,html-keyboard-response,98,837687,0.0-13.0-0.17,56833,List2A,white,man,,,,null,,,,,,,,,
null,"<img src=""stim_listA/greet4.gif""style=""height:400px;""></stim_listA>",,html-keyboard-response,99,839706,0.0-13.0-1.17,56833,List2A,white,man,,,,null,,,,,,,,,
null,is being greeted by,,html-keyboard-response,100,841716,0.0-13.0-2.17,56833,List2A,white,man,,,,null,,,,,,,,,
17407.9,,,survey-text,101,859128,0.0-13.0-3.17,56833,List2A,white,man,,,,,"{""Q0"":""fred is being greeted by kate""}","<img src=""stim_listA/greet4.gif""style=""height:400px;""></stim_listA>",is being greeted by,,,,,,
null,"<div style=""font-size:60px;"">+</div>",,html-keyboard-response,102,859636,0.0-13.0-0.18,56833,List2A,white,man,,,,null,,,,,,,,,
null,"<img src=""stim_listA/oppose8.gif""style=""height:400px;""></stim_listA>",,html-keyboard-response,103,861656,0.0-13.0-1.18,56833,List2A,white,man,,,,null,,,,,,,,,
null,is being opposed by,,html-keyboard-response,104,863667,0.0-13.0-2.18,56833,List2A,white,man,,,,null,,,,,,,,,
16827.5,,,survey-text,105,880497,0.0-13.0-3.18,56833,List2A,white,man,,,,,"{""Q0"":""beth is being opposed by ruth""}","<img src=""stim_listA/oppose8.gif""style=""height:400px;""></stim_listA>",is being opposed by,,,,,,
null,"<div style=""font-size:60px;"">+</div>",,html-keyboard-response,106,881018,0.0-13.0-0.19,56833,List2A,white,man,,,,null,,,,,,,,,
null,"<img src=""stim_listA/kiss2.gif""style=""height:400px;""></stim_listA>",,html-keyboard-response,107,883026,0.0-13.0-1.19,56833,List2A,white,man,,,,null,,,,,,,,,
null,is being kissed by,,html-keyboard-response,108,885036,0.0-13.0-2.19,56833,List2A,white,man,,,,null,,,,,,,,,
19557.8,,,survey-text,109,904597,0.0-13.0-3.19,56833,List2A,white,man,,,,,"{""Q0"":""dave is being kissed by jane""}","<img src=""stim_listA/kiss2.gif""style=""height:400px;""></stim_listA>",is being kissed by,,,,,,
41155.6,"<img src='img/portrait_matrix_list2.jpg' style='width:900px;height:500px;''></img><p>If you have memorised all the portraits and names and are ready to start, press Continue.</p><p><strong>Please note: Your memory of these faces will be tested 4 times during this experiment.</strong></p>",0,html-button-response,110,945755,0.0-14.0-0.0,56833,List2A,white,man,,,,,,,,,,,,,
4621,"<img src=""portrait/WW2.jpg""style=""height:400px;""></img>",3,html-button-response,111,951379,0.0-14.0-1.0,56833,List2A,white,man,,TRUE,3,,,,,,,,,,
null,CORRECT,,html-keyboard-response,112,952919,0.0-14.0-2.0-0.0,56833,List2A,white,man,,,,null,,,,,,,,,
4058.9,"<img src=""portrait/BW2.jpg""style=""height:400px;""></img>",2,html-button-response,113,956979,0.0-14.0-4.0,56833,List2A,white,man,,TRUE,2,,,,,,,,,,
null,CORRECT,,html-keyboard-response,114,958507,0.0-14.0-5.0-0.0,56833,List2A,white,man,,,,null,,,,,,,,,
4467.7,"<img src=""portrait/BM2.jpg""style=""height:400px;""></img>",5,html-button-response,115,962976,0.0-14.0-7.0,56833,List2A,white,man,,TRUE,5,,,,,,,,,,
null,CORRECT,,html-keyboard-response,116,964507,0.0-14.0-8.0-0.0,56833,List2A,white,man,,,,null,,,,,,,,,
1881.3,"<img src=""portrait/BM1.jpg""style=""height:400px;""></img>",4,html-button-response,117,966390,0.0-14.0-10.0,56833,List2A,white,man,,TRUE,4,,,,,,,,,,
null,CORRECT,,html-keyboard-response,118,967927,0.0-14.0-11.0-0.0,56833,List2A,white,man,,,,null,,,,,,,,,
9369.8,"<img src=""portrait/WM1.jpg""style=""height:400px;""></img>",6,html-button-response,119,977298,0.0-14.0-13.0,56833,List2A,white,man,,TRUE,6,,,,,,,,,,
null,CORRECT,,html-keyboard-response,120,978826,0.0-14.0-14.0-0.0,56833,List2A,white,man,,,,null,,,,,,,,,
7410.8,"<img src=""portrait/WW1.jpg""style=""height:400px;""></img>",1,html-button-response,121,986239,0.0-14.0-16.0,56833,List2A,white,man,,TRUE,1,,,,,,,,,,
null,CORRECT,,html-keyboard-response,122,987755,0.0-14.0-17.0-0.0,56833,List2A,white,man,,,,null,,,,,,,,,
7310.5,"<img src=""portrait/BW1.jpg""style=""height:400px;""></img>",0,html-button-response,123,995067,0.0-14.0-19.0,56833,List2A,white,man,,TRUE,0,,,,,,,,,,
null,CORRECT,,html-keyboard-response,124,996606,0.0-14.0-20.0-0.0,56833,List2A,white,man,,,,null,,,,,,,,,
4774.7,"<img src=""portrait/WM2.jpg""style=""height:400px;""></img>",7,html-button-response,125,1001383,0.0-14.0-22.0,56833,List2A,white,man,,TRUE,7,,,,,,,,,,
null,CORRECT,,html-keyboard-response,126,1002917,0.0-14.0-23.0-0.0,56833,List2A,white,man,,,,null,,,,,,,,,
2158.3,<p>You got 8 out of 8 right first time. Press Continue.</p>,0,html-button-response,127,1005077,0.0-14.0-25.0,56833,List2A,white,man,,,,,,,,,,,,,
null,"<div style=""font-size:60px;"">+</div>",,html-keyboard-response,128,1006617,0.0-15.0-0.0,56833,List2A,white,man,,,,null,,,,,,,,,
null,"<img src=""stim_listA/kiss8.gif""style=""height:400px;""></stim_listA>",,html-keyboard-response,129,1008627,0.0-15.0-1.0,56833,List2A,white,man,,,,null,,,,,,,,,
null,is being kissed by,,html-keyboard-response,130,1010647,0.0-15.0-2.0,56833,List2A,white,man,,,,null,,,,,,,,,
18997,,,survey-text,131,1029646,0.0-15.0-3.0,56833,List2A,white,man,,,,,"{""Q0"":""ruth is being kissed by kate""}","<img src=""stim_listA/kiss8.gif""style=""height:400px;""></stim_listA>",is being kissed by,,,,,,
null,"<div style=""font-size:60px;"">+</div>",,html-keyboard-response,132,1030168,0.0-15.0-0.1,56833,List2A,white,man,,,,null,,,,,,,,,
null,"<img src=""stim_listA/hug3.gif""style=""height:400px;""></stim_listA>",,html-keyboard-response,133,1032177,0.0-15.0-1.1,56833,List2A,white,man,,,,null,,,,,,,,,
null,is hugging,,html-keyboard-response,134,1034197,0.0-15.0-2.1,56833,List2A,white,man,,,,null,,,,,,,,,
11986.1,,,survey-text,135,1046187,0.0-15.0-3.1,56833,List2A,white,man,,,,,"{""Q0"":""beth is hugging fred""}","<img src=""stim_listA/hug3.gif""style=""height:400px;""></stim_listA>",is hugging,,,,,,
null,"<div style=""font-size:60px;"">+</div>",,html-keyboard-response,136,1046707,0.0-15.0-0.2,56833,List2A,white,man,,,,null,,,,,,,,,
null,"<img src=""stim_listA/kiss6.gif""style=""height:400px;""></stim_listA>",,html-keyboard-response,137,1048727,0.0-15.0-1.2,56833,List2A,white,man,,,,null,,,,,,,,,
null,is being kissed by,,html-keyboard-response,138,1050732,0.0-15.0-2.2,56833,List2A,white,man,,,,null,,,,,,,,,
12231.3,,,survey-text,139,1062966,0.0-15.0-3.2,56833,List2A,white,man,,,,,"{""Q0"":""mike is being kissed by dave""}","<img src=""stim_listA/kiss6.gif""style=""height:400px;""></stim_listA>",is being kissed by,,,,,,
null,"<div style=""font-size:60px;"">+</div>",,html-keyboard-response,140,1063487,0.0-15.0-0.3,56833,List2A,white,man,,,,null,,,,,,,,,
null,"<img src=""stim_listA/seduce4.gif""style=""height:400px;""></stim_listA>",,html-keyboard-response,141,1065507,0.0-15.0-1.3,56833,List2A,white,man,,,,null,,,,,,,,,
null,is being seduced by,,html-keyboard-response,142,1067527,0.0-15.0-2.3,56833,List2A,white,man,,,,null,,,,,,,,,
16637.2,,,survey-text,143,1084167,0.0-15.0-3.3,56833,List2A,white,man,,,,,"{""Q0"":""mike is being seduced by beth""}","<img src=""stim_listA/seduce4.gif""style=""height:400px;""></stim_listA>",is being seduced by,,,,,,
null,"<div style=""font-size:60px;"">+</div>",,html-keyboard-response,144,1084687,0.0-15.0-0.4,56833,List2A,white,man,,,,null,,,,,,,,,
null,"<img src=""stim_listA/hug7.gif""style=""height:400px;""></stim_listA>",,html-keyboard-response,145,1086697,0.0-15.0-1.4,56833,List2A,white,man,,,,null,,,,,,,,,
null,is hugging,,html-keyboard-response,146,1088716,0.0-15.0-2.4,56833,List2A,white,man,,,,null,,,,,,,,,
13090.6,,,survey-text,147,1101808,0.0-15.0-3.4,56833,List2A,white,man,,,,,"{""Q0"":""beth is hugging ruth""}","<img src=""stim_listA/hug7.gif""style=""height:400px;""></stim_listA>",is hugging,,,,,,
null,"<div style=""font-size:60px;"">+</div>",,html-keyboard-response,148,1102317,0.0-15.0-0.5,56833,List2A,white,man,,,,null,,,,,,,,,
null,"<img src=""stim_listA/look5.gif""style=""height:400px;""></stim_listA>",,html-keyboard-response,149,1104326,0.0-15.0-1.5,56833,List2A,white,man,,,,null,,,,,,,,,
null,is looking at,,html-keyboard-response,150,1106347,0.0-15.0-2.5,56833,List2A,white,man,,,,null,,,,,,,,,
14623.9,,,survey-text,151,1120972,0.0-15.0-3.5,56833,List2A,white,man,,,,,"{""Q0"":""luke is looking at fred""}","<img src=""stim_listA/look5.gif""style=""height:400px;""></stim_listA>",is looking at,,,,,,
null,"<div style=""font-size:60px;"">+</div>",,html-keyboard-response,152,1121477,0.0-15.0-0.6,56833,List2A,white,man,,,,null,,,,,,,,,
null,"<img src=""stim_listA/seduce1.gif""style=""height:400px;""></stim_listA>",,html-keyboard-response,153,1123497,0.0-15.0-1.6,56833,List2A,white,man,,,,null,,,,,,,,,
null,is seducing,,html-keyboard-response,154,1125517,0.0-15.0-2.6,56833,List2A,white,man,,,,null,,,,,,,,,
20206.8,,,survey-text,155,1145727,0.0-15.0-3.6,56833,List2A,white,man,,,,,"{""Q0"":""luke is looking at jane""}","<img src=""stim_listA/seduce1.gif""style=""height:400px;""></stim_listA>",is seducing,,,,,,
null,"<div style=""font-size:60px;"">+</div>",,html-keyboard-response,156,1146246,0.0-15.0-0.7,56833,List2A,white,man,,,,null,,,,,,,,,
null,"<img src=""stim_listA/challenge2.gif""style=""height:400px;""></stim_listA>",,html-keyboard-response,157,1148256,0.0-15.0-1.7,56833,List2A,white,man,,,,null,,,,,,,,,
null,is being challenged by,,html-keyboard-response,158,1150271,0.0-15.0-2.7,56833,List2A,white,man,,,,null,,,,,,,,,
17803.4,,,survey-text,159,1168078,0.0-15.0-3.7,56833,List2A,white,man,,,,,"{""Q0"":""luke is being challenged by jane ""}","<img src=""stim_listA/challenge2.gif""style=""height:400px;""></stim_listA>",is being challenged by,,,,,,
null,"<div style=""font-size:60px;"">+</div>",,html-keyboard-response,160,1168586,0.0-15.0-0.8,56833,List2A,white,man,,,,null,,,,,,,,,
null,"<img src=""stim_listA/copy7.gif""style=""height:400px;""></stim_listA>",,html-keyboard-response,161,1170606,0.0-15.0-1.8,56833,List2A,white,man,,,,null,,,,,,,,,
null,is copying,,html-keyboard-response,162,1172616,0.0-15.0-2.8,56833,List2A,white,man,,,,null,,,,,,,,,
15237.1,,,survey-text,163,1187854,0.0-15.0-3.8,56833,List2A,white,man,,,,,"{""Q0"":""beth is copying jane""}","<img src=""stim_listA/copy7.gif""style=""height:400px;""></stim_listA>",is copying,,,,,,
null,"<div style=""font-size:60px;"">+</div>",,html-keyboard-response,164,1188367,0.0-15.0-0.9,56833,List2A,white,man,,,,null,,,,,,,,,
null,"<img src=""stim_listA/look3.gif""style=""height:400px;""></stim_listA>",,html-keyboard-response,165,1190386,0.0-15.0-1.9,56833,List2A,white,man,,,,null,,,,,,,,,
null,is looking at,,html-keyboard-response,166,1192407,0.0-15.0-2.9,56833,List2A,white,man,,,,null,,,,,,,,,
13732,,,survey-text,167,1206142,0.0-15.0-3.9,56833,List2A,white,man,,,,,"{""Q0"":""beth is looking at fred ""}","<img src=""stim_listA/look3.gif""style=""height:400px;""></stim_listA>",is looking at,,,,,,
null,"<div style=""font-size:60px;"">+</div>",,html-keyboard-response,168,1206647,0.0-15.0-0.10,56833,List2A,white,man,,,,null,,,,,,,,,
null,"<img src=""stim_listA/look6.gif""style=""height:400px;""></stim_listA>",,html-keyboard-response,169,1208667,0.0-15.0-1.10,56833,List2A,white,man,,,,null,,,,,,,,,
null,is being looked at by,,html-keyboard-response,170,1210677,0.0-15.0-2.10,56833,List2A,white,man,,,,null,,,,,,,,,
19610.9,,,survey-text,171,1230291,0.0-15.0-3.10,56833,List2A,white,man,,,,,"{""Q0"":""mike is being looked at by dave""}","<img src=""stim_listA/look6.gif""style=""height:400px;""></stim_listA>",is being looked at by,,,,,,
null,"<div style=""font-size:60px;"">+</div>",,html-keyboard-response,172,1230797,0.0-15.0-0.11,56833,List2A,white,man,,,,null,,,,,,,,,
null,"<img src=""stim_listA/greet8.gif""style=""height:400px;""></stim_listA>",,html-keyboard-response,173,1232807,0.0-15.0-1.11,56833,List2A,white,man,,,,null,,,,,,,,,
null,is being greeted by,,html-keyboard-response,174,1234826,0.0-15.0-2.11,56833,List2A,white,man,,,,null,,,,,,,,,
12605.9,,,survey-text,175,1247435,0.0-15.0-3.11,56833,List2A,white,man,,,,,"{""Q0"":""beth is being greeted by ruth ""}","<img src=""stim_listA/greet8.gif""style=""height:400px;""></stim_listA>",is being greeted by,,,,,,
null,"<div style=""font-size:60px;"">+</div>",,html-keyboard-response,176,1247946,0.0-15.0-0.12,56833,List2A,white,man,,,,null,,,,,,,,,
null,"<img src=""stim_listA/kiss1.gif""style=""height:400px;""></stim_listA>",,html-keyboard-response,177,1249957,0.0-15.0-1.12,56833,List2A,white,man,,,,null,,,,,,,,,
null,is kissing,,html-keyboard-response,178,1251978,0.0-15.0-2.12,56833,List2A,white,man,,,,null,,,,,,,,,
19140.3,,,survey-text,179,1271120,0.0-15.0-3.12,56833,List2A,white,man,,,,,"{""Q0"":""ruth is kissing luke ""}","<img src=""stim_listA/kiss1.gif""style=""height:400px;""></stim_listA>",is kissing,,,,,,
null,"<div style=""font-size:60px;"">+</div>",,html-keyboard-response,180,1271637,0.0-15.0-0.13,56833,List2A,white,man,,,,null,,,,,,,,,
null,"<img src=""stim_listA/touch1.gif""style=""height:400px;""></stim_listA>",,html-keyboard-response,181,1273647,0.0-15.0-1.13,56833,List2A,white,man,,,,null,,,,,,,,,
null,is touching,,html-keyboard-response,182,1275657,0.0-15.0-2.13,56833,List2A,white,man,,,,null,,,,,,,,,
11617.3,,,survey-text,183,1287278,0.0-15.0-3.13,56833,List2A,white,man,,,,,"{""Q0"":""jane is touching dave ""}","<img src=""stim_listA/touch1.gif""style=""height:400px;""></stim_listA>",is touching,,,,,,
null,"<div style=""font-size:60px;"">+</div>",,html-keyboard-response,184,1287797,0.0-15.0-0.14,56833,List2A,white,man,,,,null,,,,,,,,,
null,"<img src=""stim_listA/greet3.gif""style=""height:400px;""></stim_listA>",,html-keyboard-response,185,1289817,0.0-15.0-1.14,56833,List2A,white,man,,,,null,,,,,,,,,
null,is greeting,,html-keyboard-response,186,1291838,0.0-15.0-2.14,56833,List2A,white,man,,,,null,,,,,,,,,
17520.7,,,survey-text,187,1309362,0.0-15.0-3.14,56833,List2A,white,man,,,,,"{""Q0"":""mike is touching beth""}","<img src=""stim_listA/greet3.gif""style=""height:400px;""></stim_listA>",is greeting,,,,,,
null,"<div style=""font-size:60px;"">+</div>",,html-keyboard-response,188,1309868,0.0-15.0-0.15,56833,List2A,white,man,,,,null,,,,,,,,,
null,"<img src=""stim_listA/kiss4.gif""style=""height:400px;""></stim_listA>",,html-keyboard-response,189,1311887,0.0-15.0-1.15,56833,List2A,white,man,,,,null,,,,,,,,,
null,is being kissed by,,html-keyboard-response,190,1313902,0.0-15.0-2.15,56833,List2A,white,man,,,,null,,,,,,,,,
13909.6,,,survey-text,191,1327815,0.0-15.0-3.15,56833,List2A,white,man,,,,,"{""Q0"":""kate is being kissed by mike""}","<img src=""stim_listA/kiss4.gif""style=""height:400px;""></stim_listA>",is being kissed by,,,,,,
null,"<div style=""font-size:60px;"">+</div>",,html-keyboard-response,192,1328317,0.0-15.0-0.16,56833,List2A,white,man,,,,null,,,,,,,,,
null,"<img src=""stim_listA/challenge6.gif""style=""height:400px;""></stim_listA>",,html-keyboard-response,193,1330327,0.0-15.0-1.16,56833,List2A,white,man,,,,null,,,,,,,,,
null,is being challenged by,,html-keyboard-response,194,1332347,0.0-15.0-2.16,56833,List2A,white,man,,,,null,,,,,,,,,
12520.2,,,survey-text,195,1344871,0.0-15.0-3.16,56833,List2A,white,man,,,,,"{""Q0"":""mike and luke""}","<img src=""stim_listA/challenge6.gif""style=""height:400px;""></stim_listA>",is being challenged by,,,,,,
null,"<div style=""font-size:60px;"">+</div>",,html-keyboard-response,196,1345377,0.0-15.0-0.17,56833,List2A,white,man,,,,null,,,,,,,,,
null,"<img src=""stim_listA/challenge8.gif""style=""height:400px;""></stim_listA>",,html-keyboard-response,197,1347397,0.0-15.0-1.17,56833,List2A,white,man,,,,null,,,,,,,,,
null,is being challenged by,,html-keyboard-response,198,1349407,0.0-15.0-2.17,56833,List2A,white,man,,,,null,,,,,,,,,
14804.9,,,survey-text,199,1364216,0.0-15.0-3.17,56833,List2A,white,man,,,,,"{""Q0"":""kate is being challenged by ruth""}","<img src=""stim_listA/challenge8.gif""style=""height:400px;""></stim_listA>",is being challenged by,,,,,,
null,"<div style=""font-size:60px;"">+</div>",,html-keyboard-response,200,1364727,0.0-15.0-0.18,56833,List2A,white,man,,,,null,,,,,,,,,
null,"<img src=""stim_listA/kiss7.gif""style=""height:400px;""></stim_listA>",,html-keyboard-response,201,1366746,0.0-15.0-1.18,56833,List2A,white,man,,,,null,,,,,,,,,
null,is kissing,,html-keyboard-response,202,1368756,0.0-15.0-2.18,56833,List2A,white,man,,,,null,,,,,,,,,
13069.2,,,survey-text,203,1381829,0.0-15.0-3.18,56833,List2A,white,man,,,,,"{""Q0"":""beth is being kissed by ruth""}","<img src=""stim_listA/kiss7.gif""style=""height:400px;""></stim_listA>",is kissing,,,,,,
null,"<div style=""font-size:60px;"">+</div>",,html-keyboard-response,204,1382347,0.0-15.0-0.19,56833,List2A,white,man,,,,null,,,,,,,,,
null,"<img src=""stim_listA/look1.gif""style=""height:400px;""></stim_listA>",,html-keyboard-response,205,1384356,0.0-15.0-1.19,56833,List2A,white,man,,,,null,,,,,,,,,
null,is looking at,,html-keyboard-response,206,1386376,0.0-15.0-2.19,56833,List2A,white,man,,,,null,,,,,,,,,
13012.4,,,survey-text,207,1399393,0.0-15.0-3.19,56833,List2A,white,man,,,,,"{""Q0"":""beth is looking at luke""}","<img src=""stim_listA/look1.gif""style=""height:400px;""></stim_listA>",is looking at,,,,,,
12827.1,"<img src='img/portrait_matrix_list2.jpg' style='width:900px;height:500px;''></img><p>If you have memorised all the portraits and names and are ready to start, press Continue.</p><p><strong>Please note: Your memory of these faces will be tested 4 times during this experiment.</strong></p>",0,html-button-response,208,1412222,0.0-16.0-0.0,56833,List2A,white,man,,,,,,,,,,,,,
7035.7,"<img src=""portrait/BW1.jpg""style=""height:400px;""></img>",0,html-button-response,209,1420274,0.0-16.0-1.0,56833,List2A,white,man,,TRUE,0,,,,,,,,,,
null,CORRECT,,html-keyboard-response,210,1421796,0.0-16.0-2.0-0.0,56833,List2A,white,man,,,,null,,,,,,,,,
1970.9,"<img src=""portrait/WM2.jpg""style=""height:400px;""></img>",7,html-button-response,211,1423769,0.0-16.0-4.0,56833,List2A,white,man,,TRUE,7,,,,,,,,,,
null,CORRECT,,html-keyboard-response,212,1425287,0.0-16.0-5.0-0.0,56833,List2A,white,man,,,,null,,,,,,,,,
1726.4,"<img src=""portrait/BM1.jpg""style=""height:400px;""></img>",4,html-button-response,213,1427016,0.0-16.0-7.0,56833,List2A,white,man,,TRUE,4,,,,,,,,,,
null,CORRECT,,html-keyboard-response,214,1428546,0.0-16.0-8.0-0.0,56833,List2A,white,man,,,,null,,,,,,,,,
3100.7,"<img src=""portrait/WM1.jpg""style=""height:400px;""></img>",5,html-button-response,215,1431649,0.0-16.0-10.0,56833,List2A,white,man,,TRUE,6,,,,,,,,,,
4564.5,"<img src=""portrait/WM1.jpg""style=""height:400px;""></img>",6,html-button-response,216,1437226,0.0-16.0-12.0-0.0,56833,List2A,white,man,,FALSE,6,,,,,,,,,,
null,CORRECT,,html-keyboard-response,217,1438766,0.0-16.0-12.0-1.0-0.0,56833,List2A,white,man,,,,null,,,,,,,,,
8569,"<img src=""portrait/WW1.jpg""style=""height:400px;""></img>",1,html-button-response,218,1447338,0.0-16.0-13.0,56833,List2A,white,man,,TRUE,1,,,,,,,,,,
null,CORRECT,,html-keyboard-response,219,1448866,0.0-16.0-14.0-0.0,56833,List2A,white,man,,,,null,,,,,,,,,
4277.5,"<img src=""portrait/WW2.jpg""style=""height:400px;""></img>",3,html-button-response,220,1453145,0.0-16.0-16.0,56833,List2A,white,man,,TRUE,3,,,,,,,,,,
null,CORRECT,,html-keyboard-response,221,1454666,0.0-16.0-17.0-0.0,56833,List2A,white,man,,,,null,,,,,,,,,
4107.5,"<img src=""portrait/BM2.jpg""style=""height:400px;""></img>",5,html-button-response,222,1458775,0.0-16.0-19.0,56833,List2A,white,man,,TRUE,5,,,,,,,,,,
null,CORRECT,,html-keyboard-response,223,1460316,0.0-16.0-20.0-0.0,56833,List2A,white,man,,,,null,,,,,,,,,
5219.2,"<img src=""portrait/BW2.jpg""style=""height:400px;""></img>",2,html-button-response,224,1465537,0.0-16.0-22.0,56833,List2A,white,man,,TRUE,2,,,,,,,,,,
null,CORRECT,,html-keyboard-response,225,1467056,0.0-16.0-23.0-0.0,56833,List2A,white,man,,,,null,,,,,,,,,
2901.2,<p>You got 7 out of 8 right first time. Press Continue.</p>,0,html-button-response,226,1469959,0.0-16.0-25.0,56833,List2A,white,man,,,,,,,,,,,,,
10215.2,"As you did not score 100%, the memory game will repeat. Press Continue.",0,html-button-response,227,1481192,0.0-16.0-26.0-0.0,56833,List2A,white,man,,,,,,,,,,,,,
3624.2,"<img src='img/portrait_matrix_list2.jpg' style='width:900px;height:500px;''></img><p>If you have memorised all the portraits and names and are ready to start, press Continue.</p><p><strong>Please note: Your memory of these faces will be tested 4 times during this experiment.</strong></p>",0,html-button-response,228,1485832,0.0-16.1-0.1,56833,List2A,white,man,,,,,,,,,,,,,
6984,"<img src=""portrait/BW1.jpg""style=""height:400px;""></img>",0,html-button-response,229,1493822,0.0-16.1-1.1,56833,List2A,white,man,,TRUE,0,,,,,,,,,,
null,CORRECT,,html-keyboard-response,230,1495336,0.0-16.1-2.1-0.1,56833,List2A,white,man,,,,null,,,,,,,,,
2714.3,"<img src=""portrait/WM2.jpg""style=""height:400px;""></img>",7,html-button-response,231,1498053,0.0-16.1-4.1,56833,List2A,white,man,,TRUE,7,,,,,,,,,,
null,CORRECT,,html-keyboard-response,232,1499576,0.0-16.1-5.1-0.1,56833,List2A,white,man,,,,null,,,,,,,,,
1479.5,"<img src=""portrait/BM1.jpg""style=""height:400px;""></img>",4,html-button-response,233,1501056,0.0-16.1-7.1,56833,List2A,white,man,,TRUE,4,,,,,,,,,,
null,CORRECT,,html-keyboard-response,234,1502576,0.0-16.1-8.1-0.1,56833,List2A,white,man,,,,null,,,,,,,,,
3753.5,"<img src=""portrait/WM1.jpg""style=""height:400px;""></img>",6,html-button-response,235,1506332,0.0-16.1-10.1,56833,List2A,white,man,,TRUE,6,,,,,,,,,,
null,CORRECT,,html-keyboard-response,236,1507846,0.0-16.1-11.1-0.1,56833,List2A,white,man,,,,null,,,,,,,,,
4790,"<img src=""portrait/WW1.jpg""style=""height:400px;""></img>",1,html-button-response,237,1512638,0.0-16.1-13.1,56833,List2A,white,man,,TRUE,1,,,,,,,,,,
null,CORRECT,,html-keyboard-response,238,1514166,0.0-16.1-14.1-0.1,56833,List2A,white,man,,,,null,,,,,,,,,
2842.2,"<img src=""portrait/WW2.jpg""style=""height:400px;""></img>",3,html-button-response,239,1517010,0.0-16.1-16.1,56833,List2A,white,man,,TRUE,3,,,,,,,,,,
null,CORRECT,,html-keyboard-response,240,1518540,0.0-16.1-17.1-0.1,56833,List2A,white,man,,,,null,,,,,,,,,
3451.6,"<img src=""portrait/BM2.jpg""style=""height:400px;""></img>",5,html-button-response,241,1521995,0.0-16.1-19.1,56833,List2A,white,man,,TRUE,5,,,,,,,,,,
null,CORRECT,,html-keyboard-response,242,1523506,0.0-16.1-20.1-0.1,56833,List2A,white,man,,,,null,,,,,,,,,
3626.4,"<img src=""portrait/BW2.jpg""style=""height:400px;""></img>",2,html-button-response,243,1527135,0.0-16.1-22.1,56833,List2A,white,man,,TRUE,2,,,,,,,,,,
null,CORRECT,,html-keyboard-response,244,1528666,0.0-16.1-23.1-0.1,56833,List2A,white,man,,,,null,,,,,,,,,
1851.7,<p>You got 8 out of 8 right first time. Press Continue.</p>,0,html-button-response,245,1530519,0.0-16.1-25.1,56833,List2A,white,man,,,,,,,,,,,,,
null,"<div style=""font-size:60px;"">+</div>",,html-keyboard-response,246,1532056,0.0-17.0-0.0,56833,List2A,white,man,,,,null,,,,,,,,,
null,"<img src=""stim_listA/seduce3.gif""style=""height:400px;""></stim_listA>",,html-keyboard-response,247,1534076,0.0-17.0-1.0,56833,List2A,white,man,,,,null,,,,,,,,,
null,is seducing,,html-keyboard-response,248,1536086,0.0-17.0-2.0,56833,List2A,white,man,,,,null,,,,,,,,,
12238,,,survey-text,249,1548327,0.0-17.0-3.0,56833,List2A,white,man,,,,,"{""Q0"":""fred looking at kate""}","<img src=""stim_listA/seduce3.gif""style=""height:400px;""></stim_listA>",is seducing,,,,,,
null,"<div style=""font-size:60px;"">+</div>",,html-keyboard-response,250,1548836,0.0-17.0-0.1,56833,List2A,white,man,,,,null,,,,,,,,,
null,"<img src=""stim_listA/shout6.gif""style=""height:400px;""></stim_listA>",,html-keyboard-response,251,1550856,0.0-17.0-1.1,56833,List2A,white,man,,,,null,,,,,,,,,
null,is being shouted at by,,html-keyboard-response,252,1552866,0.0-17.0-2.1,56833,List2A,white,man,,,,null,,,,,,,,,
11240,,,survey-text,253,1564110,0.0-17.0-3.1,56833,List2A,white,man,,,,,"{""Q0"":""fred is being shouted at by dave ""}","<img src=""stim_listA/shout6.gif""style=""height:400px;""></stim_listA>",is being shouted at by,,,,,,
null,"<div style=""font-size:60px;"">+</div>",,html-keyboard-response,254,1564627,0.0-17.0-0.2,56833,List2A,white,man,,,,null,,,,,,,,,
null,"<img src=""stim_listA/oppose2.gif""style=""height:400px;""></stim_listA>",,html-keyboard-response,255,1566647,0.0-17.0-1.2,56833,List2A,white,man,,,,null,,,,,,,,,
null,is being opposed by,,html-keyboard-response,256,1568667,0.0-17.0-2.2,56833,List2A,white,man,,,,null,,,,,,,,,
12249.4,,,survey-text,257,1580919,0.0-17.0-3.2,56833,List2A,white,man,,,,,"{""Q0"":""luke is being opposed by ruth ""}","<img src=""stim_listA/oppose2.gif""style=""height:400px;""></stim_listA>",is being opposed by,,,,,,
null,"<div style=""font-size:60px;"">+</div>",,html-keyboard-response,258,1581426,0.0-17.0-0.3,56833,List2A,white,man,,,,null,,,,,,,,,
null,"<img src=""stim_listA/challenge1.gif""style=""height:400px;""></stim_listA>",,html-keyboard-response,259,1583436,0.0-17.0-1.3,56833,List2A,white,man,,,,null,,,,,,,,,
null,is challenging,,html-keyboard-response,260,1585447,0.0-17.0-2.3,56833,List2A,white,man,,,,null,,,,,,,,,
12984.7,,,survey-text,261,1598435,0.0-17.0-3.3,56833,List2A,white,man,,,,,"{""Q0"":""ruth is challenging dave""}","<img src=""stim_listA/challenge1.gif""style=""height:400px;""></stim_listA>",is challenging,,,,,,
null,"<div style=""font-size:60px;"">+</div>",,html-keyboard-response,262,1598937,0.0-17.0-0.4,56833,List2A,white,man,,,,null,,,,,,,,,
null,"<img src=""stim_listA/shout4.gif""style=""height:400px;""></stim_listA>",,html-keyboard-response,263,1600947,0.0-17.0-1.4,56833,List2A,white,man,,,,null,,,,,,,,,
null,is being shouted at by,,html-keyboard-response,264,1602966,0.0-17.0-2.4,56833,List2A,white,man,,,,null,,,,,,,,,
19692.6,,,survey-text,265,1622660,0.0-17.0-3.4,56833,List2A,white,man,,,,,"{""Q0"":""mike is being shouted at by kate""}","<img src=""stim_listA/shout4.gif""style=""height:400px;""></stim_listA>",is being shouted at by,,,,,,
null,"<div style=""font-size:60px;"">+</div>",,html-keyboard-response,266,1623166,0.0-17.0-0.5,56833,List2A,white,man,,,,null,,,,,,,,,
null,"<img src=""stim_listA/touch8.gif""style=""height:400px;""></stim_listA>",,html-keyboard-response,267,1625186,0.0-17.0-1.5,56833,List2A,white,man,,,,null,,,,,,,,,
null,is being touched by,,html-keyboard-response,268,1627206,0.0-17.0-2.5,56833,List2A,white,man,,,,null,,,,,,,,,
13021.6,,,survey-text,269,1640229,0.0-17.0-3.5,56833,List2A,white,man,,,,,"{""Q0"":""beth is being touched by ruth ""}","<img src=""stim_listA/touch8.gif""style=""height:400px;""></stim_listA>",is being touched by,,,,,,
null,"<div style=""font-size:60px;"">+</div>",,html-keyboard-response,270,1640746,0.0-17.0-0.6,56833,List2A,white,man,,,,null,,,,,,,,,
null,"<img src=""stim_listA/seduce6.gif""style=""height:400px;""></stim_listA>",,html-keyboard-response,271,1642766,0.0-17.0-1.6,56833,List2A,white,man,,,,null,,,,,,,,,
null,is being seduced by,,html-keyboard-response,272,1644776,0.0-17.0-2.6,56833,List2A,white,man,,,,null,,,,,,,,,
9586.3,,,survey-text,273,1654365,0.0-17.0-3.6,56833,List2A,white,man,,,,,"{""Q0"":""fred is being seduced by dave ""}","<img src=""stim_listA/seduce6.gif""style=""height:400px;""></stim_listA>",is being seduced by,,,,,,
null,"<div style=""font-size:60px;"">+</div>",,html-keyboard-response,274,1654876,0.0-17.0-0.7,56833,List2A,white,man,,,,null,,,,,,,,,
null,"<img src=""stim_listA/seduce7.gif""style=""height:400px;""></stim_listA>",,html-keyboard-response,275,1656886,0.0-17.0-1.7,56833,List2A,white,man,,,,null,,,,,,,,,
null,is seducing,,html-keyboard-response,276,1658907,0.0-17.0-2.7,56833,List2A,white,man,,,,null,,,,,,,,,
19916.3,,,survey-text,277,1678827,0.0-17.0-3.7,56833,List2A,white,man,,,,,"{""Q0"":""kate is seducing ruth ""}","<img src=""stim_listA/seduce7.gif""style=""height:400px;""></stim_listA>",is seducing,,,,,,
null,"<div style=""font-size:60px;"">+</div>",,html-keyboard-response,278,1679347,0.0-17.0-0.8,56833,List2A,white,man,,,,null,,,,,,,,,
null,"<img src=""stim_listA/challenge7.gif""style=""height:400px;""></stim_listA>",,html-keyboard-response,279,1681367,0.0-17.0-1.8,56833,List2A,white,man,,,,null,,,,,,,,,
null,is challenging,,html-keyboard-response,280,1683377,0.0-17.0-2.8,56833,List2A,white,man,,,,null,,,,,,,,,
11725.6,,,survey-text,281,1695106,0.0-17.0-3.8,56833,List2A,white,man,,,,,"{""Q0"":""beth is challenging jane ""}","<img src=""stim_listA/challenge7.gif""style=""height:400px;""></stim_listA>",is challenging,,,,,,
null,"<div style=""font-size:60px;"">+</div>",,html-keyboard-response,282,1695627,0.0-17.0-0.9,56833,List2A,white,man,,,,null,,,,,,,,,
null,"<img src=""stim_listA/greet5.gif""style=""height:400px;""></stim_listA>",,html-keyboard-response,283,1697647,0.0-17.0-1.9,56833,List2A,white,man,,,,null,,,,,,,,,
null,is greeting,,html-keyboard-response,284,1699652,0.0-17.0-2.9,56833,List2A,white,man,,,,null,,,,,,,,,
7579.9,,,survey-text,285,1707235,0.0-17.0-3.9,56833,List2A,white,man,,,,,"{""Q0"":""fred is greeting dave ""}","<img src=""stim_listA/greet5.gif""style=""height:400px;""></stim_listA>",is greeting,,,,,,
null,"<div style=""font-size:60px;"">+</div>",,html-keyboard-response,286,1707737,0.0-17.0-0.10,56833,List2A,white,man,,,,null,,,,,,,,,
null,"<img src=""stim_listA/copy6.gif""style=""height:400px;""></stim_listA>",,html-keyboard-response,287,1709757,0.0-17.0-1.10,56833,List2A,white,man,,,,null,,,,,,,,,
null,is being copied by,,html-keyboard-response,288,1711777,0.0-17.0-2.10,56833,List2A,white,man,,,,null,,,,,,,,,
16992,,,survey-text,289,1728772,0.0-17.0-3.10,56833,List2A,white,man,,,,,"{""Q0"":""mike is being copied by luke""}","<img src=""stim_listA/copy6.gif""style=""height:400px;""></stim_listA>",is being copied by,,,,,,
null,"<div style=""font-size:60px;"">+</div>",,html-keyboard-response,290,1729277,0.0-17.0-0.11,56833,List2A,white,man,,,,null,,,,,,,,,
null,"<img src=""stim_listA/greet2.gif""style=""height:400px;""></stim_listA>",,html-keyboard-response,291,1731282,0.0-17.0-1.11,56833,List2A,white,man,,,,null,,,,,,,,,
null,is being greeted by,,html-keyboard-response,292,1733297,0.0-17.0-2.11,56833,List2A,white,man,,,,null,,,,,,,,,
10996.4,,,survey-text,293,1744296,0.0-17.0-3.11,56833,List2A,white,man,,,,,"{""Q0"":""luke is greeting jane ""}","<img src=""stim_listA/greet2.gif""style=""height:400px;""></stim_listA>",is being greeted by,,,,,,
null,"<div style=""font-size:60px;"">+</div>",,html-keyboard-response,294,1744806,0.0-17.0-0.12,56833,List2A,white,man,,,,null,,,,,,,,,
null,"<img src=""stim_listA/shout8.gif""style=""height:400px;""></stim_listA>",,html-keyboard-response,295,1746816,0.0-17.0-1.12,56833,List2A,white,man,,,,null,,,,,,,,,
null,is being shouted at by,,html-keyboard-response,296,1748836,0.0-17.0-2.12,56833,List2A,white,man,,,,null,,,,,,,,,
12282.5,,,survey-text,297,1761122,0.0-17.0-3.12,56833,List2A,white,man,,,,,"{""Q0"":""jane is being shouted at by kate ""}","<img src=""stim_listA/shout8.gif""style=""height:400px;""></stim_listA>",is being shouted at by,,,,,,
null,"<div style=""font-size:60px;"">+</div>",,html-keyboard-response,298,1761636,0.0-17.0-0.13,56833,List2A,white,man,,,,null,,,,,,,,,
null,"<img src=""stim_listA/challenge4.gif""style=""height:400px;""></stim_listA>",,html-keyboard-response,299,1763646,0.0-17.0-1.13,56833,List2A,white,man,,,,null,,,,,,,,,
null,is being challenged by,,html-keyboard-response,300,1765656,0.0-17.0-2.13,56833,List2A,white,man,,,,null,,,,,,,,,
13171.5,,,survey-text,301,1778831,0.0-17.0-3.13,56833,List2A,white,man,,,,,"{""Q0"":""kate is being challenged by fred ""}","<img src=""stim_listA/challenge4.gif""style=""height:400px;""></stim_listA>",is being challenged by,,,,,,
null,"<div style=""font-size:60px;"">+</div>",,html-keyboard-response,302,1779337,0.0-17.0-0.14,56833,List2A,white,man,,,,null,,,,,,,,,
null,"<img src=""stim_listA/greet1.gif""style=""height:400px;""></stim_listA>",,html-keyboard-response,303,1781356,0.0-17.0-1.14,56833,List2A,white,man,,,,null,,,,,,,,,
null,is greeting,,html-keyboard-response,304,1783366,0.0-17.0-2.14,56833,List2A,white,man,,,,null,,,,,,,,,
10726.5,,,survey-text,305,1794095,0.0-17.0-3.14,56833,List2A,white,man,,,,,"{""Q0"":""dave is greeting ruth ""}","<img src=""stim_listA/greet1.gif""style=""height:400px;""></stim_listA>",is greeting,,,,,,
null,"<div style=""font-size:60px;"">+</div>",,html-keyboard-response,306,1794616,0.0-17.0-0.15,56833,List2A,white,man,,,,null,,,,,,,,,
null,"<img src=""stim_listA/kiss3.gif""style=""height:400px;""></stim_listA>",,html-keyboard-response,307,1796636,0.0-17.0-1.15,56833,List2A,white,man,,,,null,,,,,,,,,
null,is kissing,,html-keyboard-response,308,1798656,0.0-17.0-2.15,56833,List2A,white,man,,,,null,,,,,,,,,
13285.1,,,survey-text,309,1811945,0.0-17.0-3.15,56833,List2A,white,man,,,,,"{""Q0"":""beth is kissing fred ""}","<img src=""stim_listA/kiss3.gif""style=""height:400px;""></stim_listA>",is kissing,,,,,,
null,"<div style=""font-size:60px;"">+</div>",,html-keyboard-response,310,1812457,0.0-17.0-0.16,56833,List2A,white,man,,,,null,,,,,,,,,
null,"<img src=""stim_listA/hug5.gif""style=""height:400px;""></stim_listA>",,html-keyboard-response,311,1814476,0.0-17.0-1.16,56833,List2A,white,man,,,,null,,,,,,,,,
null,is hugging,,html-keyboard-response,312,1816496,0.0-17.0-2.16,56833,List2A,white,man,,,,null,,,,,,,,,
10291.5,,,survey-text,313,1826791,0.0-17.0-3.16,56833,List2A,white,man,,,,,"{""Q0"":""fred is hugging luke ""}","<img src=""stim_listA/hug5.gif""style=""height:400px;""></stim_listA>",is hugging,,,,,,
null,"<div style=""font-size:60px;"">+</div>",,html-keyboard-response,314,1827306,0.0-17.0-0.17,56833,List2A,white,man,,,,null,,,,,,,,,
null,"<img src=""stim_listA/challenge5.gif""style=""height:400px;""></stim_listA>",,html-keyboard-response,315,1829327,0.0-17.0-1.17,56833,List2A,white,man,,,,null,,,,,,,,,
null,is challenging,,html-keyboard-response,316,1831347,0.0-17.0-2.17,56833,List2A,white,man,,,,null,,,,,,,,,
8213.3,,,survey-text,317,1839563,0.0-17.0-3.17,56833,List2A,white,man,,,,,"{""Q0"":""fred is challenging dave ""}","<img src=""stim_listA/challenge5.gif""style=""height:400px;""></stim_listA>",is challenging,,,,,,
null,"<div style=""font-size:60px;"">+</div>",,html-keyboard-response,318,1840067,0.0-17.0-0.18,56833,List2A,white,man,,,,null,,,,,,,,,
null,"<img src=""stim_listA/hug2.gif""style=""height:400px;""></stim_listA>",,html-keyboard-response,319,1842081,0.0-17.0-1.18,56833,List2A,white,man,,,,null,,,,,,,,,
null,is being hugged by,,html-keyboard-response,320,1844086,0.0-17.0-2.18,56833,List2A,white,man,,,,null,,,,,,,,,
10943.4,,,survey-text,321,1855034,0.0-17.0-3.18,56833,List2A,white,man,,,,,"{""Q0"":""dave is being hugged by dave ""}","<img src=""stim_listA/hug2.gif""style=""height:400px;""></stim_listA>",is being hugged by,,,,,,
null,"<div style=""font-size:60px;"">+</div>",,html-keyboard-response,322,1855537,0.0-17.0-0.19,56833,List2A,white,man,,,,null,,,,,,,,,
null,"<img src=""stim_listA/copy3.gif""style=""height:400px;""></stim_listA>",,html-keyboard-response,323,1857547,0.0-17.0-1.19,56833,List2A,white,man,,,,null,,,,,,,,,
null,is copying,,html-keyboard-response,324,1859566,0.0-17.0-2.19,56833,List2A,white,man,,,,null,,,,,,,,,
473442.7,,,survey-text,325,2333012,0.0-17.0-3.19,56833,List2A,white,man,,,,,"{""Q0"":""fred is copying beth ""}","<img src=""stim_listA/copy3.gif""style=""height:400px;""></stim_listA>",is copying,,,,,,
5120.9,"<img src='img/portrait_matrix_list2.jpg' style='width:900px;height:500px;''></img><p>If you have memorised all the portraits and names and are ready to start, press Continue.</p><p><strong>Please note: Your memory of these faces will be tested 4 times during this experiment.</strong></p>",0,html-button-response,326,2338134,0.0-18.0-0.0,56833,List2A,white,man,,,,,,,,,,,,,
4475.3,"<img src=""portrait/WW1.jpg""style=""height:400px;""></img>",1,html-button-response,327,2343614,0.0-18.0-1.0,56833,List2A,white,man,,TRUE,1,,,,,,,,,,
null,CORRECT,,html-keyboard-response,328,2345146,0.0-18.0-2.0-0.0,56833,List2A,white,man,,,,null,,,,,,,,,
2945,"<img src=""portrait/WM2.jpg""style=""height:400px;""></img>",7,html-button-response,329,2348092,0.0-18.0-4.0,56833,List2A,white,man,,TRUE,7,,,,,,,,,,
null,CORRECT,,html-keyboard-response,330,2349616,0.0-18.0-5.0-0.0,56833,List2A,white,man,,,,null,,,,,,,,,
3353.1,"<img src=""portrait/BM1.jpg""style=""height:400px;""></img>",4,html-button-response,331,2352971,0.0-18.0-7.0,56833,List2A,white,man,,TRUE,4,,,,,,,,,,
null,CORRECT,,html-keyboard-response,332,2354486,0.0-18.0-8.0-0.0,56833,List2A,white,man,,,,null,,,,,,,,,
3995.1,"<img src=""portrait/WW2.jpg""style=""height:400px;""></img>",3,html-button-response,333,2358482,0.0-18.0-10.0,56833,List2A,white,man,,TRUE,3,,,,,,,,,,
null,CORRECT,,html-keyboard-response,334,2359996,0.0-18.0-11.0-0.0,56833,List2A,white,man,,,,null,,,,,,,,,
4343.6,"<img src=""portrait/BW1.jpg""style=""height:400px;""></img>",0,html-button-response,335,2364342,0.0-18.0-13.0,56833,List2A,white,man,,TRUE,0,,,,,,,,,,
null,CORRECT,,html-keyboard-response,336,2365876,0.0-18.0-14.0-0.0,56833,List2A,white,man,,,,null,,,,,,,,,
3658.4,"<img src=""portrait/BM2.jpg""style=""height:400px;""></img>",5,html-button-response,337,2369537,0.0-18.0-16.0,56833,List2A,white,man,,TRUE,5,,,,,,,,,,
null,CORRECT,,html-keyboard-response,338,2371066,0.0-18.0-17.0-0.0,56833,List2A,white,man,,,,null,,,,,,,,,
5785.7,"<img src=""portrait/WM1.jpg""style=""height:400px;""></img>",6,html-button-response,339,2376854,0.0-18.0-19.0,56833,List2A,white,man,,TRUE,6,,,,,,,,,,
null,CORRECT,,html-keyboard-response,340,2378386,0.0-18.0-20.0-0.0,56833,List2A,white,man,,,,null,,,,,,,,,
4737.2,"<img src=""portrait/BW2.jpg""style=""height:400px;""></img>",2,html-button-response,341,2383125,0.0-18.0-22.0,56833,List2A,white,man,,TRUE,2,,,,,,,,,,
null,CORRECT,,html-keyboard-response,342,2384646,0.0-18.0-23.0-0.0,56833,List2A,white,man,,,,null,,,,,,,,,
25981.7,<p>You got 8 out of 8 right first time. Press Continue.</p>,0,html-button-response,343,2410630,0.0-18.0-25.0,56833,List2A,white,man,,,,,,,,,,,,,
null,"<div style=""font-size:60px;"">+</div>",,html-keyboard-response,344,2412156,0.0-19.0-0.0,56833,List2A,white,man,,,,null,,,,,,,,,
null,"<img src=""stim_listA/touch7.gif""style=""height:400px;""></stim_listA>",,html-keyboard-response,345,2414166,0.0-19.0-1.0,56833,List2A,white,man,,,,null,,,,,,,,,
null,is touching,,html-keyboard-response,346,2416187,0.0-19.0-2.0,56833,List2A,white,man,,,,null,,,,,,,,,
10689.1,,,survey-text,347,2426878,0.0-19.0-3.0,56833,List2A,white,man,,,,,"{""Q0"":""kate is touching jane""}","<img src=""stim_listA/touch7.gif""style=""height:400px;""></stim_listA>",is touching,,,,,,
null,"<div style=""font-size:60px;"">+</div>",,html-keyboard-response,348,2427396,0.0-19.0-0.1,56833,List2A,white,man,,,,null,,,,,,,,,
null,"<img src=""stim_listA/oppose5.gif""style=""height:400px;""></stim_listA>",,html-keyboard-response,349,2429406,0.0-19.0-1.1,56833,List2A,white,man,,,,null,,,,,,,,,
null,is opposing,,html-keyboard-response,350,2431416,0.0-19.0-2.1,56833,List2A,white,man,,,,null,,,,,,,,,
17624.5,,,survey-text,351,2449042,0.0-19.0-3.1,56833,List2A,white,man,,,,,"{""Q0"":""mike is fighting dave""}","<img src=""stim_listA/oppose5.gif""style=""height:400px;""></stim_listA>",is opposing,,,,,,
null,"<div style=""font-size:60px;"">+</div>",,html-keyboard-response,352,2449546,0.0-19.0-0.2,56833,List2A,white,man,,,,null,,,,,,,,,
null,"<img src=""stim_listA/copy2.gif""style=""height:400px;""></stim_listA>",,html-keyboard-response,353,2451566,0.0-19.0-1.2,56833,List2A,white,man,,,,null,,,,,,,,,
null,is being copied by,,html-keyboard-response,354,2453586,0.0-19.0-2.2,56833,List2A,white,man,,,,null,,,,,,,,,
16354.2,,,survey-text,355,2469944,0.0-19.0-3.2,56833,List2A,white,man,,,,,"{""Q0"":""luke is being copied by jane""}","<img src=""stim_listA/copy2.gif""style=""height:400px;""></stim_listA>",is being copied by,,,,,,
null,"<div style=""font-size:60px;"">+</div>",,html-keyboard-response,356,2470446,0.0-19.0-0.3,56833,List2A,white,man,,,,null,,,,,,,,,
null,"<img src=""stim_listA/look4.gif""style=""height:400px;""></stim_listA>",,html-keyboard-response,357,2472456,0.0-19.0-1.3,56833,List2A,white,man,,,,null,,,,,,,,,
null,is being looked at by,,html-keyboard-response,358,2474476,0.0-19.0-2.3,56833,List2A,white,man,,,,null,,,,,,,,,
23640.2,,,survey-text,359,2498119,0.0-19.0-3.3,56833,List2A,white,man,,,,,"{""Q0"":""kate is being looked at by mike ""}","<img src=""stim_listA/look4.gif""style=""height:400px;""></stim_listA>",is being looked at by,,,,,,
null,"<div style=""font-size:60px;"">+</div>",,html-keyboard-response,360,2498637,0.0-19.0-0.4,56833,List2A,white,man,,,,null,,,,,,,,,
null,"<img src=""stim_listA/touch2.gif""style=""height:400px;""></stim_listA>",,html-keyboard-response,361,2500646,0.0-19.0-1.4,56833,List2A,white,man,,,,null,,,,,,,,,
null,is being touched by,,html-keyboard-response,362,2502661,0.0-19.0-2.4,56833,List2A,white,man,,,,null,,,,,,,,,
13568.4,,,survey-text,363,2516233,0.0-19.0-3.4,56833,List2A,white,man,,,,,"{""Q0"":""luke is being touched by ruth ""}","<img src=""stim_listA/touch2.gif""style=""height:400px;""></stim_listA>",is being touched by,,,,,,
null,"<div style=""font-size:60px;"">+</div>",,html-keyboard-response,364,2516737,0.0-19.0-0.5,56833,List2A,white,man,,,,null,,,,,,,,,
null,"<img src=""stim_listA/hug8.gif""style=""height:400px;""></stim_listA>",,html-keyboard-response,365,2518746,0.0-19.0-1.5,56833,List2A,white,man,,,,null,,,,,,,,,
null,is being hugged by,,html-keyboard-response,366,2520756,0.0-19.0-2.5,56833,List2A,white,man,,,,null,,,,,,,,,
16149.1,,,survey-text,367,2536909,0.0-19.0-3.5,56833,List2A,white,man,,,,,"{""Q0"":""kate is being touched by jane""}","<img src=""stim_listA/hug8.gif""style=""height:400px;""></stim_listA>",is being hugged by,,,,,,
null,"<div style=""font-size:60px;"">+</div>",,html-keyboard-response,368,2537417,0.0-19.0-0.6,56833,List2A,white,man,,,,null,,,,,,,,,
null,"<img src=""stim_listA/greet7.gif""style=""height:400px;""></stim_listA>",,html-keyboard-response,369,2539437,0.0-19.0-1.6,56833,List2A,white,man,,,,null,,,,,,,,,
null,is greeting,,html-keyboard-response,370,2541447,0.0-19.0-2.6,56833,List2A,white,man,,,,null,,,,,,,,,
10794.1,,,survey-text,371,2552243,0.0-19.0-3.6,56833,List2A,white,man,,,,,"{""Q0"":""jane is greeting beth ""}","<img src=""stim_listA/greet7.gif""style=""height:400px;""></stim_listA>",is greeting,,,,,,
null,"<div style=""font-size:60px;"">+</div>",,html-keyboard-response,372,2552747,0.0-19.0-0.7,56833,List2A,white,man,,,,null,,,,,,,,,
null,"<img src=""stim_listA/greet6.gif""style=""height:400px;""></stim_listA>",,html-keyboard-response,373,2554767,0.0-19.0-1.7,56833,List2A,white,man,,,,null,,,,,,,,,
null,is being greeted by,,html-keyboard-response,374,2556787,0.0-19.0-2.7,56833,List2A,white,man,,,,null,,,,,,,,,
14392.7,,,survey-text,375,2571183,0.0-19.0-3.7,56833,List2A,white,man,,,,,"{""Q0"":""mike is being greeted by luke ""}","<img src=""stim_listA/greet6.gif""style=""height:400px;""></stim_listA>",is being greeted by,,,,,,
null,"<div style=""font-size:60px;"">+</div>",,html-keyboard-response,376,2571697,0.0-19.0-0.8,56833,List2A,white,man,,,,null,,,,,,,,,
null,"<img src=""stim_listA/challenge3.gif""style=""height:400px;""></stim_listA>",,html-keyboard-response,377,2573707,0.0-19.0-1.8,56833,List2A,white,man,,,,null,,,,,,,,,
null,is challenging,,html-keyboard-response,378,2575727,0.0-19.0-2.8,56833,List2A,white,man,,,,null,,,,,,,,,
16766.8,,,survey-text,379,2592497,0.0-19.0-3.8,56833,List2A,white,man,,,,,"{""Q0"":""mike is challenging beth""}","<img src=""stim_listA/challenge3.gif""style=""height:400px;""></stim_listA>",is challenging,,,,,,
null,"<div style=""font-size:60px;"">+</div>",,html-keyboard-response,380,2593017,0.0-19.0-0.9,56833,List2A,white,man,,,,null,,,,,,,,,
null,"<img src=""stim_listA/hug1.gif""style=""height:400px;""></stim_listA>",,html-keyboard-response,381,2595027,0.0-19.0-1.9,56833,List2A,white,man,,,,null,,,,,,,,,
null,is hugging,,html-keyboard-response,382,2597047,0.0-19.0-2.9,56833,List2A,white,man,,,,null,,,,,,,,,
11995.9,,,survey-text,383,2609046,0.0-19.0-3.9,56833,List2A,white,man,,,,,"{""Q0"":""luke is being hugged by ruth""}","<img src=""stim_listA/hug1.gif""style=""height:400px;""></stim_listA>",is hugging,,,,,,
null,"<div style=""font-size:60px;"">+</div>",,html-keyboard-response,384,2609567,0.0-19.0-0.10,56833,List2A,white,man,,,,null,,,,,,,,,
null,"<img src=""stim_listA/oppose7.gif""style=""height:400px;""></stim_listA>",,html-keyboard-response,385,2611577,0.0-19.0-1.10,56833,List2A,white,man,,,,null,,,,,,,,,
null,is opposing,,html-keyboard-response,386,2613595,0.0-19.0-2.10,56833,List2A,white,man,,,,null,,,,,,,,,
8533.4,,,survey-text,387,2622135,0.0-19.0-3.10,56833,List2A,white,man,,,,,"{""Q0"":""jane is opposing kate ""}","<img src=""stim_listA/oppose7.gif""style=""height:400px;""></stim_listA>",is opposing,,,,,,
null,"<div style=""font-size:60px;"">+</div>",,html-keyboard-response,388,2622657,0.0-19.0-0.11,56833,List2A,white,man,,,,null,,,,,,,,,
null,"<img src=""stim_listA/shout5.gif""style=""height:400px;""></stim_listA>",,html-keyboard-response,389,2624667,0.0-19.0-1.11,56833,List2A,white,man,,,,null,,,,,,,,,
null,is shouting at,,html-keyboard-response,390,2626687,0.0-19.0-2.11,56833,List2A,white,man,,,,null,,,,,,,,,
16064.6,,,survey-text,391,2642754,0.0-19.0-3.11,56833,List2A,white,man,,,,,"{""Q0"":""fred is shouting at luke ""}","<img src=""stim_listA/shout5.gif""style=""height:400px;""></stim_listA>",is shouting at,,,,,,
null,"<div style=""font-size:60px;"">+</div>",,html-keyboard-response,392,2643267,0.0-19.0-0.12,56833,List2A,white,man,,,,null,,,,,,,,,
null,"<img src=""stim_listA/copy4.gif""style=""height:400px;""></stim_listA>",,html-keyboard-response,393,2645287,0.0-19.0-1.12,56833,List2A,white,man,,,,null,,,,,,,,,
null,is being copied by,,html-keyboard-response,394,2647307,0.0-19.0-2.12,56833,List2A,white,man,,,,null,,,,,,,,,
17324.9,,,survey-text,395,2664635,0.0-19.0-3.12,56833,List2A,white,man,,,,,"{""Q0"":""fred is being copied by kate ""}","<img src=""stim_listA/copy4.gif""style=""height:400px;""></stim_listA>",is being copied by,,,,,,
null,"<div style=""font-size:60px;"">+</div>",,html-keyboard-response,396,2665147,0.0-19.0-0.13,56833,List2A,white,man,,,,null,,,,,,,,,
null,"<img src=""stim_listA/touch4.gif""style=""height:400px;""></stim_listA>",,html-keyboard-response,397,2667156,0.0-19.0-1.13,56833,List2A,white,man,,,,null,,,,,,,,,
null,is being touched by,,html-keyboard-response,398,2669177,0.0-19.0-2.13,56833,List2A,white,man,,,,null,,,,,,,,,
16846.5,,,survey-text,399,2686026,0.0-19.0-3.13,56833,List2A,white,man,,,,,"{""Q0"":""kate is being touched by fred ""}","<img src=""stim_listA/touch4.gif""style=""height:400px;""></stim_listA>",is being touched by,,,,,,
null,"<div style=""font-size:60px;"">+</div>",,html-keyboard-response,400,2686547,0.0-19.0-0.14,56833,List2A,white,man,,,,null,,,,,,,,,
null,"<img src=""stim_listA/copy5.gif""style=""height:400px;""></stim_listA>",,html-keyboard-response,401,2688557,0.0-19.0-1.14,56833,List2A,white,man,,,,null,,,,,,,,,
null,is copying,,html-keyboard-response,402,2690577,0.0-19.0-2.14,56833,List2A,white,man,,,,null,,,,,,,,,
8730.9,,,survey-text,403,2699311,0.0-19.0-3.14,56833,List2A,white,man,,,,,"{""Q0"":""fred is copying dave ""}","<img src=""stim_listA/copy5.gif""style=""height:400px;""></stim_listA>",is copying,,,,,,
null,"<div style=""font-size:60px;"">+</div>",,html-keyboard-response,404,2699827,0.0-19.0-0.15,56833,List2A,white,man,,,,null,,,,,,,,,
null,"<img src=""stim_listA/shout2.gif""style=""height:400px;""></stim_listA>",,html-keyboard-response,405,2701847,0.0-19.0-1.15,56833,List2A,white,man,,,,null,,,,,,,,,
null,is being shouted at by,,html-keyboard-response,406,2703857,0.0-19.0-2.15,56833,List2A,white,man,,,,null,,,,,,,,,
12429.4,,,survey-text,407,2716290,0.0-19.0-3.15,56833,List2A,white,man,,,,,"{""Q0"":""dave is being shouted at by jane ""}","<img src=""stim_listA/shout2.gif""style=""height:400px;""></stim_listA>",is being shouted at by,,,,,,
null,"<div style=""font-size:60px;"">+</div>",,html-keyboard-response,408,2716797,0.0-19.0-0.16,56833,List2A,white,man,,,,null,,,,,,,,,
null,"<img src=""stim_listA/oppose3.gif""style=""height:400px;""></stim_listA>",,html-keyboard-response,409,2718807,0.0-19.0-1.16,56833,List2A,white,man,,,,null,,,,,,,,,
null,is opposing,,html-keyboard-response,410,2720826,0.0-19.0-2.16,56833,List2A,white,man,,,,null,,,,,,,,,
7195.6,,,survey-text,411,2728025,0.0-19.0-3.16,56833,List2A,white,man,,,,,"{""Q0"":""kate is copying mike ""}","<img src=""stim_listA/oppose3.gif""style=""height:400px;""></stim_listA>",is opposing,,,,,,
null,"<div style=""font-size:60px;"">+</div>",,html-keyboard-response,412,2728537,0.0-19.0-0.17,56833,List2A,white,man,,,,null,,,,,,,,,
null,"<img src=""stim_listA/hug4.gif""style=""height:400px;""></stim_listA>",,html-keyboard-response,413,2730556,0.0-19.0-1.17,56833,List2A,white,man,,,,null,,,,,,,,,
null,is being hugged by,,html-keyboard-response,414,2732566,0.0-19.0-2.17,56833,List2A,white,man,,,,null,,,,,,,,,
18053.9,,,survey-text,415,2750622,0.0-19.0-3.17,56833,List2A,white,man,,,,,"{""Q0"":""kate is being hugged by mike ""}","<img src=""stim_listA/hug4.gif""style=""height:400px;""></stim_listA>",is being hugged by,,,,,,
null,"<div style=""font-size:60px;"">+</div>",,html-keyboard-response,416,2751139,0.0-19.0-0.18,56833,List2A,white,man,,,,null,,,,,,,,,
null,"<img src=""stim_listA/shout7.gif""style=""height:400px;""></stim_listA>",,html-keyboard-response,417,2753146,0.0-19.0-1.18,56833,List2A,white,man,,,,null,,,,,,,,,
null,is shouting at,,html-keyboard-response,418,2755152,0.0-19.0-2.18,56833,List2A,white,man,,,,null,,,,,,,,,
15067.4,,,survey-text,419,2770223,0.0-19.0-3.18,56833,List2A,white,man,,,,,"{""Q0"":""beth is shouting at ruth ""}","<img src=""stim_listA/shout7.gif""style=""height:400px;""></stim_listA>",is shouting at,,,,,,
null,"<div style=""font-size:60px;"">+</div>",,html-keyboard-response,420,2770726,0.0-19.0-0.19,56833,List2A,white,man,,,,null,,,,,,,,,
null,"<img src=""stim_listA/look2.gif""style=""height:400px;""></stim_listA>",,html-keyboard-response,421,2772736,0.0-19.0-1.19,56833,List2A,white,man,,,,null,,,,,,,,,
null,is being looked at by,,html-keyboard-response,422,2774746,0.0-19.0-2.19,56833,List2A,white,man,,,,null,,,,,,,,,
12602.3,,,survey-text,423,2787353,0.0-19.0-3.19,56833,List2A,white,man,,,,,"{""Q0"":""dave is being looked at by jane ""}","<img src=""stim_listA/look2.gif""style=""height:400px;""></stim_listA>",is being looked at by,,,,,,
2410.9,<p>Thank you for completing that task.</p><p>The final part of this session is a questionnaire that will take about 4 minutes.</p><p>Press Continue.</p>,0,html-button-response,424,2789767,0.0-20.0,56833,List2A,white,man,,,,,,,,,,,,,
60744.1,,,survey-text,425,2851527,0.0-21.0,56833,List2A,white,man,,,,,"{""Q0"":""36"",""Q1"":""English"",""Q2"":""English"",""Q3"":""United State "",""Q4"":""United State "",""Q5"":""White "",""Q6"":""Male ""}",,,demographics,,,,,
2593.5,<p>Have you lived in the USA for the last 5 years or more?</p>,0,html-button-response,426,2854123,0.0-22.0,56833,List2A,white,man,,,,,,,,fiveyears,,,,,
9510.5,<p>Move the slider to show the extent to which you agree with the following statements.</p>,0,html-button-response,427,2864649,0.0-23.0,56833,List2A,white,man,,,,,,,,,,,,,
7854.1,,,html-slider-response,428,2873514,0.0-24.0-0.0-0.0,56833,List2A,white,man,,,,,,,,survey_race,74,,,I feel solidarity with people the same age as me.,filler
9465.7,,,html-slider-response,429,2882983,0.0-24.0-0.0-0.1,56833,List2A,white,man,,,,,,,,survey_race,20,,,Getting older does not worry me.,filler
3047.7,,,html-slider-response,430,2886033,0.0-24.0-0.0-0.2,56833,List2A,white,man,,,,,,,,survey_race,79,,,Being my age gives me a good feeling.,filler
3177.4,,,html-slider-response,431,2889212,0.0-24.0-0.0-0.3,56833,List2A,white,man,,,,,,,,survey_race,80,,,I consider myself an extrovert.,filler
99534.1,,,html-slider-response,432,2988750,0.0-24.0-0.0-0.4,56833,List2A,white,man,,,,,,,,survey_race,80,,,I think that my race has a lot to be proud of.,proud
2543.1,,,html-slider-response,433,2991294,0.0-24.0-0.0-0.5,56833,List2A,white,man,,,,,,,,survey_race,79,,,I enjoy being in large groups.,filler
7402.1,,,html-slider-response,434,2998698,0.0-24.0-0.0-0.6,56833,List2A,white,man,,,,,,,,survey_race,81,,,Being my race is an important part of how I see myself.,important
5350.3,,,html-slider-response,435,3004052,0.0-24.0-0.0-0.7,56833,List2A,white,man,,,,,,,,survey_race,83,,,I often think about the fact that I am my age.,filler
4858,,,html-slider-response,436,3008912,0.0-24.0-0.0-0.8,56833,List2A,white,man,,,,,,,,survey_race,83,,,I have a lot in common with the average person of my race.,average
8590.6,,,html-slider-response,437,3017506,0.0-24.0-0.0-0.9,56833,List2A,white,man,,,,,,,,survey_race,80,,,People my age have a lot in common with each other.,filler
3618.9,,,html-slider-response,438,3021128,0.0-24.0-0.0-0.10,56833,List2A,white,man,,,,,,,,survey_race,18,,,I consider myself an introvert.,filler
9294.6,,,html-slider-response,439,3030424,0.0-24.0-0.0-0.11,56833,List2A,white,man,,,,,,,,survey_race,79,,,The fact that I am my race is an important part of my identity.,identity
11279.6,,,html-slider-response,440,3041707,0.0-24.0-0.0-0.12,56833,List2A,white,man,,,,,,,,survey_race,88,,,People of my race are very similar to each other.,verysimilar
5094.6,,,html-slider-response,441,3046803,0.0-24.0-0.0-0.13,56833,List2A,white,man,,,,,,,,survey_race,84,,,I have a lot in common with people of a similar age to me.,filler
4550.4,,,html-slider-response,442,3051357,0.0-24.0-0.0-0.14,56833,List2A,white,man,,,,,,,,survey_race,26,,,My age is not an important part of who I am.,filler
2796.1,,,html-slider-response,443,3054156,0.0-24.0-0.0-0.15,56833,List2A,white,man,,,,,,,,survey_race,83,,,I feel a bond with people the same age as me.,filler
1969.2,,,html-slider-response,444,3056127,0.0-24.0-0.0-0.16,56833,List2A,white,man,,,,,,,,survey_race,74,,,I am glad to be my race.,glad
6666.8,,,html-slider-response,445,3062795,0.0-24.0-0.0-0.17,56833,List2A,white,man,,,,,,,,survey_race,83,,,Being my race gives me a good feeling.,feeling
50373.1,,,html-slider-response,446,3113171,0.0-24.0-0.0-0.18,56833,List2A,white,man,,,,,,,,survey_race,86,,,People of my race have a lot in common with each other.,common
2278.4,,,html-slider-response,447,3115453,0.0-24.0-0.0-0.19,56833,List2A,white,man,,,,,,,,survey_race,83,,,I am glad to be the age I am.,filler
1661.6,,,html-slider-response,448,3117116,0.0-24.0-0.0-0.20,56833,List2A,white,man,,,,,,,,survey_race,87,,,I am glad to be my age.,filler
2748.5,,,html-slider-response,449,3119867,0.0-24.0-0.0-0.21,56833,List2A,white,man,,,,,,,,survey_race,84,,,I feel solidarity with my race.,solidarity
1490.3,,,html-slider-response,450,3121360,0.0-24.0-0.0-0.22,56833,List2A,white,man,,,,,,,,survey_race,80,,,I feel committed to my race.,committed
3414,,,html-slider-response,451,3124776,0.0-24.0-0.0-0.23,56833,List2A,white,man,,,,,,,,survey_race,87,,,I am similar to the average person of my race.,similar
2301.3,,,html-slider-response,452,3127079,0.0-24.0-0.0-0.24,56833,List2A,white,man,,,,,,,,survey_race,75,,,I feel a bond with my race.,bond
37872.6,,,html-slider-response,453,3164953,0.0-24.0-0.0-0.25,56833,List2A,white,man,,,,,,,,survey_race,83,,,"The older I get, the wiser I feel.",filler
3192.3,,,html-slider-response,454,3168149,0.0-24.0-0.0-0.26,56833,List2A,white,man,,,,,,,,survey_race,77,,,I often think about the fact that I am my race.,often
72392.7,,,html-slider-response,455,3240543,0.0-24.0-0.0-0.27,56833,List2A,white,man,,,,,,,,survey_race,81,,,It is pleasant to be my race.,pleasant
4400.2,,,html-slider-response,456,3244947,0.0-24.0-1.0-0.0,56833,List2A,white,man,,,,,,,,survey_gender,78,,,People of my gender have a lot in common with each other.,common
4411.2,,,html-slider-response,457,3249361,0.0-24.0-1.0-0.1,56833,List2A,white,man,,,,,,,,survey_gender,32,,,Most of the friends in my life are very similar to me.,filler
1329.4,,,html-slider-response,458,3250693,0.0-24.0-1.0-0.2,56833,List2A,white,man,,,,,,,,survey_gender,26,,,I have a lot in common with the average person of my gender.,average
1007.3,,,html-slider-response,459,3251702,0.0-24.0-1.0-0.3,56833,List2A,white,man,,,,,,,,survey_gender,80,,,Being my gender gives me a good feeling.,feeling
1016.5,,,html-slider-response,460,3252720,0.0-24.0-1.0-0.4,56833,List2A,white,man,,,,,,,,survey_gender,85,,,I often think about my actions.,filler
1397.8,,,html-slider-response,461,3254120,0.0-24.0-1.0-0.5,56833,List2A,white,man,,,,,,,,survey_gender,84,,,I feel a bond with my gender.,bond
1070.9,,,html-slider-response,462,3255192,0.0-24.0-1.0-0.6,56833,List2A,white,man,,,,,,,,survey_gender,80,,,I feel solidarity with my gender.,solidarity
1396.1,,,html-slider-response,463,3256590,0.0-24.0-1.0-0.7,56833,List2A,white,man,,,,,,,,survey_gender,81,,,My friends have a lot in common with each other.,filler
1298.5,,,html-slider-response,464,3257891,0.0-24.0-1.0-0.8,56833,List2A,white,man,,,,,,,,survey_gender,84,,,I am similar to the average person of my gender.,similar
1536.3,,,html-slider-response,465,3259429,0.0-24.0-1.0-0.9,56833,List2A,white,man,,,,,,,,survey_gender,78,,,People of my gender are very similar to each other.,verysimilar
1435.1,,,html-slider-response,466,3260866,0.0-24.0-1.0-0.10,56833,List2A,white,man,,,,,,,,survey_gender,75,,,Being around my friends gives me a good feeling.,filler
1435.8,,,html-slider-response,467,3262304,0.0-24.0-1.0-0.11,56833,List2A,white,man,,,,,,,,survey_gender,77,,,I feel a bond with my friends.,filler
1372.5,,,html-slider-response,468,3263678,0.0-24.0-1.0-0.12,56833,List2A,white,man,,,,,,,,survey_gender,80,,,I feel committed to my gender.,committed
1540.4,,,html-slider-response,469,3265220,0.0-24.0-1.0-0.13,56833,List2A,white,man,,,,,,,,survey_gender,81,,,Family is not more important to me than friendship.,filler
1314.8,,,html-slider-response,470,3266537,0.0-24.0-1.0-0.14,56833,List2A,white,man,,,,,,,,survey_gender,82,,,I often think about the fact that I am my gender.,often
1309.5,,,html-slider-response,471,3267848,0.0-24.0-1.0-0.15,56833,List2A,white,man,,,,,,,,survey_gender,77,,,I would say I am an animal person.,filler
1256.2,,,html-slider-response,472,3269107,0.0-24.0-1.0-0.16,56833,List2A,white,man,,,,,,,,survey_gender,80,,,I consider myself a highly empathetic person.,filler
1337.8,,,html-slider-response,473,3270446,0.0-24.0-1.0-0.17,56833,List2A,white,man,,,,,,,,survey_gender,81,,,I think that my gender has a lot to be proud of.,proud
1265.5,,,html-slider-response,474,3271714,0.0-24.0-1.0-0.18,56833,List2A,white,man,,,,,,,,survey_gender,81,,,I feel solidarity with my friends.,filler
1875.4,,,html-slider-response,475,3273590,0.0-24.0-1.0-0.19,56833,List2A,white,man,,,,,,,,survey_gender,80,,,The fact that I am my gender is an important part of my identity.,identity
1712.8,,,html-slider-response,476,3275305,0.0-24.0-1.0-0.20,56833,List2A,white,man,,,,,,,,survey_gender,80,,,I am glad to be my gender.,glad
1430.9,,,html-slider-response,477,3276738,0.0-24.0-1.0-0.21,56833,List2A,white,man,,,,,,,,survey_gender,81,,,I have a lot in common with my friends.,filler
1847.3,,,html-slider-response,478,3278588,0.0-24.0-1.0-0.22,56833,List2A,white,man,,,,,,,,survey_gender,80,,,Routine is not important to me.,filler
1510.3,,,html-slider-response,479,3280100,0.0-24.0-1.0-0.23,56833,List2A,white,man,,,,,,,,survey_gender,83,,,I am glad to have the friends that I have.,filler
3280,,,html-slider-response,480,3283383,0.0-24.0-1.0-0.24,56833,List2A,white,man,,,,,,,,survey_gender,84,,,It is pleasant to be my gender.,pleasant
2245,,,html-slider-response,481,3285631,0.0-24.0-1.0-0.25,56833,List2A,white,man,,,,,,,,survey_gender,86,,,My friends understand me.,filler
2691.2,,,html-slider-response,482,3288325,0.0-24.0-1.0-0.26,56833,List2A,white,man,,,,,,,,survey_gender,86,,,Being my gender is an important part of how I see myself.,important
1284,,,html-slider-response,483,3289611,0.0-24.0-1.0-0.27,56833,List2A,white,man,,,,,,,,survey_gender,82,,,It is not always easy for people to know what I am thinking.,filler
10377,,,survey-text,484,3299992,0.0-25.0,56833,List2A,white,man,,,,,"{""Q0"":""ccc""}",,,worker_id,,,,,
4454.9,,,external-html,485,3306694,0.0-26.0,56833,List2A,white,man,debrief.html,,,,,,,,,,,,
