"rt","stimulus","button_pressed","trial_type","trial_index","time_elapsed","internal_node_id","subject","list","ppt_race","ppt_gender","url","first_guess","correct","key_press","responses","image_type","phrase_type","test_part","response","stimulus1","stimulus2","question_type","survey_item"
"1936.2000000476837","Welcome to the experiment. Press Continue to begin.","0","html-button-response","0","1940","0.0-0.0","56909","List2A","white","woman","","","","","","","","","","","","",""
"43299","","","external-html","1","46560","0.0-1.0","56909","List2A","white","woman","consent.html","","","","","","","","","","","",""
"15808.5","<p>On the next page, you will see portraits of 8 people and their names.</p><p>Your first task is to take a few minutes to memorise the names of these people.</p><p>You will have to recall their names during the rest of the experiment, so it is</p><p>essential that you try to memorise these people and their names as best as you can.</p><br><p><strong>You will then be tested on your memory of these names and portraits.</strong></p><br><p>The experiment will start after you have completed this memory test.</p><br><p>Ready?</p>","0","html-button-response","2","62371","0.0-2.0","56909","List2A","white","woman","","","","","","","","","","","","",""
"78604.89999985695","<img src='img/portrait_matrix_list2.jpg' style='width:900px;height:500px;''></img><p>If you have memorised all the portraits and names and are ready to start, press Continue.</p><p><strong>Please note: Your memory of these faces will be tested 4 times during this experiment.</strong></p>","0","html-button-response","3","141993","0.0-3.0-0.0","56909","List2A","white","woman","","","","","","","","","","","","",""
"3369.699999809265","<img src=""portrait/BM1.jpg""style=""height:400px;""></img>","4","html-button-response","4","146372","0.0-3.0-1.0","56909","List2A","white","woman","","true","4","","","","","","","","","",""
"null","CORRECT","","html-keyboard-response","5","147896","0.0-3.0-2.0-0.0","56909","List2A","white","woman","","","","null","","","","","","","","",""
"2559.2999999523163","<img src=""portrait/BW2.jpg""style=""height:400px;""></img>","2","html-button-response","6","150458","0.0-3.0-4.0","56909","List2A","white","woman","","true","2","","","","","","","","","",""
"null","CORRECT","","html-keyboard-response","7","151980","0.0-3.0-5.0-0.0","56909","List2A","white","woman","","","","null","","","","","","","","",""
"2701.2000000476837","<img src=""portrait/WW2.jpg""style=""height:400px;""></img>","3","html-button-response","8","154684","0.0-3.0-7.0","56909","List2A","white","woman","","true","3","","","","","","","","","",""
"null","CORRECT","","html-keyboard-response","9","156196","0.0-3.0-8.0-0.0","56909","List2A","white","woman","","","","null","","","","","","","","",""
"2551.7000000476837","<img src=""portrait/WM2.jpg""style=""height:400px;""></img>","7","html-button-response","10","158750","0.0-3.0-10.0","56909","List2A","white","woman","","true","7","","","","","","","","","",""
"null","CORRECT","","html-keyboard-response","11","160261","0.0-3.0-11.0-0.0","56909","List2A","white","woman","","","","null","","","","","","","","",""
"2835","<img src=""portrait/BM2.jpg""style=""height:400px;""></img>","5","html-button-response","12","163098","0.0-3.0-13.0","56909","List2A","white","woman","","true","5","","","","","","","","","",""
"null","CORRECT","","html-keyboard-response","13","164616","0.0-3.0-14.0-0.0","56909","List2A","white","woman","","","","null","","","","","","","","",""
"3507.7000000476837","<img src=""portrait/WM1.jpg""style=""height:400px;""></img>","6","html-button-response","14","168125","0.0-3.0-16.0","56909","List2A","white","woman","","true","6","","","","","","","","","",""
"null","CORRECT","","html-keyboard-response","15","169643","0.0-3.0-17.0-0.0","56909","List2A","white","woman","","","","null","","","","","","","","",""
"3978.2999999523163","<img src=""portrait/BW1.jpg""style=""height:400px;""></img>","0","html-button-response","16","173623","0.0-3.0-19.0","56909","List2A","white","woman","","true","0","","","","","","","","","",""
"null","CORRECT","","html-keyboard-response","17","175141","0.0-3.0-20.0-0.0","56909","List2A","white","woman","","","","null","","","","","","","","",""
"2278.9000000953674","<img src=""portrait/WW1.jpg""style=""height:400px;""></img>","3","html-button-response","18","177422","0.0-3.0-22.0","56909","List2A","white","woman","","true","1","","","","","","","","","",""
"4356.200000047684","<img src=""portrait/WW1.jpg""style=""height:400px;""></img>","1","html-button-response","19","182781","0.0-3.0-24.0-0.0","56909","List2A","white","woman","","false","1","","","","","","","","","",""
"null","CORRECT","","html-keyboard-response","20","184308","0.0-3.0-24.0-1.0-0.0","56909","List2A","white","woman","","","","null","","","","","","","","",""
"2184.2999999523163","<p>You got 7 out of 8 right first time. Press Continue.</p>","0","html-button-response","21","186529","0.0-3.0-25.0","56909","List2A","white","woman","","","","","","","","","","","","",""
"3082.2000000476837","As you did not score 100%, the memory game will repeat. Press Continue.","0","html-button-response","22","190615","0.0-3.0-26.0-0.0","56909","List2A","white","woman","","","","","","","","","","","","",""
"7383","<img src='img/portrait_matrix_list2.jpg' style='width:900px;height:500px;''></img><p>If you have memorised all the portraits and names and are ready to start, press Continue.</p><p><strong>Please note: Your memory of these faces will be tested 4 times during this experiment.</strong></p>","0","html-button-response","23","199007","0.0-3.1-0.1","56909","List2A","white","woman","","","","","","","","","","","","",""
"2046.6000001430511","<img src=""portrait/BM1.jpg""style=""height:400px;""></img>","4","html-button-response","24","202069","0.0-3.1-1.1","56909","List2A","white","woman","","true","4","","","","","","","","","",""
"null","CORRECT","","html-keyboard-response","25","203593","0.0-3.1-2.1-0.1","56909","List2A","white","woman","","","","null","","","","","","","","",""
"2256.399999856949","<img src=""portrait/BW2.jpg""style=""height:400px;""></img>","2","html-button-response","26","205851","0.0-3.1-4.1","56909","List2A","white","woman","","true","2","","","","","","","","","",""
"null","CORRECT","","html-keyboard-response","27","207366","0.0-3.1-5.1-0.1","56909","List2A","white","woman","","","","null","","","","","","","","",""
"2125.7999999523163","<img src=""portrait/WW2.jpg""style=""height:400px;""></img>","3","html-button-response","28","209493","0.0-3.1-7.1","56909","List2A","white","woman","","true","3","","","","","","","","","",""
"null","CORRECT","","html-keyboard-response","29","211016","0.0-3.1-8.1-0.1","56909","List2A","white","woman","","","","null","","","","","","","","",""
"1809.5999999046326","<img src=""portrait/WM2.jpg""style=""height:400px;""></img>","7","html-button-response","30","212827","0.0-3.1-10.1","56909","List2A","white","woman","","true","7","","","","","","","","","",""
"null","CORRECT","","html-keyboard-response","31","214340","0.0-3.1-11.1-0.1","56909","List2A","white","woman","","","","null","","","","","","","","",""
"1743.1999998092651","<img src=""portrait/BM2.jpg""style=""height:400px;""></img>","5","html-button-response","32","216085","0.0-3.1-13.1","56909","List2A","white","woman","","true","5","","","","","","","","","",""
"null","CORRECT","","html-keyboard-response","33","217601","0.0-3.1-14.1-0.1","56909","List2A","white","woman","","","","null","","","","","","","","",""
"1508.3000001907349","<img src=""portrait/WM1.jpg""style=""height:400px;""></img>","6","html-button-response","34","219111","0.0-3.1-16.1","56909","List2A","white","woman","","true","6","","","","","","","","","",""
"null","CORRECT","","html-keyboard-response","35","220634","0.0-3.1-17.1-0.1","56909","List2A","white","woman","","","","null","","","","","","","","",""
"2243.699999809265","<img src=""portrait/BW1.jpg""style=""height:400px;""></img>","0","html-button-response","36","222879","0.0-3.1-19.1","56909","List2A","white","woman","","true","0","","","","","","","","","",""
"null","CORRECT","","html-keyboard-response","37","224390","0.0-3.1-20.1-0.1","56909","List2A","white","woman","","","","null","","","","","","","","",""
"1366.8000001907349","<img src=""portrait/WW1.jpg""style=""height:400px;""></img>","1","html-button-response","38","225759","0.0-3.1-22.1","56909","List2A","white","woman","","true","1","","","","","","","","","",""
"null","CORRECT","","html-keyboard-response","39","227278","0.0-3.1-23.1-0.1","56909","List2A","white","woman","","","","null","","","","","","","","",""
"1610.5999999046326","<p>You got 8 out of 8 right first time. Press Continue.</p>","0","html-button-response","40","228891","0.0-3.1-25.1","56909","List2A","white","woman","","","","","","","","","","","","",""
"35178.299999952316","<p>In this experiment, you will view photographs of the people from the memory game interacting.</p><p>By using the <strong>exact</strong> phrase given <i>after</i> the photograph appears and recalling the correct names of the people in the photographs, form a sentence describing the interaction. You do not need to capitalise names.</p><p>Type your answer in the space provided. Please complete every sentence before moving onto the next trial.</p><p>You will only have a few seconds to memorise each given photograph and phrase before you can respond, so try your best to focus.</p><p>An example is given below. Press 'Continue' when you are ready.</p><img src='img/speaking_example.jpg' style='width:800px;height:460px;''></img>","0","html-button-response","41","265073","0.0-4.0","56909","List2A","white","woman","","","","","","","","","","","","",""
"3109.7999999523163","<p>Before the experiment starts, you will watch two example trials. Press 'Continue'.</p>","0","html-button-response","42","269185","0.0-5.0","56909","List2A","white","woman","","","","","","","","","","","","",""
"null","<img src='img/play_eg.gif' style='height:400px;''></img>","","html-keyboard-response","43","272194","0.0-6.0","56909","List2A","white","woman","","","","null","","","","","","","","",""
"null","<p>is playing with</p>","","html-keyboard-response","44","274202","0.0-7.0","56909","List2A","white","woman","","","","null","","","","","","","","",""
"2244","<p><b>Answer:</b> jane is playing with ruth</p>","0","html-button-response","45","276447","0.0-8.0","56909","List2A","white","woman","","","","","","","","","","","","",""
"null","<img src='img/dance_eg.gif' style='height:400px;''></img>","","html-keyboard-response","46","279450","0.0-9.0","56909","List2A","white","woman","","","","null","","","","","","","","",""
"null","<p>is being entertained by</p>","","html-keyboard-response","47","281452","0.0-10.0","56909","List2A","white","woman","","","","null","","","","","","","","",""
"5692.099999904633","<p><b>Answer:</b> fred is being entertained by mike</p>","0","html-button-response","48","287145","0.0-11.0","56909","List2A","white","woman","","","","","","","","","","","","",""
"9213.099999904633","<p>Ready to start the experiment?</p><br><p><strong>Remember to describe the picture using a full sentence,</strong></p><p><strong>that combines the names of the people with the <i>exact</i> phrase given.</strong></p><p><strong>To receive full payment you must do this correctly.</strong></p><p><strong> You do not need to capitalise names or use punctuation.</strong></p><br><p>Press 'Continue' to begin.</p>","0","html-button-response","49","297363","0.0-12.0","56909","List2A","white","woman","","","","","","","","","","","","",""
"null","<div style=""font-size:60px;"">+</div>","","html-keyboard-response","50","298879","0.0-13.0-0.0","56909","List2A","white","woman","","","","null","","","","","","","","",""
"null","<img src=""stim_listA/shout3.gif""style=""height:400px;""></stim_listA>","","html-keyboard-response","51","300889","0.0-13.0-1.0","56909","List2A","white","woman","","","","null","","","","","","","","",""
"null","is shouting at","","html-keyboard-response","52","302890","0.0-13.0-2.0","56909","List2A","white","woman","","","","null","","","","","","","","",""
"7729.099999904633","","","survey-text","53","310675","0.0-13.0-3.0","56909","List2A","white","woman","","","","","{""Q0"":""Beth is shouting at Fred""}","<img src=""stim_listA/shout3.gif""style=""height:400px;""></stim_listA>","is shouting at","","","","","",""
"null","<div style=""font-size:60px;"">+</div>","","html-keyboard-response","54","311191","0.0-13.0-0.1","56909","List2A","white","woman","","","","null","","","","","","","","",""
"null","<img src=""stim_listA/shout5.gif""style=""height:400px;""></stim_listA>","","html-keyboard-response","55","313205","0.0-13.0-1.1","56909","List2A","white","woman","","","","null","","","","","","","","",""
"null","is shouting at","","html-keyboard-response","56","315213","0.0-13.0-2.1","56909","List2A","white","woman","","","","null","","","","","","","","",""
"5442.5","","","survey-text","57","320659","0.0-13.0-3.1","56909","List2A","white","woman","","","","","{""Q0"":""Luke is shouting at Fred""}","<img src=""stim_listA/shout5.gif""style=""height:400px;""></stim_listA>","is shouting at","","","","","",""
"null","<div style=""font-size:60px;"">+</div>","","html-keyboard-response","58","321171","0.0-13.0-0.2","56909","List2A","white","woman","","","","null","","","","","","","","",""
"null","<img src=""stim_listA/challenge6.gif""style=""height:400px;""></stim_listA>","","html-keyboard-response","59","323188","0.0-13.0-1.2","56909","List2A","white","woman","","","","null","","","","","","","","",""
"null","is being challenged by","","html-keyboard-response","60","325204","0.0-13.0-2.2","56909","List2A","white","woman","","","","null","","","","","","","","",""
"6828.400000095367","","","survey-text","61","332073","0.0-13.0-3.2","56909","List2A","white","woman","","","","","{""Q0"":""Mike is being challenged by Luke""}","<img src=""stim_listA/challenge6.gif""style=""height:400px;""></stim_listA>","is being challenged by","","","","","",""
"null","<div style=""font-size:60px;"">+</div>","","html-keyboard-response","62","332587","0.0-13.0-0.3","56909","List2A","white","woman","","","","null","","","","","","","","",""
"null","<img src=""stim_listA/oppose2.gif""style=""height:400px;""></stim_listA>","","html-keyboard-response","63","334603","0.0-13.0-1.3","56909","List2A","white","woman","","","","null","","","","","","","","",""
"null","is being opposed by","","html-keyboard-response","64","336618","0.0-13.0-2.3","56909","List2A","white","woman","","","","null","","","","","","","","",""
"6102.900000095367","","","survey-text","65","342725","0.0-13.0-3.3","56909","List2A","white","woman","","","","","{""Q0"":""Luke is being opposed by Ruth""}","<img src=""stim_listA/oppose2.gif""style=""height:400px;""></stim_listA>","is being opposed by","","","","","",""
"null","<div style=""font-size:60px;"">+</div>","","html-keyboard-response","66","343236","0.0-13.0-0.4","56909","List2A","white","woman","","","","null","","","","","","","","",""
"null","<img src=""stim_listA/greet4.gif""style=""height:400px;""></stim_listA>","","html-keyboard-response","67","345248","0.0-13.0-1.4","56909","List2A","white","woman","","","","null","","","","","","","","",""
"null","is being greeted by","","html-keyboard-response","68","347255","0.0-13.0-2.4","56909","List2A","white","woman","","","","null","","","","","","","","",""
"8550","","","survey-text","69","355808","0.0-13.0-3.4","56909","List2A","white","woman","","","","","{""Q0"":""Kate is being greeted by Fred""}","<img src=""stim_listA/greet4.gif""style=""height:400px;""></stim_listA>","is being greeted by","","","","","",""
"null","<div style=""font-size:60px;"">+</div>","","html-keyboard-response","70","356313","0.0-13.0-0.5","56909","List2A","white","woman","","","","null","","","","","","","","",""
"null","<img src=""stim_listA/greet6.gif""style=""height:400px;""></stim_listA>","","html-keyboard-response","71","358317","0.0-13.0-1.5","56909","List2A","white","woman","","","","null","","","","","","","","",""
"null","is being greeted by","","html-keyboard-response","72","360320","0.0-13.0-2.5","56909","List2A","white","woman","","","","null","","","","","","","","",""
"6293.599999904633","","","survey-text","73","366616","0.0-13.0-3.5","56909","List2A","white","woman","","","","","{""Q0"":""Mike is being greeted by Luke""}","<img src=""stim_listA/greet6.gif""style=""height:400px;""></stim_listA>","is being greeted by","","","","","",""
"null","<div style=""font-size:60px;"">+</div>","","html-keyboard-response","74","367129","0.0-13.0-0.6","56909","List2A","white","woman","","","","null","","","","","","","","",""
"null","<img src=""stim_listA/greet3.gif""style=""height:400px;""></stim_listA>","","html-keyboard-response","75","369141","0.0-13.0-1.6","56909","List2A","white","woman","","","","null","","","","","","","","",""
"null","is greeting","","html-keyboard-response","76","371149","0.0-13.0-2.6","56909","List2A","white","woman","","","","null","","","","","","","","",""
"8094.599999904633","","","survey-text","77","379246","0.0-13.0-3.6","56909","List2A","white","woman","","","","","{""Q0"":""Mike is greeting Beth""}","<img src=""stim_listA/greet3.gif""style=""height:400px;""></stim_listA>","is greeting","","","","","",""
"null","<div style=""font-size:60px;"">+</div>","","html-keyboard-response","78","379748","0.0-13.0-0.7","56909","List2A","white","woman","","","","null","","","","","","","","",""
"null","<img src=""stim_listA/touch4.gif""style=""height:400px;""></stim_listA>","","html-keyboard-response","79","381762","0.0-13.0-1.7","56909","List2A","white","woman","","","","null","","","","","","","","",""
"null","is being touched by","","html-keyboard-response","80","383767","0.0-13.0-2.7","56909","List2A","white","woman","","","","null","","","","","","","","",""
"6934.699999809265","","","survey-text","81","390704","0.0-13.0-3.7","56909","List2A","white","woman","","","","","{""Q0"":""Fred is being touched by Beth""}","<img src=""stim_listA/touch4.gif""style=""height:400px;""></stim_listA>","is being touched by","","","","","",""
"null","<div style=""font-size:60px;"">+</div>","","html-keyboard-response","82","391206","0.0-13.0-0.8","56909","List2A","white","woman","","","","null","","","","","","","","",""
"null","<img src=""stim_listA/touch2.gif""style=""height:400px;""></stim_listA>","","html-keyboard-response","83","393214","0.0-13.0-1.8","56909","List2A","white","woman","","","","null","","","","","","","","",""
"null","is being touched by","","html-keyboard-response","84","395223","0.0-13.0-2.8","56909","List2A","white","woman","","","","null","","","","","","","","",""
"6020.199999809265","","","survey-text","85","401246","0.0-13.0-3.8","56909","List2A","white","woman","","","","","{""Q0"":""Ruth is being touched by Luke""}","<img src=""stim_listA/touch2.gif""style=""height:400px;""></stim_listA>","is being touched by","","","","","",""
"null","<div style=""font-size:60px;"">+</div>","","html-keyboard-response","86","401748","0.0-13.0-0.9","56909","List2A","white","woman","","","","null","","","","","","","","",""
"null","<img src=""stim_listA/kiss4.gif""style=""height:400px;""></stim_listA>","","html-keyboard-response","87","403751","0.0-13.0-1.9","56909","List2A","white","woman","","","","null","","","","","","","","",""
"null","is being kissed by","","html-keyboard-response","88","405760","0.0-13.0-2.9","56909","List2A","white","woman","","","","null","","","","","","","","",""
"7725.599999904633","","","survey-text","89","413488","0.0-13.0-3.9","56909","List2A","white","woman","","","","","{""Q0"":""Kate is being kissed by Mike""}","<img src=""stim_listA/kiss4.gif""style=""height:400px;""></stim_listA>","is being kissed by","","","","","",""
"null","<div style=""font-size:60px;"">+</div>","","html-keyboard-response","90","413991","0.0-13.0-0.10","56909","List2A","white","woman","","","","null","","","","","","","","",""
"null","<img src=""stim_listA/challenge7.gif""style=""height:400px;""></stim_listA>","","html-keyboard-response","91","415999","0.0-13.0-1.10","56909","List2A","white","woman","","","","null","","","","","","","","",""
"null","is challenging","","html-keyboard-response","92","418002","0.0-13.0-2.10","56909","List2A","white","woman","","","","null","","","","","","","","",""
"6917","","","survey-text","93","424922","0.0-13.0-3.10","56909","List2A","white","woman","","","","","{""Q0"":""Jane is challenging Beth""}","<img src=""stim_listA/challenge7.gif""style=""height:400px;""></stim_listA>","is challenging","","","","","",""
"null","<div style=""font-size:60px;"">+</div>","","html-keyboard-response","94","425430","0.0-13.0-0.11","56909","List2A","white","woman","","","","null","","","","","","","","",""
"null","<img src=""stim_listA/oppose3.gif""style=""height:400px;""></stim_listA>","","html-keyboard-response","95","427444","0.0-13.0-1.11","56909","List2A","white","woman","","","","null","","","","","","","","",""
"null","is opposing","","html-keyboard-response","96","429449","0.0-13.0-2.11","56909","List2A","white","woman","","","","null","","","","","","","","",""
"9258.100000143051","","","survey-text","97","438710","0.0-13.0-3.11","56909","List2A","white","woman","","","","","{""Q0"":""Kate is opposing Mike""}","<img src=""stim_listA/oppose3.gif""style=""height:400px;""></stim_listA>","is opposing","","","","","",""
"null","<div style=""font-size:60px;"">+</div>","","html-keyboard-response","98","439211","0.0-13.0-0.12","56909","List2A","white","woman","","","","null","","","","","","","","",""
"null","<img src=""stim_listA/challenge2.gif""style=""height:400px;""></stim_listA>","","html-keyboard-response","99","441214","0.0-13.0-1.12","56909","List2A","white","woman","","","","null","","","","","","","","",""
"null","is being challenged by","","html-keyboard-response","100","443218","0.0-13.0-2.12","56909","List2A","white","woman","","","","null","","","","","","","","",""
"6610.700000047684","","","survey-text","101","449832","0.0-13.0-3.12","56909","List2A","white","woman","","","","","{""Q0"":""Jane is being challenged by Luke""}","<img src=""stim_listA/challenge2.gif""style=""height:400px;""></stim_listA>","is being challenged by","","","","","",""
"null","<div style=""font-size:60px;"">+</div>","","html-keyboard-response","102","450341","0.0-13.0-0.13","56909","List2A","white","woman","","","","null","","","","","","","","",""
"null","<img src=""stim_listA/hug3.gif""style=""height:400px;""></stim_listA>","","html-keyboard-response","103","452355","0.0-13.0-1.13","56909","List2A","white","woman","","","","null","","","","","","","","",""
"null","is hugging","","html-keyboard-response","104","454369","0.0-13.0-2.13","56909","List2A","white","woman","","","","null","","","","","","","","",""
"5782.400000095367","","","survey-text","105","460156","0.0-13.0-3.13","56909","List2A","white","woman","","","","","{""Q0"":""Fred is hugging Beth""}","<img src=""stim_listA/hug3.gif""style=""height:400px;""></stim_listA>","is hugging","","","","","",""
"null","<div style=""font-size:60px;"">+</div>","","html-keyboard-response","106","460673","0.0-13.0-0.14","56909","List2A","white","woman","","","","null","","","","","","","","",""
"null","<img src=""stim_listA/shout6.gif""style=""height:400px;""></stim_listA>","","html-keyboard-response","107","462684","0.0-13.0-1.14","56909","List2A","white","woman","","","","null","","","","","","","","",""
"null","is being shouted at by","","html-keyboard-response","108","464689","0.0-13.0-2.14","56909","List2A","white","woman","","","","null","","","","","","","","",""
"9005.699999809265","","","survey-text","109","473698","0.0-13.0-3.14","56909","List2A","white","woman","","","","","{""Q0"":""Dave is being shouted at by Mike""}","<img src=""stim_listA/shout6.gif""style=""height:400px;""></stim_listA>","is being shouted at by","","","","","",""
"null","<div style=""font-size:60px;"">+</div>","","html-keyboard-response","110","474203","0.0-13.0-0.15","56909","List2A","white","woman","","","","null","","","","","","","","",""
"null","<img src=""stim_listA/look4.gif""style=""height:400px;""></stim_listA>","","html-keyboard-response","111","476214","0.0-13.0-1.15","56909","List2A","white","woman","","","","null","","","","","","","","",""
"null","is being looked at by","","html-keyboard-response","112","478224","0.0-13.0-2.15","56909","List2A","white","woman","","","","null","","","","","","","","",""
"6925","","","survey-text","113","485152","0.0-13.0-3.15","56909","List2A","white","woman","","","","","{""Q0"":""Kate is being looked at by Mike""}","<img src=""stim_listA/look4.gif""style=""height:400px;""></stim_listA>","is being looked at by","","","","","",""
"null","<div style=""font-size:60px;"">+</div>","","html-keyboard-response","114","485655","0.0-13.0-0.16","56909","List2A","white","woman","","","","null","","","","","","","","",""
"null","<img src=""stim_listA/kiss7.gif""style=""height:400px;""></stim_listA>","","html-keyboard-response","115","487664","0.0-13.0-1.16","56909","List2A","white","woman","","","","null","","","","","","","","",""
"null","is kissing","","html-keyboard-response","116","489669","0.0-13.0-2.16","56909","List2A","white","woman","","","","null","","","","","","","","",""
"7443.800000190735","","","survey-text","117","497115","0.0-13.0-3.16","56909","List2A","white","woman","","","","","{""Q0"":""Ruth is kissing Beth""}","<img src=""stim_listA/kiss7.gif""style=""height:400px;""></stim_listA>","is kissing","","","","","",""
"null","<div style=""font-size:60px;"">+</div>","","html-keyboard-response","118","497617","0.0-13.0-0.17","56909","List2A","white","woman","","","","null","","","","","","","","",""
"null","<img src=""stim_listA/hug7.gif""style=""height:400px;""></stim_listA>","","html-keyboard-response","119","499624","0.0-13.0-1.17","56909","List2A","white","woman","","","","null","","","","","","","","",""
"null","is hugging","","html-keyboard-response","120","501640","0.0-13.0-2.17","56909","List2A","white","woman","","","","null","","","","","","","","",""
"5372","","","survey-text","121","507015","0.0-13.0-3.17","56909","List2A","white","woman","","","","","{""Q0"":""Beth is hugging Ruth""}","<img src=""stim_listA/hug7.gif""style=""height:400px;""></stim_listA>","is hugging","","","","","",""
"null","<div style=""font-size:60px;"">+</div>","","html-keyboard-response","122","507520","0.0-13.0-0.18","56909","List2A","white","woman","","","","null","","","","","","","","",""
"null","<img src=""stim_listA/copy3.gif""style=""height:400px;""></stim_listA>","","html-keyboard-response","123","509530","0.0-13.0-1.18","56909","List2A","white","woman","","","","null","","","","","","","","",""
"null","is copying","","html-keyboard-response","124","511539","0.0-13.0-2.18","56909","List2A","white","woman","","","","null","","","","","","","","",""
"4763.099999904633","","","survey-text","125","516305","0.0-13.0-3.18","56909","List2A","white","woman","","","","","{""Q0"":""Mike is copying Beth""}","<img src=""stim_listA/copy3.gif""style=""height:400px;""></stim_listA>","is copying","","","","","",""
"null","<div style=""font-size:60px;"">+</div>","","html-keyboard-response","126","516821","0.0-13.0-0.19","56909","List2A","white","woman","","","","null","","","","","","","","",""
"null","<img src=""stim_listA/shout1.gif""style=""height:400px;""></stim_listA>","","html-keyboard-response","127","518834","0.0-13.0-1.19","56909","List2A","white","woman","","","","null","","","","","","","","",""
"null","is shouting at","","html-keyboard-response","128","520835","0.0-13.0-2.19","56909","List2A","white","woman","","","","null","","","","","","","","",""
"6446.799999952316","","","survey-text","129","527285","0.0-13.0-3.19","56909","List2A","white","woman","","","","","{""Q0"":""Luke is shouting at Ruth""}","<img src=""stim_listA/shout1.gif""style=""height:400px;""></stim_listA>","is shouting at","","","","","",""
"13960.799999952316","<img src='img/portrait_matrix_list2.jpg' style='width:900px;height:500px;''></img><p>If you have memorised all the portraits and names and are ready to start, press Continue.</p><p><strong>Please note: Your memory of these faces will be tested 4 times during this experiment.</strong></p>","0","html-button-response","130","541247","0.0-14.0-0.0","56909","List2A","white","woman","","","","","","","","","","","","",""
"1896.7000000476837","<img src=""portrait/WM2.jpg""style=""height:400px;""></img>","7","html-button-response","131","544147","0.0-14.0-1.0","56909","List2A","white","woman","","true","7","","","","","","","","","",""
"null","CORRECT","","html-keyboard-response","132","545658","0.0-14.0-2.0-0.0","56909","List2A","white","woman","","","","null","","","","","","","","",""
"1860.5","<img src=""portrait/BM1.jpg""style=""height:400px;""></img>","4","html-button-response","133","547520","0.0-14.0-4.0","56909","List2A","white","woman","","true","4","","","","","","","","","",""
"null","CORRECT","","html-keyboard-response","134","549042","0.0-14.0-5.0-0.0","56909","List2A","white","woman","","","","null","","","","","","","","",""
"2122.899999856949","<img src=""portrait/BW1.jpg""style=""height:400px;""></img>","0","html-button-response","135","551167","0.0-14.0-7.0","56909","List2A","white","woman","","true","0","","","","","","","","","",""
"null","CORRECT","","html-keyboard-response","136","552694","0.0-14.0-8.0-0.0","56909","List2A","white","woman","","","","null","","","","","","","","",""
"1755.1000001430511","<img src=""portrait/BM2.jpg""style=""height:400px;""></img>","5","html-button-response","137","554450","0.0-14.0-10.0","56909","List2A","white","woman","","true","5","","","","","","","","","",""
"null","CORRECT","","html-keyboard-response","138","555967","0.0-14.0-11.0-0.0","56909","List2A","white","woman","","","","null","","","","","","","","",""
"1789.7000000476837","<img src=""portrait/BW2.jpg""style=""height:400px;""></img>","2","html-button-response","139","557759","0.0-14.0-13.0","56909","List2A","white","woman","","true","2","","","","","","","","","",""
"null","CORRECT","","html-keyboard-response","140","559278","0.0-14.0-14.0-0.0","56909","List2A","white","woman","","","","null","","","","","","","","",""
"1500.9000000953674","<img src=""portrait/WM1.jpg""style=""height:400px;""></img>","6","html-button-response","141","560781","0.0-14.0-16.0","56909","List2A","white","woman","","true","6","","","","","","","","","",""
"null","CORRECT","","html-keyboard-response","142","562284","0.0-14.0-17.0-0.0","56909","List2A","white","woman","","","","null","","","","","","","","",""
"2200.2999999523163","<img src=""portrait/WW2.jpg""style=""height:400px;""></img>","3","html-button-response","143","564487","0.0-14.0-19.0","56909","List2A","white","woman","","true","3","","","","","","","","","",""
"null","CORRECT","","html-keyboard-response","144","566001","0.0-14.0-20.0-0.0","56909","List2A","white","woman","","","","null","","","","","","","","",""
"1475.4000000953674","<img src=""portrait/WW1.jpg""style=""height:400px;""></img>","1","html-button-response","145","567479","0.0-14.0-22.0","56909","List2A","white","woman","","true","1","","","","","","","","","",""
"null","CORRECT","","html-keyboard-response","146","568981","0.0-14.0-23.0-0.0","56909","List2A","white","woman","","","","null","","","","","","","","",""
"1968.6999998092651","<p>You got 8 out of 8 right first time. Press Continue.</p>","0","html-button-response","147","570952","0.0-14.0-25.0","56909","List2A","white","woman","","","","","","","","","","","","",""
"null","<div style=""font-size:60px;"">+</div>","","html-keyboard-response","148","572469","0.0-15.0-0.0","56909","List2A","white","woman","","","","null","","","","","","","","",""
"null","<img src=""stim_listA/seduce1.gif""style=""height:400px;""></stim_listA>","","html-keyboard-response","149","574478","0.0-15.0-1.0","56909","List2A","white","woman","","","","null","","","","","","","","",""
"null","is seducing","","html-keyboard-response","150","576480","0.0-15.0-2.0","56909","List2A","white","woman","","","","null","","","","","","","","",""
"5475.400000095367","","","survey-text","151","581958","0.0-15.0-3.0","56909","List2A","white","woman","","","","","{""Q0"":""Luke is seducing Jane""}","<img src=""stim_listA/seduce1.gif""style=""height:400px;""></stim_listA>","is seducing","","","","","",""
"null","<div style=""font-size:60px;"">+</div>","","html-keyboard-response","152","582467","0.0-15.0-0.1","56909","List2A","white","woman","","","","null","","","","","","","","",""
"null","<img src=""stim_listA/hug4.gif""style=""height:400px;""></stim_listA>","","html-keyboard-response","153","584470","0.0-15.0-1.1","56909","List2A","white","woman","","","","null","","","","","","","","",""
"null","is being hugged by","","html-keyboard-response","154","586486","0.0-15.0-2.1","56909","List2A","white","woman","","","","null","","","","","","","","",""
"6433.599999904633","","","survey-text","155","592922","0.0-15.0-3.1","56909","List2A","white","woman","","","","","{""Q0"":""Mike is being hugged by Kate""}","<img src=""stim_listA/hug4.gif""style=""height:400px;""></stim_listA>","is being hugged by","","","","","",""
"null","<div style=""font-size:60px;"">+</div>","","html-keyboard-response","156","593427","0.0-15.0-0.2","56909","List2A","white","woman","","","","null","","","","","","","","",""
"null","<img src=""stim_listA/look6.gif""style=""height:400px;""></stim_listA>","","html-keyboard-response","157","595432","0.0-15.0-1.2","56909","List2A","white","woman","","","","null","","","","","","","","",""
"null","is being looked at by","","html-keyboard-response","158","597445","0.0-15.0-2.2","56909","List2A","white","woman","","","","null","","","","","","","","",""
"6091.400000095367","","","survey-text","159","603539","0.0-15.0-3.2","56909","List2A","white","woman","","","","","{""Q0"":""Dave is being looked at by Mike""}","<img src=""stim_listA/look6.gif""style=""height:400px;""></stim_listA>","is being looked at by","","","","","",""
"null","<div style=""font-size:60px;"">+</div>","","html-keyboard-response","160","604055","0.0-15.0-0.3","56909","List2A","white","woman","","","","null","","","","","","","","",""
"null","<img src=""stim_listA/copy8.gif""style=""height:400px;""></stim_listA>","","html-keyboard-response","161","606063","0.0-15.0-1.3","56909","List2A","white","woman","","","","null","","","","","","","","",""
"null","is being copied by","","html-keyboard-response","162","608065","0.0-15.0-2.3","56909","List2A","white","woman","","","","null","","","","","","","","",""
"5968.900000095367","","","survey-text","163","614036","0.0-15.0-3.3","56909","List2A","white","woman","","","","","{""Q0"":""Kate is being copied by Ruth""}","<img src=""stim_listA/copy8.gif""style=""height:400px;""></stim_listA>","is being copied by","","","","","",""
"null","<div style=""font-size:60px;"">+</div>","","html-keyboard-response","164","614547","0.0-15.0-0.4","56909","List2A","white","woman","","","","null","","","","","","","","",""
"null","<img src=""stim_listA/touch5.gif""style=""height:400px;""></stim_listA>","","html-keyboard-response","165","616565","0.0-15.0-1.4","56909","List2A","white","woman","","","","null","","","","","","","","",""
"null","is touching","","html-keyboard-response","166","618570","0.0-15.0-2.4","56909","List2A","white","woman","","","","null","","","","","","","","",""
"5469.099999904633","","","survey-text","167","624043","0.0-15.0-3.4","56909","List2A","white","woman","","","","","{""Q0"":""Dave is touching Mike""}","<img src=""stim_listA/touch5.gif""style=""height:400px;""></stim_listA>","is touching","","","","","",""
"null","<div style=""font-size:60px;"">+</div>","","html-keyboard-response","168","624555","0.0-15.0-0.5","56909","List2A","white","woman","","","","null","","","","","","","","",""
"null","<img src=""stim_listA/challenge3.gif""style=""height:400px;""></stim_listA>","","html-keyboard-response","169","626557","0.0-15.0-1.5","56909","List2A","white","woman","","","","null","","","","","","","","",""
"null","is challenging","","html-keyboard-response","170","628559","0.0-15.0-2.5","56909","List2A","white","woman","","","","null","","","","","","","","",""
"5995.600000143051","","","survey-text","171","634558","0.0-15.0-3.5","56909","List2A","white","woman","","","","","{""Q0"":""Mike is challenging Beth""}","<img src=""stim_listA/challenge3.gif""style=""height:400px;""></stim_listA>","is challenging","","","","","",""
"null","<div style=""font-size:60px;"">+</div>","","html-keyboard-response","172","635072","0.0-15.0-0.6","56909","List2A","white","woman","","","","null","","","","","","","","",""
"null","<img src=""stim_listA/hug6.gif""style=""height:400px;""></stim_listA>","","html-keyboard-response","173","637075","0.0-15.0-1.6","56909","List2A","white","woman","","","","null","","","","","","","","",""
"null","is being hugged by","","html-keyboard-response","174","639090","0.0-15.0-2.6","56909","List2A","white","woman","","","","null","","","","","","","","",""
"5291.200000047684","","","survey-text","175","644384","0.0-15.0-3.6","56909","List2A","white","woman","","","","","{""Q0"":""Mike is being hugged by Dave""}","<img src=""stim_listA/hug6.gif""style=""height:400px;""></stim_listA>","is being hugged by","","","","","",""
"null","<div style=""font-size:60px;"">+</div>","","html-keyboard-response","176","644886","0.0-15.0-0.7","56909","List2A","white","woman","","","","null","","","","","","","","",""
"null","<img src=""stim_listA/kiss1.gif""style=""height:400px;""></stim_listA>","","html-keyboard-response","177","646889","0.0-15.0-1.7","56909","List2A","white","woman","","","","null","","","","","","","","",""
"null","is kissing","","html-keyboard-response","178","648894","0.0-15.0-2.7","56909","List2A","white","woman","","","","null","","","","","","","","",""
"4015.4000000953674","","","survey-text","179","652913","0.0-15.0-3.7","56909","List2A","white","woman","","","","","{""Q0"":""Ruth is kissing Luke""}","<img src=""stim_listA/kiss1.gif""style=""height:400px;""></stim_listA>","is kissing","","","","","",""
"null","<div style=""font-size:60px;"">+</div>","","html-keyboard-response","180","653422","0.0-15.0-0.8","56909","List2A","white","woman","","","","null","","","","","","","","",""
"null","<img src=""stim_listA/look7.gif""style=""height:400px;""></stim_listA>","","html-keyboard-response","181","655425","0.0-15.0-1.8","56909","List2A","white","woman","","","","null","","","","","","","","",""
"null","is looking at","","html-keyboard-response","182","657436","0.0-15.0-2.8","56909","List2A","white","woman","","","","null","","","","","","","","",""
"5616.5","","","survey-text","183","663057","0.0-15.0-3.8","56909","List2A","white","woman","","","","","{""Q0"":""Ruth is looking at Beth""}","<img src=""stim_listA/look7.gif""style=""height:400px;""></stim_listA>","is looking at","","","","","",""
"null","<div style=""font-size:60px;"">+</div>","","html-keyboard-response","184","663573","0.0-15.0-0.9","56909","List2A","white","woman","","","","null","","","","","","","","",""
"null","<img src=""stim_listA/copy7.gif""style=""height:400px;""></stim_listA>","","html-keyboard-response","185","665577","0.0-15.0-1.9","56909","List2A","white","woman","","","","null","","","","","","","","",""
"null","is copying","","html-keyboard-response","186","667585","0.0-15.0-2.9","56909","List2A","white","woman","","","","null","","","","","","","","",""
"8503.599999904633","","","survey-text","187","676092","0.0-15.0-3.9","56909","List2A","white","woman","","","","","{""Q0"":""Beth is copying Jane""}","<img src=""stim_listA/copy7.gif""style=""height:400px;""></stim_listA>","is copying","","","","","",""
"null","<div style=""font-size:60px;"">+</div>","","html-keyboard-response","188","676594","0.0-15.0-0.10","56909","List2A","white","woman","","","","null","","","","","","","","",""
"null","<img src=""stim_listA/seduce7.gif""style=""height:400px;""></stim_listA>","","html-keyboard-response","189","678600","0.0-15.0-1.10","56909","List2A","white","woman","","","","null","","","","","","","","",""
"null","is seducing","","html-keyboard-response","190","680603","0.0-15.0-2.10","56909","List2A","white","woman","","","","null","","","","","","","","",""
"4682.5","","","survey-text","191","685288","0.0-15.0-3.10","56909","List2A","white","woman","","","","","{""Q0"":""Ruth is seducing Kate""}","<img src=""stim_listA/seduce7.gif""style=""height:400px;""></stim_listA>","is seducing","","","","","",""
"null","<div style=""font-size:60px;"">+</div>","","html-keyboard-response","192","685800","0.0-15.0-0.11","56909","List2A","white","woman","","","","null","","","","","","","","",""
"null","<img src=""stim_listA/oppose7.gif""style=""height:400px;""></stim_listA>","","html-keyboard-response","193","687806","0.0-15.0-1.11","56909","List2A","white","woman","","","","null","","","","","","","","",""
"null","is opposing","","html-keyboard-response","194","689814","0.0-15.0-2.11","56909","List2A","white","woman","","","","null","","","","","","","","",""
"5125.400000095367","","","survey-text","195","694942","0.0-15.0-3.11","56909","List2A","white","woman","","","","","{""Q0"":""Jane is opposing Kate""}","<img src=""stim_listA/oppose7.gif""style=""height:400px;""></stim_listA>","is opposing","","","","","",""
"null","<div style=""font-size:60px;"">+</div>","","html-keyboard-response","196","695452","0.0-15.0-0.12","56909","List2A","white","woman","","","","null","","","","","","","","",""
"null","<img src=""stim_listA/seduce4.gif""style=""height:400px;""></stim_listA>","","html-keyboard-response","197","697455","0.0-15.0-1.12","56909","List2A","white","woman","","","","null","","","","","","","","",""
"null","is being seduced by","","html-keyboard-response","198","699465","0.0-15.0-2.12","56909","List2A","white","woman","","","","null","","","","","","","","",""
"5702.200000047684","","","survey-text","199","705170","0.0-15.0-3.12","56909","List2A","white","woman","","","","","{""Q0"":""Beth is being seduced by Mike""}","<img src=""stim_listA/seduce4.gif""style=""height:400px;""></stim_listA>","is being seduced by","","","","","",""
"null","<div style=""font-size:60px;"">+</div>","","html-keyboard-response","200","705681","0.0-15.0-0.13","56909","List2A","white","woman","","","","null","","","","","","","","",""
"null","<img src=""stim_listA/greet2.gif""style=""height:400px;""></stim_listA>","","html-keyboard-response","201","707698","0.0-15.0-1.13","56909","List2A","white","woman","","","","null","","","","","","","","",""
"null","is being greeted by","","html-keyboard-response","202","709711","0.0-15.0-2.13","56909","List2A","white","woman","","","","null","","","","","","","","",""
"5890.099999904633","","","survey-text","203","715604","0.0-15.0-3.13","56909","List2A","white","woman","","","","","{""Q0"":""Luke is being greeted by Jane""}","<img src=""stim_listA/greet2.gif""style=""height:400px;""></stim_listA>","is being greeted by","","","","","",""
"null","<div style=""font-size:60px;"">+</div>","","html-keyboard-response","204","716111","0.0-15.0-0.14","56909","List2A","white","woman","","","","null","","","","","","","","",""
"null","<img src=""stim_listA/shout2.gif""style=""height:400px;""></stim_listA>","","html-keyboard-response","205","718117","0.0-15.0-1.14","56909","List2A","white","woman","","","","null","","","","","","","","",""
"null","is being shouted at by","","html-keyboard-response","206","720122","0.0-15.0-2.14","56909","List2A","white","woman","","","","null","","","","","","","","",""
"5268.299999952316","","","survey-text","207","725394","0.0-15.0-3.14","56909","List2A","white","woman","","","","","{""Q0"":""Jane is being shouted at by Dave""}","<img src=""stim_listA/shout2.gif""style=""height:400px;""></stim_listA>","is being shouted at by","","","","","",""
"null","<div style=""font-size:60px;"">+</div>","","html-keyboard-response","208","725896","0.0-15.0-0.15","56909","List2A","white","woman","","","","null","","","","","","","","",""
"null","<img src=""stim_listA/seduce8.gif""style=""height:400px;""></stim_listA>","","html-keyboard-response","209","727908","0.0-15.0-1.15","56909","List2A","white","woman","","","","null","","","","","","","","",""
"null","is being seduced by","","html-keyboard-response","210","729913","0.0-15.0-2.15","56909","List2A","white","woman","","","","null","","","","","","","","",""
"9745.600000143051","","","survey-text","211","739662","0.0-15.0-3.15","56909","List2A","white","woman","","","","","{""Q0"":""Beth is being seduced by Jane""}","<img src=""stim_listA/seduce8.gif""style=""height:400px;""></stim_listA>","is being seduced by","","","","","",""
"null","<div style=""font-size:60px;"">+</div>","","html-keyboard-response","212","740174","0.0-15.0-0.16","56909","List2A","white","woman","","","","null","","","","","","","","",""
"null","<img src=""stim_listA/challenge4.gif""style=""height:400px;""></stim_listA>","","html-keyboard-response","213","742187","0.0-15.0-1.16","56909","List2A","white","woman","","","","null","","","","","","","","",""
"null","is being challenged by","","html-keyboard-response","214","744201","0.0-15.0-2.16","56909","List2A","white","woman","","","","null","","","","","","","","",""
"8391.799999952316","","","survey-text","215","752596","0.0-15.0-3.16","56909","List2A","white","woman","","","","","{""Q0"":""Kate is being challenged by Fred""}","<img src=""stim_listA/challenge4.gif""style=""height:400px;""></stim_listA>","is being challenged by","","","","","",""
"null","<div style=""font-size:60px;"">+</div>","","html-keyboard-response","216","753106","0.0-15.0-0.17","56909","List2A","white","woman","","","","null","","","","","","","","",""
"null","<img src=""stim_listA/hug5.gif""style=""height:400px;""></stim_listA>","","html-keyboard-response","217","755112","0.0-15.0-1.17","56909","List2A","white","woman","","","","null","","","","","","","","",""
"null","is hugging","","html-keyboard-response","218","757117","0.0-15.0-2.17","56909","List2A","white","woman","","","","null","","","","","","","","",""
"5777.400000095367","","","survey-text","219","762898","0.0-15.0-3.17","56909","List2A","white","woman","","","","","{""Q0"":""Fred is hugging Luke""}","<img src=""stim_listA/hug5.gif""style=""height:400px;""></stim_listA>","is hugging","","","","","",""
"null","<div style=""font-size:60px;"">+</div>","","html-keyboard-response","220","763411","0.0-15.0-0.18","56909","List2A","white","woman","","","","null","","","","","","","","",""
"null","<img src=""stim_listA/touch7.gif""style=""height:400px;""></stim_listA>","","html-keyboard-response","221","765416","0.0-15.0-1.18","56909","List2A","white","woman","","","","null","","","","","","","","",""
"null","is touching","","html-keyboard-response","222","767418","0.0-15.0-2.18","56909","List2A","white","woman","","","","null","","","","","","","","",""
"5067.100000143051","","","survey-text","223","772488","0.0-15.0-3.18","56909","List2A","white","woman","","","","","{""Q0"":""Kate is touching Jane""}","<img src=""stim_listA/touch7.gif""style=""height:400px;""></stim_listA>","is touching","","","","","",""
"null","<div style=""font-size:60px;"">+</div>","","html-keyboard-response","224","773004","0.0-15.0-0.19","56909","List2A","white","woman","","","","null","","","","","","","","",""
"null","<img src=""stim_listA/look3.gif""style=""height:400px;""></stim_listA>","","html-keyboard-response","225","775007","0.0-15.0-1.19","56909","List2A","white","woman","","","","null","","","","","","","","",""
"null","is looking at","","html-keyboard-response","226","777018","0.0-15.0-2.19","56909","List2A","white","woman","","","","null","","","","","","","","",""
"4747.599999904633","","","survey-text","227","781768","0.0-15.0-3.19","56909","List2A","white","woman","","","","","{""Q0"":""Beth is looking at Fred""}","<img src=""stim_listA/look3.gif""style=""height:400px;""></stim_listA>","is looking at","","","","","",""
"408157.30000019073","<img src='img/portrait_matrix_list2.jpg' style='width:900px;height:500px;''></img><p>If you have memorised all the portraits and names and are ready to start, press Continue.</p><p><strong>Please note: Your memory of these faces will be tested 4 times during this experiment.</strong></p>","0","html-button-response","228","1189927","0.0-16.0-0.0","56909","List2A","white","woman","","","","","","","","","","","","",""
"2560.5999999046326","<img src=""portrait/BW2.jpg""style=""height:400px;""></img>","2","html-button-response","229","1193491","0.0-16.0-1.0","56909","List2A","white","woman","","true","2","","","","","","","","","",""
"null","CORRECT","","html-keyboard-response","230","1195020","0.0-16.0-2.0-0.0","56909","List2A","white","woman","","","","null","","","","","","","","",""
"1722.2000000476837","<img src=""portrait/BW1.jpg""style=""height:400px;""></img>","0","html-button-response","231","1196744","0.0-16.0-4.0","56909","List2A","white","woman","","true","0","","","","","","","","","",""
"null","CORRECT","","html-keyboard-response","232","1198257","0.0-16.0-5.0-0.0","56909","List2A","white","woman","","","","null","","","","","","","","",""
"1643.1000001430511","<img src=""portrait/WW2.jpg""style=""height:400px;""></img>","3","html-button-response","233","1199903","0.0-16.0-7.0","56909","List2A","white","woman","","true","3","","","","","","","","","",""
"null","CORRECT","","html-keyboard-response","234","1201426","0.0-16.0-8.0-0.0","56909","List2A","white","woman","","","","null","","","","","","","","",""
"1722.4000000953674","<img src=""portrait/WM1.jpg""style=""height:400px;""></img>","6","html-button-response","235","1203151","0.0-16.0-10.0","56909","List2A","white","woman","","true","6","","","","","","","","","",""
"null","CORRECT","","html-keyboard-response","236","1204675","0.0-16.0-11.0-0.0","56909","List2A","white","woman","","","","null","","","","","","","","",""
"1983.5","<img src=""portrait/WW1.jpg""style=""height:400px;""></img>","1","html-button-response","237","1206660","0.0-16.0-13.0","56909","List2A","white","woman","","true","1","","","","","","","","","",""
"null","CORRECT","","html-keyboard-response","238","1208170","0.0-16.0-14.0-0.0","56909","List2A","white","woman","","","","null","","","","","","","","",""
"1695.7999999523163","<img src=""portrait/BM1.jpg""style=""height:400px;""></img>","4","html-button-response","239","1209868","0.0-16.0-16.0","56909","List2A","white","woman","","true","4","","","","","","","","","",""
"null","CORRECT","","html-keyboard-response","240","1211381","0.0-16.0-17.0-0.0","56909","List2A","white","woman","","","","null","","","","","","","","",""
"1687.2000000476837","<img src=""portrait/BM2.jpg""style=""height:400px;""></img>","5","html-button-response","241","1213070","0.0-16.0-19.0","56909","List2A","white","woman","","true","5","","","","","","","","","",""
"null","CORRECT","","html-keyboard-response","242","1214587","0.0-16.0-20.0-0.0","56909","List2A","white","woman","","","","null","","","","","","","","",""
"1169.2999999523163","<img src=""portrait/WM2.jpg""style=""height:400px;""></img>","7","html-button-response","243","1215758","0.0-16.0-22.0","56909","List2A","white","woman","","true","7","","","","","","","","","",""
"null","CORRECT","","html-keyboard-response","244","1217267","0.0-16.0-23.0-0.0","56909","List2A","white","woman","","","","null","","","","","","","","",""
"1282.7000000476837","<p>You got 8 out of 8 right first time. Press Continue.</p>","0","html-button-response","245","1218552","0.0-16.0-25.0","56909","List2A","white","woman","","","","","","","","","","","","",""
"null","<div style=""font-size:60px;"">+</div>","","html-keyboard-response","246","1220069","0.0-17.0-0.0","56909","List2A","white","woman","","","","null","","","","","","","","",""
"null","<img src=""stim_listA/seduce6.gif""style=""height:400px;""></stim_listA>","","html-keyboard-response","247","1222072","0.0-17.0-1.0","56909","List2A","white","woman","","","","null","","","","","","","","",""
"null","is being seduced by","","html-keyboard-response","248","1224084","0.0-17.0-2.0","56909","List2A","white","woman","","","","null","","","","","","","","",""
"5905.200000047684","","","survey-text","249","1229992","0.0-17.0-3.0","56909","List2A","white","woman","","","","","{""Q0"":""Dave is being seduced by Fred""}","<img src=""stim_listA/seduce6.gif""style=""height:400px;""></stim_listA>","is being seduced by","","","","","",""
"null","<div style=""font-size:60px;"">+</div>","","html-keyboard-response","250","1230498","0.0-17.0-0.1","56909","List2A","white","woman","","","","null","","","","","","","","",""
"null","<img src=""stim_listA/copy1.gif""style=""height:400px;""></stim_listA>","","html-keyboard-response","251","1232505","0.0-17.0-1.1","56909","List2A","white","woman","","","","null","","","","","","","","",""
"null","is copying","","html-keyboard-response","252","1234511","0.0-17.0-2.1","56909","List2A","white","woman","","","","null","","","","","","","","",""
"5248.600000143051","","","survey-text","253","1239762","0.0-17.0-3.1","56909","List2A","white","woman","","","","","{""Q0"":""Ruth is copying Dave""}","<img src=""stim_listA/copy1.gif""style=""height:400px;""></stim_listA>","is copying","","","","","",""
"null","<div style=""font-size:60px;"">+</div>","","html-keyboard-response","254","1240267","0.0-17.0-0.2","56909","List2A","white","woman","","","","null","","","","","","","","",""
"null","<img src=""stim_listA/seduce5.gif""style=""height:400px;""></stim_listA>","","html-keyboard-response","255","1242269","0.0-17.0-1.2","56909","List2A","white","woman","","","","null","","","","","","","","",""
"null","is seducing","","html-keyboard-response","256","1244279","0.0-17.0-2.2","56909","List2A","white","woman","","","","null","","","","","","","","",""
"4875.699999809265","","","survey-text","257","1249158","0.0-17.0-3.2","56909","List2A","white","woman","","","","","{""Q0"":""Mike is seducing Luke""}","<img src=""stim_listA/seduce5.gif""style=""height:400px;""></stim_listA>","is seducing","","","","","",""
"null","<div style=""font-size:60px;"">+</div>","","html-keyboard-response","258","1249663","0.0-17.0-0.3","56909","List2A","white","woman","","","","null","","","","","","","","",""
"null","<img src=""stim_listA/copy4.gif""style=""height:400px;""></stim_listA>","","html-keyboard-response","259","1251674","0.0-17.0-1.3","56909","List2A","white","woman","","","","null","","","","","","","","",""
"null","is being copied by","","html-keyboard-response","260","1253679","0.0-17.0-2.3","56909","List2A","white","woman","","","","null","","","","","","","","",""
"6278.400000095367","","","survey-text","261","1259960","0.0-17.0-3.3","56909","List2A","white","woman","","","","","{""Q0"":""Fred is being copied by Kate""}","<img src=""stim_listA/copy4.gif""style=""height:400px;""></stim_listA>","is being copied by","","","","","",""
"null","<div style=""font-size:60px;"">+</div>","","html-keyboard-response","262","1260472","0.0-17.0-0.4","56909","List2A","white","woman","","","","null","","","","","","","","",""
"null","<img src=""stim_listA/look1.gif""style=""height:400px;""></stim_listA>","","html-keyboard-response","263","1262474","0.0-17.0-1.4","56909","List2A","white","woman","","","","null","","","","","","","","",""
"null","is looking at","","html-keyboard-response","264","1264488","0.0-17.0-2.4","56909","List2A","white","woman","","","","null","","","","","","","","",""
"7257","","","survey-text","265","1271748","0.0-17.0-3.4","56909","List2A","white","woman","","","","","{""Q0"":""Luke is looking at Ruth""}","<img src=""stim_listA/look1.gif""style=""height:400px;""></stim_listA>","is looking at","","","","","",""
"null","<div style=""font-size:60px;"">+</div>","","html-keyboard-response","266","1272253","0.0-17.0-0.5","56909","List2A","white","woman","","","","null","","","","","","","","",""
"null","<img src=""stim_listA/look8.gif""style=""height:400px;""></stim_listA>","","html-keyboard-response","267","1274257","0.0-17.0-1.5","56909","List2A","white","woman","","","","null","","","","","","","","",""
"null","is being looked at by","","html-keyboard-response","268","1276263","0.0-17.0-2.5","56909","List2A","white","woman","","","","null","","","","","","","","",""
"5709.5","","","survey-text","269","1281976","0.0-17.0-3.5","56909","List2A","white","woman","","","","","{""Q0"":""Jane is being looked at by Kate""}","<img src=""stim_listA/look8.gif""style=""height:400px;""></stim_listA>","is being looked at by","","","","","",""
"null","<div style=""font-size:60px;"">+</div>","","html-keyboard-response","270","1282477","0.0-17.0-0.6","56909","List2A","white","woman","","","","null","","","","","","","","",""
"null","<img src=""stim_listA/greet8.gif""style=""height:400px;""></stim_listA>","","html-keyboard-response","271","1284490","0.0-17.0-1.6","56909","List2A","white","woman","","","","null","","","","","","","","",""
"null","is being greeted by","","html-keyboard-response","272","1286498","0.0-17.0-2.6","56909","List2A","white","woman","","","","null","","","","","","","","",""
"9466.900000095367","","","survey-text","273","1295968","0.0-17.0-3.6","56909","List2A","white","woman","","","","","{""Q0"":""Ruth is being greeted by Kate""}","<img src=""stim_listA/greet8.gif""style=""height:400px;""></stim_listA>","is being greeted by","","","","","",""
"null","<div style=""font-size:60px;"">+</div>","","html-keyboard-response","274","1296470","0.0-17.0-0.7","56909","List2A","white","woman","","","","null","","","","","","","","",""
"null","<img src=""stim_listA/kiss3.gif""style=""height:400px;""></stim_listA>","","html-keyboard-response","275","1298485","0.0-17.0-1.7","56909","List2A","white","woman","","","","null","","","","","","","","",""
"null","is kissing","","html-keyboard-response","276","1300495","0.0-17.0-2.7","56909","List2A","white","woman","","","","null","","","","","","","","",""
"5611.700000047684","","","survey-text","277","1306110","0.0-17.0-3.7","56909","List2A","white","woman","","","","","{""Q0"":""Beth is kissing Fred""}","<img src=""stim_listA/kiss3.gif""style=""height:400px;""></stim_listA>","is kissing","","","","","",""
"null","<div style=""font-size:60px;"">+</div>","","html-keyboard-response","278","1306619","0.0-17.0-0.8","56909","List2A","white","woman","","","","null","","","","","","","","",""
"null","<img src=""stim_listA/hug1.gif""style=""height:400px;""></stim_listA>","","html-keyboard-response","279","1308632","0.0-17.0-1.8","56909","List2A","white","woman","","","","null","","","","","","","","",""
"null","is hugging","","html-keyboard-response","280","1310638","0.0-17.0-2.8","56909","List2A","white","woman","","","","null","","","","","","","","",""
"3876.5","","","survey-text","281","1314518","0.0-17.0-3.8","56909","List2A","white","woman","","","","","{""Q0"":""Ruth is hugging Luke""}","<img src=""stim_listA/hug1.gif""style=""height:400px;""></stim_listA>","is hugging","","","","","",""
"null","<div style=""font-size:60px;"">+</div>","","html-keyboard-response","282","1315020","0.0-17.0-0.9","56909","List2A","white","woman","","","","null","","","","","","","","",""
"null","<img src=""stim_listA/oppose6.gif""style=""height:400px;""></stim_listA>","","html-keyboard-response","283","1317027","0.0-17.0-1.9","56909","List2A","white","woman","","","","null","","","","","","","","",""
"null","is being opposed by","","html-keyboard-response","284","1319039","0.0-17.0-2.9","56909","List2A","white","woman","","","","null","","","","","","","","",""
"5895.5","","","survey-text","285","1324938","0.0-17.0-3.9","56909","List2A","white","woman","","","","","{""Q0"":""Fred is being opposed by Luke""}","<img src=""stim_listA/oppose6.gif""style=""height:400px;""></stim_listA>","is being opposed by","","","","","",""
"null","<div style=""font-size:60px;"">+</div>","","html-keyboard-response","286","1325445","0.0-17.0-0.10","56909","List2A","white","woman","","","","null","","","","","","","","",""
"null","<img src=""stim_listA/kiss8.gif""style=""height:400px;""></stim_listA>","","html-keyboard-response","287","1327457","0.0-17.0-1.10","56909","List2A","white","woman","","","","null","","","","","","","","",""
"null","is being kissed by","","html-keyboard-response","288","1329465","0.0-17.0-2.10","56909","List2A","white","woman","","","","null","","","","","","","","",""
"7045.299999952316","","","survey-text","289","1336514","0.0-17.0-3.10","56909","List2A","white","woman","","","","","{""Q0"":""Kate is being kissed by Jane""}","<img src=""stim_listA/kiss8.gif""style=""height:400px;""></stim_listA>","is being kissed by","","","","","",""
"null","<div style=""font-size:60px;"">+</div>","","html-keyboard-response","290","1337023","0.0-17.0-0.11","56909","List2A","white","woman","","","","null","","","","","","","","",""
"null","<img src=""stim_listA/greet7.gif""style=""height:400px;""></stim_listA>","","html-keyboard-response","291","1339039","0.0-17.0-1.11","56909","List2A","white","woman","","","","null","","","","","","","","",""
"null","is greeting","","html-keyboard-response","292","1341055","0.0-17.0-2.11","56909","List2A","white","woman","","","","null","","","","","","","","",""
"5985.5","","","survey-text","293","1347044","0.0-17.0-3.11","56909","List2A","white","woman","","","","","{""Q0"":""jane is greeting beth""}","<img src=""stim_listA/greet7.gif""style=""height:400px;""></stim_listA>","is greeting","","","","","",""
"null","<div style=""font-size:60px;"">+</div>","","html-keyboard-response","294","1347548","0.0-17.0-0.12","56909","List2A","white","woman","","","","null","","","","","","","","",""
"null","<img src=""stim_listA/touch6.gif""style=""height:400px;""></stim_listA>","","html-keyboard-response","295","1349552","0.0-17.0-1.12","56909","List2A","white","woman","","","","null","","","","","","","","",""
"null","is being touched by","","html-keyboard-response","296","1351562","0.0-17.0-2.12","56909","List2A","white","woman","","","","null","","","","","","","","",""
"5968.400000095367","","","survey-text","297","1357534","0.0-17.0-3.12","56909","List2A","white","woman","","","","","{""Q0"":""Fred is being touched by Luke""}","<img src=""stim_listA/touch6.gif""style=""height:400px;""></stim_listA>","is being touched by","","","","","",""
"null","<div style=""font-size:60px;"">+</div>","","html-keyboard-response","298","1358039","0.0-17.0-0.13","56909","List2A","white","woman","","","","null","","","","","","","","",""
"null","<img src=""stim_listA/copy2.gif""style=""height:400px;""></stim_listA>","","html-keyboard-response","299","1360043","0.0-17.0-1.13","56909","List2A","white","woman","","","","null","","","","","","","","",""
"null","is being copied by","","html-keyboard-response","300","1362056","0.0-17.0-2.13","56909","List2A","white","woman","","","","null","","","","","","","","",""
"7163.299999952316","","","survey-text","301","1369225","0.0-17.0-3.13","56909","List2A","white","woman","","","","","{""Q0"":""Jane is being copied by Luke""}","<img src=""stim_listA/copy2.gif""style=""height:400px;""></stim_listA>","is being copied by","","","","","",""
"null","<div style=""font-size:60px;"">+</div>","","html-keyboard-response","302","1369738","0.0-17.0-0.14","56909","List2A","white","woman","","","","null","","","","","","","","",""
"null","<img src=""stim_listA/touch8.gif""style=""height:400px;""></stim_listA>","","html-keyboard-response","303","1371751","0.0-17.0-1.14","56909","List2A","white","woman","","","","null","","","","","","","","",""
"null","is being touched by","","html-keyboard-response","304","1373759","0.0-17.0-2.14","56909","List2A","white","woman","","","","null","","","","","","","","",""
"6878.099999904633","","","survey-text","305","1380639","0.0-17.0-3.14","56909","List2A","white","woman","","","","","{""Q0"":""Beth is being touched by Ruth""}","<img src=""stim_listA/touch8.gif""style=""height:400px;""></stim_listA>","is being touched by","","","","","",""
"null","<div style=""font-size:60px;"">+</div>","","html-keyboard-response","306","1381156","0.0-17.0-0.15","56909","List2A","white","woman","","","","null","","","","","","","","",""
"null","<img src=""stim_listA/look2.gif""style=""height:400px;""></stim_listA>","","html-keyboard-response","307","1383166","0.0-17.0-1.15","56909","List2A","white","woman","","","","null","","","","","","","","",""
"null","is being looked at by","","html-keyboard-response","308","1385170","0.0-17.0-2.15","56909","List2A","white","woman","","","","null","","","","","","","","",""
"5653.399999856949","","","survey-text","309","1390827","0.0-17.0-3.15","56909","List2A","white","woman","","","","","{""Q0"":""Dave is being looked at by Jane""}","<img src=""stim_listA/look2.gif""style=""height:400px;""></stim_listA>","is being looked at by","","","","","",""
"null","<div style=""font-size:60px;"">+</div>","","html-keyboard-response","310","1391336","0.0-17.0-0.16","56909","List2A","white","woman","","","","null","","","","","","","","",""
"null","<img src=""stim_listA/seduce2.gif""style=""height:400px;""></stim_listA>","","html-keyboard-response","311","1393351","0.0-17.0-1.16","56909","List2A","white","woman","","","","null","","","","","","","","",""
"null","is being seduced by","","html-keyboard-response","312","1395356","0.0-17.0-2.16","56909","List2A","white","woman","","","","null","","","","","","","","",""
"8036.299999952316","","","survey-text","313","1403395","0.0-17.0-3.16","56909","List2A","white","woman","","","","","{""Q0"":""Ruth is being seduced by Dave""}","<img src=""stim_listA/seduce2.gif""style=""height:400px;""></stim_listA>","is being seduced by","","","","","",""
"null","<div style=""font-size:60px;"">+</div>","","html-keyboard-response","314","1403897","0.0-17.0-0.17","56909","List2A","white","woman","","","","null","","","","","","","","",""
"null","<img src=""stim_listA/kiss5.gif""style=""height:400px;""></stim_listA>","","html-keyboard-response","315","1405899","0.0-17.0-1.17","56909","List2A","white","woman","","","","null","","","","","","","","",""
"null","is kissing","","html-keyboard-response","316","1407910","0.0-17.0-2.17","56909","List2A","white","woman","","","","null","","","","","","","","",""
"4655.400000095367","","","survey-text","317","1412569","0.0-17.0-3.17","56909","List2A","white","woman","","","","","{""Q0"":""Luke is kissing Fred""}","<img src=""stim_listA/kiss5.gif""style=""height:400px;""></stim_listA>","is kissing","","","","","",""
"null","<div style=""font-size:60px;"">+</div>","","html-keyboard-response","318","1413074","0.0-17.0-0.18","56909","List2A","white","woman","","","","null","","","","","","","","",""
"null","<img src=""stim_listA/hug2.gif""style=""height:400px;""></stim_listA>","","html-keyboard-response","319","1415085","0.0-17.0-1.18","56909","List2A","white","woman","","","","null","","","","","","","","",""
"null","is being hugged by","","html-keyboard-response","320","1417090","0.0-17.0-2.18","56909","List2A","white","woman","","","","null","","","","","","","","",""
"5725.200000047684","","","survey-text","321","1422819","0.0-17.0-3.18","56909","List2A","white","woman","","","","","{""Q0"":""Jane is being hugged by Dave""}","<img src=""stim_listA/hug2.gif""style=""height:400px;""></stim_listA>","is being hugged by","","","","","",""
"null","<div style=""font-size:60px;"">+</div>","","html-keyboard-response","322","1423327","0.0-17.0-0.19","56909","List2A","white","woman","","","","null","","","","","","","","",""
"null","<img src=""stim_listA/look5.gif""style=""height:400px;""></stim_listA>","","html-keyboard-response","323","1425335","0.0-17.0-1.19","56909","List2A","white","woman","","","","null","","","","","","","","",""
"null","is looking at","","html-keyboard-response","324","1427342","0.0-17.0-2.19","56909","List2A","white","woman","","","","null","","","","","","","","",""
"4452","","","survey-text","325","1431797","0.0-17.0-3.19","56909","List2A","white","woman","","","","","{""Q0"":""Fred is looking at Luke""}","<img src=""stim_listA/look5.gif""style=""height:400px;""></stim_listA>","is looking at","","","","","",""
"3724.5","<img src='img/portrait_matrix_list2.jpg' style='width:900px;height:500px;''></img><p>If you have memorised all the portraits and names and are ready to start, press Continue.</p><p><strong>Please note: Your memory of these faces will be tested 4 times during this experiment.</strong></p>","0","html-button-response","326","1435523","0.0-18.0-0.0","56909","List2A","white","woman","","","","","","","","","","","","",""
"1454","<img src=""portrait/BM2.jpg""style=""height:400px;""></img>","5","html-button-response","327","1437995","0.0-18.0-1.0","56909","List2A","white","woman","","true","5","","","","","","","","","",""
"null","CORRECT","","html-keyboard-response","328","1439508","0.0-18.0-2.0-0.0","56909","List2A","white","woman","","","","null","","","","","","","","",""
"1749.5999999046326","<img src=""portrait/BW1.jpg""style=""height:400px;""></img>","0","html-button-response","329","1441259","0.0-18.0-4.0","56909","List2A","white","woman","","true","0","","","","","","","","","",""
"null","CORRECT","","html-keyboard-response","330","1442768","0.0-18.0-5.0-0.0","56909","List2A","white","woman","","","","null","","","","","","","","",""
"1303","<img src=""portrait/WW1.jpg""style=""height:400px;""></img>","1","html-button-response","331","1444073","0.0-18.0-7.0","56909","List2A","white","woman","","true","1","","","","","","","","","",""
"null","CORRECT","","html-keyboard-response","332","1445586","0.0-18.0-8.0-0.0","56909","List2A","white","woman","","","","null","","","","","","","","",""
"1494.7999999523163","<img src=""portrait/BM1.jpg""style=""height:400px;""></img>","4","html-button-response","333","1447083","0.0-18.0-10.0","56909","List2A","white","woman","","true","4","","","","","","","","","",""
"null","CORRECT","","html-keyboard-response","334","1448597","0.0-18.0-11.0-0.0","56909","List2A","white","woman","","","","null","","","","","","","","",""
"1834.4000000953674","<img src=""portrait/BW2.jpg""style=""height:400px;""></img>","2","html-button-response","335","1450433","0.0-18.0-13.0","56909","List2A","white","woman","","true","2","","","","","","","","","",""
"null","CORRECT","","html-keyboard-response","336","1451957","0.0-18.0-14.0-0.0","56909","List2A","white","woman","","","","null","","","","","","","","",""
"1651.6999998092651","<img src=""portrait/WW2.jpg""style=""height:400px;""></img>","3","html-button-response","337","1453611","0.0-18.0-16.0","56909","List2A","white","woman","","true","3","","","","","","","","","",""
"null","CORRECT","","html-keyboard-response","338","1455130","0.0-18.0-17.0-0.0","56909","List2A","white","woman","","","","null","","","","","","","","",""
"1428.7999999523163","<img src=""portrait/WM1.jpg""style=""height:400px;""></img>","6","html-button-response","339","1456561","0.0-18.0-19.0","56909","List2A","white","woman","","true","6","","","","","","","","","",""
"null","CORRECT","","html-keyboard-response","340","1458066","0.0-18.0-20.0-0.0","56909","List2A","white","woman","","","","null","","","","","","","","",""
"1166.9000000953674","<img src=""portrait/WM2.jpg""style=""height:400px;""></img>","7","html-button-response","341","1459235","0.0-18.0-22.0","56909","List2A","white","woman","","true","7","","","","","","","","","",""
"null","CORRECT","","html-keyboard-response","342","1460755","0.0-18.0-23.0-0.0","56909","List2A","white","woman","","","","null","","","","","","","","",""
"1680.2999999523163","<p>You got 8 out of 8 right first time. Press Continue.</p>","0","html-button-response","343","1462437","0.0-18.0-25.0","56909","List2A","white","woman","","","","","","","","","","","","",""
"null","<div style=""font-size:60px;"">+</div>","","html-keyboard-response","344","1463950","0.0-19.0-0.0","56909","List2A","white","woman","","","","null","","","","","","","","",""
"null","<img src=""stim_listA/copy5.gif""style=""height:400px;""></stim_listA>","","html-keyboard-response","345","1465961","0.0-19.0-1.0","56909","List2A","white","woman","","","","null","","","","","","","","",""
"null","is copying","","html-keyboard-response","346","1467969","0.0-19.0-2.0","56909","List2A","white","woman","","","","null","","","","","","","","",""
"4239.100000143051","","","survey-text","347","1472211","0.0-19.0-3.0","56909","List2A","white","woman","","","","","{""Q0"":""Dave is copying Fred""}","<img src=""stim_listA/copy5.gif""style=""height:400px;""></stim_listA>","is copying","","","","","",""
"null","<div style=""font-size:60px;"">+</div>","","html-keyboard-response","348","1472716","0.0-19.0-0.1","56909","List2A","white","woman","","","","null","","","","","","","","",""
"null","<img src=""stim_listA/touch3.gif""style=""height:400px;""></stim_listA>","","html-keyboard-response","349","1474732","0.0-19.0-1.1","56909","List2A","white","woman","","","","null","","","","","","","","",""
"null","is touching","","html-keyboard-response","350","1476735","0.0-19.0-2.1","56909","List2A","white","woman","","","","null","","","","","","","","",""
"5318.799999952316","","","survey-text","351","1482057","0.0-19.0-3.1","56909","List2A","white","woman","","","","","{""Q0"":""Mike is touching Kate""}","<img src=""stim_listA/touch3.gif""style=""height:400px;""></stim_listA>","is touching","","","","","",""
"null","<div style=""font-size:60px;"">+</div>","","html-keyboard-response","352","1482571","0.0-19.0-0.2","56909","List2A","white","woman","","","","null","","","","","","","","",""
"null","<img src=""stim_listA/oppose4.gif""style=""height:400px;""></stim_listA>","","html-keyboard-response","353","1484574","0.0-19.0-1.2","56909","List2A","white","woman","","","","null","","","","","","","","",""
"null","is being opposed by","","html-keyboard-response","354","1486577","0.0-19.0-2.2","56909","List2A","white","woman","","","","null","","","","","","","","",""
"6712.799999952316","","","survey-text","355","1493292","0.0-19.0-3.2","56909","List2A","white","woman","","","","","{""Q0"":""Fred is being opposed by Beth""}","<img src=""stim_listA/oppose4.gif""style=""height:400px;""></stim_listA>","is being opposed by","","","","","",""
"null","<div style=""font-size:60px;"">+</div>","","html-keyboard-response","356","1493799","0.0-19.0-0.3","56909","List2A","white","woman","","","","null","","","","","","","","",""
"null","<img src=""stim_listA/hug8.gif""style=""height:400px;""></stim_listA>","","html-keyboard-response","357","1495814","0.0-19.0-1.3","56909","List2A","white","woman","","","","null","","","","","","","","",""
"null","is being hugged by","","html-keyboard-response","358","1497828","0.0-19.0-2.3","56909","List2A","white","woman","","","","null","","","","","","","","",""
"5669.400000095367","","","survey-text","359","1503500","0.0-19.0-3.3","56909","List2A","white","woman","","","","","{""Q0"":""Jane is being hugged by Kate""}","<img src=""stim_listA/hug8.gif""style=""height:400px;""></stim_listA>","is being hugged by","","","","","",""
"null","<div style=""font-size:60px;"">+</div>","","html-keyboard-response","360","1504011","0.0-19.0-0.4","56909","List2A","white","woman","","","","null","","","","","","","","",""
"null","<img src=""stim_listA/oppose5.gif""style=""height:400px;""></stim_listA>","","html-keyboard-response","361","1506024","0.0-19.0-1.4","56909","List2A","white","woman","","","","null","","","","","","","","",""
"null","is opposing","","html-keyboard-response","362","1508033","0.0-19.0-2.4","56909","List2A","white","woman","","","","null","","","","","","","","",""
"8730.700000047684","","","survey-text","363","1516766","0.0-19.0-3.4","56909","List2A","white","woman","","","","","{""Q0"":""Dave is opposing Mike""}","<img src=""stim_listA/oppose5.gif""style=""height:400px;""></stim_listA>","is opposing","","","","","",""
"null","<div style=""font-size:60px;"">+</div>","","html-keyboard-response","364","1517279","0.0-19.0-0.5","56909","List2A","white","woman","","","","null","","","","","","","","",""
"null","<img src=""stim_listA/shout7.gif""style=""height:400px;""></stim_listA>","","html-keyboard-response","365","1519293","0.0-19.0-1.5","56909","List2A","white","woman","","","","null","","","","","","","","",""
"null","is shouting at","","html-keyboard-response","366","1521300","0.0-19.0-2.5","56909","List2A","white","woman","","","","null","","","","","","","","",""
"5051.299999952316","","","survey-text","367","1526354","0.0-19.0-3.5","56909","List2A","white","woman","","","","","{""Q0"":""Ruth is shouting at Beth""}","<img src=""stim_listA/shout7.gif""style=""height:400px;""></stim_listA>","is shouting at","","","","","",""
"null","<div style=""font-size:60px;"">+</div>","","html-keyboard-response","368","1526866","0.0-19.0-0.6","56909","List2A","white","woman","","","","null","","","","","","","","",""
"null","<img src=""stim_listA/seduce3.gif""style=""height:400px;""></stim_listA>","","html-keyboard-response","369","1528870","0.0-19.0-1.6","56909","List2A","white","woman","","","","null","","","","","","","","",""
"null","is seducing","","html-keyboard-response","370","1530880","0.0-19.0-2.6","56909","List2A","white","woman","","","","null","","","","","","","","",""
"4159.600000143051","","","survey-text","371","1535044","0.0-19.0-3.6","56909","List2A","white","woman","","","","","{""Q0"":""Fred is seducing Kate""}","<img src=""stim_listA/seduce3.gif""style=""height:400px;""></stim_listA>","is seducing","","","","","",""
"null","<div style=""font-size:60px;"">+</div>","","html-keyboard-response","372","1535557","0.0-19.0-0.7","56909","List2A","white","woman","","","","null","","","","","","","","",""
"null","<img src=""stim_listA/shout4.gif""style=""height:400px;""></stim_listA>","","html-keyboard-response","373","1537564","0.0-19.0-1.7","56909","List2A","white","woman","","","","null","","","","","","","","",""
"null","is being shouted at by","","html-keyboard-response","374","1539567","0.0-19.0-2.7","56909","List2A","white","woman","","","","null","","","","","","","","",""
"5535.799999952316","","","survey-text","375","1545106","0.0-19.0-3.7","56909","List2A","white","woman","","","","","{""Q0"":""Kate is being shouted at by mike""}","<img src=""stim_listA/shout4.gif""style=""height:400px;""></stim_listA>","is being shouted at by","","","","","",""
"null","<div style=""font-size:60px;"">+</div>","","html-keyboard-response","376","1545607","0.0-19.0-0.8","56909","List2A","white","woman","","","","null","","","","","","","","",""
"null","<img src=""stim_listA/greet1.gif""style=""height:400px;""></stim_listA>","","html-keyboard-response","377","1547618","0.0-19.0-1.8","56909","List2A","white","woman","","","","null","","","","","","","","",""
"null","is greeting","","html-keyboard-response","378","1549632","0.0-19.0-2.8","56909","List2A","white","woman","","","","null","","","","","","","","",""
"3948.899999856949","","","survey-text","379","1553584","0.0-19.0-3.8","56909","List2A","white","woman","","","","","{""Q0"":""Dave is greeting Ruth""}","<img src=""stim_listA/greet1.gif""style=""height:400px;""></stim_listA>","is greeting","","","","","",""
"null","<div style=""font-size:60px;"">+</div>","","html-keyboard-response","380","1554089","0.0-19.0-0.9","56909","List2A","white","woman","","","","null","","","","","","","","",""
"null","<img src=""stim_listA/challenge5.gif""style=""height:400px;""></stim_listA>","","html-keyboard-response","381","1556097","0.0-19.0-1.9","56909","List2A","white","woman","","","","null","","","","","","","","",""
"null","is challenging","","html-keyboard-response","382","1558114","0.0-19.0-2.9","56909","List2A","white","woman","","","","null","","","","","","","","",""
"6629","","","survey-text","383","1564746","0.0-19.0-3.9","56909","List2A","white","woman","","","","","{""Q0"":""Dave is challenging Fred""}","<img src=""stim_listA/challenge5.gif""style=""height:400px;""></stim_listA>","is challenging","","","","","",""
"null","<div style=""font-size:60px;"">+</div>","","html-keyboard-response","384","1565249","0.0-19.0-0.10","56909","List2A","white","woman","","","","null","","","","","","","","",""
"null","<img src=""stim_listA/greet5.gif""style=""height:400px;""></stim_listA>","","html-keyboard-response","385","1567262","0.0-19.0-1.10","56909","List2A","white","woman","","","","null","","","","","","","","",""
"null","is greeting","","html-keyboard-response","386","1569271","0.0-19.0-2.10","56909","List2A","white","woman","","","","null","","","","","","","","",""
"4137.700000047684","","","survey-text","387","1573442","0.0-19.0-3.10","56909","List2A","white","woman","","","","","{""Q0"":""Dave is greeting Fred""}","<img src=""stim_listA/greet5.gif""style=""height:400px;""></stim_listA>","is greeting","","","","","",""
"null","<div style=""font-size:60px;"">+</div>","","html-keyboard-response","388","1573985","0.0-19.0-0.11","56909","List2A","white","woman","","","","null","","","","","","","","",""
"null","<img src=""stim_listA/kiss2.gif""style=""height:400px;""></stim_listA>","","html-keyboard-response","389","1575989","0.0-19.0-1.11","56909","List2A","white","woman","","","","null","","","","","","","","",""
"null","is being kissed by","","html-keyboard-response","390","1577995","0.0-19.0-2.11","56909","List2A","white","woman","","","","null","","","","","","","","",""
"4471.400000095367","","","survey-text","391","1582470","0.0-19.0-3.11","56909","List2A","white","woman","","","","","{""Q0"":""Dave is being kissed by Jane""}","<img src=""stim_listA/kiss2.gif""style=""height:400px;""></stim_listA>","is being kissed by","","","","","",""
"null","<div style=""font-size:60px;"">+</div>","","html-keyboard-response","392","1582982","0.0-19.0-0.12","56909","List2A","white","woman","","","","null","","","","","","","","",""
"null","<img src=""stim_listA/touch1.gif""style=""height:400px;""></stim_listA>","","html-keyboard-response","393","1584985","0.0-19.0-1.12","56909","List2A","white","woman","","","","null","","","","","","","","",""
"null","is touching","","html-keyboard-response","394","1586997","0.0-19.0-2.12","56909","List2A","white","woman","","","","null","","","","","","","","",""
"3640.2000000476837","","","survey-text","395","1590640","0.0-19.0-3.12","56909","List2A","white","woman","","","","","{""Q0"":""Dave is touching Jane""}","<img src=""stim_listA/touch1.gif""style=""height:400px;""></stim_listA>","is touching","","","","","",""
"null","<div style=""font-size:60px;"">+</div>","","html-keyboard-response","396","1591151","0.0-19.0-0.13","56909","List2A","white","woman","","","","null","","","","","","","","",""
"null","<img src=""stim_listA/shout8.gif""style=""height:400px;""></stim_listA>","","html-keyboard-response","397","1593155","0.0-19.0-1.13","56909","List2A","white","woman","","","","null","","","","","","","","",""
"null","is being shouted at by","","html-keyboard-response","398","1595161","0.0-19.0-2.13","56909","List2A","white","woman","","","","null","","","","","","","","",""
"14990","","","survey-text","399","1610154","0.0-19.0-3.13","56909","List2A","white","woman","","","","","{""Q0"":""kate is being shouted at by jane""}","<img src=""stim_listA/shout8.gif""style=""height:400px;""></stim_listA>","is being shouted at by","","","","","",""
"null","<div style=""font-size:60px;"">+</div>","","html-keyboard-response","400","1610666","0.0-19.0-0.14","56909","List2A","white","woman","","","","null","","","","","","","","",""
"null","<img src=""stim_listA/oppose1.gif""style=""height:400px;""></stim_listA>","","html-keyboard-response","401","1612672","0.0-19.0-1.14","56909","List2A","white","woman","","","","null","","","","","","","","",""
"null","is opposing","","html-keyboard-response","402","1614674","0.0-19.0-2.14","56909","List2A","white","woman","","","","null","","","","","","","","",""
"3855.2999999523163","","","survey-text","403","1618532","0.0-19.0-3.14","56909","List2A","white","woman","","","","","{""Q0"":""Jane is opposing Dave""}","<img src=""stim_listA/oppose1.gif""style=""height:400px;""></stim_listA>","is opposing","","","","","",""
"null","<div style=""font-size:60px;"">+</div>","","html-keyboard-response","404","1619046","0.0-19.0-0.15","56909","List2A","white","woman","","","","null","","","","","","","","",""
"null","<img src=""stim_listA/challenge1.gif""style=""height:400px;""></stim_listA>","","html-keyboard-response","405","1621059","0.0-19.0-1.15","56909","List2A","white","woman","","","","null","","","","","","","","",""
"null","is challenging","","html-keyboard-response","406","1623063","0.0-19.0-2.15","56909","List2A","white","woman","","","","null","","","","","","","","",""
"4387.699999809265","","","survey-text","407","1627454","0.0-19.0-3.15","56909","List2A","white","woman","","","","","{""Q0"":""Ruth is challenging Dave""}","<img src=""stim_listA/challenge1.gif""style=""height:400px;""></stim_listA>","is challenging","","","","","",""
"null","<div style=""font-size:60px;"">+</div>","","html-keyboard-response","408","1627965","0.0-19.0-0.16","56909","List2A","white","woman","","","","null","","","","","","","","",""
"null","<img src=""stim_listA/challenge8.gif""style=""height:400px;""></stim_listA>","","html-keyboard-response","409","1629968","0.0-19.0-1.16","56909","List2A","white","woman","","","","null","","","","","","","","",""
"null","is being challenged by","","html-keyboard-response","410","1631970","0.0-19.0-2.16","56909","List2A","white","woman","","","","null","","","","","","","","",""
"4921.099999904633","","","survey-text","411","1636894","0.0-19.0-3.16","56909","List2A","white","woman","","","","","{""Q0"":""Kate is being challenged by Ruth""}","<img src=""stim_listA/challenge8.gif""style=""height:400px;""></stim_listA>","is being challenged by","","","","","",""
"null","<div style=""font-size:60px;"">+</div>","","html-keyboard-response","412","1637400","0.0-19.0-0.17","56909","List2A","white","woman","","","","null","","","","","","","","",""
"null","<img src=""stim_listA/kiss6.gif""style=""height:400px;""></stim_listA>","","html-keyboard-response","413","1639412","0.0-19.0-1.17","56909","List2A","white","woman","","","","null","","","","","","","","",""
"null","is being kissed by","","html-keyboard-response","414","1641417","0.0-19.0-2.17","56909","List2A","white","woman","","","","null","","","","","","","","",""
"7595.099999904633","","","survey-text","415","1649016","0.0-19.0-3.17","56909","List2A","white","woman","","","","","{""Q0"":""Dave is being kissed by Mike""}","<img src=""stim_listA/kiss6.gif""style=""height:400px;""></stim_listA>","is being kissed by","","","","","",""
"null","<div style=""font-size:60px;"">+</div>","","html-keyboard-response","416","1649518","0.0-19.0-0.18","56909","List2A","white","woman","","","","null","","","","","","","","",""
"null","<img src=""stim_listA/copy6.gif""style=""height:400px;""></stim_listA>","","html-keyboard-response","417","1651524","0.0-19.0-1.18","56909","List2A","white","woman","","","","null","","","","","","","","",""
"null","is being copied by","","html-keyboard-response","418","1653531","0.0-19.0-2.18","56909","List2A","white","woman","","","","null","","","","","","","","",""
"8109","","","survey-text","419","1661644","0.0-19.0-3.18","56909","List2A","white","woman","","","","","{""Q0"":""Luke is being copied by Mike""}","<img src=""stim_listA/copy6.gif""style=""height:400px;""></stim_listA>","is being copied by","","","","","",""
"null","<div style=""font-size:60px;"">+</div>","","html-keyboard-response","420","1662152","0.0-19.0-0.19","56909","List2A","white","woman","","","","null","","","","","","","","",""
"null","<img src=""stim_listA/oppose8.gif""style=""height:400px;""></stim_listA>","","html-keyboard-response","421","1664159","0.0-19.0-1.19","56909","List2A","white","woman","","","","null","","","","","","","","",""
"null","is being opposed by","","html-keyboard-response","422","1666167","0.0-19.0-2.19","56909","List2A","white","woman","","","","null","","","","","","","","",""
"6483.799999952316","","","survey-text","423","1672654","0.0-19.0-3.19","56909","List2A","white","woman","","","","","{""Q0"":""Beth is being opposed by Ruth""}","<img src=""stim_listA/oppose8.gif""style=""height:400px;""></stim_listA>","is being opposed by","","","","","",""
"2993.899999856949","<p>Thank you for completing that task.</p><p>The final part of this session is a questionnaire that will take about 4 minutes.</p><p>Press Continue.</p>","0","html-button-response","424","1675649","0.0-20.0","56909","List2A","white","woman","","","","","","","","","","","","",""
"21913.300000190735","","","survey-text","425","1698610","0.0-21.0","56909","List2A","white","woman","","","","","{""Q0"":""30"",""Q1"":""English"",""Q2"":""English"",""Q3"":""United States"",""Q4"":""American"",""Q5"":""white"",""Q6"":""female""}","","","demographics","","","","",""
"3188.300000190735","<p>Have you lived in the USA for the last 5 years or more?</p>","0","html-button-response","426","1701802","0.0-22.0","56909","List2A","white","woman","","","","","","","","fiveyears","","","","",""
"2574.0999999046326","<p>Move the slider to show the extent to which you agree with the following statements.</p>","0","html-button-response","427","1705387","0.0-23.0","56909","List2A","white","woman","","","","","","","","","","","","",""
"6219.400000095367","","","html-slider-response","428","1712727","0.0-24.0-0.0-0.0","56909","List2A","white","woman","","","","","","","","survey_race","38","","","I am glad to be the age I am.","filler"
"5065.799999952316","","","html-slider-response","429","1717795","0.0-24.0-0.0-0.1","56909","List2A","white","woman","","","","","","","","survey_race","42","","","I often think about the fact that I am my race.","often"
"3617.7999999523163","","","html-slider-response","430","1721415","0.0-24.0-0.0-0.2","56909","List2A","white","woman","","","","","","","","survey_race","27","","","I feel solidarity with my race.","solidarity"
"5213.699999809265","","","html-slider-response","431","1726631","0.0-24.0-0.0-0.3","56909","List2A","white","woman","","","","","","","","survey_race","21","","","The fact that I am my race is an important part of my identity.","identity"
"4662","","","html-slider-response","432","1731294","0.0-24.0-0.0-0.4","56909","List2A","white","woman","","","","","","","","survey_race","54","","","People of my race are very similar to each other.","verysimilar"
"4048.0999999046326","","","html-slider-response","433","1735344","0.0-24.0-0.0-0.5","56909","List2A","white","woman","","","","","","","","survey_race","55","","","I have a lot in common with the average person of my race.","average"
"4508.200000047684","","","html-slider-response","434","1739854","0.0-24.0-0.0-0.6","56909","List2A","white","woman","","","","","","","","survey_race","28","","","Getting older does not worry me.","filler"
"9082","","","html-slider-response","435","1748938","0.0-24.0-0.0-0.7","56909","List2A","white","woman","","","","","","","","survey_race","15","","","I think that my race has a lot to be proud of.","proud"
"3442.0999999046326","","","html-slider-response","436","1752382","0.0-24.0-0.0-0.8","56909","List2A","white","woman","","","","","","","","survey_race","40","","","I am similar to the average person of my race.","similar"
"3186.7000000476837","","","html-slider-response","437","1755570","0.0-24.0-0.0-0.9","56909","List2A","white","woman","","","","","","","","survey_race","14","","","I feel a bond with my race.","bond"
"3462.100000143051","","","html-slider-response","438","1759034","0.0-24.0-0.0-0.10","56909","List2A","white","woman","","","","","","","","survey_race","38","","","Being my race gives me a good feeling.","feeling"
"4986.200000047684","","","html-slider-response","439","1764022","0.0-24.0-0.0-0.11","56909","List2A","white","woman","","","","","","","","survey_race","30","","","My age is not an important part of who I am.","filler"
"4045.600000143051","","","html-slider-response","440","1768070","0.0-24.0-0.0-0.12","56909","List2A","white","woman","","","","","","","","survey_race","67","","","I often think about the fact that I am my age.","filler"
"5321.799999952316","","","html-slider-response","441","1773394","0.0-24.0-0.0-0.13","56909","List2A","white","woman","","","","","","","","survey_race","14","","","I enjoy being in large groups.","filler"
"3362","","","html-slider-response","442","1776758","0.0-24.0-0.0-0.14","56909","List2A","white","woman","","","","","","","","survey_race","42","","","I feel solidarity with people the same age as me.","filler"
"3538.5999999046326","","","html-slider-response","443","1780298","0.0-24.0-0.0-0.15","56909","List2A","white","woman","","","","","","","","survey_race","0","","","I consider myself an extrovert.","filler"
"3140","","","html-slider-response","444","1783440","0.0-24.0-0.0-0.16","56909","List2A","white","woman","","","","","","","","survey_race","16","","","I am glad to be my race.","glad"
"4346.100000143051","","","html-slider-response","445","1787788","0.0-24.0-0.0-0.17","56909","List2A","white","woman","","","","","","","","survey_race","31","","","Being my age gives me a good feeling.","filler"
"3529.899999856949","","","html-slider-response","446","1791320","0.0-24.0-0.0-0.18","56909","List2A","white","woman","","","","","","","","survey_race","60","","","It is pleasant to be my race.","pleasant"
"3598.7999999523163","","","html-slider-response","447","1794920","0.0-24.0-0.0-0.19","56909","List2A","white","woman","","","","","","","","survey_race","41","","","People of my race have a lot in common with each other.","common"
"5096.700000047684","","","html-slider-response","448","1800018","0.0-24.0-0.0-0.20","56909","List2A","white","woman","","","","","","","","survey_race","58","","","The older I get, the wiser I feel.","filler"
"3570.2000000476837","","","html-slider-response","449","1803590","0.0-24.0-0.0-0.21","56909","List2A","white","woman","","","","","","","","survey_race","36","","","I feel a bond with people the same age as me.","filler"
"3850.0999999046326","","","html-slider-response","450","1807442","0.0-24.0-0.0-0.22","56909","List2A","white","woman","","","","","","","","survey_race","8","","","I feel committed to my race.","committed"
"2974.5","","","html-slider-response","451","1810418","0.0-24.0-0.0-0.23","56909","List2A","white","woman","","","","","","","","survey_race","94","","","I consider myself an introvert.","filler"
"2792.5","","","html-slider-response","452","1813212","0.0-24.0-0.0-0.24","56909","List2A","white","woman","","","","","","","","survey_race","31","","","I am glad to be my age.","filler"
"4986.299999952316","","","html-slider-response","453","1818200","0.0-24.0-0.0-0.25","56909","List2A","white","woman","","","","","","","","survey_race","20","","","Being my race is an important part of how I see myself.","important"
"6812.099999904633","","","html-slider-response","454","1825014","0.0-24.0-0.0-0.26","56909","List2A","white","woman","","","","","","","","survey_race","49","","","People my age have a lot in common with each other.","filler"
"7212","","","html-slider-response","455","1832228","0.0-24.0-0.0-0.27","56909","List2A","white","woman","","","","","","","","survey_race","51","","","I have a lot in common with people of a similar age to me.","filler"
"3930","","","html-slider-response","456","1836160","0.0-24.0-1.0-0.0","56909","List2A","white","woman","","","","","","","","survey_gender","88","","","I often think about my actions.","filler"
"3418.5","","","html-slider-response","457","1839580","0.0-24.0-1.0-0.1","56909","List2A","white","woman","","","","","","","","survey_gender","83","","","I am glad to have the friends that I have.","filler"
"2954.100000143051","","","html-slider-response","458","1842536","0.0-24.0-1.0-0.2","56909","List2A","white","woman","","","","","","","","survey_gender","35","","","I feel a bond with my gender.","bond"
"4986.5","","","html-slider-response","459","1847524","0.0-24.0-1.0-0.3","56909","List2A","white","woman","","","","","","","","survey_gender","92","","","Being around my friends gives me a good feeling.","filler"
"2904.2000000476837","","","html-slider-response","460","1850430","0.0-24.0-1.0-0.4","56909","List2A","white","woman","","","","","","","","survey_gender","97","","","I feel solidarity with my friends.","filler"
"4284.400000095367","","","html-slider-response","461","1854716","0.0-24.0-1.0-0.5","56909","List2A","white","woman","","","","","","","","survey_gender","85","","","It is not always easy for people to know what I am thinking.","filler"
"4743.899999856949","","","html-slider-response","462","1859462","0.0-24.0-1.0-0.6","56909","List2A","white","woman","","","","","","","","survey_gender","61","","","My friends have a lot in common with each other.","filler"
"4508.399999856949","","","html-slider-response","463","1863972","0.0-24.0-1.0-0.7","56909","List2A","white","woman","","","","","","","","survey_gender","24","","","I am similar to the average person of my gender.","similar"
"2964.2999999523163","","","html-slider-response","464","1866938","0.0-24.0-1.0-0.8","56909","List2A","white","woman","","","","","","","","survey_gender","65","","","My friends understand me.","filler"
"3739.9000000953674","","","html-slider-response","465","1870680","0.0-24.0-1.0-0.9","56909","List2A","white","woman","","","","","","","","survey_gender","84","","","I consider myself a highly empathetic person.","filler"
"4370.099999904633","","","html-slider-response","466","1875052","0.0-24.0-1.0-0.10","56909","List2A","white","woman","","","","","","","","survey_gender","50","","","I am glad to be my gender.","glad"
"4060.199999809265","","","html-slider-response","467","1879114","0.0-24.0-1.0-0.11","56909","List2A","white","woman","","","","","","","","survey_gender","30","","","People of my gender have a lot in common with each other.","common"
"3376.4000000953674","","","html-slider-response","468","1882492","0.0-24.0-1.0-0.12","56909","List2A","white","woman","","","","","","","","survey_gender","45","","","It is pleasant to be my gender.","pleasant"
"3528.199999809265","","","html-slider-response","469","1886022","0.0-24.0-1.0-0.13","56909","List2A","white","woman","","","","","","","","survey_gender","88","","","I would say I am an animal person.","filler"
"4356.799999952316","","","html-slider-response","470","1890380","0.0-24.0-1.0-0.14","56909","List2A","white","woman","","","","","","","","survey_gender","23","","","I often think about the fact that I am my gender.","often"
"3096.2999999523163","","","html-slider-response","471","1893478","0.0-24.0-1.0-0.15","56909","List2A","white","woman","","","","","","","","survey_gender","67","","","I have a lot in common with my friends.","filler"
"3880.2000000476837","","","html-slider-response","472","1897360","0.0-24.0-1.0-0.16","56909","List2A","white","woman","","","","","","","","survey_gender","15","","","People of my gender are very similar to each other.","verysimilar"
"3202.4000000953674","","","html-slider-response","473","1900564","0.0-24.0-1.0-0.17","56909","List2A","white","woman","","","","","","","","survey_gender","36","","","Routine is not important to me.","filler"
"6136.100000143051","","","html-slider-response","474","1906702","0.0-24.0-1.0-0.18","56909","List2A","white","woman","","","","","","","","survey_gender","60","","","Family is not more important to me than friendship.","filler"
"3770","","","html-slider-response","475","1910473","0.0-24.0-1.0-0.19","56909","List2A","white","woman","","","","","","","","survey_gender","37","","","Being my gender gives me a good feeling.","feeling"
