"rt","stimulus","button_pressed","trial_type","trial_index","time_elapsed","internal_node_id","subject","list","ppt_race","ppt_gender","url","first_guess","correct","key_press","responses","image_type","phrase_type","test_part","response","stimulus1","stimulus2","question_type","survey_item"
"1507.5999999046326","Welcome to the experiment. Press Continue to begin.","0","html-button-response","0","1509","0.0-0.0","56939","List2B","white","woman","","","","","","","","","","","","",""
"26714.5","","","external-html","1","29356","0.0-1.0","56939","List2B","white","woman","consent.html","","","","","","","","","","","",""
"9953","<p>On the next page, you will see portraits of 8 people and their names.</p><p>Your first task is to take a few minutes to memorise the names of these people.</p><p>You will have to recall their names during the rest of the experiment, so it is</p><p>essential that you try to memorise these people and their names as best as you can.</p><br><p><strong>You will then be tested on your memory of these names and portraits.</strong></p><br><p>The experiment will start after you have completed this memory test.</p><br><p>Ready?</p>","0","html-button-response","2","39310","0.0-2.0","56939","List2B","white","woman","","","","","","","","","","","","",""
"80367.19999980927","<img src='img/portrait_matrix_list2.jpg' style='width:900px;height:500px;''></img><p>If you have memorised all the portraits and names and are ready to start, press Continue.</p><p><strong>Please note: Your memory of these faces will be tested 4 times during this experiment.</strong></p>","0","html-button-response","3","120677","0.0-3.0-0.0","56939","List2B","white","woman","","","","","","","","","","","","",""
"2841.0999999046326","<img src=""portrait/BW1.jpg""style=""height:400px;""></img>","0","html-button-response","4","124521","0.0-3.0-1.0","56939","List2B","white","woman","","true","0","","","","","","","","","",""
"null","CORRECT","","html-keyboard-response","5","126032","0.0-3.0-2.0-0.0","56939","List2B","white","woman","","","","null","","","","","","","","",""
"2903.7999997138977","<img src=""portrait/BW2.jpg""style=""height:400px;""></img>","2","html-button-response","6","128938","0.0-3.0-4.0","56939","List2B","white","woman","","true","2","","","","","","","","","",""
"null","CORRECT","","html-keyboard-response","7","130448","0.0-3.0-5.0-0.0","56939","List2B","white","woman","","","","null","","","","","","","","",""
"1726.2000002861023","<img src=""portrait/WM1.jpg""style=""height:400px;""></img>","6","html-button-response","8","132176","0.0-3.0-7.0","56939","List2B","white","woman","","true","6","","","","","","","","","",""
"null","CORRECT","","html-keyboard-response","9","133681","0.0-3.0-8.0-0.0","56939","List2B","white","woman","","","","null","","","","","","","","",""
"1905.4000000953674","<img src=""portrait/WW2.jpg""style=""height:400px;""></img>","3","html-button-response","10","135588","0.0-3.0-10.0","56939","List2B","white","woman","","true","3","","","","","","","","","",""
"null","CORRECT","","html-keyboard-response","11","137095","0.0-3.0-11.0-0.0","56939","List2B","white","woman","","","","null","","","","","","","","",""
"2420.5","<img src=""portrait/WM2.jpg""style=""height:400px;""></img>","7","html-button-response","12","139517","0.0-3.0-13.0","56939","List2B","white","woman","","true","7","","","","","","","","","",""
"null","CORRECT","","html-keyboard-response","13","141024","0.0-3.0-14.0-0.0","56939","List2B","white","woman","","","","null","","","","","","","","",""
"2569.199999809265","<img src=""portrait/WW1.jpg""style=""height:400px;""></img>","1","html-button-response","14","143595","0.0-3.0-16.0","56939","List2B","white","woman","","true","1","","","","","","","","","",""
"null","CORRECT","","html-keyboard-response","15","145105","0.0-3.0-17.0-0.0","56939","List2B","white","woman","","","","null","","","","","","","","",""
"1774.4000000953674","<img src=""portrait/BM1.jpg""style=""height:400px;""></img>","4","html-button-response","16","146881","0.0-3.0-19.0","56939","List2B","white","woman","","true","4","","","","","","","","","",""
"null","CORRECT","","html-keyboard-response","17","148391","0.0-3.0-20.0-0.0","56939","List2B","white","woman","","","","null","","","","","","","","",""
"2190.5","<img src=""portrait/BM2.jpg""style=""height:400px;""></img>","5","html-button-response","18","150582","0.0-3.0-22.0","56939","List2B","white","woman","","true","5","","","","","","","","","",""
"null","CORRECT","","html-keyboard-response","19","152088","0.0-3.0-23.0-0.0","56939","List2B","white","woman","","","","null","","","","","","","","",""
"1258.0999999046326","<p>You got 8 out of 8 right first time. Press Continue.</p>","0","html-button-response","20","153347","0.0-3.0-25.0","56939","List2B","white","woman","","","","","","","","","","","","",""
"32454.400000095367","<p>In this experiment, you will view photographs of the people from the memory game interacting.</p><p>By using the <strong>exact</strong> phrase given <i>after</i> the photograph appears and recalling the correct names of the people in the photographs, form a sentence describing the interaction. You do not need to capitalise names.</p><p>Type your answer in the space provided. Please complete every sentence before moving onto the next trial.</p><p>You will only have a few seconds to memorise each given photograph and phrase before you can respond, so try your best to focus.</p><p>An example is given below. Press 'Continue' when you are ready.</p><img src='img/speaking_example.jpg' style='width:800px;height:460px;''></img>","0","html-button-response","21","186807","0.0-4.0","56939","List2B","white","woman","","","","","","","","","","","","",""
"1815.7999997138977","<p>Before the experiment starts, you will watch two example trials. Press 'Continue'.</p>","0","html-button-response","22","189627","0.0-5.0","56939","List2B","white","woman","","","","","","","","","","","","",""
"null","<img src='img/play_eg.gif' style='height:400px;''></img>","","html-keyboard-response","23","192635","0.0-6.0","56939","List2B","white","woman","","","","null","","","","","","","","",""
"null","<p>is playing with</p>","","html-keyboard-response","24","194635","0.0-7.0","56939","List2B","white","woman","","","","null","","","","","","","","",""
"2357.9000000953674","<p><b>Answer:</b> jane is playing with ruth</p>","0","html-button-response","25","196994","0.0-8.0","56939","List2B","white","woman","","","","","","","","","","","","",""
"null","<img src='img/dance_eg.gif' style='height:400px;''></img>","","html-keyboard-response","26","200001","0.0-9.0","56939","List2B","white","woman","","","","null","","","","","","","","",""
"null","<p>is being entertained by</p>","","html-keyboard-response","27","202003","0.0-10.0","56939","List2B","white","woman","","","","null","","","","","","","","",""
"6457.699999809265","<p><b>Answer:</b> fred is being entertained by mike</p>","0","html-button-response","28","208461","0.0-11.0","56939","List2B","white","woman","","","","","","","","","","","","",""
"6888.199999809265","<p>Ready to start the experiment?</p><br><p><strong>Remember to describe the picture using a full sentence,</strong></p><p><strong>that combines the names of the people with the <i>exact</i> phrase given.</strong></p><p><strong>To receive full payment you must do this correctly.</strong></p><p><strong> You do not need to capitalise names or use punctuation.</strong></p><br><p>Press 'Continue' to begin.</p>","0","html-button-response","29","216353","0.0-12.0","56939","List2B","white","woman","","","","","","","","","","","","",""
"null","<div style=""font-size:60px;"">+</div>","","html-keyboard-response","30","217856","0.0-13.0-0.0","56939","List2B","white","woman","","","","null","","","","","","","","",""
"null","<img src=""stim_listB/kiss3.gif""style=""height:400px;""></stim_listB>","","html-keyboard-response","31","219861","0.0-13.0-1.0","56939","List2B","white","woman","","","","null","","","","","","","","",""
"null","is kissing","","html-keyboard-response","32","221862","0.0-13.0-2.0","56939","List2B","white","woman","","","","null","","","","","","","","",""
"12002.400000095367","","","survey-text","33","233869","0.0-13.0-3.0","56939","List2B","white","woman","","","","","{""Q0"":""fred is kissing kate""}","<img src=""stim_listB/kiss3.gif""style=""height:400px;""></stim_listB>","is kissing","","","","","",""
"null","<div style=""font-size:60px;"">+</div>","","html-keyboard-response","34","234371","0.0-13.0-0.1","56939","List2B","white","woman","","","","null","","","","","","","","",""
"null","<img src=""stim_listB/oppose4.gif""style=""height:400px;""></stim_listB>","","html-keyboard-response","35","236374","0.0-13.0-1.1","56939","List2B","white","woman","","","","null","","","","","","","","",""
"null","is being opposed by","","html-keyboard-response","36","238376","0.0-13.0-2.1","56939","List2B","white","woman","","","","null","","","","","","","","",""
"20044.900000095367","","","survey-text","37","258424","0.0-13.0-3.1","56939","List2B","white","woman","","","","","{""Q0"":""fred is being opposed by beth""}","<img src=""stim_listB/oppose4.gif""style=""height:400px;""></stim_listB>","is being opposed by","","","","","",""
"null","<div style=""font-size:60px;"">+</div>","","html-keyboard-response","38","258925","0.0-13.0-0.2","56939","List2B","white","woman","","","","null","","","","","","","","",""
"null","<img src=""stim_listB/kiss2.gif""style=""height:400px;""></stim_listB>","","html-keyboard-response","39","260928","0.0-13.0-1.2","56939","List2B","white","woman","","","","null","","","","","","","","",""
"null","is being kissed by","","html-keyboard-response","40","262930","0.0-13.0-2.2","56939","List2B","white","woman","","","","null","","","","","","","","",""
"11412","","","survey-text","41","274346","0.0-13.0-3.2","56939","List2B","white","woman","","","","","{""Q0"":""dave is being kissed by jane""}","<img src=""stim_listB/kiss2.gif""style=""height:400px;""></stim_listB>","is being kissed by","","","","","",""
"null","<div style=""font-size:60px;"">+</div>","","html-keyboard-response","42","274847","0.0-13.0-0.3","56939","List2B","white","woman","","","","null","","","","","","","","",""
"null","<img src=""stim_listB/oppose3.gif""style=""height:400px;""></stim_listB>","","html-keyboard-response","43","276851","0.0-13.0-1.3","56939","List2B","white","woman","","","","null","","","","","","","","",""
"null","is opposing","","html-keyboard-response","44","278853","0.0-13.0-2.3","56939","List2B","white","woman","","","","null","","","","","","","","",""
"8855.099999904633","","","survey-text","45","287711","0.0-13.0-3.3","56939","List2B","white","woman","","","","","{""Q0"":""kate is opposing mike""}","<img src=""stim_listB/oppose3.gif""style=""height:400px;""></stim_listB>","is opposing","","","","","",""
"null","<div style=""font-size:60px;"">+</div>","","html-keyboard-response","46","288213","0.0-13.0-0.4","56939","List2B","white","woman","","","","null","","","","","","","","",""
"null","<img src=""stim_listB/copy5.gif""style=""height:400px;""></stim_listB>","","html-keyboard-response","47","290219","0.0-13.0-1.4","56939","List2B","white","woman","","","","null","","","","","","","","",""
"null","is copying","","html-keyboard-response","48","292222","0.0-13.0-2.4","56939","List2B","white","woman","","","","null","","","","","","","","",""
"8611.200000286102","","","survey-text","49","300837","0.0-13.0-3.4","56939","List2B","white","woman","","","","","{""Q0"":""dave is copying fred""}","<img src=""stim_listB/copy5.gif""style=""height:400px;""></stim_listB>","is copying","","","","","",""
"null","<div style=""font-size:60px;"">+</div>","","html-keyboard-response","50","301341","0.0-13.0-0.5","56939","List2B","white","woman","","","","null","","","","","","","","",""
"null","<img src=""stim_listB/seduce5.gif""style=""height:400px;""></stim_listB>","","html-keyboard-response","51","303346","0.0-13.0-1.5","56939","List2B","white","woman","","","","null","","","","","","","","",""
"null","is seducing","","html-keyboard-response","52","305348","0.0-13.0-2.5","56939","List2B","white","woman","","","","null","","","","","","","","",""
"9275.099999904633","","","survey-text","53","314626","0.0-13.0-3.5","56939","List2B","white","woman","","","","","{""Q0"":""luke is seducing mike""}","<img src=""stim_listB/seduce5.gif""style=""height:400px;""></stim_listB>","is seducing","","","","","",""
"null","<div style=""font-size:60px;"">+</div>","","html-keyboard-response","54","315127","0.0-13.0-0.6","56939","List2B","white","woman","","","","null","","","","","","","","",""
"null","<img src=""stim_listB/seduce6.gif""style=""height:400px;""></stim_listB>","","html-keyboard-response","55","317130","0.0-13.0-1.6","56939","List2B","white","woman","","","","null","","","","","","","","",""
"null","is being seduced by","","html-keyboard-response","56","319133","0.0-13.0-2.6","56939","List2B","white","woman","","","","null","","","","","","","","",""
"9154.400000095367","","","survey-text","57","328290","0.0-13.0-3.6","56939","List2B","white","woman","","","","","{""Q0"":""dave is being seduced by fred""}","<img src=""stim_listB/seduce6.gif""style=""height:400px;""></stim_listB>","is being seduced by","","","","","",""
"null","<div style=""font-size:60px;"">+</div>","","html-keyboard-response","58","328792","0.0-13.0-0.7","56939","List2B","white","woman","","","","null","","","","","","","","",""
"null","<img src=""stim_listB/challenge8.gif""style=""height:400px;""></stim_listB>","","html-keyboard-response","59","330795","0.0-13.0-1.7","56939","List2B","white","woman","","","","null","","","","","","","","",""
"null","is being challenged by","","html-keyboard-response","60","332797","0.0-13.0-2.7","56939","List2B","white","woman","","","","null","","","","","","","","",""
"9738.599999904633","","","survey-text","61","342539","0.0-13.0-3.7","56939","List2B","white","woman","","","","","{""Q0"":""ruth is being challenged by kate""}","<img src=""stim_listB/challenge8.gif""style=""height:400px;""></stim_listB>","is being challenged by","","","","","",""
"null","<div style=""font-size:60px;"">+</div>","","html-keyboard-response","62","343043","0.0-13.0-0.8","56939","List2B","white","woman","","","","null","","","","","","","","",""
"null","<img src=""stim_listB/hug3.gif""style=""height:400px;""></stim_listB>","","html-keyboard-response","63","345045","0.0-13.0-1.8","56939","List2B","white","woman","","","","null","","","","","","","","",""
"null","is hugging","","html-keyboard-response","64","347048","0.0-13.0-2.8","56939","List2B","white","woman","","","","null","","","","","","","","",""
"11578.699999809265","","","survey-text","65","358630","0.0-13.0-3.8","56939","List2B","white","woman","","","","","{""Q0"":""fred is hugging beth""}","<img src=""stim_listB/hug3.gif""style=""height:400px;""></stim_listB>","is hugging","","","","","",""
"null","<div style=""font-size:60px;"">+</div>","","html-keyboard-response","66","359134","0.0-13.0-0.9","56939","List2B","white","woman","","","","null","","","","","","","","",""
"null","<img src=""stim_listB/look4.gif""style=""height:400px;""></stim_listB>","","html-keyboard-response","67","361136","0.0-13.0-1.9","56939","List2B","white","woman","","","","null","","","","","","","","",""
"null","is being looked at by","","html-keyboard-response","68","363139","0.0-13.0-2.9","56939","List2B","white","woman","","","","null","","","","","","","","",""
"8393.200000286102","","","survey-text","69","371535","0.0-13.0-3.9","56939","List2B","white","woman","","","","","{""Q0"":""kate is being looked at by mike""}","<img src=""stim_listB/look4.gif""style=""height:400px;""></stim_listB>","is being looked at by","","","","","",""
"null","<div style=""font-size:60px;"">+</div>","","html-keyboard-response","70","372037","0.0-13.0-0.10","56939","List2B","white","woman","","","","null","","","","","","","","",""
"null","<img src=""stim_listB/copy1.gif""style=""height:400px;""></stim_listB>","","html-keyboard-response","71","374040","0.0-13.0-1.10","56939","List2B","white","woman","","","","null","","","","","","","","",""
"null","is copying","","html-keyboard-response","72","376043","0.0-13.0-2.10","56939","List2B","white","woman","","","","null","","","","","","","","",""
"9526.599999904633","","","survey-text","73","385573","0.0-13.0-3.10","56939","List2B","white","woman","","","","","{""Q0"":""dave is copying ruth""}","<img src=""stim_listB/copy1.gif""style=""height:400px;""></stim_listB>","is copying","","","","","",""
"null","<div style=""font-size:60px;"">+</div>","","html-keyboard-response","74","386074","0.0-13.0-0.11","56939","List2B","white","woman","","","","null","","","","","","","","",""
"null","<img src=""stim_listB/look6.gif""style=""height:400px;""></stim_listB>","","html-keyboard-response","75","388076","0.0-13.0-1.11","56939","List2B","white","woman","","","","null","","","","","","","","",""
"null","is being looked at by","","html-keyboard-response","76","390079","0.0-13.0-2.11","56939","List2B","white","woman","","","","null","","","","","","","","",""
"8055.099999904633","","","survey-text","77","398137","0.0-13.0-3.11","56939","List2B","white","woman","","","","","{""Q0"":""dave is being looked at by mike""}","<img src=""stim_listB/look6.gif""style=""height:400px;""></stim_listB>","is being looked at by","","","","","",""
"null","<div style=""font-size:60px;"">+</div>","","html-keyboard-response","78","398641","0.0-13.0-0.12","56939","List2B","white","woman","","","","null","","","","","","","","",""
"null","<img src=""stim_listB/oppose1.gif""style=""height:400px;""></stim_listB>","","html-keyboard-response","79","400643","0.0-13.0-1.12","56939","List2B","white","woman","","","","null","","","","","","","","",""
"null","is opposing","","html-keyboard-response","80","402646","0.0-13.0-2.12","56939","List2B","white","woman","","","","null","","","","","","","","",""
"7726.300000190735","","","survey-text","81","410376","0.0-13.0-3.12","56939","List2B","white","woman","","","","","{""Q0"":""jane is opposing dave""}","<img src=""stim_listB/oppose1.gif""style=""height:400px;""></stim_listB>","is opposing","","","","","",""
"null","<div style=""font-size:60px;"">+</div>","","html-keyboard-response","82","410878","0.0-13.0-0.13","56939","List2B","white","woman","","","","null","","","","","","","","",""
"null","<img src=""stim_listB/copy3.gif""style=""height:400px;""></stim_listB>","","html-keyboard-response","83","412880","0.0-13.0-1.13","56939","List2B","white","woman","","","","null","","","","","","","","",""
"null","is copying","","html-keyboard-response","84","414883","0.0-13.0-2.13","56939","List2B","white","woman","","","","null","","","","","","","","",""
"6408.199999809265","","","survey-text","85","421295","0.0-13.0-3.13","56939","List2B","white","woman","","","","","{""Q0"":""beth is copying mike""}","<img src=""stim_listB/copy3.gif""style=""height:400px;""></stim_listB>","is copying","","","","","",""
"null","<div style=""font-size:60px;"">+</div>","","html-keyboard-response","86","421796","0.0-13.0-0.14","56939","List2B","white","woman","","","","null","","","","","","","","",""
"null","<img src=""stim_listB/hug5.gif""style=""height:400px;""></stim_listB>","","html-keyboard-response","87","423799","0.0-13.0-1.14","56939","List2B","white","woman","","","","null","","","","","","","","",""
"null","is hugging","","html-keyboard-response","88","425802","0.0-13.0-2.14","56939","List2B","white","woman","","","","null","","","","","","","","",""
"6885","","","survey-text","89","432690","0.0-13.0-3.14","56939","List2B","white","woman","","","","","{""Q0"":""fred is hugging luke""}","<img src=""stim_listB/hug5.gif""style=""height:400px;""></stim_listB>","is hugging","","","","","",""
"null","<div style=""font-size:60px;"">+</div>","","html-keyboard-response","90","433191","0.0-13.0-0.15","56939","List2B","white","woman","","","","null","","","","","","","","",""
"null","<img src=""stim_listB/seduce8.gif""style=""height:400px;""></stim_listB>","","html-keyboard-response","91","435193","0.0-13.0-1.15","56939","List2B","white","woman","","","","null","","","","","","","","",""
"null","is being seduced by","","html-keyboard-response","92","437197","0.0-13.0-2.15","56939","List2B","white","woman","","","","null","","","","","","","","",""
"7998.900000095367","","","survey-text","93","445199","0.0-13.0-3.15","56939","List2B","white","woman","","","","","{""Q0"":""beth is being seduced by jane""}","<img src=""stim_listB/seduce8.gif""style=""height:400px;""></stim_listB>","is being seduced by","","","","","",""
"null","<div style=""font-size:60px;"">+</div>","","html-keyboard-response","94","445701","0.0-13.0-0.16","56939","List2B","white","woman","","","","null","","","","","","","","",""
"null","<img src=""stim_listB/seduce1.gif""style=""height:400px;""></stim_listB>","","html-keyboard-response","95","447703","0.0-13.0-1.16","56939","List2B","white","woman","","","","null","","","","","","","","",""
"null","is seducing","","html-keyboard-response","96","449706","0.0-13.0-2.16","56939","List2B","white","woman","","","","null","","","","","","","","",""
"8090.300000190735","","","survey-text","97","457800","0.0-13.0-3.16","56939","List2B","white","woman","","","","","{""Q0"":""jane is seducing luke""}","<img src=""stim_listB/seduce1.gif""style=""height:400px;""></stim_listB>","is seducing","","","","","",""
"null","<div style=""font-size:60px;"">+</div>","","html-keyboard-response","98","458303","0.0-13.0-0.17","56939","List2B","white","woman","","","","null","","","","","","","","",""
"null","<img src=""stim_listB/seduce2.gif""style=""height:400px;""></stim_listB>","","html-keyboard-response","99","460308","0.0-13.0-1.17","56939","List2B","white","woman","","","","null","","","","","","","","",""
"null","is being seduced by","","html-keyboard-response","100","462309","0.0-13.0-2.17","56939","List2B","white","woman","","","","null","","","","","","","","",""
"8220.199999809265","","","survey-text","101","470532","0.0-13.0-3.17","56939","List2B","white","woman","","","","","{""Q0"":""dave is being seduced by ruth""}","<img src=""stim_listB/seduce2.gif""style=""height:400px;""></stim_listB>","is being seduced by","","","","","",""
"null","<div style=""font-size:60px;"">+</div>","","html-keyboard-response","102","471034","0.0-13.0-0.18","56939","List2B","white","woman","","","","null","","","","","","","","",""
"null","<img src=""stim_listB/kiss6.gif""style=""height:400px;""></stim_listB>","","html-keyboard-response","103","473035","0.0-13.0-1.18","56939","List2B","white","woman","","","","null","","","","","","","","",""
"null","is being kissed by","","html-keyboard-response","104","475038","0.0-13.0-2.18","56939","List2B","white","woman","","","","null","","","","","","","","",""
"9358.699999809265","","","survey-text","105","484400","0.0-13.0-3.18","56939","List2B","white","woman","","","","","{""Q0"":""dave is being kissed by mike""}","<img src=""stim_listB/kiss6.gif""style=""height:400px;""></stim_listB>","is being kissed by","","","","","",""
"null","<div style=""font-size:60px;"">+</div>","","html-keyboard-response","106","484901","0.0-13.0-0.19","56939","List2B","white","woman","","","","null","","","","","","","","",""
"null","<img src=""stim_listB/copy8.gif""style=""height:400px;""></stim_listB>","","html-keyboard-response","107","486903","0.0-13.0-1.19","56939","List2B","white","woman","","","","null","","","","","","","","",""
"null","is being copied by","","html-keyboard-response","108","488906","0.0-13.0-2.19","56939","List2B","white","woman","","","","null","","","","","","","","",""
"13439.699999809265","","","survey-text","109","502349","0.0-13.0-3.19","56939","List2B","white","woman","","","","","{""Q0"":""ruth is being copied by kate""}","<img src=""stim_listB/copy8.gif""style=""height:400px;""></stim_listB>","is being copied by","","","","","",""
"12115.599999904633","<img src='img/portrait_matrix_list2.jpg' style='width:900px;height:500px;''></img><p>If you have memorised all the portraits and names and are ready to start, press Continue.</p><p><strong>Please note: Your memory of these faces will be tested 4 times during this experiment.</strong></p>","0","html-button-response","110","514466","0.0-14.0-0.0","56939","List2B","white","woman","","","","","","","","","","","","",""
"2475.0999999046326","<img src=""portrait/WM2.jpg""style=""height:400px;""></img>","7","html-button-response","111","517945","0.0-14.0-1.0","56939","List2B","white","woman","","true","7","","","","","","","","","",""
"null","CORRECT","","html-keyboard-response","112","519456","0.0-14.0-2.0-0.0","56939","List2B","white","woman","","","","null","","","","","","","","",""
"2335.9000000953674","<img src=""portrait/BW1.jpg""style=""height:400px;""></img>","0","html-button-response","113","521793","0.0-14.0-4.0","56939","List2B","white","woman","","true","0","","","","","","","","","",""
"null","CORRECT","","html-keyboard-response","114","523299","0.0-14.0-5.0-0.0","56939","List2B","white","woman","","","","null","","","","","","","","",""
"2280.7999997138977","<img src=""portrait/BM2.jpg""style=""height:400px;""></img>","5","html-button-response","115","525581","0.0-14.0-7.0","56939","List2B","white","woman","","true","5","","","","","","","","","",""
"null","CORRECT","","html-keyboard-response","116","527089","0.0-14.0-8.0-0.0","56939","List2B","white","woman","","","","null","","","","","","","","",""
"2742.4000000953674","<img src=""portrait/WW1.jpg""style=""height:400px;""></img>","1","html-button-response","117","529833","0.0-14.0-10.0","56939","List2B","white","woman","","true","1","","","","","","","","","",""
"null","CORRECT","","html-keyboard-response","118","531338","0.0-14.0-11.0-0.0","56939","List2B","white","woman","","","","null","","","","","","","","",""
"2264.300000190735","<img src=""portrait/BW2.jpg""style=""height:400px;""></img>","2","html-button-response","119","533604","0.0-14.0-13.0","56939","List2B","white","woman","","true","2","","","","","","","","","",""
"null","CORRECT","","html-keyboard-response","120","535112","0.0-14.0-14.0-0.0","56939","List2B","white","woman","","","","null","","","","","","","","",""
"1719.6999998092651","<img src=""portrait/WM1.jpg""style=""height:400px;""></img>","6","html-button-response","121","536833","0.0-14.0-16.0","56939","List2B","white","woman","","true","6","","","","","","","","","",""
"null","CORRECT","","html-keyboard-response","122","538339","0.0-14.0-17.0-0.0","56939","List2B","white","woman","","","","null","","","","","","","","",""
"2706.199999809265","<img src=""portrait/BM1.jpg""style=""height:400px;""></img>","4","html-button-response","123","541047","0.0-14.0-19.0","56939","List2B","white","woman","","true","4","","","","","","","","","",""
"null","CORRECT","","html-keyboard-response","124","542553","0.0-14.0-20.0-0.0","56939","List2B","white","woman","","","","null","","","","","","","","",""
"2097.5999999046326","<img src=""portrait/WW2.jpg""style=""height:400px;""></img>","3","html-button-response","125","544652","0.0-14.0-22.0","56939","List2B","white","woman","","true","3","","","","","","","","","",""
"null","CORRECT","","html-keyboard-response","126","546164","0.0-14.0-23.0-0.0","56939","List2B","white","woman","","","","null","","","","","","","","",""
"1775.5999999046326","<p>You got 8 out of 8 right first time. Press Continue.</p>","0","html-button-response","127","547941","0.0-14.0-25.0","56939","List2B","white","woman","","","","","","","","","","","","",""
"null","<div style=""font-size:60px;"">+</div>","","html-keyboard-response","128","549449","0.0-15.0-0.0","56939","List2B","white","woman","","","","null","","","","","","","","",""
"null","<img src=""stim_listB/challenge5.gif""style=""height:400px;""></stim_listB>","","html-keyboard-response","129","551452","0.0-15.0-1.0","56939","List2B","white","woman","","","","null","","","","","","","","",""
"null","is challenging","","html-keyboard-response","130","553454","0.0-15.0-2.0","56939","List2B","white","woman","","","","null","","","","","","","","",""
"10262.5","","","survey-text","131","563720","0.0-15.0-3.0","56939","List2B","white","woman","","","","","{""Q0"":""dave is challenging fred""}","<img src=""stim_listB/challenge5.gif""style=""height:400px;""></stim_listB>","is challenging","","","","","",""
"null","<div style=""font-size:60px;"">+</div>","","html-keyboard-response","132","564223","0.0-15.0-0.1","56939","List2B","white","woman","","","","null","","","","","","","","",""
"null","<img src=""stim_listB/hug7.gif""style=""height:400px;""></stim_listB>","","html-keyboard-response","133","566225","0.0-15.0-1.1","56939","List2B","white","woman","","","","null","","","","","","","","",""
"null","is hugging","","html-keyboard-response","134","568228","0.0-15.0-2.1","56939","List2B","white","woman","","","","null","","","","","","","","",""
"6597.599999904633","","","survey-text","135","574829","0.0-15.0-3.1","56939","List2B","white","woman","","","","","{""Q0"":""ruth is hugging beth""}","<img src=""stim_listB/hug7.gif""style=""height:400px;""></stim_listB>","is hugging","","","","","",""
"null","<div style=""font-size:60px;"">+</div>","","html-keyboard-response","136","575333","0.0-15.0-0.2","56939","List2B","white","woman","","","","null","","","","","","","","",""
"null","<img src=""stim_listB/look5.gif""style=""height:400px;""></stim_listB>","","html-keyboard-response","137","577339","0.0-15.0-1.2","56939","List2B","white","woman","","","","null","","","","","","","","",""
"null","is looking at","","html-keyboard-response","138","579344","0.0-15.0-2.2","56939","List2B","white","woman","","","","null","","","","","","","","",""
"8326.5","","","survey-text","139","587674","0.0-15.0-3.2","56939","List2B","white","woman","","","","","{""Q0"":""luke is looking at fred""}","<img src=""stim_listB/look5.gif""style=""height:400px;""></stim_listB>","is looking at","","","","","",""
"null","<div style=""font-size:60px;"">+</div>","","html-keyboard-response","140","588176","0.0-15.0-0.3","56939","List2B","white","woman","","","","null","","","","","","","","",""
"null","<img src=""stim_listB/oppose5.gif""style=""height:400px;""></stim_listB>","","html-keyboard-response","141","590182","0.0-15.0-1.3","56939","List2B","white","woman","","","","null","","","","","","","","",""
"null","is opposing","","html-keyboard-response","142","592184","0.0-15.0-2.3","56939","List2B","white","woman","","","","null","","","","","","","","",""
"5756.599999904633","","","survey-text","143","597945","0.0-15.0-3.3","56939","List2B","white","woman","","","","","{""Q0"":""mike is opposing dave""}","<img src=""stim_listB/oppose5.gif""style=""height:400px;""></stim_listB>","is opposing","","","","","",""
"null","<div style=""font-size:60px;"">+</div>","","html-keyboard-response","144","598448","0.0-15.0-0.4","56939","List2B","white","woman","","","","null","","","","","","","","",""
"null","<img src=""stim_listB/challenge1.gif""style=""height:400px;""></stim_listB>","","html-keyboard-response","145","600451","0.0-15.0-1.4","56939","List2B","white","woman","","","","null","","","","","","","","",""
"null","is challenging","","html-keyboard-response","146","602453","0.0-15.0-2.4","56939","List2B","white","woman","","","","null","","","","","","","","",""
"6520.5","","","survey-text","147","608977","0.0-15.0-3.4","56939","List2B","white","woman","","","","","{""Q0"":""dave is challenging ruth""}","<img src=""stim_listB/challenge1.gif""style=""height:400px;""></stim_listB>","is challenging","","","","","",""
"null","<div style=""font-size:60px;"">+</div>","","html-keyboard-response","148","609479","0.0-15.0-0.5","56939","List2B","white","woman","","","","null","","","","","","","","",""
"null","<img src=""stim_listB/greet4.gif""style=""height:400px;""></stim_listB>","","html-keyboard-response","149","611481","0.0-15.0-1.5","56939","List2B","white","woman","","","","null","","","","","","","","",""
"null","is being greeted by","","html-keyboard-response","150","613482","0.0-15.0-2.5","56939","List2B","white","woman","","","","null","","","","","","","","",""
"11557","","","survey-text","151","625043","0.0-15.0-3.5","56939","List2B","white","woman","","","","","{""Q0"":""fred is being greeted by kate""}","<img src=""stim_listB/greet4.gif""style=""height:400px;""></stim_listB>","is being greeted by","","","","","",""
"null","<div style=""font-size:60px;"">+</div>","","html-keyboard-response","152","625545","0.0-15.0-0.6","56939","List2B","white","woman","","","","null","","","","","","","","",""
"null","<img src=""stim_listB/oppose6.gif""style=""height:400px;""></stim_listB>","","html-keyboard-response","153","627547","0.0-15.0-1.6","56939","List2B","white","woman","","","","null","","","","","","","","",""
"null","is being opposed by","","html-keyboard-response","154","629550","0.0-15.0-2.6","56939","List2B","white","woman","","","","null","","","","","","","","",""
"9506.699999809265","","","survey-text","155","639060","0.0-15.0-3.6","56939","List2B","white","woman","","","","","{""Q0"":""fred is being opposed by luke""}","<img src=""stim_listB/oppose6.gif""style=""height:400px;""></stim_listB>","is being opposed by","","","","","",""
"null","<div style=""font-size:60px;"">+</div>","","html-keyboard-response","156","639563","0.0-15.0-0.7","56939","List2B","white","woman","","","","null","","","","","","","","",""
"null","<img src=""stim_listB/greet8.gif""style=""height:400px;""></stim_listB>","","html-keyboard-response","157","641566","0.0-15.0-1.7","56939","List2B","white","woman","","","","null","","","","","","","","",""
"null","is being greeted by","","html-keyboard-response","158","643569","0.0-15.0-2.7","56939","List2B","white","woman","","","","null","","","","","","","","",""
"9576.5","","","survey-text","159","653149","0.0-15.0-3.7","56939","List2B","white","woman","","","","","{""Q0"":""kate is being greeted by ruth""}","<img src=""stim_listB/greet8.gif""style=""height:400px;""></stim_listB>","is being greeted by","","","","","",""
"null","<div style=""font-size:60px;"">+</div>","","html-keyboard-response","160","653651","0.0-15.0-0.8","56939","List2B","white","woman","","","","null","","","","","","","","",""
"null","<img src=""stim_listB/kiss8.gif""style=""height:400px;""></stim_listB>","","html-keyboard-response","161","655654","0.0-15.0-1.8","56939","List2B","white","woman","","","","null","","","","","","","","",""
"null","is being kissed by","","html-keyboard-response","162","657656","0.0-15.0-2.8","56939","List2B","white","woman","","","","null","","","","","","","","",""
"9722.400000095367","","","survey-text","163","667381","0.0-15.0-3.8","56939","List2B","white","woman","","","","","{""Q0"":""kate is being kissed by jane""}","<img src=""stim_listB/kiss8.gif""style=""height:400px;""></stim_listB>","is being kissed by","","","","","",""
"null","<div style=""font-size:60px;"">+</div>","","html-keyboard-response","164","667885","0.0-15.0-0.9","56939","List2B","white","woman","","","","null","","","","","","","","",""
"null","<img src=""stim_listB/copy2.gif""style=""height:400px;""></stim_listB>","","html-keyboard-response","165","669891","0.0-15.0-1.9","56939","List2B","white","woman","","","","null","","","","","","","","",""
"null","is being copied by","","html-keyboard-response","166","671893","0.0-15.0-2.9","56939","List2B","white","woman","","","","null","","","","","","","","",""
"8292.099999904633","","","survey-text","167","680189","0.0-15.0-3.9","56939","List2B","white","woman","","","","","{""Q0"":""luke is being copied by jane""}","<img src=""stim_listB/copy2.gif""style=""height:400px;""></stim_listB>","is being copied by","","","","","",""
"null","<div style=""font-size:60px;"">+</div>","","html-keyboard-response","168","680690","0.0-15.0-0.10","56939","List2B","white","woman","","","","null","","","","","","","","",""
"null","<img src=""stim_listB/hug6.gif""style=""height:400px;""></stim_listB>","","html-keyboard-response","169","682692","0.0-15.0-1.10","56939","List2B","white","woman","","","","null","","","","","","","","",""
"null","is being hugged by","","html-keyboard-response","170","684696","0.0-15.0-2.10","56939","List2B","white","woman","","","","null","","","","","","","","",""
"7218.800000190735","","","survey-text","171","691918","0.0-15.0-3.10","56939","List2B","white","woman","","","","","{""Q0"":""dave is being hugged by mike""}","<img src=""stim_listB/hug6.gif""style=""height:400px;""></stim_listB>","is being hugged by","","","","","",""
"null","<div style=""font-size:60px;"">+</div>","","html-keyboard-response","172","692421","0.0-15.0-0.11","56939","List2B","white","woman","","","","null","","","","","","","","",""
"null","<img src=""stim_listB/shout3.gif""style=""height:400px;""></stim_listB>","","html-keyboard-response","173","694424","0.0-15.0-1.11","56939","List2B","white","woman","","","","null","","","","","","","","",""
"null","is shouting at","","html-keyboard-response","174","696426","0.0-15.0-2.11","56939","List2B","white","woman","","","","null","","","","","","","","",""
"7078.5","","","survey-text","175","703508","0.0-15.0-3.11","56939","List2B","white","woman","","","","","{""Q0"":""beth is shouting at fred""}","<img src=""stim_listB/shout3.gif""style=""height:400px;""></stim_listB>","is shouting at","","","","","",""
"null","<div style=""font-size:60px;"">+</div>","","html-keyboard-response","176","704009","0.0-15.0-0.12","56939","List2B","white","woman","","","","null","","","","","","","","",""
"null","<img src=""stim_listB/look7.gif""style=""height:400px;""></stim_listB>","","html-keyboard-response","177","706011","0.0-15.0-1.12","56939","List2B","white","woman","","","","null","","","","","","","","",""
"null","is looking at","","html-keyboard-response","178","708013","0.0-15.0-2.12","56939","List2B","white","woman","","","","null","","","","","","","","",""
"8097.699999809265","","","survey-text","179","716114","0.0-15.0-3.12","56939","List2B","white","woman","","","","","{""Q0"":""beth is looking at ruth""}","<img src=""stim_listB/look7.gif""style=""height:400px;""></stim_listB>","is looking at","","","","","",""
"null","<div style=""font-size:60px;"">+</div>","","html-keyboard-response","180","716616","0.0-15.0-0.13","56939","List2B","white","woman","","","","null","","","","","","","","",""
"null","<img src=""stim_listB/challenge3.gif""style=""height:400px;""></stim_listB>","","html-keyboard-response","181","718618","0.0-15.0-1.13","56939","List2B","white","woman","","","","null","","","","","","","","",""
"null","is challenging","","html-keyboard-response","182","720619","0.0-15.0-2.13","56939","List2B","white","woman","","","","null","","","","","","","","",""
"10646.800000190735","","","survey-text","183","731268","0.0-15.0-3.13","56939","List2B","white","woman","","","","","{""Q0"":""beth is challenging mike""}","<img src=""stim_listB/challenge3.gif""style=""height:400px;""></stim_listB>","is challenging","","","","","",""
"null","<div style=""font-size:60px;"">+</div>","","html-keyboard-response","184","731772","0.0-15.0-0.14","56939","List2B","white","woman","","","","null","","","","","","","","",""
"null","<img src=""stim_listB/greet5.gif""style=""height:400px;""></stim_listB>","","html-keyboard-response","185","733775","0.0-15.0-1.14","56939","List2B","white","woman","","","","null","","","","","","","","",""
"null","is greeting","","html-keyboard-response","186","735777","0.0-15.0-2.14","56939","List2B","white","woman","","","","null","","","","","","","","",""
"5958.800000190735","","","survey-text","187","741740","0.0-15.0-3.14","56939","List2B","white","woman","","","","","{""Q0"":""dave is greeting fred""}","<img src=""stim_listB/greet5.gif""style=""height:400px;""></stim_listB>","is greeting","","","","","",""
"null","<div style=""font-size:60px;"">+</div>","","html-keyboard-response","188","742243","0.0-15.0-0.15","56939","List2B","white","woman","","","","null","","","","","","","","",""
"null","<img src=""stim_listB/shout1.gif""style=""height:400px;""></stim_listB>","","html-keyboard-response","189","744247","0.0-15.0-1.15","56939","List2B","white","woman","","","","null","","","","","","","","",""
"null","is shouting at","","html-keyboard-response","190","746249","0.0-15.0-2.15","56939","List2B","white","woman","","","","null","","","","","","","","",""
"8466.599999904633","","","survey-text","191","754719","0.0-15.0-3.15","56939","List2B","white","woman","","","","","{""Q0"":""ruth is shouting at luke""}","<img src=""stim_listB/shout1.gif""style=""height:400px;""></stim_listB>","is shouting at","","","","","",""
"null","<div style=""font-size:60px;"">+</div>","","html-keyboard-response","192","755224","0.0-15.0-0.16","56939","List2B","white","woman","","","","null","","","","","","","","",""
"null","<img src=""stim_listB/challenge4.gif""style=""height:400px;""></stim_listB>","","html-keyboard-response","193","757226","0.0-15.0-1.16","56939","List2B","white","woman","","","","null","","","","","","","","",""
"null","is being challenged by","","html-keyboard-response","194","759228","0.0-15.0-2.16","56939","List2B","white","woman","","","","null","","","","","","","","",""
"10158.10000038147","","","survey-text","195","769390","0.0-15.0-3.16","56939","List2B","white","woman","","","","","{""Q0"":""kate is being challenged by fred""}","<img src=""stim_listB/challenge4.gif""style=""height:400px;""></stim_listB>","is being challenged by","","","","","",""
"null","<div style=""font-size:60px;"">+</div>","","html-keyboard-response","196","769892","0.0-15.0-0.17","56939","List2B","white","woman","","","","null","","","","","","","","",""
"null","<img src=""stim_listB/oppose2.gif""style=""height:400px;""></stim_listB>","","html-keyboard-response","197","771895","0.0-15.0-1.17","56939","List2B","white","woman","","","","null","","","","","","","","",""
"null","is being opposed by","","html-keyboard-response","198","773898","0.0-15.0-2.17","56939","List2B","white","woman","","","","null","","","","","","","","",""
"15507.299999713898","","","survey-text","199","789408","0.0-15.0-3.17","56939","List2B","white","woman","","","","","{""Q0"":""luke is being opposed by ruth""}","<img src=""stim_listB/oppose2.gif""style=""height:400px;""></stim_listB>","is being opposed by","","","","","",""
"null","<div style=""font-size:60px;"">+</div>","","html-keyboard-response","200","789909","0.0-15.0-0.18","56939","List2B","white","woman","","","","null","","","","","","","","",""
"null","<img src=""stim_listB/shout8.gif""style=""height:400px;""></stim_listB>","","html-keyboard-response","201","791911","0.0-15.0-1.18","56939","List2B","white","woman","","","","null","","","","","","","","",""
"null","is being shouted at by","","html-keyboard-response","202","793912","0.0-15.0-2.18","56939","List2B","white","woman","","","","null","","","","","","","","",""
"9909.300000190735","","","survey-text","203","803825","0.0-15.0-3.18","56939","List2B","white","woman","","","","","{""Q0"":""kate is being shouted at by jane""}","<img src=""stim_listB/shout8.gif""style=""height:400px;""></stim_listB>","is being shouted at by","","","","","",""
"null","<div style=""font-size:60px;"">+</div>","","html-keyboard-response","204","804326","0.0-15.0-0.19","56939","List2B","white","woman","","","","null","","","","","","","","",""
"null","<img src=""stim_listB/seduce3.gif""style=""height:400px;""></stim_listB>","","html-keyboard-response","205","806329","0.0-15.0-1.19","56939","List2B","white","woman","","","","null","","","","","","","","",""
"null","is seducing","","html-keyboard-response","206","808332","0.0-15.0-2.19","56939","List2B","white","woman","","","","null","","","","","","","","",""
"10315","","","survey-text","207","818650","0.0-15.0-3.19","56939","List2B","white","woman","","","","","{""Q0"":""fred is seducing kate""}","<img src=""stim_listB/seduce3.gif""style=""height:400px;""></stim_listB>","is seducing","","","","","",""
"14840.599999904633","<img src='img/portrait_matrix_list2.jpg' style='width:900px;height:500px;''></img><p>If you have memorised all the portraits and names and are ready to start, press Continue.</p><p><strong>Please note: Your memory of these faces will be tested 4 times during this experiment.</strong></p>","0","html-button-response","208","833492","0.0-16.0-0.0","56939","List2B","white","woman","","","","","","","","","","","","",""
"1754.7999997138977","<img src=""portrait/BM1.jpg""style=""height:400px;""></img>","4","html-button-response","209","836250","0.0-16.0-1.0","56939","List2B","white","woman","","true","4","","","","","","","","","",""
"null","CORRECT","","html-keyboard-response","210","837756","0.0-16.0-2.0-0.0","56939","List2B","white","woman","","","","null","","","","","","","","",""
"1921.0999999046326","<img src=""portrait/BW1.jpg""style=""height:400px;""></img>","0","html-button-response","211","839679","0.0-16.0-4.0","56939","List2B","white","woman","","true","0","","","","","","","","","",""
"null","CORRECT","","html-keyboard-response","212","841187","0.0-16.0-5.0-0.0","56939","List2B","white","woman","","","","null","","","","","","","","",""
"1806.3999996185303","<img src=""portrait/WM1.jpg""style=""height:400px;""></img>","6","html-button-response","213","842995","0.0-16.0-7.0","56939","List2B","white","woman","","true","6","","","","","","","","","",""
"null","CORRECT","","html-keyboard-response","214","844501","0.0-16.0-8.0-0.0","56939","List2B","white","woman","","","","null","","","","","","","","",""
"1299.0999999046326","<img src=""portrait/WW2.jpg""style=""height:400px;""></img>","3","html-button-response","215","845802","0.0-16.0-10.0","56939","List2B","white","woman","","true","3","","","","","","","","","",""
"null","CORRECT","","html-keyboard-response","216","847311","0.0-16.0-11.0-0.0","56939","List2B","white","woman","","","","null","","","","","","","","",""
"1628.7999997138977","<img src=""portrait/WW1.jpg""style=""height:400px;""></img>","1","html-button-response","217","848941","0.0-16.0-13.0","56939","List2B","white","woman","","true","1","","","","","","","","","",""
"null","CORRECT","","html-keyboard-response","218","850451","0.0-16.0-14.0-0.0","56939","List2B","white","woman","","","","null","","","","","","","","",""
"1984.0999999046326","<img src=""portrait/WM2.jpg""style=""height:400px;""></img>","7","html-button-response","219","852437","0.0-16.0-16.0","56939","List2B","white","woman","","true","7","","","","","","","","","",""
"null","CORRECT","","html-keyboard-response","220","853946","0.0-16.0-17.0-0.0","56939","List2B","white","woman","","","","null","","","","","","","","",""
"1815.2999997138977","<img src=""portrait/BW2.jpg""style=""height:400px;""></img>","2","html-button-response","221","855763","0.0-16.0-19.0","56939","List2B","white","woman","","true","2","","","","","","","","","",""
"null","CORRECT","","html-keyboard-response","222","857272","0.0-16.0-20.0-0.0","56939","List2B","white","woman","","","","null","","","","","","","","",""
"1839.2000002861023","<img src=""portrait/BM2.jpg""style=""height:400px;""></img>","5","html-button-response","223","859113","0.0-16.0-22.0","56939","List2B","white","woman","","true","5","","","","","","","","","",""
"null","CORRECT","","html-keyboard-response","224","860621","0.0-16.0-23.0-0.0","56939","List2B","white","woman","","","","null","","","","","","","","",""
"1394.4000000953674","<p>You got 8 out of 8 right first time. Press Continue.</p>","0","html-button-response","225","862017","0.0-16.0-25.0","56939","List2B","white","woman","","","","","","","","","","","","",""
"null","<div style=""font-size:60px;"">+</div>","","html-keyboard-response","226","863523","0.0-17.0-0.0","56939","List2B","white","woman","","","","null","","","","","","","","",""
"null","<img src=""stim_listB/shout7.gif""style=""height:400px;""></stim_listB>","","html-keyboard-response","227","865526","0.0-17.0-1.0","56939","List2B","white","woman","","","","null","","","","","","","","",""
"null","is shouting at","","html-keyboard-response","228","867532","0.0-17.0-2.0","56939","List2B","white","woman","","","","null","","","","","","","","",""
"7111.599999904633","","","survey-text","229","874647","0.0-17.0-3.0","56939","List2B","white","woman","","","","","{""Q0"":""ruth is shouting at beth""}","<img src=""stim_listB/shout7.gif""style=""height:400px;""></stim_listB>","is shouting at","","","","","",""
"null","<div style=""font-size:60px;"">+</div>","","html-keyboard-response","230","875150","0.0-17.0-0.1","56939","List2B","white","woman","","","","null","","","","","","","","",""
"null","<img src=""stim_listB/kiss7.gif""style=""height:400px;""></stim_listB>","","html-keyboard-response","231","877153","0.0-17.0-1.1","56939","List2B","white","woman","","","","null","","","","","","","","",""
"null","is kissing","","html-keyboard-response","232","879156","0.0-17.0-2.1","56939","List2B","white","woman","","","","null","","","","","","","","",""
"5420.5","","","survey-text","233","884580","0.0-17.0-3.1","56939","List2B","white","woman","","","","","{""Q0"":""ruth is kissing beth""}","<img src=""stim_listB/kiss7.gif""style=""height:400px;""></stim_listB>","is kissing","","","","","",""
"null","<div style=""font-size:60px;"">+</div>","","html-keyboard-response","234","885083","0.0-17.0-0.2","56939","List2B","white","woman","","","","null","","","","","","","","",""
"null","<img src=""stim_listB/seduce7.gif""style=""height:400px;""></stim_listB>","","html-keyboard-response","235","887085","0.0-17.0-1.2","56939","List2B","white","woman","","","","null","","","","","","","","",""
"null","is seducing","","html-keyboard-response","236","889088","0.0-17.0-2.2","56939","List2B","white","woman","","","","null","","","","","","","","",""
"6397.200000286102","","","survey-text","237","895488","0.0-17.0-3.2","56939","List2B","white","woman","","","","","{""Q0"":""ruth is seducing kate""}","<img src=""stim_listB/seduce7.gif""style=""height:400px;""></stim_listB>","is seducing","","","","","",""
"null","<div style=""font-size:60px;"">+</div>","","html-keyboard-response","238","895990","0.0-17.0-0.3","56939","List2B","white","woman","","","","null","","","","","","","","",""
"null","<img src=""stim_listB/hug8.gif""style=""height:400px;""></stim_listB>","","html-keyboard-response","239","897992","0.0-17.0-1.3","56939","List2B","white","woman","","","","null","","","","","","","","",""
"null","is being hugged by","","html-keyboard-response","240","899995","0.0-17.0-2.3","56939","List2B","white","woman","","","","null","","","","","","","","",""
"8069.700000286102","","","survey-text","241","908068","0.0-17.0-3.3","56939","List2B","white","woman","","","","","{""Q0"":""jane is being hugged by kate""}","<img src=""stim_listB/hug8.gif""style=""height:400px;""></stim_listB>","is being hugged by","","","","","",""
"null","<div style=""font-size:60px;"">+</div>","","html-keyboard-response","242","908569","0.0-17.0-0.4","56939","List2B","white","woman","","","","null","","","","","","","","",""
"null","<img src=""stim_listB/kiss4.gif""style=""height:400px;""></stim_listB>","","html-keyboard-response","243","910571","0.0-17.0-1.4","56939","List2B","white","woman","","","","null","","","","","","","","",""
"null","is being kissed by","","html-keyboard-response","244","912574","0.0-17.0-2.4","56939","List2B","white","woman","","","","null","","","","","","","","",""
"8300.400000095367","","","survey-text","245","920877","0.0-17.0-3.4","56939","List2B","white","woman","","","","","{""Q0"":""kate is being kissed by mike""}","<img src=""stim_listB/kiss4.gif""style=""height:400px;""></stim_listB>","is being kissed by","","","","","",""
"null","<div style=""font-size:60px;"">+</div>","","html-keyboard-response","246","921379","0.0-17.0-0.5","56939","List2B","white","woman","","","","null","","","","","","","","",""
"null","<img src=""stim_listB/seduce4.gif""style=""height:400px;""></stim_listB>","","html-keyboard-response","247","923382","0.0-17.0-1.5","56939","List2B","white","woman","","","","null","","","","","","","","",""
"null","is being seduced by","","html-keyboard-response","248","925384","0.0-17.0-2.5","56939","List2B","white","woman","","","","null","","","","","","","","",""
"7766.099999904633","","","survey-text","249","933154","0.0-17.0-3.5","56939","List2B","white","woman","","","","","{""Q0"":""mike is being seduced by beth""}","<img src=""stim_listB/seduce4.gif""style=""height:400px;""></stim_listB>","is being seduced by","","","","","",""
"null","<div style=""font-size:60px;"">+</div>","","html-keyboard-response","250","933657","0.0-17.0-0.6","56939","List2B","white","woman","","","","null","","","","","","","","",""
"null","<img src=""stim_listB/hug4.gif""style=""height:400px;""></stim_listB>","","html-keyboard-response","251","935660","0.0-17.0-1.6","56939","List2B","white","woman","","","","null","","","","","","","","",""
"null","is being hugged by","","html-keyboard-response","252","937662","0.0-17.0-2.6","56939","List2B","white","woman","","","","null","","","","","","","","",""
"7024.599999904633","","","survey-text","253","944690","0.0-17.0-3.6","56939","List2B","white","woman","","","","","{""Q0"":""kate is being hugged by mike""}","<img src=""stim_listB/hug4.gif""style=""height:400px;""></stim_listB>","is being hugged by","","","","","",""
"null","<div style=""font-size:60px;"">+</div>","","html-keyboard-response","254","945191","0.0-17.0-0.7","56939","List2B","white","woman","","","","null","","","","","","","","",""
"null","<img src=""stim_listB/touch6.gif""style=""height:400px;""></stim_listB>","","html-keyboard-response","255","947194","0.0-17.0-1.7","56939","List2B","white","woman","","","","null","","","","","","","","",""
"null","is being touched by","","html-keyboard-response","256","949196","0.0-17.0-2.7","56939","List2B","white","woman","","","","null","","","","","","","","",""
"10656","","","survey-text","257","959855","0.0-17.0-3.7","56939","List2B","white","woman","","","","","{""Q0"":""fred is being touched by luke""}","<img src=""stim_listB/touch6.gif""style=""height:400px;""></stim_listB>","is being touched by","","","","","",""
"null","<div style=""font-size:60px;"">+</div>","","html-keyboard-response","258","960359","0.0-17.0-0.8","56939","List2B","white","woman","","","","null","","","","","","","","",""
"null","<img src=""stim_listB/challenge7.gif""style=""height:400px;""></stim_listB>","","html-keyboard-response","259","962362","0.0-17.0-1.8","56939","List2B","white","woman","","","","null","","","","","","","","",""
"null","is challenging","","html-keyboard-response","260","964364","0.0-17.0-2.8","56939","List2B","white","woman","","","","null","","","","","","","","",""
"9311.199999809265","","","survey-text","261","973679","0.0-17.0-3.8","56939","List2B","white","woman","","","","","{""Q0"":""jane is challenging beth""}","<img src=""stim_listB/challenge7.gif""style=""height:400px;""></stim_listB>","is challenging","","","","","",""
"null","<div style=""font-size:60px;"">+</div>","","html-keyboard-response","262","974180","0.0-17.0-0.9","56939","List2B","white","woman","","","","null","","","","","","","","",""
"null","<img src=""stim_listB/greet6.gif""style=""height:400px;""></stim_listB>","","html-keyboard-response","263","976183","0.0-17.0-1.9","56939","List2B","white","woman","","","","null","","","","","","","","",""
"null","is being greeted by","","html-keyboard-response","264","978185","0.0-17.0-2.9","56939","List2B","white","woman","","","","null","","","","","","","","",""
"8751.099999904633","","","survey-text","265","986939","0.0-17.0-3.9","56939","List2B","white","woman","","","","","{""Q0"":""luke is being greeted by mike""}","<img src=""stim_listB/greet6.gif""style=""height:400px;""></stim_listB>","is being greeted by","","","","","",""
"null","<div style=""font-size:60px;"">+</div>","","html-keyboard-response","266","987444","0.0-17.0-0.10","56939","List2B","white","woman","","","","null","","","","","","","","",""
"null","<img src=""stim_listB/greet3.gif""style=""height:400px;""></stim_listB>","","html-keyboard-response","267","989447","0.0-17.0-1.10","56939","List2B","white","woman","","","","null","","","","","","","","",""
"null","is greeting","","html-keyboard-response","268","991450","0.0-17.0-2.10","56939","List2B","white","woman","","","","null","","","","","","","","",""
"5818","","","survey-text","269","997271","0.0-17.0-3.10","56939","List2B","white","woman","","","","","{""Q0"":""mike is greeting beth""}","<img src=""stim_listB/greet3.gif""style=""height:400px;""></stim_listB>","is greeting","","","","","",""
"null","<div style=""font-size:60px;"">+</div>","","html-keyboard-response","270","997776","0.0-17.0-0.11","56939","List2B","white","woman","","","","null","","","","","","","","",""
"null","<img src=""stim_listB/copy6.gif""style=""height:400px;""></stim_listB>","","html-keyboard-response","271","999779","0.0-17.0-1.11","56939","List2B","white","woman","","","","null","","","","","","","","",""
"null","is being copied by","","html-keyboard-response","272","1001782","0.0-17.0-2.11","56939","List2B","white","woman","","","","null","","","","","","","","",""
"9920.300000190735","","","survey-text","273","1011706","0.0-17.0-3.11","56939","List2B","white","woman","","","","","{""Q0"":""mike is being copied by luke""}","<img src=""stim_listB/copy6.gif""style=""height:400px;""></stim_listB>","is being copied by","","","","","",""
"null","<div style=""font-size:60px;"">+</div>","","html-keyboard-response","274","1012207","0.0-17.0-0.12","56939","List2B","white","woman","","","","null","","","","","","","","",""
"null","<img src=""stim_listB/challenge2.gif""style=""height:400px;""></stim_listB>","","html-keyboard-response","275","1014210","0.0-17.0-1.12","56939","List2B","white","woman","","","","null","","","","","","","","",""
"null","is being challenged by","","html-keyboard-response","276","1016213","0.0-17.0-2.12","56939","List2B","white","woman","","","","null","","","","","","","","",""
"8844.699999809265","","","survey-text","277","1025061","0.0-17.0-3.12","56939","List2B","white","woman","","","","","{""Q0"":""luke is being challenged by jane""}","<img src=""stim_listB/challenge2.gif""style=""height:400px;""></stim_listB>","is being challenged by","","","","","",""
"null","<div style=""font-size:60px;"">+</div>","","html-keyboard-response","278","1025564","0.0-17.0-0.13","56939","List2B","white","woman","","","","null","","","","","","","","",""
"null","<img src=""stim_listB/kiss1.gif""style=""height:400px;""></stim_listB>","","html-keyboard-response","279","1027569","0.0-17.0-1.13","56939","List2B","white","woman","","","","null","","","","","","","","",""
"null","is kissing","","html-keyboard-response","280","1029570","0.0-17.0-2.13","56939","List2B","white","woman","","","","null","","","","","","","","",""
"7200.300000190735","","","survey-text","281","1036774","0.0-17.0-3.13","56939","List2B","white","woman","","","","","{""Q0"":""luke is kissing ruth""}","<img src=""stim_listB/kiss1.gif""style=""height:400px;""></stim_listB>","is kissing","","","","","",""
"null","<div style=""font-size:60px;"">+</div>","","html-keyboard-response","282","1037276","0.0-17.0-0.14","56939","List2B","white","woman","","","","null","","","","","","","","",""
"null","<img src=""stim_listB/greet1.gif""style=""height:400px;""></stim_listB>","","html-keyboard-response","283","1039281","0.0-17.0-1.14","56939","List2B","white","woman","","","","null","","","","","","","","",""
"null","is greeting","","html-keyboard-response","284","1041283","0.0-17.0-2.14","56939","List2B","white","woman","","","","null","","","","","","","","",""
"6354.900000095367","","","survey-text","285","1047641","0.0-17.0-3.14","56939","List2B","white","woman","","","","","{""Q0"":""dave is greeting ruth""}","<img src=""stim_listB/greet1.gif""style=""height:400px;""></stim_listB>","is greeting","","","","","",""
"null","<div style=""font-size:60px;"">+</div>","","html-keyboard-response","286","1048145","0.0-17.0-0.15","56939","List2B","white","woman","","","","null","","","","","","","","",""
"null","<img src=""stim_listB/touch1.gif""style=""height:400px;""></stim_listB>","","html-keyboard-response","287","1050148","0.0-17.0-1.15","56939","List2B","white","woman","","","","null","","","","","","","","",""
"null","is touching","","html-keyboard-response","288","1052149","0.0-17.0-2.15","56939","List2B","white","woman","","","","null","","","","","","","","",""
"8537.799999713898","","","survey-text","289","1060690","0.0-17.0-3.15","56939","List2B","white","woman","","","","","{""Q0"":""dave is touching jane""}","<img src=""stim_listB/touch1.gif""style=""height:400px;""></stim_listB>","is touching","","","","","",""
"null","<div style=""font-size:60px;"">+</div>","","html-keyboard-response","290","1061193","0.0-17.0-0.16","56939","List2B","white","woman","","","","null","","","","","","","","",""
"null","<img src=""stim_listB/oppose7.gif""style=""height:400px;""></stim_listB>","","html-keyboard-response","291","1063197","0.0-17.0-1.16","56939","List2B","white","woman","","","","null","","","","","","","","",""
"null","is opposing","","html-keyboard-response","292","1065199","0.0-17.0-2.16","56939","List2B","white","woman","","","","null","","","","","","","","",""
"5031.700000286102","","","survey-text","293","1070234","0.0-17.0-3.16","56939","List2B","white","woman","","","","","{""Q0"":""jane is opposing kate""}","<img src=""stim_listB/oppose7.gif""style=""height:400px;""></stim_listB>","is opposing","","","","","",""
"null","<div style=""font-size:60px;"">+</div>","","html-keyboard-response","294","1070737","0.0-17.0-0.17","56939","List2B","white","woman","","","","null","","","","","","","","",""
"null","<img src=""stim_listB/shout2.gif""style=""height:400px;""></stim_listB>","","html-keyboard-response","295","1072740","0.0-17.0-1.17","56939","List2B","white","woman","","","","null","","","","","","","","",""
"null","is being shouted at by","","html-keyboard-response","296","1074742","0.0-17.0-2.17","56939","List2B","white","woman","","","","null","","","","","","","","",""
"12766.400000095367","","","survey-text","297","1087511","0.0-17.0-3.17","56939","List2B","white","woman","","","","","{""Q0"":""dave is being shouted at by jane""}","<img src=""stim_listB/shout2.gif""style=""height:400px;""></stim_listB>","is being shouted at by","","","","","",""
"null","<div style=""font-size:60px;"">+</div>","","html-keyboard-response","298","1088012","0.0-17.0-0.18","56939","List2B","white","woman","","","","null","","","","","","","","",""
"null","<img src=""stim_listB/copy7.gif""style=""height:400px;""></stim_listB>","","html-keyboard-response","299","1090015","0.0-17.0-1.18","56939","List2B","white","woman","","","","null","","","","","","","","",""
"null","is copying","","html-keyboard-response","300","1092016","0.0-17.0-2.18","56939","List2B","white","woman","","","","null","","","","","","","","",""
"5540.099999904633","","","survey-text","301","1097559","0.0-17.0-3.18","56939","List2B","white","woman","","","","","{""Q0"":""jane is copying beth""}","<img src=""stim_listB/copy7.gif""style=""height:400px;""></stim_listB>","is copying","","","","","",""
"null","<div style=""font-size:60px;"">+</div>","","html-keyboard-response","302","1098060","0.0-17.0-0.19","56939","List2B","white","woman","","","","null","","","","","","","","",""
"null","<img src=""stim_listB/look2.gif""style=""height:400px;""></stim_listB>","","html-keyboard-response","303","1100063","0.0-17.0-1.19","56939","List2B","white","woman","","","","null","","","","","","","","",""
"null","is being looked at by","","html-keyboard-response","304","1102065","0.0-17.0-2.19","56939","List2B","white","woman","","","","null","","","","","","","","",""
"10958.39999961853","","","survey-text","305","1113026","0.0-17.0-3.19","56939","List2B","white","woman","","","","","{""Q0"":""dave is being looked at by jane""}","<img src=""stim_listB/look2.gif""style=""height:400px;""></stim_listB>","is being looked at by","","","","","",""
"8542","<img src='img/portrait_matrix_list2.jpg' style='width:900px;height:500px;''></img><p>If you have memorised all the portraits and names and are ready to start, press Continue.</p><p><strong>Please note: Your memory of these faces will be tested 4 times during this experiment.</strong></p>","0","html-button-response","306","1121570","0.0-18.0-0.0","56939","List2B","white","woman","","","","","","","","","","","","",""
"1972.7999997138977","<img src=""portrait/BM2.jpg""style=""height:400px;""></img>","5","html-button-response","307","1124549","0.0-18.0-1.0","56939","List2B","white","woman","","true","5","","","","","","","","","",""
"null","CORRECT","","html-keyboard-response","308","1126057","0.0-18.0-2.0-0.0","56939","List2B","white","woman","","","","null","","","","","","","","",""
"1930","<img src=""portrait/BM1.jpg""style=""height:400px;""></img>","4","html-button-response","309","1127989","0.0-18.0-4.0","56939","List2B","white","woman","","true","4","","","","","","","","","",""
"null","CORRECT","","html-keyboard-response","310","1129499","0.0-18.0-5.0-0.0","56939","List2B","white","woman","","","","null","","","","","","","","",""
"2409.4000000953674","<img src=""portrait/WM2.jpg""style=""height:400px;""></img>","7","html-button-response","311","1131910","0.0-18.0-7.0","56939","List2B","white","woman","","true","7","","","","","","","","","",""
"null","CORRECT","","html-keyboard-response","312","1133418","0.0-18.0-8.0-0.0","56939","List2B","white","woman","","","","null","","","","","","","","",""
"2155.4000000953674","<img src=""portrait/WM1.jpg""style=""height:400px;""></img>","6","html-button-response","313","1135575","0.0-18.0-10.0","56939","List2B","white","woman","","true","6","","","","","","","","","",""
"null","CORRECT","","html-keyboard-response","314","1137080","0.0-18.0-11.0-0.0","56939","List2B","white","woman","","","","null","","","","","","","","",""
"2438.800000190735","<img src=""portrait/BW1.jpg""style=""height:400px;""></img>","0","html-button-response","315","1139521","0.0-18.0-13.0","56939","List2B","white","woman","","true","0","","","","","","","","","",""
"null","CORRECT","","html-keyboard-response","316","1141028","0.0-18.0-14.0-0.0","56939","List2B","white","woman","","","","null","","","","","","","","",""
"2470","<img src=""portrait/WW1.jpg""style=""height:400px;""></img>","1","html-button-response","317","1143499","0.0-18.0-16.0","56939","List2B","white","woman","","true","1","","","","","","","","","",""
"null","CORRECT","","html-keyboard-response","318","1145010","0.0-18.0-17.0-0.0","56939","List2B","white","woman","","","","null","","","","","","","","",""
"1409.5999999046326","<img src=""portrait/BW2.jpg""style=""height:400px;""></img>","2","html-button-response","319","1146421","0.0-18.0-19.0","56939","List2B","white","woman","","true","2","","","","","","","","","",""
"null","CORRECT","","html-keyboard-response","320","1147930","0.0-18.0-20.0-0.0","56939","List2B","white","woman","","","","null","","","","","","","","",""
"1369.9000000953674","<img src=""portrait/WW2.jpg""style=""height:400px;""></img>","3","html-button-response","321","1149301","0.0-18.0-22.0","56939","List2B","white","woman","","true","3","","","","","","","","","",""
"null","CORRECT","","html-keyboard-response","322","1150809","0.0-18.0-23.0-0.0","56939","List2B","white","woman","","","","null","","","","","","","","",""
"923.5","<p>You got 8 out of 8 right first time. Press Continue.</p>","0","html-button-response","323","1151734","0.0-18.0-25.0","56939","List2B","white","woman","","","","","","","","","","","","",""
"null","<div style=""font-size:60px;"">+</div>","","html-keyboard-response","324","1153241","0.0-19.0-0.0","56939","List2B","white","woman","","","","null","","","","","","","","",""
"null","<img src=""stim_listB/touch8.gif""style=""height:400px;""></stim_listB>","","html-keyboard-response","325","1155243","0.0-19.0-1.0","56939","List2B","white","woman","","","","null","","","","","","","","",""
"null","is being touched by","","html-keyboard-response","326","1157246","0.0-19.0-2.0","56939","List2B","white","woman","","","","null","","","","","","","","",""
"9069.700000286102","","","survey-text","327","1166320","0.0-19.0-3.0","56939","List2B","white","woman","","","","","{""Q0"":""beth is being touched by ruth""}","<img src=""stim_listB/touch8.gif""style=""height:400px;""></stim_listB>","is being touched by","","","","","",""
"null","<div style=""font-size:60px;"">+</div>","","html-keyboard-response","328","1166821","0.0-19.0-0.1","56939","List2B","white","woman","","","","null","","","","","","","","",""
"null","<img src=""stim_listB/hug2.gif""style=""height:400px;""></stim_listB>","","html-keyboard-response","329","1168826","0.0-19.0-1.1","56939","List2B","white","woman","","","","null","","","","","","","","",""
"null","is being hugged by","","html-keyboard-response","330","1170828","0.0-19.0-2.1","56939","List2B","white","woman","","","","null","","","","","","","","",""
"7333.300000190735","","","survey-text","331","1178165","0.0-19.0-3.1","56939","List2B","white","woman","","","","","{""Q0"":""dave is being hugged by jane""}","<img src=""stim_listB/hug2.gif""style=""height:400px;""></stim_listB>","is being hugged by","","","","","",""
"null","<div style=""font-size:60px;"">+</div>","","html-keyboard-response","332","1178667","0.0-19.0-0.2","56939","List2B","white","woman","","","","null","","","","","","","","",""
"null","<img src=""stim_listB/greet7.gif""style=""height:400px;""></stim_listB>","","html-keyboard-response","333","1180669","0.0-19.0-1.2","56939","List2B","white","woman","","","","null","","","","","","","","",""
"null","is greeting","","html-keyboard-response","334","1182672","0.0-19.0-2.2","56939","List2B","white","woman","","","","null","","","","","","","","",""
"6206.400000095367","","","survey-text","335","1188882","0.0-19.0-3.2","56939","List2B","white","woman","","","","","{""Q0"":""jane is greeting beth""}","<img src=""stim_listB/greet7.gif""style=""height:400px;""></stim_listB>","is greeting","","","","","",""
"null","<div style=""font-size:60px;"">+</div>","","html-keyboard-response","336","1189386","0.0-19.0-0.3","56939","List2B","white","woman","","","","null","","","","","","","","",""
"null","<img src=""stim_listB/touch7.gif""style=""height:400px;""></stim_listB>","","html-keyboard-response","337","1191391","0.0-19.0-1.3","56939","List2B","white","woman","","","","null","","","","","","","","",""
"null","is touching","","html-keyboard-response","338","1193392","0.0-19.0-2.3","56939","List2B","white","woman","","","","null","","","","","","","","",""
"7822.900000095367","","","survey-text","339","1201218","0.0-19.0-3.3","56939","List2B","white","woman","","","","","{""Q0"":""jane is touching kate""}","<img src=""stim_listB/touch7.gif""style=""height:400px;""></stim_listB>","is touching","","","","","",""
"null","<div style=""font-size:60px;"">+</div>","","html-keyboard-response","340","1201723","0.0-19.0-0.4","56939","List2B","white","woman","","","","null","","","","","","","","",""
"null","<img src=""stim_listB/copy4.gif""style=""height:400px;""></stim_listB>","","html-keyboard-response","341","1203726","0.0-19.0-1.4","56939","List2B","white","woman","","","","null","","","","","","","","",""
"null","is being copied by","","html-keyboard-response","342","1205728","0.0-19.0-2.4","56939","List2B","white","woman","","","","null","","","","","","","","",""
"9198.900000095367","","","survey-text","343","1214930","0.0-19.0-3.4","56939","List2B","white","woman","","","","","{""Q0"":""kate is being copied by fred""}","<img src=""stim_listB/copy4.gif""style=""height:400px;""></stim_listB>","is being copied by","","","","","",""
"null","<div style=""font-size:60px;"">+</div>","","html-keyboard-response","344","1215434","0.0-19.0-0.5","56939","List2B","white","woman","","","","null","","","","","","","","",""
"null","<img src=""stim_listB/touch4.gif""style=""height:400px;""></stim_listB>","","html-keyboard-response","345","1217437","0.0-19.0-1.5","56939","List2B","white","woman","","","","null","","","","","","","","",""
"null","is being touched by","","html-keyboard-response","346","1219437","0.0-19.0-2.5","56939","List2B","white","woman","","","","null","","","","","","","","",""
"7909.300000190735","","","survey-text","347","1227350","0.0-19.0-3.5","56939","List2B","white","woman","","","","","{""Q0"":""beth is being touched by fred""}","<img src=""stim_listB/touch4.gif""style=""height:400px;""></stim_listB>","is being touched by","","","","","",""
"null","<div style=""font-size:60px;"">+</div>","","html-keyboard-response","348","1227851","0.0-19.0-0.6","56939","List2B","white","woman","","","","null","","","","","","","","",""
"null","<img src=""stim_listB/look1.gif""style=""height:400px;""></stim_listB>","","html-keyboard-response","349","1229857","0.0-19.0-1.6","56939","List2B","white","woman","","","","null","","","","","","","","",""
"null","is looking at","","html-keyboard-response","350","1231861","0.0-19.0-2.6","56939","List2B","white","woman","","","","null","","","","","","","","",""
"5792.199999809265","","","survey-text","351","1237657","0.0-19.0-3.6","56939","List2B","white","woman","","","","","{""Q0"":""luke is looking at ruth""}","<img src=""stim_listB/look1.gif""style=""height:400px;""></stim_listB>","is looking at","","","","","",""
"null","<div style=""font-size:60px;"">+</div>","","html-keyboard-response","352","1238160","0.0-19.0-0.7","56939","List2B","white","woman","","","","null","","","","","","","","",""
"null","<img src=""stim_listB/challenge6.gif""style=""height:400px;""></stim_listB>","","html-keyboard-response","353","1240162","0.0-19.0-1.7","56939","List2B","white","woman","","","","null","","","","","","","","",""
"null","is being challenged by","","html-keyboard-response","354","1242163","0.0-19.0-2.7","56939","List2B","white","woman","","","","null","","","","","","","","",""
"8189.099999904633","","","survey-text","355","1250355","0.0-19.0-3.7","56939","List2B","white","woman","","","","","{""Q0"":""mike is being challenged by luke""}","<img src=""stim_listB/challenge6.gif""style=""height:400px;""></stim_listB>","is being challenged by","","","","","",""
"null","<div style=""font-size:60px;"">+</div>","","html-keyboard-response","356","1250857","0.0-19.0-0.8","56939","List2B","white","woman","","","","null","","","","","","","","",""
"null","<img src=""stim_listB/shout4.gif""style=""height:400px;""></stim_listB>","","html-keyboard-response","357","1252861","0.0-19.0-1.8","56939","List2B","white","woman","","","","null","","","","","","","","",""
"null","is being shouted at by","","html-keyboard-response","358","1254866","0.0-19.0-2.8","56939","List2B","white","woman","","","","null","","","","","","","","",""
"7410.400000095367","","","survey-text","359","1262280","0.0-19.0-3.8","56939","List2B","white","woman","","","","","{""Q0"":""mike is being shouted at by kate""}","<img src=""stim_listB/shout4.gif""style=""height:400px;""></stim_listB>","is being shouted at by","","","","","",""
"null","<div style=""font-size:60px;"">+</div>","","html-keyboard-response","360","1262783","0.0-19.0-0.9","56939","List2B","white","woman","","","","null","","","","","","","","",""
"null","<img src=""stim_listB/kiss5.gif""style=""height:400px;""></stim_listB>","","html-keyboard-response","361","1264787","0.0-19.0-1.9","56939","List2B","white","woman","","","","null","","","","","","","","",""
"null","is kissing","","html-keyboard-response","362","1266789","0.0-19.0-2.9","56939","List2B","white","woman","","","","null","","","","","","","","",""
"5378.099999904633","","","survey-text","363","1272171","0.0-19.0-3.9","56939","List2B","white","woman","","","","","{""Q0"":""luke is kissing fred""}","<img src=""stim_listB/kiss5.gif""style=""height:400px;""></stim_listB>","is kissing","","","","","",""
"null","<div style=""font-size:60px;"">+</div>","","html-keyboard-response","364","1272674","0.0-19.0-0.10","56939","List2B","white","woman","","","","null","","","","","","","","",""
"null","<img src=""stim_listB/touch2.gif""style=""height:400px;""></stim_listB>","","html-keyboard-response","365","1274678","0.0-19.0-1.10","56939","List2B","white","woman","","","","null","","","","","","","","",""
"null","is being touched by","","html-keyboard-response","366","1276681","0.0-19.0-2.10","56939","List2B","white","woman","","","","null","","","","","","","","",""
"6273.89999961853","","","survey-text","367","1282958","0.0-19.0-3.10","56939","List2B","white","woman","","","","","{""Q0"":""luke is being touched by ruth""}","<img src=""stim_listB/touch2.gif""style=""height:400px;""></stim_listB>","is being touched by","","","","","",""
"null","<div style=""font-size:60px;"">+</div>","","html-keyboard-response","368","1283461","0.0-19.0-0.11","56939","List2B","white","woman","","","","null","","","","","","","","",""
"null","<img src=""stim_listB/hug1.gif""style=""height:400px;""></stim_listB>","","html-keyboard-response","369","1285463","0.0-19.0-1.11","56939","List2B","white","woman","","","","null","","","","","","","","",""
"null","is hugging","","html-keyboard-response","370","1287466","0.0-19.0-2.11","56939","List2B","white","woman","","","","null","","","","","","","","",""
"6977.5","","","survey-text","371","1294447","0.0-19.0-3.11","56939","List2B","white","woman","","","","","{""Q0"":""ruth is hugging luke""}","<img src=""stim_listB/hug1.gif""style=""height:400px;""></stim_listB>","is hugging","","","","","",""
"null","<div style=""font-size:60px;"">+</div>","","html-keyboard-response","372","1294948","0.0-19.0-0.12","56939","List2B","white","woman","","","","null","","","","","","","","",""
"null","<img src=""stim_listB/shout6.gif""style=""height:400px;""></stim_listB>","","html-keyboard-response","373","1296951","0.0-19.0-1.12","56939","List2B","white","woman","","","","null","","","","","","","","",""
"null","is being shouted at by","","html-keyboard-response","374","1298953","0.0-19.0-2.12","56939","List2B","white","woman","","","","null","","","","","","","","",""
"7554.900000095367","","","survey-text","375","1306512","0.0-19.0-3.12","56939","List2B","white","woman","","","","","{""Q0"":""mike is being shouted at by dave""}","<img src=""stim_listB/shout6.gif""style=""height:400px;""></stim_listB>","is being shouted at by","","","","","",""
"null","<div style=""font-size:60px;"">+</div>","","html-keyboard-response","376","1307017","0.0-19.0-0.13","56939","List2B","white","woman","","","","null","","","","","","","","",""
"null","<img src=""stim_listB/touch3.gif""style=""height:400px;""></stim_listB>","","html-keyboard-response","377","1309019","0.0-19.0-1.13","56939","List2B","white","woman","","","","null","","","","","","","","",""
"null","is touching","","html-keyboard-response","378","1311022","0.0-19.0-2.13","56939","List2B","white","woman","","","","null","","","","","","","","",""
"6057","","","survey-text","379","1317082","0.0-19.0-3.13","56939","List2B","white","woman","","","","","{""Q0"":""mike is touching kate""}","<img src=""stim_listB/touch3.gif""style=""height:400px;""></stim_listB>","is touching","","","","","",""
"null","<div style=""font-size:60px;"">+</div>","","html-keyboard-response","380","1317587","0.0-19.0-0.14","56939","List2B","white","woman","","","","null","","","","","","","","",""
"null","<img src=""stim_listB/look3.gif""style=""height:400px;""></stim_listB>","","html-keyboard-response","381","1319590","0.0-19.0-1.14","56939","List2B","white","woman","","","","null","","","","","","","","",""
"null","is looking at","","html-keyboard-response","382","1321591","0.0-19.0-2.14","56939","List2B","white","woman","","","","null","","","","","","","","",""
"5098.900000095367","","","survey-text","383","1326694","0.0-19.0-3.14","56939","List2B","white","woman","","","","","{""Q0"":""fred is looking at beth""}","<img src=""stim_listB/look3.gif""style=""height:400px;""></stim_listB>","is looking at","","","","","",""
"null","<div style=""font-size:60px;"">+</div>","","html-keyboard-response","384","1327196","0.0-19.0-0.15","56939","List2B","white","woman","","","","null","","","","","","","","",""
"null","<img src=""stim_listB/touch5.gif""style=""height:400px;""></stim_listB>","","html-keyboard-response","385","1329203","0.0-19.0-1.15","56939","List2B","white","woman","","","","null","","","","","","","","",""
"null","is touching","","html-keyboard-response","386","1331205","0.0-19.0-2.15","56939","List2B","white","woman","","","","null","","","","","","","","",""
"5639.800000190735","","","survey-text","387","1336849","0.0-19.0-3.15","56939","List2B","white","woman","","","","","{""Q0"":""dave is touching mike""}","<img src=""stim_listB/touch5.gif""style=""height:400px;""></stim_listB>","is touching","","","","","",""
"null","<div style=""font-size:60px;"">+</div>","","html-keyboard-response","388","1337353","0.0-19.0-0.16","56939","List2B","white","woman","","","","null","","","","","","","","",""
"null","<img src=""stim_listB/shout5.gif""style=""height:400px;""></stim_listB>","","html-keyboard-response","389","1339355","0.0-19.0-1.16","56939","List2B","white","woman","","","","null","","","","","","","","",""
"null","is shouting at","","html-keyboard-response","390","1341357","0.0-19.0-2.16","56939","List2B","white","woman","","","","null","","","","","","","","",""
"5318.800000190735","","","survey-text","391","1346680","0.0-19.0-3.16","56939","List2B","white","woman","","","","","{""Q0"":""fred is shouting at luke""}","<img src=""stim_listB/shout5.gif""style=""height:400px;""></stim_listB>","is shouting at","","","","","",""
"null","<div style=""font-size:60px;"">+</div>","","html-keyboard-response","392","1347181","0.0-19.0-0.17","56939","List2B","white","woman","","","","null","","","","","","","","",""
"null","<img src=""stim_listB/look8.gif""style=""height:400px;""></stim_listB>","","html-keyboard-response","393","1349183","0.0-19.0-1.17","56939","List2B","white","woman","","","","null","","","","","","","","",""
"null","is being looked at by","","html-keyboard-response","394","1351185","0.0-19.0-2.17","56939","List2B","white","woman","","","","null","","","","","","","","",""
"9299.5","","","survey-text","395","1360488","0.0-19.0-3.17","56939","List2B","white","woman","","","","","{""Q0"":""jane is being looked at by kate""}","<img src=""stim_listB/look8.gif""style=""height:400px;""></stim_listB>","is being looked at by","","","","","",""
"null","<div style=""font-size:60px;"">+</div>","","html-keyboard-response","396","1360990","0.0-19.0-0.18","56939","List2B","white","woman","","","","null","","","","","","","","",""
"null","<img src=""stim_listB/greet2.gif""style=""height:400px;""></stim_listB>","","html-keyboard-response","397","1362992","0.0-19.0-1.18","56939","List2B","white","woman","","","","null","","","","","","","","",""
"null","is being greeted by","","html-keyboard-response","398","1364995","0.0-19.0-2.18","56939","List2B","white","woman","","","","null","","","","","","","","",""
"7561.300000190735","","","survey-text","399","1372560","0.0-19.0-3.18","56939","List2B","white","woman","","","","","{""Q0"":""luke is being greeted by jane""}","<img src=""stim_listB/greet2.gif""style=""height:400px;""></stim_listB>","is being greeted by","","","","","",""
"null","<div style=""font-size:60px;"">+</div>","","html-keyboard-response","400","1373064","0.0-19.0-0.19","56939","List2B","white","woman","","","","null","","","","","","","","",""
"null","<img src=""stim_listB/oppose8.gif""style=""height:400px;""></stim_listB>","","html-keyboard-response","401","1375067","0.0-19.0-1.19","56939","List2B","white","woman","","","","null","","","","","","","","",""
"null","is being opposed by","","html-keyboard-response","402","1377069","0.0-19.0-2.19","56939","List2B","white","woman","","","","null","","","","","","","","",""
"7941.5","","","survey-text","403","1385014","0.0-19.0-3.19","56939","List2B","white","woman","","","","","{""Q0"":""beth is being opposed by ruth""}","<img src=""stim_listB/oppose8.gif""style=""height:400px;""></stim_listB>","is being opposed by","","","","","",""
"2524.9000000953674","<p>Thank you for completing that task.</p><p>The final part of this session is a questionnaire that will take about 4 minutes.</p><p>Press Continue.</p>","0","html-button-response","404","1387540","0.0-20.0","56939","List2B","white","woman","","","","","","","","","","","","",""
"41632","","","survey-text","405","1430186","0.0-21.0","56939","List2B","white","woman","","","","","{""Q0"":""24"",""Q1"":""english"",""Q2"":""english"",""Q3"":""United States of America"",""Q4"":""American"",""Q5"":""white"",""Q6"":""female""}","","","demographics","","","","",""
"2572.5999999046326","<p>Have you lived in the USA for the last 5 years or more?</p>","0","html-button-response","406","1432761","0.0-22.0","56939","List2B","white","woman","","","","","","","","fiveyears","","","","",""
"2542.2999997138977","<p>Move the slider to show the extent to which you agree with the following statements.</p>","0","html-button-response","407","1436308","0.0-23.0","56939","List2B","white","woman","","","","","","","","","","","","",""
"5035.89999961853","","","html-slider-response","408","1442352","0.0-24.0-0.0-0.0","56939","List2B","white","woman","","","","","","","","survey_race","66","","","I feel a bond with people the same age as me.","filler"
"7999.900000095367","","","html-slider-response","409","1450354","0.0-24.0-0.0-0.1","56939","List2B","white","woman","","","","","","","","survey_race","36","","","I feel a bond with my race.","bond"
"2685.300000190735","","","html-slider-response","410","1453041","0.0-24.0-0.0-0.2","56939","List2B","white","woman","","","","","","","","survey_race","33","","","I am glad to be my age.","filler"
"4828.5","","","html-slider-response","411","1457871","0.0-24.0-0.0-0.3","56939","List2B","white","woman","","","","","","","","survey_race","60","","","I have a lot in common with people of a similar age to me.","filler"
"4552.900000095367","","","html-slider-response","412","1462426","0.0-24.0-0.0-0.4","56939","List2B","white","woman","","","","","","","","survey_race","47","","","I enjoy being in large groups.","filler"
"5142.699999809265","","","html-slider-response","413","1467571","0.0-24.0-0.0-0.5","56939","List2B","white","woman","","","","","","","","survey_race","37","","","I am glad to be my race.","glad"
"6631.299999713898","","","html-slider-response","414","1474204","0.0-24.0-0.0-0.6","56939","List2B","white","woman","","","","","","","","survey_race","49","","","I am similar to the average person of my race.","similar"
"4585.099999904633","","","html-slider-response","415","1478791","0.0-24.0-0.0-0.7","56939","List2B","white","woman","","","","","","","","survey_race","66","","","I consider myself an introvert.","filler"
"4796.199999809265","","","html-slider-response","416","1483589","0.0-24.0-0.0-0.8","56939","List2B","white","woman","","","","","","","","survey_race","69","","","I often think about the fact that I am my race.","often"
"3905.7999997138977","","","html-slider-response","417","1487497","0.0-24.0-0.0-0.9","56939","List2B","white","woman","","","","","","","","survey_race","89","","","I often think about the fact that I am my age.","filler"
"8934.800000190735","","","html-slider-response","418","1496434","0.0-24.0-0.0-0.10","56939","List2B","white","woman","","","","","","","","survey_race","48","","","People of my race have a lot in common with each other.","common"
"3477.800000190735","","","html-slider-response","419","1499914","0.0-24.0-0.0-0.11","56939","List2B","white","woman","","","","","","","","survey_race","17","","","I feel committed to my race.","committed"
"4384.799999713898","","","html-slider-response","420","1504300","0.0-24.0-0.0-0.12","56939","List2B","white","woman","","","","","","","","survey_race","56","","","My age is not an important part of who I am.","filler"
"2572.8999996185303","","","html-slider-response","421","1506875","0.0-24.0-0.0-0.13","56939","List2B","white","woman","","","","","","","","survey_race","14","","","Getting older does not worry me.","filler"
"4043.7999997138977","","","html-slider-response","422","1510921","0.0-24.0-0.0-0.14","56939","List2B","white","woman","","","","","","","","survey_race","70","","","People my age have a lot in common with each other.","filler"
"2787.1000003814697","","","html-slider-response","423","1513710","0.0-24.0-0.0-0.15","56939","List2B","white","woman","","","","","","","","survey_race","35","","","Being my race gives me a good feeling.","feeling"
"2305.9000000953674","","","html-slider-response","424","1516017","0.0-24.0-0.0-0.16","56939","List2B","white","woman","","","","","","","","survey_race","31","","","I consider myself an extrovert.","filler"
"8042.799999713898","","","html-slider-response","425","1524061","0.0-24.0-0.0-0.17","56939","List2B","white","woman","","","","","","","","survey_race","48","","","It is pleasant to be my race.","pleasant"
"4827.5","","","html-slider-response","426","1528891","0.0-24.0-0.0-0.18","56939","List2B","white","woman","","","","","","","","survey_race","23","","","I am glad to be the age I am.","filler"
"4092.7999997138977","","","html-slider-response","427","1532986","0.0-24.0-0.0-0.19","56939","List2B","white","woman","","","","","","","","survey_race","41","","","The older I get, the wiser I feel.","filler"
"3255.5","","","html-slider-response","428","1536244","0.0-24.0-0.0-0.20","56939","List2B","white","woman","","","","","","","","survey_race","62","","","I feel solidarity with people the same age as me.","filler"
"5722.699999809265","","","html-slider-response","429","1541967","0.0-24.0-0.0-0.21","56939","List2B","white","woman","","","","","","","","survey_race","49","","","I have a lot in common with the average person of my race.","average"
"5904","","","html-slider-response","430","1547873","0.0-24.0-0.0-0.22","56939","List2B","white","woman","","","","","","","","survey_race","51","","","People of my race are very similar to each other.","verysimilar"
"3576.3999996185303","","","html-slider-response","431","1551451","0.0-24.0-0.0-0.23","56939","List2B","white","woman","","","","","","","","survey_race","26","","","Being my age gives me a good feeling.","filler"
"2892","","","html-slider-response","432","1554345","0.0-24.0-0.0-0.24","56939","List2B","white","woman","","","","","","","","survey_race","22","","","Being my race is an important part of how I see myself.","important"
"3745.0999999046326","","","html-slider-response","433","1558091","0.0-24.0-0.0-0.25","56939","List2B","white","woman","","","","","","","","survey_race","17","","","The fact that I am my race is an important part of my identity.","identity"
"6373.900000095367","","","html-slider-response","434","1564467","0.0-24.0-0.0-0.26","56939","List2B","white","woman","","","","","","","","survey_race","45","","","I feel solidarity with my race.","solidarity"
"4968.800000190735","","","html-slider-response","435","1569438","0.0-24.0-0.0-0.27","56939","List2B","white","woman","","","","","","","","survey_race","31","","","I think that my race has a lot to be proud of.","proud"
"4158.299999713898","","","html-slider-response","436","1573598","0.0-24.0-1.0-0.0","56939","List2B","white","woman","","","","","","","","survey_gender","62","","","Being around my friends gives me a good feeling.","filler"
"4325.89999961853","","","html-slider-response","437","1577926","0.0-24.0-1.0-0.1","56939","List2B","white","woman","","","","","","","","survey_gender","68","","","I feel solidarity with my gender.","solidarity"
"7002.89999961853","","","html-slider-response","438","1584930","0.0-24.0-1.0-0.2","56939","List2B","white","woman","","","","","","","","survey_gender","42","","","Being my gender is an important part of how I see myself.","important"
"3662.800000190735","","","html-slider-response","439","1588595","0.0-24.0-1.0-0.3","56939","List2B","white","woman","","","","","","","","survey_gender","86","","","I would say I am an animal person.","filler"
"4248.099999904633","","","html-slider-response","440","1592845","0.0-24.0-1.0-0.4","56939","List2B","white","woman","","","","","","","","survey_gender","66","","","I feel a bond with my gender.","bond"
"3680.1000003814697","","","html-slider-response","441","1596527","0.0-24.0-1.0-0.5","56939","List2B","white","woman","","","","","","","","survey_gender","68","","","I feel solidarity with my friends.","filler"
"3980.4000000953674","","","html-slider-response","442","1600509","0.0-24.0-1.0-0.6","56939","List2B","white","woman","","","","","","","","survey_gender","60","","","I often think about the fact that I am my gender.","often"
"3701.0999999046326","","","html-slider-response","443","1604212","0.0-24.0-1.0-0.7","56939","List2B","white","woman","","","","","","","","survey_gender","58","","","I have a lot in common with the average person of my gender.","average"
"3761","","","html-slider-response","444","1607975","0.0-24.0-1.0-0.8","56939","List2B","white","woman","","","","","","","","survey_gender","33","","","The fact that I am my gender is an important part of my identity.","identity"
"10743.700000286102","","","html-slider-response","445","1618720","0.0-24.0-1.0-0.9","56939","List2B","white","woman","","","","","","","","survey_gender","53","","","Family is not more important to me than friendship.","filler"
"4148.5","","","html-slider-response","446","1622871","0.0-24.0-1.0-0.10","56939","List2B","white","woman","","","","","","","","survey_gender","68","","","Most of the friends in my life are very similar to me.","filler"
"3523","","","html-slider-response","447","1626395","0.0-24.0-1.0-0.11","56939","List2B","white","woman","","","","","","","","survey_gender","59","","","My friends have a lot in common with each other.","filler"
"6506.5","","","html-slider-response","448","1632903","0.0-24.0-1.0-0.12","56939","List2B","white","woman","","","","","","","","survey_gender","48","","","I feel committed to my gender.","committed"
"2948.7999997138977","","","html-slider-response","449","1635854","0.0-24.0-1.0-0.13","56939","List2B","white","woman","","","","","","","","survey_gender","79","","","I think that my gender has a lot to be proud of.","proud"
"12096.299999713898","","","html-slider-response","450","1647952","0.0-24.0-1.0-0.14","56939","List2B","white","woman","","","","","","","","survey_gender","54","","","I am glad to be my gender.","glad"
"3987.9000000953674","","","html-slider-response","451","1651942","0.0-24.0-1.0-0.15","56939","List2B","white","woman","","","","","","","","survey_gender","70","","","I have a lot in common with my friends.","filler"
"5499.099999904633","","","html-slider-response","452","1657442","0.0-24.0-1.0-0.16","56939","List2B","white","woman","","","","","","","","survey_gender","49","","","People of my gender are very similar to each other.","verysimilar"
"3207.5999999046326","","","html-slider-response","453","1660652","0.0-24.0-1.0-0.17","56939","List2B","white","woman","","","","","","","","survey_gender","85","","","I often think about my actions.","filler"
"2621","","","html-slider-response","454","1663275","0.0-24.0-1.0-0.18","56939","List2B","white","woman","","","","","","","","survey_gender","22","","","It is pleasant to be my gender.","pleasant"
"2484.5","","","html-slider-response","455","1665761","0.0-24.0-1.0-0.19","56939","List2B","white","woman","","","","","","","","survey_gender","78","","","I consider myself a highly empathetic person.","filler"
"4254","","","html-slider-response","456","1670016","0.0-24.0-1.0-0.20","56939","List2B","white","woman","","","","","","","","survey_gender","41","","","Routine is not important to me.","filler"
"3587.5","","","html-slider-response","457","1673606","0.0-24.0-1.0-0.21","56939","List2B","white","woman","","","","","","","","survey_gender","61","","","People of my gender have a lot in common with each other.","common"
"4978.099999904633","","","html-slider-response","458","1678585","0.0-24.0-1.0-0.22","56939","List2B","white","woman","","","","","","","","survey_gender","69","","","It is not always easy for people to know what I am thinking.","filler"
"3681.199999809265","","","html-slider-response","459","1682268","0.0-24.0-1.0-0.23","56939","List2B","white","woman","","","","","","","","survey_gender","50","","","Being my gender gives me a good feeling.","feeling"
"2909.2000002861023","","","html-slider-response","460","1685179","0.0-24.0-1.0-0.24","56939","List2B","white","woman","","","","","","","","survey_gender","71","","","I am similar to the average person of my gender.","similar"
"2928.5","","","html-slider-response","461","1688108","0.0-24.0-1.0-0.25","56939","List2B","white","woman","","","","","","","","survey_gender","70","","","I am glad to have the friends that I have.","filler"
"4020","","","html-slider-response","462","1692130","0.0-24.0-1.0-0.26","56939","List2B","white","woman","","","","","","","","survey_gender","45","","","My friends understand me.","filler"
"2002.9000000953674","","","html-slider-response","463","1694135","0.0-24.0-1.0-0.27","56939","List2B","white","woman","","","","","","","","survey_gender","62","","","I feel a bond with my friends.","filler"
"7666.800000190735","","","survey-text","464","1701805","0.0-25.0","56939","List2B","white","woman","","","","","{""Q0"":""5a1f6085074b190001253521""}","","","worker_id","","","","",""
"21391.300000190735","","","external-html","465","1723733","0.0-26.0","56939","List2B","white","woman","debrief.html","","","","","","","","","","","",""
