rt,stimulus,button_pressed,trial_type,trial_index,time_elapsed,internal_node_id,subject,list,ppt_race,ppt_gender,url,first_guess,correct,key_press,responses,image_type,phrase_type,test_part,response,stimulus1,stimulus2,question_type,survey_item
2033.8,Welcome to the experiment. Press Continue to begin.,0,html-button-response,0,2039,0.0-0.0,57025,List2A,black,woman,,,,,,,,,,,,,
39402.3,,,external-html,1,43198,0.0-1.0,57025,List2A,black,woman,consent.html,,,,,,,,,,,,
12128.5,"<p>On the next page, you will see portraits of 8 people and their names.</p><p>Your first task is to take a few minutes to memorise the names of these people.</p><p>You will have to recall their names during the rest of the experiment, so it is</p><p>essential that you try to memorise these people and their names as best as you can.</p><br><p><strong>You will then be tested on your memory of these names and portraits.</strong></p><br><p>The experiment will start after you have completed this memory test.</p><br><p>Ready?</p>",0,html-button-response,2,55329,0.0-2.0,57025,List2A,black,woman,,,,,,,,,,,,,
99232.2,"<img src='img/portrait_matrix_list2.jpg' style='width:900px;height:500px;''></img><p>If you have memorised all the portraits and names and are ready to start, press Continue.</p><p><strong>Please note: Your memory of these faces will be tested 4 times during this experiment.</strong></p>",0,html-button-response,3,155572,0.0-3.0-0.0,57025,List2A,black,woman,,,,,,,,,,,,,
2805.2,"<img src=""portrait/BM1.jpg""style=""height:400px;""></img>",4,html-button-response,4,159380,0.0-3.0-1.0,57025,List2A,black,woman,,TRUE,4,,,,,,,,,,
null,CORRECT,,html-keyboard-response,5,160887,0.0-3.0-2.0-0.0,57025,List2A,black,woman,,,,null,,,,,,,,,
2336.3,"<img src=""portrait/BW2.jpg""style=""height:400px;""></img>",2,html-button-response,6,163225,0.0-3.0-4.0,57025,List2A,black,woman,,TRUE,2,,,,,,,,,,
null,CORRECT,,html-keyboard-response,7,164737,0.0-3.0-5.0-0.0,57025,List2A,black,woman,,,,null,,,,,,,,,
2675.6,"<img src=""portrait/WM2.jpg""style=""height:400px;""></img>",7,html-button-response,8,167414,0.0-3.0-7.0,57025,List2A,black,woman,,TRUE,7,,,,,,,,,,
null,CORRECT,,html-keyboard-response,9,168926,0.0-3.0-8.0-0.0,57025,List2A,black,woman,,,,null,,,,,,,,,
3086.1,"<img src=""portrait/BW1.jpg""style=""height:400px;""></img>",0,html-button-response,10,172014,0.0-3.0-10.0,57025,List2A,black,woman,,TRUE,0,,,,,,,,,,
null,CORRECT,,html-keyboard-response,11,173523,0.0-3.0-11.0-0.0,57025,List2A,black,woman,,,,null,,,,,,,,,
2049.7,"<img src=""portrait/BM2.jpg""style=""height:400px;""></img>",5,html-button-response,12,175574,0.0-3.0-13.0,57025,List2A,black,woman,,TRUE,5,,,,,,,,,,
null,CORRECT,,html-keyboard-response,13,177089,0.0-3.0-14.0-0.0,57025,List2A,black,woman,,,,null,,,,,,,,,
1862.6,"<img src=""portrait/WW1.jpg""style=""height:400px;""></img>",1,html-button-response,14,178954,0.0-3.0-16.0,57025,List2A,black,woman,,TRUE,1,,,,,,,,,,
null,CORRECT,,html-keyboard-response,15,180466,0.0-3.0-17.0-0.0,57025,List2A,black,woman,,,,null,,,,,,,,,
1662.4,"<img src=""portrait/WM1.jpg""style=""height:400px;""></img>",6,html-button-response,16,182131,0.0-3.0-19.0,57025,List2A,black,woman,,TRUE,6,,,,,,,,,,
null,CORRECT,,html-keyboard-response,17,183642,0.0-3.0-20.0-0.0,57025,List2A,black,woman,,,,null,,,,,,,,,
2760.1,"<img src=""portrait/WW2.jpg""style=""height:400px;""></img>",3,html-button-response,18,186403,0.0-3.0-22.0,57025,List2A,black,woman,,TRUE,3,,,,,,,,,,
null,CORRECT,,html-keyboard-response,19,187919,0.0-3.0-23.0-0.0,57025,List2A,black,woman,,,,null,,,,,,,,,
1615.4,<p>You got 8 out of 8 right first time. Press Continue.</p>,0,html-button-response,20,189536,0.0-3.0-25.0,57025,List2A,black,woman,,,,,,,,,,,,,
40055.2,"<p>In this experiment, you will view photographs of the people from the memory game interacting.</p><p>By using the <strong>exact</strong> phrase given <i>after</i> the photograph appears and recalling the correct names of the people in the photographs, form a sentence describing the interaction. You do not need to capitalise names.</p><p>Type your answer in the space provided. Please complete every sentence before moving onto the next trial.</p><p>You will only have a few seconds to memorise each given photograph and phrase before you can respond, so try your best to focus.</p><p>An example is given below. Press 'Continue' when you are ready.</p><img src='img/speaking_example.jpg' style='width:800px;height:460px;''></img>",0,html-button-response,21,230595,0.0-4.0,57025,List2A,black,woman,,,,,,,,,,,,,
2118.5,"<p>Before the experiment starts, you will watch two example trials. Press 'Continue'.</p>",0,html-button-response,22,233716,0.0-5.0,57025,List2A,black,woman,,,,,,,,,,,,,
null,<img src='img/play_eg.gif' style='height:400px;''></img>,,html-keyboard-response,23,236721,0.0-6.0,57025,List2A,black,woman,,,,null,,,,,,,,,
null,<p>is playing with</p>,,html-keyboard-response,24,238730,0.0-7.0,57025,List2A,black,woman,,,,null,,,,,,,,,
3108.2,<p><b>Answer:</b> jane is playing with ruth</p>,0,html-button-response,25,241839,0.0-8.0,57025,List2A,black,woman,,,,,,,,,,,,,
null,<img src='img/dance_eg.gif' style='height:400px;''></img>,,html-keyboard-response,26,244854,0.0-9.0,57025,List2A,black,woman,,,,null,,,,,,,,,
null,<p>is being entertained by</p>,,html-keyboard-response,27,246863,0.0-10.0,57025,List2A,black,woman,,,,null,,,,,,,,,
2495.2,<p><b>Answer:</b> fred is being entertained by mike</p>,0,html-button-response,28,249359,0.0-11.0,57025,List2A,black,woman,,,,,,,,,,,,,
12092,"<p>Ready to start the experiment?</p><br><p><strong>Remember to describe the picture using a full sentence,</strong></p><p><strong>that combines the names of the people with the <i>exact</i> phrase given.</strong></p><p><strong>To receive full payment you must do this correctly.</strong></p><p><strong> You do not need to capitalise names or use punctuation.</strong></p><br><p>Press 'Continue' to begin.</p>",0,html-button-response,29,262456,0.0-12.0,57025,List2A,black,woman,,,,,,,,,,,,,
null,"<div style=""font-size:60px;"">+</div>",,html-keyboard-response,30,263968,0.0-13.0-0.0,57025,List2A,black,woman,,,,null,,,,,,,,,
null,"<img src=""stim_listA/seduce7.gif""style=""height:400px;""></stim_listA>",,html-keyboard-response,31,265974,0.0-13.0-1.0,57025,List2A,black,woman,,,,null,,,,,,,,,
null,is seducing,,html-keyboard-response,32,267981,0.0-13.0-2.0,57025,List2A,black,woman,,,,null,,,,,,,,,
11534.3,,,survey-text,33,279517,0.0-13.0-3.0,57025,List2A,black,woman,,,,,"{""Q0"":""Kate is seducing ruth""}","<img src=""stim_listA/seduce7.gif""style=""height:400px;""></stim_listA>",is seducing,,,,,,
null,"<div style=""font-size:60px;"">+</div>",,html-keyboard-response,34,280022,0.0-13.0-0.1,57025,List2A,black,woman,,,,null,,,,,,,,,
null,"<img src=""stim_listA/hug1.gif""style=""height:400px;""></stim_listA>",,html-keyboard-response,35,282028,0.0-13.0-1.1,57025,List2A,black,woman,,,,null,,,,,,,,,
null,is hugging,,html-keyboard-response,36,284040,0.0-13.0-2.1,57025,List2A,black,woman,,,,null,,,,,,,,,
10240.9,,,survey-text,37,294285,0.0-13.0-3.1,57025,List2A,black,woman,,,,,"{""Q0"":""luke is hugging ruth""}","<img src=""stim_listA/hug1.gif""style=""height:400px;""></stim_listA>",is hugging,,,,,,
null,"<div style=""font-size:60px;"">+</div>",,html-keyboard-response,38,294790,0.0-13.0-0.2,57025,List2A,black,woman,,,,null,,,,,,,,,
null,"<img src=""stim_listA/seduce2.gif""style=""height:400px;""></stim_listA>",,html-keyboard-response,39,296793,0.0-13.0-1.2,57025,List2A,black,woman,,,,null,,,,,,,,,
null,is being seduced by,,html-keyboard-response,40,298803,0.0-13.0-2.2,57025,List2A,black,woman,,,,null,,,,,,,,,
10163.1,,,survey-text,41,308970,0.0-13.0-3.2,57025,List2A,black,woman,,,,,"{""Q0"":""ruth is being seduced by dave""}","<img src=""stim_listA/seduce2.gif""style=""height:400px;""></stim_listA>",is being seduced by,,,,,,
null,"<div style=""font-size:60px;"">+</div>",,html-keyboard-response,42,309477,0.0-13.0-0.3,57025,List2A,black,woman,,,,null,,,,,,,,,
null,"<img src=""stim_listA/oppose8.gif""style=""height:400px;""></stim_listA>",,html-keyboard-response,43,311482,0.0-13.0-1.3,57025,List2A,black,woman,,,,null,,,,,,,,,
null,is being opposed by,,html-keyboard-response,44,313498,0.0-13.0-2.3,57025,List2A,black,woman,,,,null,,,,,,,,,
9656.1,,,survey-text,45,323156,0.0-13.0-3.3,57025,List2A,black,woman,,,,,"{""Q0"":""beth is being opposed by ruth""}","<img src=""stim_listA/oppose8.gif""style=""height:400px;""></stim_listA>",is being opposed by,,,,,,
null,"<div style=""font-size:60px;"">+</div>",,html-keyboard-response,46,323660,0.0-13.0-0.4,57025,List2A,black,woman,,,,null,,,,,,,,,
null,"<img src=""stim_listA/oppose1.gif""style=""height:400px;""></stim_listA>",,html-keyboard-response,47,325667,0.0-13.0-1.4,57025,List2A,black,woman,,,,null,,,,,,,,,
null,is opposing,,html-keyboard-response,48,327674,0.0-13.0-2.4,57025,List2A,black,woman,,,,null,,,,,,,,,
7079.1,,,survey-text,49,334758,0.0-13.0-3.4,57025,List2A,black,woman,,,,,"{""Q0"":""jane is opposing dave""}","<img src=""stim_listA/oppose1.gif""style=""height:400px;""></stim_listA>",is opposing,,,,,,
null,"<div style=""font-size:60px;"">+</div>",,html-keyboard-response,50,335261,0.0-13.0-0.5,57025,List2A,black,woman,,,,null,,,,,,,,,
null,"<img src=""stim_listA/kiss4.gif""style=""height:400px;""></stim_listA>",,html-keyboard-response,51,337265,0.0-13.0-1.5,57025,List2A,black,woman,,,,null,,,,,,,,,
null,is being kissed by,,html-keyboard-response,52,339268,0.0-13.0-2.5,57025,List2A,black,woman,,,,null,,,,,,,,,
8688.2,,,survey-text,53,347953,0.0-13.0-3.5,57025,List2A,black,woman,,,,,"{""Q0"":""mike is being kissed by kate""}","<img src=""stim_listA/kiss4.gif""style=""height:400px;""></stim_listA>",is being kissed by,,,,,,
null,"<div style=""font-size:60px;"">+</div>",,html-keyboard-response,54,348461,0.0-13.0-0.6,57025,List2A,black,woman,,,,null,,,,,,,,,
null,"<img src=""stim_listA/hug5.gif""style=""height:400px;""></stim_listA>",,html-keyboard-response,55,350471,0.0-13.0-1.6,57025,List2A,black,woman,,,,null,,,,,,,,,
null,is hugging,,html-keyboard-response,56,352477,0.0-13.0-2.6,57025,List2A,black,woman,,,,null,,,,,,,,,
8202.1,,,survey-text,57,360682,0.0-13.0-3.6,57025,List2A,black,woman,,,,,"{""Q0"":""fred is hugging luke""}","<img src=""stim_listA/hug5.gif""style=""height:400px;""></stim_listA>",is hugging,,,,,,
null,"<div style=""font-size:60px;"">+</div>",,html-keyboard-response,58,361189,0.0-13.0-0.7,57025,List2A,black,woman,,,,null,,,,,,,,,
null,"<img src=""stim_listA/shout5.gif""style=""height:400px;""></stim_listA>",,html-keyboard-response,59,363193,0.0-13.0-1.7,57025,List2A,black,woman,,,,null,,,,,,,,,
null,is shouting at,,html-keyboard-response,60,365203,0.0-13.0-2.7,57025,List2A,black,woman,,,,null,,,,,,,,,
11507.3,,,survey-text,61,376713,0.0-13.0-3.7,57025,List2A,black,woman,,,,,"{""Q0"":""luke is shouting at fred""}","<img src=""stim_listA/shout5.gif""style=""height:400px;""></stim_listA>",is shouting at,,,,,,
null,"<div style=""font-size:60px;"">+</div>",,html-keyboard-response,62,377220,0.0-13.0-0.8,57025,List2A,black,woman,,,,null,,,,,,,,,
null,"<img src=""stim_listA/challenge8.gif""style=""height:400px;""></stim_listA>",,html-keyboard-response,63,379228,0.0-13.0-1.8,57025,List2A,black,woman,,,,null,,,,,,,,,
null,is being challenged by,,html-keyboard-response,64,381235,0.0-13.0-2.8,57025,List2A,black,woman,,,,null,,,,,,,,,
12018.1,,,survey-text,65,393257,0.0-13.0-3.8,57025,List2A,black,woman,,,,,"{""Q0"":""kate is being challenged by ruth""}","<img src=""stim_listA/challenge8.gif""style=""height:400px;""></stim_listA>",is being challenged by,,,,,,
null,"<div style=""font-size:60px;"">+</div>",,html-keyboard-response,66,393769,0.0-13.0-0.9,57025,List2A,black,woman,,,,null,,,,,,,,,
null,"<img src=""stim_listA/hug4.gif""style=""height:400px;""></stim_listA>",,html-keyboard-response,67,395772,0.0-13.0-1.9,57025,List2A,black,woman,,,,null,,,,,,,,,
null,is being hugged by,,html-keyboard-response,68,397778,0.0-13.0-2.9,57025,List2A,black,woman,,,,null,,,,,,,,,
8402.9,,,survey-text,69,406189,0.0-13.0-3.9,57025,List2A,black,woman,,,,,"{""Q0"":""mike is being hugged by kate""}","<img src=""stim_listA/hug4.gif""style=""height:400px;""></stim_listA>",is being hugged by,,,,,,
null,"<div style=""font-size:60px;"">+</div>",,html-keyboard-response,70,406695,0.0-13.0-0.10,57025,List2A,black,woman,,,,null,,,,,,,,,
null,"<img src=""stim_listA/touch2.gif""style=""height:400px;""></stim_listA>",,html-keyboard-response,71,408704,0.0-13.0-1.10,57025,List2A,black,woman,,,,null,,,,,,,,,
null,is being touched by,,html-keyboard-response,72,410708,0.0-13.0-2.10,57025,List2A,black,woman,,,,null,,,,,,,,,
6633.6,,,survey-text,73,417347,0.0-13.0-3.10,57025,List2A,black,woman,,,,,"{""Q0"":""ruth is being touched by luke""}","<img src=""stim_listA/touch2.gif""style=""height:400px;""></stim_listA>",is being touched by,,,,,,
null,"<div style=""font-size:60px;"">+</div>",,html-keyboard-response,74,417858,0.0-13.0-0.11,57025,List2A,black,woman,,,,null,,,,,,,,,
null,"<img src=""stim_listA/greet5.gif""style=""height:400px;""></stim_listA>",,html-keyboard-response,75,419861,0.0-13.0-1.11,57025,List2A,black,woman,,,,null,,,,,,,,,
null,is greeting,,html-keyboard-response,76,421866,0.0-13.0-2.11,57025,List2A,black,woman,,,,null,,,,,,,,,
7080.1,,,survey-text,77,428947,0.0-13.0-3.11,57025,List2A,black,woman,,,,,"{""Q0"":""fred is greeting dave""}","<img src=""stim_listA/greet5.gif""style=""height:400px;""></stim_listA>",is greeting,,,,,,
null,"<div style=""font-size:60px;"">+</div>",,html-keyboard-response,78,429454,0.0-13.0-0.12,57025,List2A,black,woman,,,,null,,,,,,,,,
null,"<img src=""stim_listA/seduce8.gif""style=""height:400px;""></stim_listA>",,html-keyboard-response,79,431465,0.0-13.0-1.12,57025,List2A,black,woman,,,,null,,,,,,,,,
null,is being seduced by,,html-keyboard-response,80,433475,0.0-13.0-2.12,57025,List2A,black,woman,,,,null,,,,,,,,,
11630.8,,,survey-text,81,445107,0.0-13.0-3.12,57025,List2A,black,woman,,,,,"{""Q0"":""jane is being seduced by beth""}","<img src=""stim_listA/seduce8.gif""style=""height:400px;""></stim_listA>",is being seduced by,,,,,,
null,"<div style=""font-size:60px;"">+</div>",,html-keyboard-response,82,445615,0.0-13.0-0.13,57025,List2A,black,woman,,,,null,,,,,,,,,
null,"<img src=""stim_listA/shout7.gif""style=""height:400px;""></stim_listA>",,html-keyboard-response,83,447624,0.0-13.0-1.13,57025,List2A,black,woman,,,,null,,,,,,,,,
null,is shouting at,,html-keyboard-response,84,449626,0.0-13.0-2.13,57025,List2A,black,woman,,,,null,,,,,,,,,
8340.8,,,survey-text,85,457971,0.0-13.0-3.13,57025,List2A,black,woman,,,,,"{""Q0"":""ruth is shouting at beth""}","<img src=""stim_listA/shout7.gif""style=""height:400px;""></stim_listA>",is shouting at,,,,,,
null,"<div style=""font-size:60px;"">+</div>",,html-keyboard-response,86,458480,0.0-13.0-0.14,57025,List2A,black,woman,,,,null,,,,,,,,,
null,"<img src=""stim_listA/kiss1.gif""style=""height:400px;""></stim_listA>",,html-keyboard-response,87,460486,0.0-13.0-1.14,57025,List2A,black,woman,,,,null,,,,,,,,,
null,is kissing,,html-keyboard-response,88,462492,0.0-13.0-2.14,57025,List2A,black,woman,,,,null,,,,,,,,,
5023.1,,,survey-text,89,467519,0.0-13.0-3.14,57025,List2A,black,woman,,,,,"{""Q0"":""luke is kissing ruth""}","<img src=""stim_listA/kiss1.gif""style=""height:400px;""></stim_listA>",is kissing,,,,,,
null,"<div style=""font-size:60px;"">+</div>",,html-keyboard-response,90,468027,0.0-13.0-0.15,57025,List2A,black,woman,,,,null,,,,,,,,,
null,"<img src=""stim_listA/touch8.gif""style=""height:400px;""></stim_listA>",,html-keyboard-response,91,470030,0.0-13.0-1.15,57025,List2A,black,woman,,,,null,,,,,,,,,
null,is being touched by,,html-keyboard-response,92,472040,0.0-13.0-2.15,57025,List2A,black,woman,,,,null,,,,,,,,,
8429.1,,,survey-text,93,480474,0.0-13.0-3.15,57025,List2A,black,woman,,,,,"{""Q0"":""beth is being touched by ruth""}","<img src=""stim_listA/touch8.gif""style=""height:400px;""></stim_listA>",is being touched by,,,,,,
null,"<div style=""font-size:60px;"">+</div>",,html-keyboard-response,94,480986,0.0-13.0-0.16,57025,List2A,black,woman,,,,null,,,,,,,,,
null,"<img src=""stim_listA/challenge2.gif""style=""height:400px;""></stim_listA>",,html-keyboard-response,95,482989,0.0-13.0-1.16,57025,List2A,black,woman,,,,null,,,,,,,,,
null,is being challenged by,,html-keyboard-response,96,485005,0.0-13.0-2.16,57025,List2A,black,woman,,,,null,,,,,,,,,
8722.9,,,survey-text,97,493731,0.0-13.0-3.16,57025,List2A,black,woman,,,,,"{""Q0"":""luke is being challenged by jane""}","<img src=""stim_listA/challenge2.gif""style=""height:400px;""></stim_listA>",is being challenged by,,,,,,
null,"<div style=""font-size:60px;"">+</div>",,html-keyboard-response,98,494235,0.0-13.0-0.17,57025,List2A,black,woman,,,,null,,,,,,,,,
null,"<img src=""stim_listA/copy7.gif""style=""height:400px;""></stim_listA>",,html-keyboard-response,99,496240,0.0-13.0-1.17,57025,List2A,black,woman,,,,null,,,,,,,,,
null,is copying,,html-keyboard-response,100,498246,0.0-13.0-2.17,57025,List2A,black,woman,,,,null,,,,,,,,,
7990.4,,,survey-text,101,506241,0.0-13.0-3.17,57025,List2A,black,woman,,,,,"{""Q0"":""jane is copying beth""}","<img src=""stim_listA/copy7.gif""style=""height:400px;""></stim_listA>",is copying,,,,,,
null,"<div style=""font-size:60px;"">+</div>",,html-keyboard-response,102,506742,0.0-13.0-0.18,57025,List2A,black,woman,,,,null,,,,,,,,,
null,"<img src=""stim_listA/challenge5.gif""style=""height:400px;""></stim_listA>",,html-keyboard-response,103,508748,0.0-13.0-1.18,57025,List2A,black,woman,,,,null,,,,,,,,,
null,is challenging,,html-keyboard-response,104,510760,0.0-13.0-2.18,57025,List2A,black,woman,,,,null,,,,,,,,,
11834.2,,,survey-text,105,522596,0.0-13.0-3.18,57025,List2A,black,woman,,,,,"{""Q0"":""dave is challenging fred""}","<img src=""stim_listA/challenge5.gif""style=""height:400px;""></stim_listA>",is challenging,,,,,,
null,"<div style=""font-size:60px;"">+</div>",,html-keyboard-response,106,523104,0.0-13.0-0.19,57025,List2A,black,woman,,,,null,,,,,,,,,
null,"<img src=""stim_listA/touch7.gif""style=""height:400px;""></stim_listA>",,html-keyboard-response,107,525111,0.0-13.0-1.19,57025,List2A,black,woman,,,,null,,,,,,,,,
null,is touching,,html-keyboard-response,108,527113,0.0-13.0-2.19,57025,List2A,black,woman,,,,null,,,,,,,,,
7745.6,,,survey-text,109,534860,0.0-13.0-3.19,57025,List2A,black,woman,,,,,"{""Q0"":""jane is touching kate""}","<img src=""stim_listA/touch7.gif""style=""height:400px;""></stim_listA>",is touching,,,,,,
9698.5,"<img src='img/portrait_matrix_list2.jpg' style='width:900px;height:500px;''></img><p>If you have memorised all the portraits and names and are ready to start, press Continue.</p><p><strong>Please note: Your memory of these faces will be tested 4 times during this experiment.</strong></p>",0,html-button-response,110,544561,0.0-14.0-0.0,57025,List2A,black,woman,,,,,,,,,,,,,
5282.3,"<img src=""portrait/BM1.jpg""style=""height:400px;""></img>",4,html-button-response,111,550847,0.0-14.0-1.0,57025,List2A,black,woman,,TRUE,4,,,,,,,,,,
null,CORRECT,,html-keyboard-response,112,552365,0.0-14.0-2.0-0.0,57025,List2A,black,woman,,,,null,,,,,,,,,
1832.1,"<img src=""portrait/BM2.jpg""style=""height:400px;""></img>",5,html-button-response,113,554199,0.0-14.0-4.0,57025,List2A,black,woman,,TRUE,5,,,,,,,,,,
null,CORRECT,,html-keyboard-response,114,555712,0.0-14.0-5.0-0.0,57025,List2A,black,woman,,,,null,,,,,,,,,
2349.3,"<img src=""portrait/BW1.jpg""style=""height:400px;""></img>",0,html-button-response,115,558064,0.0-14.0-7.0,57025,List2A,black,woman,,TRUE,0,,,,,,,,,,
null,CORRECT,,html-keyboard-response,116,559578,0.0-14.0-8.0-0.0,57025,List2A,black,woman,,,,null,,,,,,,,,
2417.9,"<img src=""portrait/WW2.jpg""style=""height:400px;""></img>",3,html-button-response,117,561998,0.0-14.0-10.0,57025,List2A,black,woman,,TRUE,3,,,,,,,,,,
null,CORRECT,,html-keyboard-response,118,563519,0.0-14.0-11.0-0.0,57025,List2A,black,woman,,,,null,,,,,,,,,
1775.6,"<img src=""portrait/WW1.jpg""style=""height:400px;""></img>",1,html-button-response,119,565297,0.0-14.0-13.0,57025,List2A,black,woman,,TRUE,1,,,,,,,,,,
null,CORRECT,,html-keyboard-response,120,566808,0.0-14.0-14.0-0.0,57025,List2A,black,woman,,,,null,,,,,,,,,
1860.3,"<img src=""portrait/WM2.jpg""style=""height:400px;""></img>",7,html-button-response,121,568670,0.0-14.0-16.0,57025,List2A,black,woman,,TRUE,7,,,,,,,,,,
null,CORRECT,,html-keyboard-response,122,570180,0.0-14.0-17.0-0.0,57025,List2A,black,woman,,,,null,,,,,,,,,
1530.9,"<img src=""portrait/BW2.jpg""style=""height:400px;""></img>",2,html-button-response,123,571712,0.0-14.0-19.0,57025,List2A,black,woman,,TRUE,2,,,,,,,,,,
null,CORRECT,,html-keyboard-response,124,573220,0.0-14.0-20.0-0.0,57025,List2A,black,woman,,,,null,,,,,,,,,
1755.8,"<img src=""portrait/WM1.jpg""style=""height:400px;""></img>",6,html-button-response,125,574977,0.0-14.0-22.0,57025,List2A,black,woman,,TRUE,6,,,,,,,,,,
null,CORRECT,,html-keyboard-response,126,576502,0.0-14.0-23.0-0.0,57025,List2A,black,woman,,,,null,,,,,,,,,
1773.2,<p>You got 8 out of 8 right first time. Press Continue.</p>,0,html-button-response,127,578277,0.0-14.0-25.0,57025,List2A,black,woman,,,,,,,,,,,,,
null,"<div style=""font-size:60px;"">+</div>",,html-keyboard-response,128,579784,0.0-15.0-0.0,57025,List2A,black,woman,,,,null,,,,,,,,,
null,"<img src=""stim_listA/hug8.gif""style=""height:400px;""></stim_listA>",,html-keyboard-response,129,581792,0.0-15.0-1.0,57025,List2A,black,woman,,,,null,,,,,,,,,
null,is being hugged by,,html-keyboard-response,130,583801,0.0-15.0-2.0,57025,List2A,black,woman,,,,null,,,,,,,,,
6463.3,,,survey-text,131,590266,0.0-15.0-3.0,57025,List2A,black,woman,,,,,"{""Q0"":""jane is being hugged by kate""}","<img src=""stim_listA/hug8.gif""style=""height:400px;""></stim_listA>",is being hugged by,,,,,,
null,"<div style=""font-size:60px;"">+</div>",,html-keyboard-response,132,590769,0.0-15.0-0.1,57025,List2A,black,woman,,,,null,,,,,,,,,
null,"<img src=""stim_listA/look1.gif""style=""height:400px;""></stim_listA>",,html-keyboard-response,133,592788,0.0-15.0-1.1,57025,List2A,black,woman,,,,null,,,,,,,,,
null,is looking at,,html-keyboard-response,134,594794,0.0-15.0-2.1,57025,List2A,black,woman,,,,null,,,,,,,,,
3953.2,,,survey-text,135,598752,0.0-15.0-3.1,57025,List2A,black,woman,,,,,"{""Q0"":""ruth is looking at luke""}","<img src=""stim_listA/look1.gif""style=""height:400px;""></stim_listA>",is looking at,,,,,,
null,"<div style=""font-size:60px;"">+</div>",,html-keyboard-response,136,599253,0.0-15.0-0.2,57025,List2A,black,woman,,,,null,,,,,,,,,
null,"<img src=""stim_listA/greet8.gif""style=""height:400px;""></stim_listA>",,html-keyboard-response,137,601256,0.0-15.0-1.2,57025,List2A,black,woman,,,,null,,,,,,,,,
null,is being greeted by,,html-keyboard-response,138,603264,0.0-15.0-2.2,57025,List2A,black,woman,,,,null,,,,,,,,,
7397.1,,,survey-text,139,610665,0.0-15.0-3.2,57025,List2A,black,woman,,,,,"{""Q0"":""kate is being greeted by ruth""}","<img src=""stim_listA/greet8.gif""style=""height:400px;""></stim_listA>",is being greeted by,,,,,,
null,"<div style=""font-size:60px;"">+</div>",,html-keyboard-response,140,611173,0.0-15.0-0.3,57025,List2A,black,woman,,,,null,,,,,,,,,
null,"<img src=""stim_listA/oppose4.gif""style=""height:400px;""></stim_listA>",,html-keyboard-response,141,613182,0.0-15.0-1.3,57025,List2A,black,woman,,,,null,,,,,,,,,
null,is being opposed by,,html-keyboard-response,142,615194,0.0-15.0-2.3,57025,List2A,black,woman,,,,null,,,,,,,,,
13835.7,,,survey-text,143,629034,0.0-15.0-3.3,57025,List2A,black,woman,,,,,"{""Q0"":""beth is being opposed by fred""}","<img src=""stim_listA/oppose4.gif""style=""height:400px;""></stim_listA>",is being opposed by,,,,,,
null,"<div style=""font-size:60px;"">+</div>",,html-keyboard-response,144,629537,0.0-15.0-0.4,57025,List2A,black,woman,,,,null,,,,,,,,,
null,"<img src=""stim_listA/challenge7.gif""style=""height:400px;""></stim_listA>",,html-keyboard-response,145,631545,0.0-15.0-1.4,57025,List2A,black,woman,,,,null,,,,,,,,,
null,is challenging,,html-keyboard-response,146,633549,0.0-15.0-2.4,57025,List2A,black,woman,,,,null,,,,,,,,,
7671.2,,,survey-text,147,641225,0.0-15.0-3.4,57025,List2A,black,woman,,,,,"{""Q0"":""jane is challenging beth""}","<img src=""stim_listA/challenge7.gif""style=""height:400px;""></stim_listA>",is challenging,,,,,,
null,"<div style=""font-size:60px;"">+</div>",,html-keyboard-response,148,641727,0.0-15.0-0.5,57025,List2A,black,woman,,,,null,,,,,,,,,
null,"<img src=""stim_listA/challenge1.gif""style=""height:400px;""></stim_listA>",,html-keyboard-response,149,643736,0.0-15.0-1.5,57025,List2A,black,woman,,,,null,,,,,,,,,
null,is challenging,,html-keyboard-response,150,645738,0.0-15.0-2.5,57025,List2A,black,woman,,,,null,,,,,,,,,
12957.9,,,survey-text,151,658701,0.0-15.0-3.5,57025,List2A,black,woman,,,,,"{""Q0"":""Dave is challenging ruth""}","<img src=""stim_listA/challenge1.gif""style=""height:400px;""></stim_listA>",is challenging,,,,,,
null,"<div style=""font-size:60px;"">+</div>",,html-keyboard-response,152,659209,0.0-15.0-0.6,57025,List2A,black,woman,,,,null,,,,,,,,,
null,"<img src=""stim_listA/look7.gif""style=""height:400px;""></stim_listA>",,html-keyboard-response,153,661213,0.0-15.0-1.6,57025,List2A,black,woman,,,,null,,,,,,,,,
null,is looking at,,html-keyboard-response,154,663222,0.0-15.0-2.6,57025,List2A,black,woman,,,,null,,,,,,,,,
5362.2,,,survey-text,155,668589,0.0-15.0-3.6,57025,List2A,black,woman,,,,,"{""Q0"":""ruth is looking at beth""}","<img src=""stim_listA/look7.gif""style=""height:400px;""></stim_listA>",is looking at,,,,,,
null,"<div style=""font-size:60px;"">+</div>",,html-keyboard-response,156,669104,0.0-15.0-0.7,57025,List2A,black,woman,,,,null,,,,,,,,,
null,"<img src=""stim_listA/hug2.gif""style=""height:400px;""></stim_listA>",,html-keyboard-response,157,671113,0.0-15.0-1.7,57025,List2A,black,woman,,,,null,,,,,,,,,
null,is being hugged by,,html-keyboard-response,158,673120,0.0-15.0-2.7,57025,List2A,black,woman,,,,null,,,,,,,,,
5912.1,,,survey-text,159,679037,0.0-15.0-3.7,57025,List2A,black,woman,,,,,"{""Q0"":""jane is being hugged by dave""}","<img src=""stim_listA/hug2.gif""style=""height:400px;""></stim_listA>",is being hugged by,,,,,,
null,"<div style=""font-size:60px;"">+</div>",,html-keyboard-response,160,679543,0.0-15.0-0.8,57025,List2A,black,woman,,,,null,,,,,,,,,
null,"<img src=""stim_listA/look2.gif""style=""height:400px;""></stim_listA>",,html-keyboard-response,161,681557,0.0-15.0-1.8,57025,List2A,black,woman,,,,null,,,,,,,,,
null,is being looked at by,,html-keyboard-response,162,683562,0.0-15.0-2.8,57025,List2A,black,woman,,,,null,,,,,,,,,
6160.5,,,survey-text,163,689727,0.0-15.0-3.8,57025,List2A,black,woman,,,,,"{""Q0"":""jane is being looked at by dave""}","<img src=""stim_listA/look2.gif""style=""height:400px;""></stim_listA>",is being looked at by,,,,,,
null,"<div style=""font-size:60px;"">+</div>",,html-keyboard-response,164,690229,0.0-15.0-0.9,57025,List2A,black,woman,,,,null,,,,,,,,,
null,"<img src=""stim_listA/hug6.gif""style=""height:400px;""></stim_listA>",,html-keyboard-response,165,692238,0.0-15.0-1.9,57025,List2A,black,woman,,,,null,,,,,,,,,
null,is being hugged by,,html-keyboard-response,166,694244,0.0-15.0-2.9,57025,List2A,black,woman,,,,null,,,,,,,,,
5383.8,,,survey-text,167,699632,0.0-15.0-3.9,57025,List2A,black,woman,,,,,"{""Q0"":""dave is being hugged by mike""}","<img src=""stim_listA/hug6.gif""style=""height:400px;""></stim_listA>",is being hugged by,,,,,,
null,"<div style=""font-size:60px;"">+</div>",,html-keyboard-response,168,700133,0.0-15.0-0.10,57025,List2A,black,woman,,,,null,,,,,,,,,
null,"<img src=""stim_listA/oppose6.gif""style=""height:400px;""></stim_listA>",,html-keyboard-response,169,702138,0.0-15.0-1.10,57025,List2A,black,woman,,,,null,,,,,,,,,
null,is being opposed by,,html-keyboard-response,170,704143,0.0-15.0-2.10,57025,List2A,black,woman,,,,null,,,,,,,,,
6166.4,,,survey-text,171,710307,0.0-15.0-3.10,57025,List2A,black,woman,,,,,"{""Q0"":""fred is being opposed by luke""}","<img src=""stim_listA/oppose6.gif""style=""height:400px;""></stim_listA>",is being opposed by,,,,,,
null,"<div style=""font-size:60px;"">+</div>",,html-keyboard-response,172,710817,0.0-15.0-0.11,57025,List2A,black,woman,,,,null,,,,,,,,,
null,"<img src=""stim_listA/challenge4.gif""style=""height:400px;""></stim_listA>",,html-keyboard-response,173,712825,0.0-15.0-1.11,57025,List2A,black,woman,,,,null,,,,,,,,,
null,is being challenged by,,html-keyboard-response,174,714833,0.0-15.0-2.11,57025,List2A,black,woman,,,,null,,,,,,,,,
9333.7,,,survey-text,175,724170,0.0-15.0-3.11,57025,List2A,black,woman,,,,,"{""Q0"":""kate is being challenged by fred""}","<img src=""stim_listA/challenge4.gif""style=""height:400px;""></stim_listA>",is being challenged by,,,,,,
null,"<div style=""font-size:60px;"">+</div>",,html-keyboard-response,176,724675,0.0-15.0-0.12,57025,List2A,black,woman,,,,null,,,,,,,,,
null,"<img src=""stim_listA/shout4.gif""style=""height:400px;""></stim_listA>",,html-keyboard-response,177,726679,0.0-15.0-1.12,57025,List2A,black,woman,,,,null,,,,,,,,,
null,is being shouted at by,,html-keyboard-response,178,728681,0.0-15.0-2.12,57025,List2A,black,woman,,,,null,,,,,,,,,
8587.1,,,survey-text,179,737271,0.0-15.0-3.12,57025,List2A,black,woman,,,,,"{""Q0"":""kate is being yelled at by mike""}","<img src=""stim_listA/shout4.gif""style=""height:400px;""></stim_listA>",is being shouted at by,,,,,,
null,"<div style=""font-size:60px;"">+</div>",,html-keyboard-response,180,737777,0.0-15.0-0.13,57025,List2A,black,woman,,,,null,,,,,,,,,
null,"<img src=""stim_listA/look5.gif""style=""height:400px;""></stim_listA>",,html-keyboard-response,181,739788,0.0-15.0-1.13,57025,List2A,black,woman,,,,null,,,,,,,,,
null,is looking at,,html-keyboard-response,182,741800,0.0-15.0-2.13,57025,List2A,black,woman,,,,null,,,,,,,,,
6600.1,,,survey-text,183,748402,0.0-15.0-3.13,57025,List2A,black,woman,,,,,"{""Q0"":""fred is looking at luke""}","<img src=""stim_listA/look5.gif""style=""height:400px;""></stim_listA>",is looking at,,,,,,
null,"<div style=""font-size:60px;"">+</div>",,html-keyboard-response,184,748905,0.0-15.0-0.14,57025,List2A,black,woman,,,,null,,,,,,,,,
null,"<img src=""stim_listA/shout6.gif""style=""height:400px;""></stim_listA>",,html-keyboard-response,185,750910,0.0-15.0-1.14,57025,List2A,black,woman,,,,null,,,,,,,,,
null,is being shouted at by,,html-keyboard-response,186,752925,0.0-15.0-2.14,57025,List2A,black,woman,,,,null,,,,,,,,,
7473.4,,,survey-text,187,760403,0.0-15.0-3.14,57025,List2A,black,woman,,,,,"{""Q0"":""dave is being shouted at by mike""}","<img src=""stim_listA/shout6.gif""style=""height:400px;""></stim_listA>",is being shouted at by,,,,,,
null,"<div style=""font-size:60px;"">+</div>",,html-keyboard-response,188,760911,0.0-15.0-0.15,57025,List2A,black,woman,,,,null,,,,,,,,,
null,"<img src=""stim_listA/seduce6.gif""style=""height:400px;""></stim_listA>",,html-keyboard-response,189,762925,0.0-15.0-1.15,57025,List2A,black,woman,,,,null,,,,,,,,,
null,is being seduced by,,html-keyboard-response,190,764942,0.0-15.0-2.15,57025,List2A,black,woman,,,,null,,,,,,,,,
9639.9,,,survey-text,191,774587,0.0-15.0-3.15,57025,List2A,black,woman,,,,,"{""Q0"":""dave is being seduced by fred""}","<img src=""stim_listA/seduce6.gif""style=""height:400px;""></stim_listA>",is being seduced by,,,,,,
null,"<div style=""font-size:60px;"">+</div>",,html-keyboard-response,192,775095,0.0-15.0-0.16,57025,List2A,black,woman,,,,null,,,,,,,,,
null,"<img src=""stim_listA/touch6.gif""style=""height:400px;""></stim_listA>",,html-keyboard-response,193,777105,0.0-15.0-1.16,57025,List2A,black,woman,,,,null,,,,,,,,,
null,is being touched by,,html-keyboard-response,194,779122,0.0-15.0-2.16,57025,List2A,black,woman,,,,null,,,,,,,,,
7078.1,,,survey-text,195,786205,0.0-15.0-3.16,57025,List2A,black,woman,,,,,"{""Q0"":""fred is being touched by luke""}","<img src=""stim_listA/touch6.gif""style=""height:400px;""></stim_listA>",is being touched by,,,,,,
null,"<div style=""font-size:60px;"">+</div>",,html-keyboard-response,196,786707,0.0-15.0-0.17,57025,List2A,black,woman,,,,null,,,,,,,,,
null,"<img src=""stim_listA/oppose3.gif""style=""height:400px;""></stim_listA>",,html-keyboard-response,197,788716,0.0-15.0-1.17,57025,List2A,black,woman,,,,null,,,,,,,,,
null,is opposing,,html-keyboard-response,198,790729,0.0-15.0-2.17,57025,List2A,black,woman,,,,null,,,,,,,,,
4078.8,,,survey-text,199,794812,0.0-15.0-3.17,57025,List2A,black,woman,,,,,"{""Q0"":""kate is opposing mike""}","<img src=""stim_listA/oppose3.gif""style=""height:400px;""></stim_listA>",is opposing,,,,,,
null,"<div style=""font-size:60px;"">+</div>",,html-keyboard-response,200,795323,0.0-15.0-0.18,57025,List2A,black,woman,,,,null,,,,,,,,,
null,"<img src=""stim_listA/kiss3.gif""style=""height:400px;""></stim_listA>",,html-keyboard-response,201,797333,0.0-15.0-1.18,57025,List2A,black,woman,,,,null,,,,,,,,,
null,is kissing,,html-keyboard-response,202,799335,0.0-15.0-2.18,57025,List2A,black,woman,,,,null,,,,,,,,,
5667.5,,,survey-text,203,805006,0.0-15.0-3.18,57025,List2A,black,woman,,,,,"{""Q0"":""beth is kissing fred""}","<img src=""stim_listA/kiss3.gif""style=""height:400px;""></stim_listA>",is kissing,,,,,,
null,"<div style=""font-size:60px;"">+</div>",,html-keyboard-response,204,805516,0.0-15.0-0.19,57025,List2A,black,woman,,,,null,,,,,,,,,
null,"<img src=""stim_listA/look3.gif""style=""height:400px;""></stim_listA>",,html-keyboard-response,205,807527,0.0-15.0-1.19,57025,List2A,black,woman,,,,null,,,,,,,,,
null,is looking at,,html-keyboard-response,206,809540,0.0-15.0-2.19,57025,List2A,black,woman,,,,null,,,,,,,,,
6947.2,,,survey-text,207,816491,0.0-15.0-3.19,57025,List2A,black,woman,,,,,"{""Q0"":""fred is looking at beth""}","<img src=""stim_listA/look3.gif""style=""height:400px;""></stim_listA>",is looking at,,,,,,
4035.7,"<img src='img/portrait_matrix_list2.jpg' style='width:900px;height:500px;''></img><p>If you have memorised all the portraits and names and are ready to start, press Continue.</p><p><strong>Please note: Your memory of these faces will be tested 4 times during this experiment.</strong></p>",0,html-button-response,208,820529,0.0-16.0-0.0,57025,List2A,black,woman,,,,,,,,,,,,,
1687.5,"<img src=""portrait/BW1.jpg""style=""height:400px;""></img>",0,html-button-response,209,823224,0.0-16.0-1.0,57025,List2A,black,woman,,TRUE,0,,,,,,,,,,
null,CORRECT,,html-keyboard-response,210,824736,0.0-16.0-2.0-0.0,57025,List2A,black,woman,,,,null,,,,,,,,,
2254,"<img src=""portrait/BM2.jpg""style=""height:400px;""></img>",5,html-button-response,211,826999,0.0-16.0-4.0,57025,List2A,black,woman,,TRUE,5,,,,,,,,,,
null,CORRECT,,html-keyboard-response,212,828518,0.0-16.0-5.0-0.0,57025,List2A,black,woman,,,,null,,,,,,,,,
2179.3,"<img src=""portrait/BM1.jpg""style=""height:400px;""></img>",4,html-button-response,213,830699,0.0-16.0-7.0,57025,List2A,black,woman,,TRUE,4,,,,,,,,,,
null,CORRECT,,html-keyboard-response,214,832210,0.0-16.0-8.0-0.0,57025,List2A,black,woman,,,,null,,,,,,,,,
1905.3,"<img src=""portrait/BW2.jpg""style=""height:400px;""></img>",2,html-button-response,215,834117,0.0-16.0-10.0,57025,List2A,black,woman,,TRUE,2,,,,,,,,,,
null,CORRECT,,html-keyboard-response,216,835629,0.0-16.0-11.0-0.0,57025,List2A,black,woman,,,,null,,,,,,,,,
1634.1,"<img src=""portrait/WW2.jpg""style=""height:400px;""></img>",3,html-button-response,217,837265,0.0-16.0-13.0,57025,List2A,black,woman,,TRUE,3,,,,,,,,,,
null,CORRECT,,html-keyboard-response,218,838778,0.0-16.0-14.0-0.0,57025,List2A,black,woman,,,,null,,,,,,,,,
1813.5,"<img src=""portrait/WM1.jpg""style=""height:400px;""></img>",6,html-button-response,219,840594,0.0-16.0-16.0,57025,List2A,black,woman,,TRUE,6,,,,,,,,,,
null,CORRECT,,html-keyboard-response,220,842111,0.0-16.0-17.0-0.0,57025,List2A,black,woman,,,,null,,,,,,,,,
1269.9,"<img src=""portrait/WM2.jpg""style=""height:400px;""></img>",7,html-button-response,221,843384,0.0-16.0-19.0,57025,List2A,black,woman,,TRUE,7,,,,,,,,,,
null,CORRECT,,html-keyboard-response,222,844895,0.0-16.0-20.0-0.0,57025,List2A,black,woman,,,,null,,,,,,,,,
1580.5,"<img src=""portrait/WW1.jpg""style=""height:400px;""></img>",1,html-button-response,223,846477,0.0-16.0-22.0,57025,List2A,black,woman,,TRUE,1,,,,,,,,,,
null,CORRECT,,html-keyboard-response,224,847988,0.0-16.0-23.0-0.0,57025,List2A,black,woman,,,,null,,,,,,,,,
1821.2,<p>You got 8 out of 8 right first time. Press Continue.</p>,0,html-button-response,225,849812,0.0-16.0-25.0,57025,List2A,black,woman,,,,,,,,,,,,,
null,"<div style=""font-size:60px;"">+</div>",,html-keyboard-response,226,851330,0.0-17.0-0.0,57025,List2A,black,woman,,,,null,,,,,,,,,
null,"<img src=""stim_listA/copy4.gif""style=""height:400px;""></stim_listA>",,html-keyboard-response,227,853341,0.0-17.0-1.0,57025,List2A,black,woman,,,,null,,,,,,,,,
null,is being copied by,,html-keyboard-response,228,855352,0.0-17.0-2.0,57025,List2A,black,woman,,,,null,,,,,,,,,
6827.8,,,survey-text,229,862184,0.0-17.0-3.0,57025,List2A,black,woman,,,,,"{""Q0"":""kate is being copied by fred""}","<img src=""stim_listA/copy4.gif""style=""height:400px;""></stim_listA>",is being copied by,,,,,,
null,"<div style=""font-size:60px;"">+</div>",,html-keyboard-response,230,862692,0.0-17.0-0.1,57025,List2A,black,woman,,,,null,,,,,,,,,
null,"<img src=""stim_listA/kiss2.gif""style=""height:400px;""></stim_listA>",,html-keyboard-response,231,864701,0.0-17.0-1.1,57025,List2A,black,woman,,,,null,,,,,,,,,
null,is being kissed by,,html-keyboard-response,232,866703,0.0-17.0-2.1,57025,List2A,black,woman,,,,null,,,,,,,,,
9342,,,survey-text,233,876050,0.0-17.0-3.1,57025,List2A,black,woman,,,,,"{""Q0"":""dave is being kissed by jane""}","<img src=""stim_listA/kiss2.gif""style=""height:400px;""></stim_listA>",is being kissed by,,,,,,
null,"<div style=""font-size:60px;"">+</div>",,html-keyboard-response,234,876553,0.0-17.0-0.2,57025,List2A,black,woman,,,,null,,,,,,,,,
null,"<img src=""stim_listA/touch5.gif""style=""height:400px;""></stim_listA>",,html-keyboard-response,235,878555,0.0-17.0-1.2,57025,List2A,black,woman,,,,null,,,,,,,,,
null,is touching,,html-keyboard-response,236,880563,0.0-17.0-2.2,57025,List2A,black,woman,,,,null,,,,,,,,,
4757.7,,,survey-text,237,885324,0.0-17.0-3.2,57025,List2A,black,woman,,,,,"{""Q0"":""dave is touching mike""}","<img src=""stim_listA/touch5.gif""style=""height:400px;""></stim_listA>",is touching,,,,,,
null,"<div style=""font-size:60px;"">+</div>",,html-keyboard-response,238,885836,0.0-17.0-0.3,57025,List2A,black,woman,,,,null,,,,,,,,,
null,"<img src=""stim_listA/seduce1.gif""style=""height:400px;""></stim_listA>",,html-keyboard-response,239,887839,0.0-17.0-1.3,57025,List2A,black,woman,,,,null,,,,,,,,,
null,is seducing,,html-keyboard-response,240,889849,0.0-17.0-2.3,57025,List2A,black,woman,,,,null,,,,,,,,,
4379.8,,,survey-text,241,894232,0.0-17.0-3.3,57025,List2A,black,woman,,,,,"{""Q0"":""luke is seducing jane""}","<img src=""stim_listA/seduce1.gif""style=""height:400px;""></stim_listA>",is seducing,,,,,,
null,"<div style=""font-size:60px;"">+</div>",,html-keyboard-response,242,894741,0.0-17.0-0.4,57025,List2A,black,woman,,,,null,,,,,,,,,
null,"<img src=""stim_listA/greet4.gif""style=""height:400px;""></stim_listA>",,html-keyboard-response,243,896755,0.0-17.0-1.4,57025,List2A,black,woman,,,,null,,,,,,,,,
null,is being greeted by,,html-keyboard-response,244,898760,0.0-17.0-2.4,57025,List2A,black,woman,,,,null,,,,,,,,,
10664.6,,,survey-text,245,909429,0.0-17.0-3.4,57025,List2A,black,woman,,,,,"{""Q0"":""kate is being greeted by fred""}","<img src=""stim_listA/greet4.gif""style=""height:400px;""></stim_listA>",is being greeted by,,,,,,
null,"<div style=""font-size:60px;"">+</div>",,html-keyboard-response,246,909934,0.0-17.0-0.5,57025,List2A,black,woman,,,,null,,,,,,,,,
null,"<img src=""stim_listA/copy3.gif""style=""height:400px;""></stim_listA>",,html-keyboard-response,247,911938,0.0-17.0-1.5,57025,List2A,black,woman,,,,null,,,,,,,,,
null,is copying,,html-keyboard-response,248,913943,0.0-17.0-2.5,57025,List2A,black,woman,,,,null,,,,,,,,,
5063.7,,,survey-text,249,919009,0.0-17.0-3.5,57025,List2A,black,woman,,,,,"{""Q0"":""beth is copying mike""}","<img src=""stim_listA/copy3.gif""style=""height:400px;""></stim_listA>",is copying,,,,,,
null,"<div style=""font-size:60px;"">+</div>",,html-keyboard-response,250,919517,0.0-17.0-0.6,57025,List2A,black,woman,,,,null,,,,,,,,,
null,"<img src=""stim_listA/kiss8.gif""style=""height:400px;""></stim_listA>",,html-keyboard-response,251,921525,0.0-17.0-1.6,57025,List2A,black,woman,,,,null,,,,,,,,,
null,is being kissed by,,html-keyboard-response,252,923530,0.0-17.0-2.6,57025,List2A,black,woman,,,,null,,,,,,,,,
6452.6,,,survey-text,253,929986,0.0-17.0-3.6,57025,List2A,black,woman,,,,,"{""Q0"":""jane is being kissed by kate""}","<img src=""stim_listA/kiss8.gif""style=""height:400px;""></stim_listA>",is being kissed by,,,,,,
null,"<div style=""font-size:60px;"">+</div>",,html-keyboard-response,254,930489,0.0-17.0-0.7,57025,List2A,black,woman,,,,null,,,,,,,,,
null,"<img src=""stim_listA/copy5.gif""style=""height:400px;""></stim_listA>",,html-keyboard-response,255,932499,0.0-17.0-1.7,57025,List2A,black,woman,,,,null,,,,,,,,,
null,is copying,,html-keyboard-response,256,934508,0.0-17.0-2.7,57025,List2A,black,woman,,,,null,,,,,,,,,
6384.3,,,survey-text,257,940896,0.0-17.0-3.7,57025,List2A,black,woman,,,,,"{""Q0"":""dave is copying fred""}","<img src=""stim_listA/copy5.gif""style=""height:400px;""></stim_listA>",is copying,,,,,,
null,"<div style=""font-size:60px;"">+</div>",,html-keyboard-response,258,941400,0.0-17.0-0.8,57025,List2A,black,woman,,,,null,,,,,,,,,
null,"<img src=""stim_listA/greet7.gif""style=""height:400px;""></stim_listA>",,html-keyboard-response,259,943407,0.0-17.0-1.8,57025,List2A,black,woman,,,,null,,,,,,,,,
null,is greeting,,html-keyboard-response,260,945421,0.0-17.0-2.8,57025,List2A,black,woman,,,,null,,,,,,,,,
6258.7,,,survey-text,261,951678,0.0-17.0-3.8,57025,List2A,black,woman,,,,,"{""Q0"":""jane is greeting beth""}","<img src=""stim_listA/greet7.gif""style=""height:400px;""></stim_listA>",is greeting,,,,,,
null,"<div style=""font-size:60px;"">+</div>",,html-keyboard-response,262,952185,0.0-17.0-0.9,57025,List2A,black,woman,,,,null,,,,,,,,,
null,"<img src=""stim_listA/kiss6.gif""style=""height:400px;""></stim_listA>",,html-keyboard-response,263,954193,0.0-17.0-1.9,57025,List2A,black,woman,,,,null,,,,,,,,,
null,is being kissed by,,html-keyboard-response,264,956206,0.0-17.0-2.9,57025,List2A,black,woman,,,,null,,,,,,,,,
6792.3,,,survey-text,265,963002,0.0-17.0-3.9,57025,List2A,black,woman,,,,,"{""Q0"":""dave is being kissed by mike""}","<img src=""stim_listA/kiss6.gif""style=""height:400px;""></stim_listA>",is being kissed by,,,,,,
null,"<div style=""font-size:60px;"">+</div>",,html-keyboard-response,266,963509,0.0-17.0-0.10,57025,List2A,black,woman,,,,null,,,,,,,,,
null,"<img src=""stim_listA/greet2.gif""style=""height:400px;""></stim_listA>",,html-keyboard-response,267,965513,0.0-17.0-1.10,57025,List2A,black,woman,,,,null,,,,,,,,,
null,is being greeted by,,html-keyboard-response,268,967515,0.0-17.0-2.10,57025,List2A,black,woman,,,,null,,,,,,,,,
10106,,,survey-text,269,977625,0.0-17.0-3.10,57025,List2A,black,woman,,,,,"{""Q0"":""jane is being greeted by luke""}","<img src=""stim_listA/greet2.gif""style=""height:400px;""></stim_listA>",is being greeted by,,,,,,
null,"<div style=""font-size:60px;"">+</div>",,html-keyboard-response,270,978127,0.0-17.0-0.11,57025,List2A,black,woman,,,,null,,,,,,,,,
null,"<img src=""stim_listA/oppose2.gif""style=""height:400px;""></stim_listA>",,html-keyboard-response,271,980131,0.0-17.0-1.11,57025,List2A,black,woman,,,,null,,,,,,,,,
null,is being opposed by,,html-keyboard-response,272,982133,0.0-17.0-2.11,57025,List2A,black,woman,,,,null,,,,,,,,,
6473.9,,,survey-text,273,988612,0.0-17.0-3.11,57025,List2A,black,woman,,,,,"{""Q0"":""ruth is being opposed by luke""}","<img src=""stim_listA/oppose2.gif""style=""height:400px;""></stim_listA>",is being opposed by,,,,,,
null,"<div style=""font-size:60px;"">+</div>",,html-keyboard-response,274,989114,0.0-17.0-0.12,57025,List2A,black,woman,,,,null,,,,,,,,,
null,"<img src=""stim_listA/oppose5.gif""style=""height:400px;""></stim_listA>",,html-keyboard-response,275,991119,0.0-17.0-1.12,57025,List2A,black,woman,,,,null,,,,,,,,,
null,is opposing,,html-keyboard-response,276,993124,0.0-17.0-2.12,57025,List2A,black,woman,,,,null,,,,,,,,,
5443.2,,,survey-text,277,998572,0.0-17.0-3.12,57025,List2A,black,woman,,,,,"{""Q0"":""dave is opposing mike""}","<img src=""stim_listA/oppose5.gif""style=""height:400px;""></stim_listA>",is opposing,,,,,,
null,"<div style=""font-size:60px;"">+</div>",,html-keyboard-response,278,999077,0.0-17.0-0.13,57025,List2A,black,woman,,,,null,,,,,,,,,
null,"<img src=""stim_listA/look4.gif""style=""height:400px;""></stim_listA>",,html-keyboard-response,279,1001081,0.0-17.0-1.13,57025,List2A,black,woman,,,,null,,,,,,,,,
null,is being looked at by,,html-keyboard-response,280,1003086,0.0-17.0-2.13,57025,List2A,black,woman,,,,null,,,,,,,,,
11660.2,,,survey-text,281,1014751,0.0-17.0-3.13,57025,List2A,black,woman,,,,,"{""Q0"":""kate is being looked at by mike""}","<img src=""stim_listA/look4.gif""style=""height:400px;""></stim_listA>",is being looked at by,,,,,,
null,"<div style=""font-size:60px;"">+</div>",,html-keyboard-response,282,1015253,0.0-17.0-0.14,57025,List2A,black,woman,,,,null,,,,,,,,,
null,"<img src=""stim_listA/challenge6.gif""style=""height:400px;""></stim_listA>",,html-keyboard-response,283,1017261,0.0-17.0-1.14,57025,List2A,black,woman,,,,null,,,,,,,,,
null,is being challenged by,,html-keyboard-response,284,1019267,0.0-17.0-2.14,57025,List2A,black,woman,,,,null,,,,,,,,,
15162.8,,,survey-text,285,1034435,0.0-17.0-3.14,57025,List2A,black,woman,,,,,"{""Q0"":""dave is being challenged by mike""}","<img src=""stim_listA/challenge6.gif""style=""height:400px;""></stim_listA>",is being challenged by,,,,,,
null,"<div style=""font-size:60px;"">+</div>",,html-keyboard-response,286,1034939,0.0-17.0-0.15,57025,List2A,black,woman,,,,null,,,,,,,,,
null,"<img src=""stim_listA/copy6.gif""style=""height:400px;""></stim_listA>",,html-keyboard-response,287,1036946,0.0-17.0-1.15,57025,List2A,black,woman,,,,null,,,,,,,,,
null,is being copied by,,html-keyboard-response,288,1038955,0.0-17.0-2.15,57025,List2A,black,woman,,,,null,,,,,,,,,
8817.3,,,survey-text,289,1047777,0.0-17.0-3.15,57025,List2A,black,woman,,,,,"{""Q0"":""luke is being copied by mike""}","<img src=""stim_listA/copy6.gif""style=""height:400px;""></stim_listA>",is being copied by,,,,,,
null,"<div style=""font-size:60px;"">+</div>",,html-keyboard-response,290,1048281,0.0-17.0-0.16,57025,List2A,black,woman,,,,null,,,,,,,,,
null,"<img src=""stim_listA/seduce5.gif""style=""height:400px;""></stim_listA>",,html-keyboard-response,291,1050286,0.0-17.0-1.16,57025,List2A,black,woman,,,,null,,,,,,,,,
null,is seducing,,html-keyboard-response,292,1052294,0.0-17.0-2.16,57025,List2A,black,woman,,,,null,,,,,,,,,
7397.1,,,survey-text,293,1059696,0.0-17.0-3.16,57025,List2A,black,woman,,,,,"{""Q0"":""mike is seducing luke""}","<img src=""stim_listA/seduce5.gif""style=""height:400px;""></stim_listA>",is seducing,,,,,,
null,"<div style=""font-size:60px;"">+</div>",,html-keyboard-response,294,1060197,0.0-17.0-0.17,57025,List2A,black,woman,,,,null,,,,,,,,,
null,"<img src=""stim_listA/kiss7.gif""style=""height:400px;""></stim_listA>",,html-keyboard-response,295,1062203,0.0-17.0-1.17,57025,List2A,black,woman,,,,null,,,,,,,,,
null,is kissing,,html-keyboard-response,296,1064213,0.0-17.0-2.17,57025,List2A,black,woman,,,,null,,,,,,,,,
4543.5,,,survey-text,297,1068757,0.0-17.0-3.17,57025,List2A,black,woman,,,,,"{""Q0"":""beth is kissing ruth""}","<img src=""stim_listA/kiss7.gif""style=""height:400px;""></stim_listA>",is kissing,,,,,,
null,"<div style=""font-size:60px;"">+</div>",,html-keyboard-response,298,1069267,0.0-17.0-0.18,57025,List2A,black,woman,,,,null,,,,,,,,,
null,"<img src=""stim_listA/challenge3.gif""style=""height:400px;""></stim_listA>",,html-keyboard-response,299,1071272,0.0-17.0-1.18,57025,List2A,black,woman,,,,null,,,,,,,,,
null,is challenging,,html-keyboard-response,300,1073274,0.0-17.0-2.18,57025,List2A,black,woman,,,,null,,,,,,,,,
6334.3,,,survey-text,301,1079610,0.0-17.0-3.18,57025,List2A,black,woman,,,,,"{""Q0"":""mike is challenging beth""}","<img src=""stim_listA/challenge3.gif""style=""height:400px;""></stim_listA>",is challenging,,,,,,
null,"<div style=""font-size:60px;"">+</div>",,html-keyboard-response,302,1080115,0.0-17.0-0.19,57025,List2A,black,woman,,,,null,,,,,,,,,
null,"<img src=""stim_listA/greet3.gif""style=""height:400px;""></stim_listA>",,html-keyboard-response,303,1082121,0.0-17.0-1.19,57025,List2A,black,woman,,,,null,,,,,,,,,
null,is greeting,,html-keyboard-response,304,1084129,0.0-17.0-2.19,57025,List2A,black,woman,,,,null,,,,,,,,,
4548.2,,,survey-text,305,1088681,0.0-17.0-3.19,57025,List2A,black,woman,,,,,"{""Q0"":""beth is greeting mike""}","<img src=""stim_listA/greet3.gif""style=""height:400px;""></stim_listA>",is greeting,,,,,,
2780.3,"<img src='img/portrait_matrix_list2.jpg' style='width:900px;height:500px;''></img><p>If you have memorised all the portraits and names and are ready to start, press Continue.</p><p><strong>Please note: Your memory of these faces will be tested 4 times during this experiment.</strong></p>",0,html-button-response,306,1091463,0.0-18.0-0.0,57025,List2A,black,woman,,,,,,,,,,,,,
1590.7,"<img src=""portrait/WW1.jpg""style=""height:400px;""></img>",1,html-button-response,307,1094063,0.0-18.0-1.0,57025,List2A,black,woman,,TRUE,1,,,,,,,,,,
null,CORRECT,,html-keyboard-response,308,1095581,0.0-18.0-2.0-0.0,57025,List2A,black,woman,,,,null,,,,,,,,,
1612.7,"<img src=""portrait/WW2.jpg""style=""height:400px;""></img>",3,html-button-response,309,1097196,0.0-18.0-4.0,57025,List2A,black,woman,,TRUE,3,,,,,,,,,,
null,CORRECT,,html-keyboard-response,310,1098705,0.0-18.0-5.0-0.0,57025,List2A,black,woman,,,,null,,,,,,,,,
1979.3,"<img src=""portrait/WM2.jpg""style=""height:400px;""></img>",7,html-button-response,311,1100688,0.0-18.0-7.0,57025,List2A,black,woman,,TRUE,7,,,,,,,,,,
null,CORRECT,,html-keyboard-response,312,1102202,0.0-18.0-8.0-0.0,57025,List2A,black,woman,,,,null,,,,,,,,,
2155.3,"<img src=""portrait/WM1.jpg""style=""height:400px;""></img>",6,html-button-response,313,1104359,0.0-18.0-10.0,57025,List2A,black,woman,,TRUE,6,,,,,,,,,,
null,CORRECT,,html-keyboard-response,314,1105863,0.0-18.0-11.0-0.0,57025,List2A,black,woman,,,,null,,,,,,,,,
1441.2,"<img src=""portrait/BM1.jpg""style=""height:400px;""></img>",4,html-button-response,315,1107306,0.0-18.0-13.0,57025,List2A,black,woman,,TRUE,4,,,,,,,,,,
null,CORRECT,,html-keyboard-response,316,1108817,0.0-18.0-14.0-0.0,57025,List2A,black,woman,,,,null,,,,,,,,,
1753.4,"<img src=""portrait/BM2.jpg""style=""height:400px;""></img>",5,html-button-response,317,1110571,0.0-18.0-16.0,57025,List2A,black,woman,,TRUE,5,,,,,,,,,,
null,CORRECT,,html-keyboard-response,318,1112083,0.0-18.0-17.0-0.0,57025,List2A,black,woman,,,,null,,,,,,,,,
2380.3,"<img src=""portrait/BW1.jpg""style=""height:400px;""></img>",0,html-button-response,319,1114464,0.0-18.0-19.0,57025,List2A,black,woman,,TRUE,0,,,,,,,,,,
null,CORRECT,,html-keyboard-response,320,1115975,0.0-18.0-20.0-0.0,57025,List2A,black,woman,,,,null,,,,,,,,,
1420.7,"<img src=""portrait/BW2.jpg""style=""height:400px;""></img>",2,html-button-response,321,1117398,0.0-18.0-22.0,57025,List2A,black,woman,,TRUE,2,,,,,,,,,,
null,CORRECT,,html-keyboard-response,322,1118906,0.0-18.0-23.0-0.0,57025,List2A,black,woman,,,,null,,,,,,,,,
991.6,<p>You got 8 out of 8 right first time. Press Continue.</p>,0,html-button-response,323,1119899,0.0-18.0-25.0,57025,List2A,black,woman,,,,,,,,,,,,,
null,"<div style=""font-size:60px;"">+</div>",,html-keyboard-response,324,1121414,0.0-19.0-0.0,57025,List2A,black,woman,,,,null,,,,,,,,,
null,"<img src=""stim_listA/hug7.gif""style=""height:400px;""></stim_listA>",,html-keyboard-response,325,1123422,0.0-19.0-1.0,57025,List2A,black,woman,,,,null,,,,,,,,,
null,is hugging,,html-keyboard-response,326,1125425,0.0-19.0-2.0,57025,List2A,black,woman,,,,null,,,,,,,,,
4668.5,,,survey-text,327,1130098,0.0-19.0-3.0,57025,List2A,black,woman,,,,,"{""Q0"":""ruth is hugging beth""}","<img src=""stim_listA/hug7.gif""style=""height:400px;""></stim_listA>",is hugging,,,,,,
null,"<div style=""font-size:60px;"">+</div>",,html-keyboard-response,328,1130598,0.0-19.0-0.1,57025,List2A,black,woman,,,,null,,,,,,,,,
null,"<img src=""stim_listA/greet1.gif""style=""height:400px;""></stim_listA>",,html-keyboard-response,329,1132607,0.0-19.0-1.1,57025,List2A,black,woman,,,,null,,,,,,,,,
null,is greeting,,html-keyboard-response,330,1134616,0.0-19.0-2.1,57025,List2A,black,woman,,,,null,,,,,,,,,
5918.5,,,survey-text,331,1140537,0.0-19.0-3.1,57025,List2A,black,woman,,,,,"{""Q0"":""dave is greeting ruth""}","<img src=""stim_listA/greet1.gif""style=""height:400px;""></stim_listA>",is greeting,,,,,,
null,"<div style=""font-size:60px;"">+</div>",,html-keyboard-response,332,1141042,0.0-19.0-0.2,57025,List2A,black,woman,,,,null,,,,,,,,,
null,"<img src=""stim_listA/shout1.gif""style=""height:400px;""></stim_listA>",,html-keyboard-response,333,1143045,0.0-19.0-1.2,57025,List2A,black,woman,,,,null,,,,,,,,,
null,is shouting at,,html-keyboard-response,334,1145057,0.0-19.0-2.2,57025,List2A,black,woman,,,,null,,,,,,,,,
5459.8,,,survey-text,335,1150521,0.0-19.0-3.2,57025,List2A,black,woman,,,,,"{""Q0"":""luke is shouting at ruth""}","<img src=""stim_listA/shout1.gif""style=""height:400px;""></stim_listA>",is shouting at,,,,,,
null,"<div style=""font-size:60px;"">+</div>",,html-keyboard-response,336,1151025,0.0-19.0-0.3,57025,List2A,black,woman,,,,null,,,,,,,,,
null,"<img src=""stim_listA/shout2.gif""style=""height:400px;""></stim_listA>",,html-keyboard-response,337,1153029,0.0-19.0-1.3,57025,List2A,black,woman,,,,null,,,,,,,,,
null,is being shouted at by,,html-keyboard-response,338,1155038,0.0-19.0-2.3,57025,List2A,black,woman,,,,null,,,,,,,,,
8603.9,,,survey-text,339,1163646,0.0-19.0-3.3,57025,List2A,black,woman,,,,,"{""Q0"":""dave is being shouted at by jane""}","<img src=""stim_listA/shout2.gif""style=""height:400px;""></stim_listA>",is being shouted at by,,,,,,
null,"<div style=""font-size:60px;"">+</div>",,html-keyboard-response,340,1164149,0.0-19.0-0.4,57025,List2A,black,woman,,,,null,,,,,,,,,
null,"<img src=""stim_listA/copy8.gif""style=""height:400px;""></stim_listA>",,html-keyboard-response,341,1166158,0.0-19.0-1.4,57025,List2A,black,woman,,,,null,,,,,,,,,
null,is being copied by,,html-keyboard-response,342,1168169,0.0-19.0-2.4,57025,List2A,black,woman,,,,null,,,,,,,,,
8682.3,,,survey-text,343,1176855,0.0-19.0-3.4,57025,List2A,black,woman,,,,,"{""Q0"":""kate is being copied by ruth""}","<img src=""stim_listA/copy8.gif""style=""height:400px;""></stim_listA>",is being copied by,,,,,,
null,"<div style=""font-size:60px;"">+</div>",,html-keyboard-response,344,1177365,0.0-19.0-0.5,57025,List2A,black,woman,,,,null,,,,,,,,,
null,"<img src=""stim_listA/touch4.gif""style=""height:400px;""></stim_listA>",,html-keyboard-response,345,1179370,0.0-19.0-1.5,57025,List2A,black,woman,,,,null,,,,,,,,,
null,is being touched by,,html-keyboard-response,346,1181374,0.0-19.0-2.5,57025,List2A,black,woman,,,,null,,,,,,,,,
8034.4,,,survey-text,347,1189414,0.0-19.0-3.5,57025,List2A,black,woman,,,,,"{""Q0"":""fred is being touched by beth""}","<img src=""stim_listA/touch4.gif""style=""height:400px;""></stim_listA>",is being touched by,,,,,,
null,"<div style=""font-size:60px;"">+</div>",,html-keyboard-response,348,1189928,0.0-19.0-0.6,57025,List2A,black,woman,,,,null,,,,,,,,,
null,"<img src=""stim_listA/copy2.gif""style=""height:400px;""></stim_listA>",,html-keyboard-response,349,1191936,0.0-19.0-1.6,57025,List2A,black,woman,,,,null,,,,,,,,,
null,is being copied by,,html-keyboard-response,350,1193941,0.0-19.0-2.6,57025,List2A,black,woman,,,,null,,,,,,,,,
8029.6,,,survey-text,351,1201974,0.0-19.0-3.6,57025,List2A,black,woman,,,,,"{""Q0"":""jane is being copied by luke""}","<img src=""stim_listA/copy2.gif""style=""height:400px;""></stim_listA>",is being copied by,,,,,,
null,"<div style=""font-size:60px;"">+</div>",,html-keyboard-response,352,1202475,0.0-19.0-0.7,57025,List2A,black,woman,,,,null,,,,,,,,,
null,"<img src=""stim_listA/hug3.gif""style=""height:400px;""></stim_listA>",,html-keyboard-response,353,1204478,0.0-19.0-1.7,57025,List2A,black,woman,,,,null,,,,,,,,,
null,is hugging,,html-keyboard-response,354,1206480,0.0-19.0-2.7,57025,List2A,black,woman,,,,null,,,,,,,,,
5379.3,,,survey-text,355,1211864,0.0-19.0-3.7,57025,List2A,black,woman,,,,,"{""Q0"":""fred is hugging beth""}","<img src=""stim_listA/hug3.gif""style=""height:400px;""></stim_listA>",is hugging,,,,,,
null,"<div style=""font-size:60px;"">+</div>",,html-keyboard-response,356,1212366,0.0-19.0-0.8,57025,List2A,black,woman,,,,null,,,,,,,,,
null,"<img src=""stim_listA/look8.gif""style=""height:400px;""></stim_listA>",,html-keyboard-response,357,1214376,0.0-19.0-1.8,57025,List2A,black,woman,,,,null,,,,,,,,,
null,is being looked at by,,html-keyboard-response,358,1216383,0.0-19.0-2.8,57025,List2A,black,woman,,,,null,,,,,,,,,
6406.4,,,survey-text,359,1222792,0.0-19.0-3.8,57025,List2A,black,woman,,,,,"{""Q0"":""kate is being looked at by jane""}","<img src=""stim_listA/look8.gif""style=""height:400px;""></stim_listA>",is being looked at by,,,,,,
null,"<div style=""font-size:60px;"">+</div>",,html-keyboard-response,360,1223305,0.0-19.0-0.9,57025,List2A,black,woman,,,,null,,,,,,,,,
null,"<img src=""stim_listA/look6.gif""style=""height:400px;""></stim_listA>",,html-keyboard-response,361,1225312,0.0-19.0-1.9,57025,List2A,black,woman,,,,null,,,,,,,,,
null,is being looked at by,,html-keyboard-response,362,1227321,0.0-19.0-2.9,57025,List2A,black,woman,,,,null,,,,,,,,,
7559.7,,,survey-text,363,1234885,0.0-19.0-3.9,57025,List2A,black,woman,,,,,"{""Q0"":""mike is being looked at by dave""}","<img src=""stim_listA/look6.gif""style=""height:400px;""></stim_listA>",is being looked at by,,,,,,
null,"<div style=""font-size:60px;"">+</div>",,html-keyboard-response,364,1235387,0.0-19.0-0.10,57025,List2A,black,woman,,,,null,,,,,,,,,
null,"<img src=""stim_listA/seduce3.gif""style=""height:400px;""></stim_listA>",,html-keyboard-response,365,1237395,0.0-19.0-1.10,57025,List2A,black,woman,,,,null,,,,,,,,,
null,is seducing,,html-keyboard-response,366,1239397,0.0-19.0-2.10,57025,List2A,black,woman,,,,null,,,,,,,,,
6489.4,,,survey-text,367,1245889,0.0-19.0-3.10,57025,List2A,black,woman,,,,,"{""Q0"":""fred is seducing beth""}","<img src=""stim_listA/seduce3.gif""style=""height:400px;""></stim_listA>",is seducing,,,,,,
null,"<div style=""font-size:60px;"">+</div>",,html-keyboard-response,368,1246398,0.0-19.0-0.11,57025,List2A,black,woman,,,,null,,,,,,,,,
null,"<img src=""stim_listA/touch3.gif""style=""height:400px;""></stim_listA>",,html-keyboard-response,369,1248405,0.0-19.0-1.11,57025,List2A,black,woman,,,,null,,,,,,,,,
null,is touching,,html-keyboard-response,370,1250420,0.0-19.0-2.11,57025,List2A,black,woman,,,,null,,,,,,,,,
3885.8,,,survey-text,371,1254311,0.0-19.0-3.11,57025,List2A,black,woman,,,,,"{""Q0"":""mike is touching kate""}","<img src=""stim_listA/touch3.gif""style=""height:400px;""></stim_listA>",is touching,,,,,,
null,"<div style=""font-size:60px;"">+</div>",,html-keyboard-response,372,1254818,0.0-19.0-0.12,57025,List2A,black,woman,,,,null,,,,,,,,,
null,"<img src=""stim_listA/touch1.gif""style=""height:400px;""></stim_listA>",,html-keyboard-response,373,1256823,0.0-19.0-1.12,57025,List2A,black,woman,,,,null,,,,,,,,,
null,is touching,,html-keyboard-response,374,1258825,0.0-19.0-2.12,57025,List2A,black,woman,,,,null,,,,,,,,,
5921,,,survey-text,375,1264748,0.0-19.0-3.12,57025,List2A,black,woman,,,,,"{""Q0"":""dave is touching jane""}","<img src=""stim_listA/touch1.gif""style=""height:400px;""></stim_listA>",is touching,,,,,,
null,"<div style=""font-size:60px;"">+</div>",,html-keyboard-response,376,1265255,0.0-19.0-0.13,57025,List2A,black,woman,,,,null,,,,,,,,,
null,"<img src=""stim_listA/greet6.gif""style=""height:400px;""></stim_listA>",,html-keyboard-response,377,1267265,0.0-19.0-1.13,57025,List2A,black,woman,,,,null,,,,,,,,,
null,is being greeted by,,html-keyboard-response,378,1269277,0.0-19.0-2.13,57025,List2A,black,woman,,,,null,,,,,,,,,
8338.4,,,survey-text,379,1277618,0.0-19.0-3.13,57025,List2A,black,woman,,,,,"{""Q0"":""luke is being greated by mike""}","<img src=""stim_listA/greet6.gif""style=""height:400px;""></stim_listA>",is being greeted by,,,,,,
null,"<div style=""font-size:60px;"">+</div>",,html-keyboard-response,380,1278126,0.0-19.0-0.14,57025,List2A,black,woman,,,,null,,,,,,,,,
null,"<img src=""stim_listA/kiss5.gif""style=""height:400px;""></stim_listA>",,html-keyboard-response,381,1280132,0.0-19.0-1.14,57025,List2A,black,woman,,,,null,,,,,,,,,
null,is kissing,,html-keyboard-response,382,1282141,0.0-19.0-2.14,57025,List2A,black,woman,,,,null,,,,,,,,,
4759.3,,,survey-text,383,1286902,0.0-19.0-3.14,57025,List2A,black,woman,,,,,"{""Q0"":""fred is kissing luke""}","<img src=""stim_listA/kiss5.gif""style=""height:400px;""></stim_listA>",is kissing,,,,,,
null,"<div style=""font-size:60px;"">+</div>",,html-keyboard-response,384,1287410,0.0-19.0-0.15,57025,List2A,black,woman,,,,null,,,,,,,,,
null,"<img src=""stim_listA/oppose7.gif""style=""height:400px;""></stim_listA>",,html-keyboard-response,385,1289419,0.0-19.0-1.15,57025,List2A,black,woman,,,,null,,,,,,,,,
null,is opposing,,html-keyboard-response,386,1291422,0.0-19.0-2.15,57025,List2A,black,woman,,,,null,,,,,,,,,
9753.6,,,survey-text,387,1301178,0.0-19.0-3.15,57025,List2A,black,woman,,,,,"{""Q0"":""jane is opposing kate""}","<img src=""stim_listA/oppose7.gif""style=""height:400px;""></stim_listA>",is opposing,,,,,,
null,"<div style=""font-size:60px;"">+</div>",,html-keyboard-response,388,1301686,0.0-19.0-0.16,57025,List2A,black,woman,,,,null,,,,,,,,,
null,"<img src=""stim_listA/shout8.gif""style=""height:400px;""></stim_listA>",,html-keyboard-response,389,1303695,0.0-19.0-1.16,57025,List2A,black,woman,,,,null,,,,,,,,,
null,is being shouted at by,,html-keyboard-response,390,1305700,0.0-19.0-2.16,57025,List2A,black,woman,,,,null,,,,,,,,,
13014.5,,,survey-text,391,1318724,0.0-19.0-3.16,57025,List2A,black,woman,,,,,"{""Q0"":""jane is being shouted at by kate""}","<img src=""stim_listA/shout8.gif""style=""height:400px;""></stim_listA>",is being shouted at by,,,,,,
null,"<div style=""font-size:60px;"">+</div>",,html-keyboard-response,392,1319226,0.0-19.0-0.17,57025,List2A,black,woman,,,,null,,,,,,,,,
null,"<img src=""stim_listA/copy1.gif""style=""height:400px;""></stim_listA>",,html-keyboard-response,393,1321230,0.0-19.0-1.17,57025,List2A,black,woman,,,,null,,,,,,,,,
null,is copying,,html-keyboard-response,394,1323236,0.0-19.0-2.17,57025,List2A,black,woman,,,,null,,,,,,,,,
6359.2,,,survey-text,395,1329600,0.0-19.0-3.17,57025,List2A,black,woman,,,,,"{""Q0"":""beth is copying dave""}","<img src=""stim_listA/copy1.gif""style=""height:400px;""></stim_listA>",is copying,,,,,,
null,"<div style=""font-size:60px;"">+</div>",,html-keyboard-response,396,1330104,0.0-19.0-0.18,57025,List2A,black,woman,,,,null,,,,,,,,,
null,"<img src=""stim_listA/seduce4.gif""style=""height:400px;""></stim_listA>",,html-keyboard-response,397,1332109,0.0-19.0-1.18,57025,List2A,black,woman,,,,null,,,,,,,,,
null,is being seduced by,,html-keyboard-response,398,1334113,0.0-19.0-2.18,57025,List2A,black,woman,,,,null,,,,,,,,,
9703.8,,,survey-text,399,1343821,0.0-19.0-3.18,57025,List2A,black,woman,,,,,"{""Q0"":""mike is being seduced by beth""}","<img src=""stim_listA/seduce4.gif""style=""height:400px;""></stim_listA>",is being seduced by,,,,,,
null,"<div style=""font-size:60px;"">+</div>",,html-keyboard-response,400,1344329,0.0-19.0-0.19,57025,List2A,black,woman,,,,null,,,,,,,,,
null,"<img src=""stim_listA/shout3.gif""style=""height:400px;""></stim_listA>",,html-keyboard-response,401,1346331,0.0-19.0-1.19,57025,List2A,black,woman,,,,null,,,,,,,,,
null,is shouting at,,html-keyboard-response,402,1348337,0.0-19.0-2.19,57025,List2A,black,woman,,,,null,,,,,,,,,
5571.6,,,survey-text,403,1353913,0.0-19.0-3.19,57025,List2A,black,woman,,,,,"{""Q0"":""beth is shouting at fred""}","<img src=""stim_listA/shout3.gif""style=""height:400px;""></stim_listA>",is shouting at,,,,,,
2428.6,<p>Thank you for completing that task.</p><p>The final part of this session is a questionnaire that will take about 4 minutes.</p><p>Press Continue.</p>,0,html-button-response,404,1356343,0.0-20.0,57025,List2A,black,woman,,,,,,,,,,,,,
24781.5,,,survey-text,405,1382139,0.0-21.0,57025,List2A,black,woman,,,,,"{""Q0"":""24"",""Q1"":""English"",""Q2"":""English"",""Q3"":""United States"",""Q4"":""Nigerian"",""Q5"":""Black"",""Q6"":""Female""}",,,demographics,,,,,
2129.6,<p>Have you lived in the USA for the last 5 years or more?</p>,0,html-button-response,406,1384273,0.0-22.0,57025,List2A,black,woman,,,,,,,,fiveyears,,,,,
1958.3,<p>Move the slider to show the extent to which you agree with the following statements.</p>,0,html-button-response,407,1387235,0.0-23.0,57025,List2A,black,woman,,,,,,,,,,,,,
4562.4,,,html-slider-response,408,1392817,0.0-24.0-0.0-0.0,57025,List2A,black,woman,,,,,,,,survey_gender,79,,,I feel a bond with my friends.,filler
7655.3,,,html-slider-response,409,1400475,0.0-24.0-0.0-0.1,57025,List2A,black,woman,,,,,,,,survey_gender,70,,,People of my gender are very similar to each other.,verysimilar
4766.3,,,html-slider-response,410,1405245,0.0-24.0-0.0-0.2,57025,List2A,black,woman,,,,,,,,survey_gender,8,,,I feel committed to my gender.,committed
6076.1,,,html-slider-response,411,1411325,0.0-24.0-0.0-0.3,57025,List2A,black,woman,,,,,,,,survey_gender,30,,,I am similar to the average person of my gender.,similar
5355,,,html-slider-response,412,1416682,0.0-24.0-0.0-0.4,57025,List2A,black,woman,,,,,,,,survey_gender,57,,,I have a lot in common with my friends.,filler
3655.1,,,html-slider-response,413,1420341,0.0-24.0-0.0-0.5,57025,List2A,black,woman,,,,,,,,survey_gender,100,,,Being around my friends gives me a good feeling.,filler
3984.7,,,html-slider-response,414,1424330,0.0-24.0-0.0-0.6,57025,List2A,black,woman,,,,,,,,survey_gender,78,,,Being my gender gives me a good feeling.,feeling
4935.8,,,html-slider-response,415,1429269,0.0-24.0-0.0-0.7,57025,List2A,black,woman,,,,,,,,survey_gender,74,,,It is not always easy for people to know what I am thinking.,filler
3300.3,,,html-slider-response,416,1432572,0.0-24.0-0.0-0.8,57025,List2A,black,woman,,,,,,,,survey_gender,94,,,I often think about my actions.,filler
3740.7,,,html-slider-response,417,1436316,0.0-24.0-0.0-0.9,57025,List2A,black,woman,,,,,,,,survey_gender,90,,,I consider myself a highly empathetic person.,filler
3466.1,,,html-slider-response,418,1439786,0.0-24.0-0.0-0.10,57025,List2A,black,woman,,,,,,,,survey_gender,75,,,I feel a bond with my gender.,bond
5435.1,,,html-slider-response,419,1445223,0.0-24.0-0.0-0.11,57025,List2A,black,woman,,,,,,,,survey_gender,20,,,Family is not more important to me than friendship.,filler
3076.7,,,html-slider-response,420,1448303,0.0-24.0-0.0-0.12,57025,List2A,black,woman,,,,,,,,survey_gender,63,,,My friends understand me.,filler
2482.3,,,html-slider-response,421,1450789,0.0-24.0-0.0-0.13,57025,List2A,black,woman,,,,,,,,survey_gender,80,,,I feel solidarity with my friends.,filler
2847.4,,,html-slider-response,422,1453638,0.0-24.0-0.0-0.14,57025,List2A,black,woman,,,,,,,,survey_gender,83,,,It is pleasant to be my gender.,pleasant
6728.1,,,html-slider-response,423,1460369,0.0-24.0-0.0-0.15,57025,List2A,black,woman,,,,,,,,survey_gender,27,,,Being my gender is an important part of how I see myself.,important
3370.7,,,html-slider-response,424,1463744,0.0-24.0-0.0-0.16,57025,List2A,black,woman,,,,,,,,survey_gender,85,,,My friends have a lot in common with each other.,filler
3366.3,,,html-slider-response,425,1467113,0.0-24.0-0.0-0.17,57025,List2A,black,woman,,,,,,,,survey_gender,0,,,Routine is not important to me.,filler
3221.4,,,html-slider-response,426,1470338,0.0-24.0-0.0-0.18,57025,List2A,black,woman,,,,,,,,survey_gender,70,,,I would say I am an animal person.,filler
4060.3,,,html-slider-response,427,1474400,0.0-24.0-0.0-0.19,57025,List2A,black,woman,,,,,,,,survey_gender,81,,,I often think about the fact that I am my gender.,often
4476.7,,,html-slider-response,428,1478880,0.0-24.0-0.0-0.20,57025,List2A,black,woman,,,,,,,,survey_gender,77,,,I feel solidarity with my gender.,solidarity
3970.2,,,html-slider-response,429,1482852,0.0-24.0-0.0-0.21,57025,List2A,black,woman,,,,,,,,survey_gender,30,,,I have a lot in common with the average person of my gender.,average
4392.9,,,html-slider-response,430,1487247,0.0-24.0-0.0-0.22,57025,List2A,black,woman,,,,,,,,survey_gender,28,,,The fact that I am my gender is an important part of my identity.,identity
6646.6,,,html-slider-response,431,1493895,0.0-24.0-0.0-0.23,57025,List2A,black,woman,,,,,,,,survey_gender,68,,,People of my gender have a lot in common with each other.,common
5296.1,,,html-slider-response,432,1499195,0.0-24.0-0.0-0.24,57025,List2A,black,woman,,,,,,,,survey_gender,59,,,Most of the friends in my life are very similar to me.,filler
6242.3,,,html-slider-response,433,1505441,0.0-24.0-0.0-0.25,57025,List2A,black,woman,,,,,,,,survey_gender,89,,,I am glad to have the friends that I have.,filler
6597.7,,,html-slider-response,434,1512042,0.0-24.0-0.0-0.26,57025,List2A,black,woman,,,,,,,,survey_gender,89,,,I am glad to be my gender.,glad
5054.7,,,html-slider-response,435,1517100,0.0-24.0-0.0-0.27,57025,List2A,black,woman,,,,,,,,survey_gender,100,,,I think that my gender has a lot to be proud of.,proud
5243,,,html-slider-response,436,1522345,0.0-24.0-1.0-0.0,57025,List2A,black,woman,,,,,,,,survey_race,89,,,My age is not an important part of who I am.,filler
3769,,,html-slider-response,437,1526118,0.0-24.0-1.0-0.1,57025,List2A,black,woman,,,,,,,,survey_race,84,,,I am glad to be the age I am.,filler
4089.6,,,html-slider-response,438,1530211,0.0-24.0-1.0-0.2,57025,List2A,black,woman,,,,,,,,survey_race,64,,,I have a lot in common with people of a similar age to me.,filler
3265.2,,,html-slider-response,439,1533479,0.0-24.0-1.0-0.3,57025,List2A,black,woman,,,,,,,,survey_race,21,,,I enjoy being in large groups.,filler
3073.6,,,html-slider-response,440,1536555,0.0-24.0-1.0-0.4,57025,List2A,black,woman,,,,,,,,survey_race,78,,,I feel solidarity with people the same age as me.,filler
6001.9,,,html-slider-response,441,1542558,0.0-24.0-1.0-0.5,57025,List2A,black,woman,,,,,,,,survey_race,55,,,People of my race are very similar to each other.,verysimilar
6862.9,,,html-slider-response,442,1549428,0.0-24.0-1.0-0.6,57025,List2A,black,woman,,,,,,,,survey_race,38,,,I am similar to the average person of my race.,similar
3507.2,,,html-slider-response,443,1552937,0.0-24.0-1.0-0.7,57025,List2A,black,woman,,,,,,,,survey_race,81,,,I am glad to be my age.,filler
3026.3,,,html-slider-response,444,1555967,0.0-24.0-1.0-0.8,57025,List2A,black,woman,,,,,,,,survey_race,72,,,People my age have a lot in common with each other.,filler
5137.5,,,html-slider-response,445,1561107,0.0-24.0-1.0-0.9,57025,List2A,black,woman,,,,,,,,survey_race,85,,,I feel solidarity with my race.,solidarity
6153.3,,,html-slider-response,446,1567263,0.0-24.0-1.0-0.10,57025,List2A,black,woman,,,,,,,,survey_race,37,,,I have a lot in common with the average person of my race.,average
3753.8,,,html-slider-response,447,1571019,0.0-24.0-1.0-0.11,57025,List2A,black,woman,,,,,,,,survey_race,100,,,I think that my race has a lot to be proud of.,proud
3126.2,,,html-slider-response,448,1574148,0.0-24.0-1.0-0.12,57025,List2A,black,woman,,,,,,,,survey_race,100,,,Being my race is an important part of how I see myself.,important
2561.9,,,html-slider-response,449,1576712,0.0-24.0-1.0-0.13,57025,List2A,black,woman,,,,,,,,survey_race,100,,,It is pleasant to be my race.,pleasant
2330.7,,,html-slider-response,450,1579044,0.0-24.0-1.0-0.14,57025,List2A,black,woman,,,,,,,,survey_race,100,,,I feel a bond with my race.,bond
3792.6,,,html-slider-response,451,1582839,0.0-24.0-1.0-0.15,57025,List2A,black,woman,,,,,,,,survey_race,69,,,I feel a bond with people the same age as me.,filler
3177.5,,,html-slider-response,452,1586020,0.0-24.0-1.0-0.16,57025,List2A,black,woman,,,,,,,,survey_race,83,,,"The older I get, the wiser I feel.",filler
4933.2,,,html-slider-response,453,1590955,0.0-24.0-1.0-0.17,57025,List2A,black,woman,,,,,,,,survey_race,100,,,I feel committed to my race.,committed
3739.4,,,html-slider-response,454,1594696,0.0-24.0-1.0-0.18,57025,List2A,black,woman,,,,,,,,survey_race,68,,,People of my race have a lot in common with each other.,common
2563.9,,,html-slider-response,455,1597262,0.0-24.0-1.0-0.19,57025,List2A,black,woman,,,,,,,,survey_race,100,,,Being my race gives me a good feeling.,feeling
2756,,,html-slider-response,456,1600020,0.0-24.0-1.0-0.20,57025,List2A,black,woman,,,,,,,,survey_race,100,,,I am glad to be my race.,glad
2980.7,,,html-slider-response,457,1603003,0.0-24.0-1.0-0.21,57025,List2A,black,woman,,,,,,,,survey_race,100,,,The fact that I am my race is an important part of my identity.,identity
3853.9,,,html-slider-response,458,1606860,0.0-24.0-1.0-0.22,57025,List2A,black,woman,,,,,,,,survey_race,80,,,I often think about the fact that I am my age.,filler
3811.3,,,html-slider-response,459,1610669,0.0-24.0-1.0-0.23,57025,List2A,black,woman,,,,,,,,survey_race,100,,,I consider myself an introvert.,filler
4631.8,,,html-slider-response,460,1615305,0.0-24.0-1.0-0.24,57025,List2A,black,woman,,,,,,,,survey_race,75,,,Being my age gives me a good feeling.,filler
2367.1,,,html-slider-response,461,1617675,0.0-24.0-1.0-0.25,57025,List2A,black,woman,,,,,,,,survey_race,0,,,I consider myself an extrovert.,filler
3627.2,,,html-slider-response,462,1621304,0.0-24.0-1.0-0.26,57025,List2A,black,woman,,,,,,,,survey_race,30,,,Getting older does not worry me.,filler
3127.1,,,html-slider-response,463,1624435,0.0-24.0-1.0-0.27,57025,List2A,black,woman,,,,,,,,survey_race,100,,,I often think about the fact that I am my race.,often
7323.9,,,survey-text,464,1631764,0.0-25.0,57025,List2A,black,woman,,,,,"{""Q0"":""ccc""}",,,worker_id,,,,,
26974.4,,,external-html,465,1659070,0.0-26.0,57025,List2A,black,woman,debrief.html,,,,,,,,,,,,
