rt,stimulus,button_pressed,trial_type,trial_index,time_elapsed,internal_node_id,subject,list,ppt_race,ppt_gender,url,first_guess,correct,key_press,responses,image_type,phrase_type,test_part,response,stimulus1,stimulus2,question_type,survey_item
2042.8,Welcome to the experiment. Press Continue to begin.,0,html-button-response,0,2050,0.0-0.0,57481,List1A,black,man,,,,,,,,,,,,,
14316.4,,,external-html,1,17649,0.0-1.0,57481,List1A,black,man,consent.html,,,,,,,,,,,,
15558.2,"<p>On the next page, you will see portraits of 8 people and their names.</p><p>Your first task is to take a few minutes to memorise the names of these people.</p><p>You will have to recall their names during the rest of the experiment, so it is</p><p>essential that you try to memorise these people and their names as best as you can.</p><br><p><strong>You will then be tested on your memory of these names and portraits.</strong></p><br><p>The experiment will start after you have completed this memory test.</p><br><p>Ready?</p>",0,html-button-response,2,33208,0.0-2.0,57481,List1A,black,man,,,,,,,,,,,,,
129161.5,"<img src='img/portrait_matrix_list1.jpg' style='width:900px;height:500px;''></img><p>If you have memorised all the portraits and names and are ready to start, press Continue.</p><p><strong>Please note: Your memory of these faces will be tested 4 times during this experiment.</strong></p>",0,html-button-response,3,163389,0.0-3.0-0.0,57481,List1A,black,man,,,,,,,,,,,,,
15935.9,"<img src=""portrait/WW2.jpg""style=""height:400px;""></img>",1,html-button-response,4,180333,0.0-3.0-1.0,57481,List1A,black,man,,TRUE,3,,,,,,,,,,
7049.6,"<img src=""portrait/WW2.jpg""style=""height:400px;""></img>",3,html-button-response,5,188389,0.0-3.0-3.0-0.0,57481,List1A,black,man,,FALSE,3,,,,,,,,,,
null,CORRECT,,html-keyboard-response,6,189915,0.0-3.0-3.0-1.0-0.0,57481,List1A,black,man,,,,null,,,,,,,,,
5919.7,"<img src=""portrait/BW2.jpg""style=""height:400px;""></img>",2,html-button-response,7,195838,0.0-3.0-4.0,57481,List1A,black,man,,TRUE,2,,,,,,,,,,
null,CORRECT,,html-keyboard-response,8,197359,0.0-3.0-5.0-0.0,57481,List1A,black,man,,,,null,,,,,,,,,
2907.7,"<img src=""portrait/WM2.jpg""style=""height:400px;""></img>",7,html-button-response,9,200269,0.0-3.0-7.0,57481,List1A,black,man,,TRUE,7,,,,,,,,,,
null,CORRECT,,html-keyboard-response,10,201790,0.0-3.0-8.0-0.0,57481,List1A,black,man,,,,null,,,,,,,,,
8716.9,"<img src=""portrait/BM1.jpg""style=""height:400px;""></img>",4,html-button-response,11,210509,0.0-3.0-10.0,57481,List1A,black,man,,TRUE,4,,,,,,,,,,
null,CORRECT,,html-keyboard-response,12,212019,0.0-3.0-11.0-0.0,57481,List1A,black,man,,,,null,,,,,,,,,
3607.9,"<img src=""portrait/WM1.jpg""style=""height:400px;""></img>",6,html-button-response,13,215629,0.0-3.0-13.0,57481,List1A,black,man,,TRUE,6,,,,,,,,,,
null,CORRECT,,html-keyboard-response,14,217144,0.0-3.0-14.0-0.0,57481,List1A,black,man,,,,null,,,,,,,,,
4395.4,"<img src=""portrait/BW1.jpg""style=""height:400px;""></img>",0,html-button-response,15,221543,0.0-3.0-16.0,57481,List1A,black,man,,TRUE,0,,,,,,,,,,
null,CORRECT,,html-keyboard-response,16,223058,0.0-3.0-17.0-0.0,57481,List1A,black,man,,,,null,,,,,,,,,
12635.1,"<img src=""portrait/WW1.jpg""style=""height:400px;""></img>",2,html-button-response,17,235695,0.0-3.0-19.0,57481,List1A,black,man,,TRUE,1,,,,,,,,,,
7786.2,"<img src=""portrait/WW1.jpg""style=""height:400px;""></img>",1,html-button-response,18,244495,0.0-3.0-21.0-0.0,57481,List1A,black,man,,FALSE,1,,,,,,,,,,
null,CORRECT,,html-keyboard-response,19,246017,0.0-3.0-21.0-1.0-0.0,57481,List1A,black,man,,,,null,,,,,,,,,
4029.1,"<img src=""portrait/BM2.jpg""style=""height:400px;""></img>",5,html-button-response,20,250047,0.0-3.0-22.0,57481,List1A,black,man,,TRUE,5,,,,,,,,,,
null,CORRECT,,html-keyboard-response,21,251557,0.0-3.0-23.0-0.0,57481,List1A,black,man,,,,null,,,,,,,,,
1831.3,<p>You got 6 out of 8 right first time. Press Continue.</p>,0,html-button-response,22,253390,0.0-3.0-25.0,57481,List1A,black,man,,,,,,,,,,,,,
2809.5,"As you did not score 100%, the memory game will repeat. Press Continue.",0,html-button-response,23,257207,0.0-3.0-26.0-0.0,57481,List1A,black,man,,,,,,,,,,,,,
32711.5,"<img src='img/portrait_matrix_list1.jpg' style='width:900px;height:500px;''></img><p>If you have memorised all the portraits and names and are ready to start, press Continue.</p><p><strong>Please note: Your memory of these faces will be tested 4 times during this experiment.</strong></p>",0,html-button-response,24,290927,0.0-3.1-0.1,57481,List1A,black,man,,,,,,,,,,,,,
2971.8,"<img src=""portrait/WW2.jpg""style=""height:400px;""></img>",3,html-button-response,25,294911,0.0-3.1-1.1,57481,List1A,black,man,,TRUE,3,,,,,,,,,,
null,CORRECT,,html-keyboard-response,26,296434,0.0-3.1-2.1-0.1,57481,List1A,black,man,,,,null,,,,,,,,,
12113.4,"<img src=""portrait/BW2.jpg""style=""height:400px;""></img>",2,html-button-response,27,308552,0.0-3.1-4.1,57481,List1A,black,man,,TRUE,2,,,,,,,,,,
null,CORRECT,,html-keyboard-response,28,310062,0.0-3.1-5.1-0.1,57481,List1A,black,man,,,,null,,,,,,,,,
4367.3,"<img src=""portrait/WM2.jpg""style=""height:400px;""></img>",7,html-button-response,29,314431,0.0-3.1-7.1,57481,List1A,black,man,,TRUE,7,,,,,,,,,,
null,CORRECT,,html-keyboard-response,30,315956,0.0-3.1-8.1-0.1,57481,List1A,black,man,,,,null,,,,,,,,,
9745.2,"<img src=""portrait/BM1.jpg""style=""height:400px;""></img>",4,html-button-response,31,325703,0.0-3.1-10.1,57481,List1A,black,man,,TRUE,4,,,,,,,,,,
null,CORRECT,,html-keyboard-response,32,327227,0.0-3.1-11.1-0.1,57481,List1A,black,man,,,,null,,,,,,,,,
3745.9,"<img src=""portrait/WM1.jpg""style=""height:400px;""></img>",6,html-button-response,33,330975,0.0-3.1-13.1,57481,List1A,black,man,,TRUE,6,,,,,,,,,,
null,CORRECT,,html-keyboard-response,34,332487,0.0-3.1-14.1-0.1,57481,List1A,black,man,,,,null,,,,,,,,,
9381.7,"<img src=""portrait/BW1.jpg""style=""height:400px;""></img>",0,html-button-response,35,341873,0.0-3.1-16.1,57481,List1A,black,man,,TRUE,0,,,,,,,,,,
null,CORRECT,,html-keyboard-response,36,343388,0.0-3.1-17.1-0.1,57481,List1A,black,man,,,,null,,,,,,,,,
5322.5,"<img src=""portrait/WW1.jpg""style=""height:400px;""></img>",1,html-button-response,37,348713,0.0-3.1-19.1,57481,List1A,black,man,,TRUE,1,,,,,,,,,,
null,CORRECT,,html-keyboard-response,38,350236,0.0-3.1-20.1-0.1,57481,List1A,black,man,,,,null,,,,,,,,,
1890.9,"<img src=""portrait/BM2.jpg""style=""height:400px;""></img>",5,html-button-response,39,352129,0.0-3.1-22.1,57481,List1A,black,man,,TRUE,5,,,,,,,,,,
null,CORRECT,,html-keyboard-response,40,353642,0.0-3.1-23.1-0.1,57481,List1A,black,man,,,,null,,,,,,,,,
1459.2,<p>You got 8 out of 8 right first time. Press Continue.</p>,0,html-button-response,41,355104,0.0-3.1-25.1,57481,List1A,black,man,,,,,,,,,,,,,
28489.6,"<p>In this experiment, you will view photographs of the people from the memory game interacting.</p><p>By using the <strong>exact</strong> phrase given <i>after</i> the photograph appears and recalling the correct names of the people in the photographs, form a sentence describing the interaction. You do not need to capitalise names.</p><p>Type your answer in the space provided. Please complete every sentence before moving onto the next trial.</p><p>You will only have a few seconds to memorise each given photograph and phrase before you can respond, so try your best to focus.</p><p>An example is given below. Press 'Continue' when you are ready.</p><img src='img/speaking_example.jpg' style='width:800px;height:460px;''></img>",0,html-button-response,42,384609,0.0-4.0,57481,List1A,black,man,,,,,,,,,,,,,
4205.3,"<p>Before the experiment starts, you will watch two example trials. Press 'Continue'.</p>",0,html-button-response,43,389816,0.0-5.0,57481,List1A,black,man,,,,,,,,,,,,,
null,<img src='img/play_eg.gif' style='height:400px;''></img>,,html-keyboard-response,44,392833,0.0-6.0,57481,List1A,black,man,,,,null,,,,,,,,,
null,<p>is playing with</p>,,html-keyboard-response,45,394841,0.0-7.0,57481,List1A,black,man,,,,null,,,,,,,,,
6582.1,<p><b>Answer:</b> kate is playing with beth</p>,0,html-button-response,46,401426,0.0-8.0,57481,List1A,black,man,,,,,,,,,,,,,
null,<img src='img/dance_eg.gif' style='height:400px;''></img>,,html-keyboard-response,47,404448,0.0-9.0,57481,List1A,black,man,,,,null,,,,,,,,,
null,<p>is being entertained by</p>,,html-keyboard-response,48,406451,0.0-10.0,57481,List1A,black,man,,,,null,,,,,,,,,
7469.2,<p><b>Answer:</b> luke is being entertained by dave</p>,0,html-button-response,49,413922,0.0-11.0,57481,List1A,black,man,,,,,,,,,,,,,
5130.2,"<p>Ready to start the experiment?</p><br><p><strong>Remember to describe the picture using a full sentence,</strong></p><p><strong>that combines the names of the people with the <i>exact</i> phrase given.</strong></p><p><strong>To receive full payment you must do this correctly.</strong></p><p><strong> You do not need to capitalise names or use punctuation.</strong></p><br><p>Press 'Continue' to begin.</p>",0,html-button-response,50,420058,0.0-12.0,57481,List1A,black,man,,,,,,,,,,,,,
null,"<div style=""font-size:60px;"">+</div>",,html-keyboard-response,51,421570,0.0-13.0-0.0,57481,List1A,black,man,,,,null,,,,,,,,,
null,"<img src=""stim_listA/look3.gif""style=""height:400px;""></stim_listA>",,html-keyboard-response,52,423577,0.0-13.0-1.0,57481,List1A,black,man,,,,null,,,,,,,,,
null,is looking at,,html-keyboard-response,53,425588,0.0-13.0-2.0,57481,List1A,black,man,,,,null,,,,,,,,,
21941.5,,,survey-text,54,447538,0.0-13.0-3.0,57481,List1A,black,man,,,,,"{""Q0"":""Jane is looking at ruth""}","<img src=""stim_listA/look3.gif""style=""height:400px;""></stim_listA>",is looking at,,,,,,
null,"<div style=""font-size:60px;"">+</div>",,html-keyboard-response,55,448055,0.0-13.0-0.1,57481,List1A,black,man,,,,null,,,,,,,,,
null,"<img src=""stim_listA/challenge7.gif""style=""height:400px;""></stim_listA>",,html-keyboard-response,56,450065,0.0-13.0-1.1,57481,List1A,black,man,,,,null,,,,,,,,,
null,is challenging,,html-keyboard-response,57,452081,0.0-13.0-2.1,57481,List1A,black,man,,,,null,,,,,,,,,
12251.1,,,survey-text,58,464339,0.0-13.0-3.1,57481,List1A,black,man,,,,,"{""Q0"":""Kate is talking to ruth""}","<img src=""stim_listA/challenge7.gif""style=""height:400px;""></stim_listA>",is challenging,,,,,,
null,"<div style=""font-size:60px;"">+</div>",,html-keyboard-response,59,464846,0.0-13.0-0.2,57481,List1A,black,man,,,,null,,,,,,,,,
null,"<img src=""stim_listA/copy5.gif""style=""height:400px;""></stim_listA>",,html-keyboard-response,60,466864,0.0-13.0-1.2,57481,List1A,black,man,,,,null,,,,,,,,,
null,is copying,,html-keyboard-response,61,468880,0.0-13.0-2.2,57481,List1A,black,man,,,,null,,,,,,,,,
9917,,,survey-text,62,478803,0.0-13.0-3.2,57481,List1A,black,man,,,,,"{""Q0"":""Luke is copying mike""}","<img src=""stim_listA/copy5.gif""style=""height:400px;""></stim_listA>",is copying,,,,,,
null,"<div style=""font-size:60px;"">+</div>",,html-keyboard-response,63,479316,0.0-13.0-0.3,57481,List1A,black,man,,,,null,,,,,,,,,
null,"<img src=""stim_listA/shout7.gif""style=""height:400px;""></stim_listA>",,html-keyboard-response,64,481332,0.0-13.0-1.3,57481,List1A,black,man,,,,null,,,,,,,,,
null,is shouting at,,html-keyboard-response,65,483346,0.0-13.0-2.3,57481,List1A,black,man,,,,null,,,,,,,,,
24970.7,,,survey-text,66,508323,0.0-13.0-3.3,57481,List1A,black,man,,,,,"{""Q0"":""Beth is shouting at jane""}","<img src=""stim_listA/shout7.gif""style=""height:400px;""></stim_listA>",is shouting at,,,,,,
null,"<div style=""font-size:60px;"">+</div>",,html-keyboard-response,67,508831,0.0-13.0-0.4,57481,List1A,black,man,,,,null,,,,,,,,,
null,"<img src=""stim_listA/touch2.gif""style=""height:400px;""></stim_listA>",,html-keyboard-response,68,510847,0.0-13.0-1.4,57481,List1A,black,man,,,,null,,,,,,,,,
null,is being touched by,,html-keyboard-response,69,512858,0.0-13.0-2.4,57481,List1A,black,man,,,,null,,,,,,,,,
11578.9,,,survey-text,70,524445,0.0-13.0-3.4,57481,List1A,black,man,,,,,"{""Q0"":""Beth is being touched by fred""}","<img src=""stim_listA/touch2.gif""style=""height:400px;""></stim_listA>",is being touched by,,,,,,
null,"<div style=""font-size:60px;"">+</div>",,html-keyboard-response,71,524956,0.0-13.0-0.5,57481,List1A,black,man,,,,null,,,,,,,,,
null,"<img src=""stim_listA/greet8.gif""style=""height:400px;""></stim_listA>",,html-keyboard-response,72,526973,0.0-13.0-1.5,57481,List1A,black,man,,,,null,,,,,,,,,
null,is being greeted by,,html-keyboard-response,73,528976,0.0-13.0-2.5,57481,List1A,black,man,,,,null,,,,,,,,,
13193.2,,,survey-text,74,542180,0.0-13.0-3.5,57481,List1A,black,man,,,,,"{""Q0"":""Beth is being greeted by ruth""}","<img src=""stim_listA/greet8.gif""style=""height:400px;""></stim_listA>",is being greeted by,,,,,,
null,"<div style=""font-size:60px;"">+</div>",,html-keyboard-response,75,542683,0.0-13.0-0.6,57481,List1A,black,man,,,,null,,,,,,,,,
null,"<img src=""stim_listA/greet1.gif""style=""height:400px;""></stim_listA>",,html-keyboard-response,76,544690,0.0-13.0-1.6,57481,List1A,black,man,,,,null,,,,,,,,,
null,is greeting,,html-keyboard-response,77,546693,0.0-13.0-2.6,57481,List1A,black,man,,,,null,,,,,,,,,
12401.5,,,survey-text,78,559100,0.0-13.0-3.6,57481,List1A,black,man,,,,,"{""Q0"":""Beth is greeting mike""}","<img src=""stim_listA/greet1.gif""style=""height:400px;""></stim_listA>",is greeting,,,,,,
null,"<div style=""font-size:60px;"">+</div>",,html-keyboard-response,79,559603,0.0-13.0-0.7,57481,List1A,black,man,,,,null,,,,,,,,,
null,"<img src=""stim_listA/shout4.gif""style=""height:400px;""></stim_listA>",,html-keyboard-response,80,561618,0.0-13.0-1.7,57481,List1A,black,man,,,,null,,,,,,,,,
null,is being shouted at by,,html-keyboard-response,81,563630,0.0-13.0-2.7,57481,List1A,black,man,,,,null,,,,,,,,,
26081.1,,,survey-text,82,589718,0.0-13.0-3.7,57481,List1A,black,man,,,,,"{""Q0"":""Jane is being shouted at by Dave""}","<img src=""stim_listA/shout4.gif""style=""height:400px;""></stim_listA>",is being shouted at by,,,,,,
null,"<div style=""font-size:60px;"">+</div>",,html-keyboard-response,83,590225,0.0-13.0-0.8,57481,List1A,black,man,,,,null,,,,,,,,,
null,"<img src=""stim_listA/copy1.gif""style=""height:400px;""></stim_listA>",,html-keyboard-response,84,592242,0.0-13.0-1.8,57481,List1A,black,man,,,,null,,,,,,,,,
null,is copying,,html-keyboard-response,85,594245,0.0-13.0-2.8,57481,List1A,black,man,,,,null,,,,,,,,,
12762.8,,,survey-text,86,607014,0.0-13.0-3.8,57481,List1A,black,man,,,,,"{""Q0"":""Beth is copying Fred""}","<img src=""stim_listA/copy1.gif""style=""height:400px;""></stim_listA>",is copying,,,,,,
null,"<div style=""font-size:60px;"">+</div>",,html-keyboard-response,87,607525,0.0-13.0-0.9,57481,List1A,black,man,,,,null,,,,,,,,,
null,"<img src=""stim_listA/challenge5.gif""style=""height:400px;""></stim_listA>",,html-keyboard-response,88,609535,0.0-13.0-1.9,57481,List1A,black,man,,,,null,,,,,,,,,
null,is challenging,,html-keyboard-response,89,611550,0.0-13.0-2.9,57481,List1A,black,man,,,,null,,,,,,,,,
7530,,,survey-text,90,619085,0.0-13.0-3.9,57481,List1A,black,man,,,,,"{""Q0"":""Mike is challenging luke""}","<img src=""stim_listA/challenge5.gif""style=""height:400px;""></stim_listA>",is challenging,,,,,,
null,"<div style=""font-size:60px;"">+</div>",,html-keyboard-response,91,619597,0.0-13.0-0.10,57481,List1A,black,man,,,,null,,,,,,,,,
null,"<img src=""stim_listA/oppose6.gif""style=""height:400px;""></stim_listA>",,html-keyboard-response,92,621613,0.0-13.0-1.10,57481,List1A,black,man,,,,null,,,,,,,,,
null,is being opposed by,,html-keyboard-response,93,623629,0.0-13.0-2.10,57481,List1A,black,man,,,,null,,,,,,,,,
26169.9,,,survey-text,94,649808,0.0-13.0-3.10,57481,List1A,black,man,,,,,"{""Q0"":""Luke is being opposed by Fred""}","<img src=""stim_listA/oppose6.gif""style=""height:400px;""></stim_listA>",is being opposed by,,,,,,
null,"<div style=""font-size:60px;"">+</div>",,html-keyboard-response,95,650316,0.0-13.0-0.11,57481,List1A,black,man,,,,null,,,,,,,,,
null,"<img src=""stim_listA/kiss8.gif""style=""height:400px;""></stim_listA>",,html-keyboard-response,96,652329,0.0-13.0-1.11,57481,List1A,black,man,,,,null,,,,,,,,,
null,is being kissed by,,html-keyboard-response,97,654340,0.0-13.0-2.11,57481,List1A,black,man,,,,null,,,,,,,,,
12549.8,,,survey-text,98,666896,0.0-13.0-3.11,57481,List1A,black,man,,,,,"{""Q0"":""Kate is being kissed by Jane""}","<img src=""stim_listA/kiss8.gif""style=""height:400px;""></stim_listA>",is being kissed by,,,,,,
null,"<div style=""font-size:60px;"">+</div>",,html-keyboard-response,99,667403,0.0-13.0-0.12,57481,List1A,black,man,,,,null,,,,,,,,,
null,"<img src=""stim_listA/greet7.gif""style=""height:400px;""></stim_listA>",,html-keyboard-response,100,669416,0.0-13.0-1.12,57481,List1A,black,man,,,,null,,,,,,,,,
null,is greeting,,html-keyboard-response,101,671429,0.0-13.0-2.12,57481,List1A,black,man,,,,null,,,,,,,,,
38341.3,,,survey-text,102,709777,0.0-13.0-3.12,57481,List1A,black,man,,,,,"{""Q0"":""Ruth is waving to Kate""}","<img src=""stim_listA/greet7.gif""style=""height:400px;""></stim_listA>",is greeting,,,,,,
null,"<div style=""font-size:60px;"">+</div>",,html-keyboard-response,103,710279,0.0-13.0-0.13,57481,List1A,black,man,,,,null,,,,,,,,,
null,"<img src=""stim_listA/oppose8.gif""style=""height:400px;""></stim_listA>",,html-keyboard-response,104,712283,0.0-13.0-1.13,57481,List1A,black,man,,,,null,,,,,,,,,
null,is being opposed by,,html-keyboard-response,105,714289,0.0-13.0-2.13,57481,List1A,black,man,,,,null,,,,,,,,,
62482.3,,,survey-text,106,776777,0.0-13.0-3.13,57481,List1A,black,man,,,,,"{""Q0"":""Kate is being opposed by Ruth""}","<img src=""stim_listA/oppose8.gif""style=""height:400px;""></stim_listA>",is being opposed by,,,,,,
null,"<div style=""font-size:60px;"">+</div>",,html-keyboard-response,107,777279,0.0-13.0-0.14,57481,List1A,black,man,,,,null,,,,,,,,,
null,"<img src=""stim_listA/greet6.gif""style=""height:400px;""></stim_listA>",,html-keyboard-response,108,779283,0.0-13.0-1.14,57481,List1A,black,man,,,,null,,,,,,,,,
null,is being greeted by,,html-keyboard-response,109,781288,0.0-13.0-2.14,57481,List1A,black,man,,,,null,,,,,,,,,
10100.1,,,survey-text,110,791393,0.0-13.0-3.14,57481,List1A,black,man,,,,,"{""Q0"":""Fred is being greeted by dave""}","<img src=""stim_listA/greet6.gif""style=""height:400px;""></stim_listA>",is being greeted by,,,,,,
null,"<div style=""font-size:60px;"">+</div>",,html-keyboard-response,111,791907,0.0-13.0-0.15,57481,List1A,black,man,,,,null,,,,,,,,,
null,"<img src=""stim_listA/seduce5.gif""style=""height:400px;""></stim_listA>",,html-keyboard-response,112,793917,0.0-13.0-1.15,57481,List1A,black,man,,,,null,,,,,,,,,
null,is seducing,,html-keyboard-response,113,795933,0.0-13.0-2.15,57481,List1A,black,man,,,,null,,,,,,,,,
9294.8,,,survey-text,114,805233,0.0-13.0-3.15,57481,List1A,black,man,,,,,"{""Q0"":""Fred is seducing dave""}","<img src=""stim_listA/seduce5.gif""style=""height:400px;""></stim_listA>",is seducing,,,,,,
null,"<div style=""font-size:60px;"">+</div>",,html-keyboard-response,115,805739,0.0-13.0-0.16,57481,List1A,black,man,,,,null,,,,,,,,,
null,"<img src=""stim_listA/seduce2.gif""style=""height:400px;""></stim_listA>",,html-keyboard-response,116,807755,0.0-13.0-1.16,57481,List1A,black,man,,,,null,,,,,,,,,
null,is being seduced by,,html-keyboard-response,117,809767,0.0-13.0-2.16,57481,List1A,black,man,,,,null,,,,,,,,,
10156.2,,,survey-text,118,819929,0.0-13.0-3.16,57481,List1A,black,man,,,,,"{""Q0"":""Beth is being seduced by mike""}","<img src=""stim_listA/seduce2.gif""style=""height:400px;""></stim_listA>",is being seduced by,,,,,,
null,"<div style=""font-size:60px;"">+</div>",,html-keyboard-response,119,820444,0.0-13.0-0.17,57481,List1A,black,man,,,,null,,,,,,,,,
null,"<img src=""stim_listA/look8.gif""style=""height:400px;""></stim_listA>",,html-keyboard-response,120,822463,0.0-13.0-1.17,57481,List1A,black,man,,,,null,,,,,,,,,
null,is being looked at by,,html-keyboard-response,121,824480,0.0-13.0-2.17,57481,List1A,black,man,,,,null,,,,,,,,,
7940.6,,,survey-text,122,832427,0.0-13.0-3.17,57481,List1A,black,man,,,,,"{""Q0"":""Jane is being looked at by kate""}","<img src=""stim_listA/look8.gif""style=""height:400px;""></stim_listA>",is being looked at by,,,,,,
null,"<div style=""font-size:60px;"">+</div>",,html-keyboard-response,123,832934,0.0-13.0-0.18,57481,List1A,black,man,,,,null,,,,,,,,,
null,"<img src=""stim_listA/seduce1.gif""style=""height:400px;""></stim_listA>",,html-keyboard-response,124,834947,0.0-13.0-1.18,57481,List1A,black,man,,,,null,,,,,,,,,
null,is seducing,,html-keyboard-response,125,836963,0.0-13.0-2.18,57481,List1A,black,man,,,,null,,,,,,,,,
14730,,,survey-text,126,851698,0.0-13.0-3.18,57481,List1A,black,man,,,,,"{""Q0"":""Fred is being seduced by Kate""}","<img src=""stim_listA/seduce1.gif""style=""height:400px;""></stim_listA>",is seducing,,,,,,
null,"<div style=""font-size:60px;"">+</div>",,html-keyboard-response,127,852203,0.0-13.0-0.19,57481,List1A,black,man,,,,null,,,,,,,,,
null,"<img src=""stim_listA/shout3.gif""style=""height:400px;""></stim_listA>",,html-keyboard-response,128,854217,0.0-13.0-1.19,57481,List1A,black,man,,,,null,,,,,,,,,
null,is shouting at,,html-keyboard-response,129,856225,0.0-13.0-2.19,57481,List1A,black,man,,,,null,,,,,,,,,
11827.7,,,survey-text,130,868059,0.0-13.0-3.19,57481,List1A,black,man,,,,,"{""Q0"":""Ruth is shouting at Luke""}","<img src=""stim_listA/shout3.gif""style=""height:400px;""></stim_listA>",is shouting at,,,,,,
12174.3,"<img src='img/portrait_matrix_list1.jpg' style='width:900px;height:500px;''></img><p>If you have memorised all the portraits and names and are ready to start, press Continue.</p><p><strong>Please note: Your memory of these faces will be tested 4 times during this experiment.</strong></p>",0,html-button-response,131,880234,0.0-14.0-0.0,57481,List1A,black,man,,,,,,,,,,,,,
44954.7,"<img src=""portrait/BM1.jpg""style=""height:400px;""></img>",4,html-button-response,132,926196,0.0-14.0-1.0,57481,List1A,black,man,,TRUE,4,,,,,,,,,,
null,CORRECT,,html-keyboard-response,133,927709,0.0-14.0-2.0-0.0,57481,List1A,black,man,,,,null,,,,,,,,,
3205.1,"<img src=""portrait/WM1.jpg""style=""height:400px;""></img>",6,html-button-response,134,930916,0.0-14.0-4.0,57481,List1A,black,man,,TRUE,6,,,,,,,,,,
null,CORRECT,,html-keyboard-response,135,932428,0.0-14.0-5.0-0.0,57481,List1A,black,man,,,,null,,,,,,,,,
2550.5,"<img src=""portrait/BW2.jpg""style=""height:400px;""></img>",2,html-button-response,136,934980,0.0-14.0-7.0,57481,List1A,black,man,,TRUE,2,,,,,,,,,,
null,CORRECT,,html-keyboard-response,137,936507,0.0-14.0-8.0-0.0,57481,List1A,black,man,,,,null,,,,,,,,,
6751.3,"<img src=""portrait/WW1.jpg""style=""height:400px;""></img>",1,html-button-response,138,943262,0.0-14.0-10.0,57481,List1A,black,man,,TRUE,1,,,,,,,,,,
null,CORRECT,,html-keyboard-response,139,944768,0.0-14.0-11.0-0.0,57481,List1A,black,man,,,,null,,,,,,,,,
1395.6,"<img src=""portrait/WW2.jpg""style=""height:400px;""></img>",3,html-button-response,140,946166,0.0-14.0-13.0,57481,List1A,black,man,,TRUE,3,,,,,,,,,,
null,CORRECT,,html-keyboard-response,141,947689,0.0-14.0-14.0-0.0,57481,List1A,black,man,,,,null,,,,,,,,,
2498.8,"<img src=""portrait/BM2.jpg""style=""height:400px;""></img>",5,html-button-response,142,950190,0.0-14.0-16.0,57481,List1A,black,man,,TRUE,5,,,,,,,,,,
null,CORRECT,,html-keyboard-response,143,951707,0.0-14.0-17.0-0.0,57481,List1A,black,man,,,,null,,,,,,,,,
3168.4,"<img src=""portrait/BW1.jpg""style=""height:400px;""></img>",0,html-button-response,144,954878,0.0-14.0-19.0,57481,List1A,black,man,,TRUE,0,,,,,,,,,,
null,CORRECT,,html-keyboard-response,145,956399,0.0-14.0-20.0-0.0,57481,List1A,black,man,,,,null,,,,,,,,,
1764.7,"<img src=""portrait/WM2.jpg""style=""height:400px;""></img>",7,html-button-response,146,958166,0.0-14.0-22.0,57481,List1A,black,man,,TRUE,7,,,,,,,,,,
null,CORRECT,,html-keyboard-response,147,959684,0.0-14.0-23.0-0.0,57481,List1A,black,man,,,,null,,,,,,,,,
3406.3,<p>You got 8 out of 8 right first time. Press Continue.</p>,0,html-button-response,148,963094,0.0-14.0-25.0,57481,List1A,black,man,,,,,,,,,,,,,
null,"<div style=""font-size:60px;"">+</div>",,html-keyboard-response,149,964615,0.0-15.0-0.0,57481,List1A,black,man,,,,null,,,,,,,,,
null,"<img src=""stim_listA/kiss3.gif""style=""height:400px;""></stim_listA>",,html-keyboard-response,150,966625,0.0-15.0-1.0,57481,List1A,black,man,,,,null,,,,,,,,,
null,is kissing,,html-keyboard-response,151,968628,0.0-15.0-2.0,57481,List1A,black,man,,,,null,,,,,,,,,
9900.6,,,survey-text,152,978534,0.0-15.0-3.0,57481,List1A,black,man,,,,,"{""Q0"":""Luke is kissing Ruth""}","<img src=""stim_listA/kiss3.gif""style=""height:400px;""></stim_listA>",is kissing,,,,,,
null,"<div style=""font-size:60px;"">+</div>",,html-keyboard-response,153,979045,0.0-15.0-0.1,57481,List1A,black,man,,,,null,,,,,,,,,
null,"<img src=""stim_listA/seduce4.gif""style=""height:400px;""></stim_listA>",,html-keyboard-response,154,981055,0.0-15.0-1.1,57481,List1A,black,man,,,,null,,,,,,,,,
null,is being seduced by,,html-keyboard-response,155,983069,0.0-15.0-2.1,57481,List1A,black,man,,,,null,,,,,,,,,
15459.6,,,survey-text,156,998533,0.0-15.0-3.1,57481,List1A,black,man,,,,,"{""Q0"":""Ruth is being seduced by Dave""}","<img src=""stim_listA/seduce4.gif""style=""height:400px;""></stim_listA>",is being seduced by,,,,,,
null,"<div style=""font-size:60px;"">+</div>",,html-keyboard-response,157,999044,0.0-15.0-0.2,57481,List1A,black,man,,,,null,,,,,,,,,
null,"<img src=""stim_listA/shout5.gif""style=""height:400px;""></stim_listA>",,html-keyboard-response,158,1001055,0.0-15.0-1.2,57481,List1A,black,man,,,,null,,,,,,,,,
null,is shouting at,,html-keyboard-response,159,1003065,0.0-15.0-2.2,57481,List1A,black,man,,,,null,,,,,,,,,
35351.5,,,survey-text,160,1038423,0.0-15.0-3.2,57481,List1A,black,man,,,,,"{""Q0"":""Fred is shouting at Luke""}","<img src=""stim_listA/shout5.gif""style=""height:400px;""></stim_listA>",is shouting at,,,,,,
null,"<div style=""font-size:60px;"">+</div>",,html-keyboard-response,161,1038935,0.0-15.0-0.3,57481,List1A,black,man,,,,null,,,,,,,,,
null,"<img src=""stim_listA/oppose5.gif""style=""height:400px;""></stim_listA>",,html-keyboard-response,162,1040952,0.0-15.0-1.3,57481,List1A,black,man,,,,null,,,,,,,,,
null,is opposing,,html-keyboard-response,163,1042957,0.0-15.0-2.3,57481,List1A,black,man,,,,null,,,,,,,,,
7014.3,,,survey-text,164,1049983,0.0-15.0-3.3,57481,List1A,black,man,,,,,"{""Q0"":""Mike is opposing dave""}","<img src=""stim_listA/oppose5.gif""style=""height:400px;""></stim_listA>",is opposing,,,,,,
null,"<div style=""font-size:60px;"">+</div>",,html-keyboard-response,165,1050490,0.0-15.0-0.4,57481,List1A,black,man,,,,null,,,,,,,,,
null,"<img src=""stim_listA/look1.gif""style=""height:400px;""></stim_listA>",,html-keyboard-response,166,1052509,0.0-15.0-1.4,57481,List1A,black,man,,,,null,,,,,,,,,
null,is looking at,,html-keyboard-response,167,1054524,0.0-15.0-2.4,57481,List1A,black,man,,,,null,,,,,,,,,
15468.6,,,survey-text,168,1070000,0.0-15.0-3.4,57481,List1A,black,man,,,,,"{""Q0"":""Beth is staring at Fred""}","<img src=""stim_listA/look1.gif""style=""height:400px;""></stim_listA>",is looking at,,,,,,
null,"<div style=""font-size:60px;"">+</div>",,html-keyboard-response,169,1070502,0.0-15.0-0.5,57481,List1A,black,man,,,,null,,,,,,,,,
null,"<img src=""stim_listA/look2.gif""style=""height:400px;""></stim_listA>",,html-keyboard-response,170,1072520,0.0-15.0-1.5,57481,List1A,black,man,,,,null,,,,,,,,,
null,is being looked at by,,html-keyboard-response,171,1074523,0.0-15.0-2.5,57481,List1A,black,man,,,,null,,,,,,,,,
71758.8,,,survey-text,172,1146289,0.0-15.0-3.5,57481,List1A,black,man,,,,,"{""Q0"":""Kate is being looked at by Luke""}","<img src=""stim_listA/look2.gif""style=""height:400px;""></stim_listA>",is being looked at by,,,,,,
null,"<div style=""font-size:60px;"">+</div>",,html-keyboard-response,173,1146800,0.0-15.0-0.6,57481,List1A,black,man,,,,null,,,,,,,,,
null,"<img src=""stim_listA/shout8.gif""style=""height:400px;""></stim_listA>",,html-keyboard-response,174,1148817,0.0-15.0-1.6,57481,List1A,black,man,,,,null,,,,,,,,,
null,is being shouted at by,,html-keyboard-response,175,1150824,0.0-15.0-2.6,57481,List1A,black,man,,,,null,,,,,,,,,
13491.6,,,survey-text,176,1164321,0.0-15.0-3.6,57481,List1A,black,man,,,,,"{""Q0"":""Jane is being shouted at by Kate""}","<img src=""stim_listA/shout8.gif""style=""height:400px;""></stim_listA>",is being shouted at by,,,,,,
null,"<div style=""font-size:60px;"">+</div>",,html-keyboard-response,177,1164836,0.0-15.0-0.7,57481,List1A,black,man,,,,null,,,,,,,,,
null,"<img src=""stim_listA/hug6.gif""style=""height:400px;""></stim_listA>",,html-keyboard-response,178,1166845,0.0-15.0-1.7,57481,List1A,black,man,,,,null,,,,,,,,,
null,is being hugged by,,html-keyboard-response,179,1168848,0.0-15.0-2.7,57481,List1A,black,man,,,,null,,,,,,,,,
9395.1,,,survey-text,180,1178249,0.0-15.0-3.7,57481,List1A,black,man,,,,,"{""Q0"":""Dave is being hugged by Luke""}","<img src=""stim_listA/hug6.gif""style=""height:400px;""></stim_listA>",is being hugged by,,,,,,
null,"<div style=""font-size:60px;"">+</div>",,html-keyboard-response,181,1178751,0.0-15.0-0.8,57481,List1A,black,man,,,,null,,,,,,,,,
null,"<img src=""stim_listA/oppose1.gif""style=""height:400px;""></stim_listA>",,html-keyboard-response,182,1180762,0.0-15.0-1.8,57481,List1A,black,man,,,,null,,,,,,,,,
null,is opposing,,html-keyboard-response,183,1182776,0.0-15.0-2.8,57481,List1A,black,man,,,,null,,,,,,,,,
11026.4,,,survey-text,184,1193818,0.0-15.0-3.8,57481,List1A,black,man,,,,,"{""Q0"":""Kate is being opposed by Luke""}","<img src=""stim_listA/oppose1.gif""style=""height:400px;""></stim_listA>",is opposing,,,,,,
null,"<div style=""font-size:60px;"">+</div>",,html-keyboard-response,185,1194320,0.0-15.0-0.9,57481,List1A,black,man,,,,null,,,,,,,,,
null,"<img src=""stim_listA/touch7.gif""style=""height:400px;""></stim_listA>",,html-keyboard-response,186,1196336,0.0-15.0-1.9,57481,List1A,black,man,,,,null,,,,,,,,,
null,is touching,,html-keyboard-response,187,1198348,0.0-15.0-2.9,57481,List1A,black,man,,,,null,,,,,,,,,
14032.3,,,survey-text,188,1212386,0.0-15.0-3.9,57481,List1A,black,man,,,,,"{""Q0"":""Kate is being touched by Jane""}","<img src=""stim_listA/touch7.gif""style=""height:400px;""></stim_listA>",is touching,,,,,,
null,"<div style=""font-size:60px;"">+</div>",,html-keyboard-response,189,1212903,0.0-15.0-0.10,57481,List1A,black,man,,,,null,,,,,,,,,
null,"<img src=""stim_listA/hug2.gif""style=""height:400px;""></stim_listA>",,html-keyboard-response,190,1214915,0.0-15.0-1.10,57481,List1A,black,man,,,,null,,,,,,,,,
null,is being hugged by,,html-keyboard-response,191,1216925,0.0-15.0-2.10,57481,List1A,black,man,,,,null,,,,,,,,,
10479.7,,,survey-text,192,1227410,0.0-15.0-3.10,57481,List1A,black,man,,,,,"{""Q0"":""Kate is being hugged by luke""}","<img src=""stim_listA/hug2.gif""style=""height:400px;""></stim_listA>",is being hugged by,,,,,,
null,"<div style=""font-size:60px;"">+</div>",,html-keyboard-response,193,1227917,0.0-15.0-0.11,57481,List1A,black,man,,,,null,,,,,,,,,
null,"<img src=""stim_listA/touch6.gif""style=""height:400px;""></stim_listA>",,html-keyboard-response,194,1229926,0.0-15.0-1.11,57481,List1A,black,man,,,,null,,,,,,,,,
null,is being touched by,,html-keyboard-response,195,1231942,0.0-15.0-2.11,57481,List1A,black,man,,,,null,,,,,,,,,
14725.6,,,survey-text,196,1246676,0.0-15.0-3.11,57481,List1A,black,man,,,,,"{""Q0"":""Fred is being touched by Luke""}","<img src=""stim_listA/touch6.gif""style=""height:400px;""></stim_listA>",is being touched by,,,,,,
null,"<div style=""font-size:60px;"">+</div>",,html-keyboard-response,197,1247189,0.0-15.0-0.12,57481,List1A,black,man,,,,null,,,,,,,,,
null,"<img src=""stim_listA/greet5.gif""style=""height:400px;""></stim_listA>",,html-keyboard-response,198,1249193,0.0-15.0-1.12,57481,List1A,black,man,,,,null,,,,,,,,,
null,is greeting,,html-keyboard-response,199,1251208,0.0-15.0-2.12,57481,List1A,black,man,,,,null,,,,,,,,,
10709.4,,,survey-text,200,1261923,0.0-15.0-3.12,57481,List1A,black,man,,,,,"{""Q0"":""Mike is being greeted by Luke""}","<img src=""stim_listA/greet5.gif""style=""height:400px;""></stim_listA>",is greeting,,,,,,
null,"<div style=""font-size:60px;"">+</div>",,html-keyboard-response,201,1262440,0.0-15.0-0.13,57481,List1A,black,man,,,,null,,,,,,,,,
null,"<img src=""stim_listA/copy3.gif""style=""height:400px;""></stim_listA>",,html-keyboard-response,202,1264455,0.0-15.0-1.13,57481,List1A,black,man,,,,null,,,,,,,,,
null,is copying,,html-keyboard-response,203,1266462,0.0-15.0-2.13,57481,List1A,black,man,,,,null,,,,,,,,,
8383.2,,,survey-text,204,1274851,0.0-15.0-3.13,57481,List1A,black,man,,,,,"{""Q0"":""Ruth is copying dave""}","<img src=""stim_listA/copy3.gif""style=""height:400px;""></stim_listA>",is copying,,,,,,
null,"<div style=""font-size:60px;"">+</div>",,html-keyboard-response,205,1275366,0.0-15.0-0.14,57481,List1A,black,man,,,,null,,,,,,,,,
null,"<img src=""stim_listA/kiss6.gif""style=""height:400px;""></stim_listA>",,html-keyboard-response,206,1277384,0.0-15.0-1.14,57481,List1A,black,man,,,,null,,,,,,,,,
null,is being kissed by,,html-keyboard-response,207,1279396,0.0-15.0-2.14,57481,List1A,black,man,,,,null,,,,,,,,,
11489.5,,,survey-text,208,1290891,0.0-15.0-3.14,57481,List1A,black,man,,,,,"{""Q0"":""Mike is being kissed by dave""}","<img src=""stim_listA/kiss6.gif""style=""height:400px;""></stim_listA>",is being kissed by,,,,,,
null,"<div style=""font-size:60px;"">+</div>",,html-keyboard-response,209,1291405,0.0-15.0-0.15,57481,List1A,black,man,,,,null,,,,,,,,,
null,"<img src=""stim_listA/hug5.gif""style=""height:400px;""></stim_listA>",,html-keyboard-response,210,1293415,0.0-15.0-1.15,57481,List1A,black,man,,,,null,,,,,,,,,
null,is hugging,,html-keyboard-response,211,1295417,0.0-15.0-2.15,57481,List1A,black,man,,,,null,,,,,,,,,
7748.1,,,survey-text,212,1303171,0.0-15.0-3.15,57481,List1A,black,man,,,,,"{""Q0"":""Fred is hugging luke""}","<img src=""stim_listA/hug5.gif""style=""height:400px;""></stim_listA>",is hugging,,,,,,
null,"<div style=""font-size:60px;"">+</div>",,html-keyboard-response,213,1303677,0.0-15.0-0.16,57481,List1A,black,man,,,,null,,,,,,,,,
null,"<img src=""stim_listA/look4.gif""style=""height:400px;""></stim_listA>",,html-keyboard-response,214,1305698,0.0-15.0-1.16,57481,List1A,black,man,,,,null,,,,,,,,,
null,is being looked at by,,html-keyboard-response,215,1307701,0.0-15.0-2.16,57481,List1A,black,man,,,,null,,,,,,,,,
10786.6,,,survey-text,216,1318493,0.0-15.0-3.16,57481,List1A,black,man,,,,,"{""Q0"":""Ruth is being looked at by Dave""}","<img src=""stim_listA/look4.gif""style=""height:400px;""></stim_listA>",is being looked at by,,,,,,
null,"<div style=""font-size:60px;"">+</div>",,html-keyboard-response,217,1319005,0.0-15.0-0.17,57481,List1A,black,man,,,,null,,,,,,,,,
null,"<img src=""stim_listA/challenge1.gif""style=""height:400px;""></stim_listA>",,html-keyboard-response,218,1321020,0.0-15.0-1.17,57481,List1A,black,man,,,,null,,,,,,,,,
null,is challenging,,html-keyboard-response,219,1323023,0.0-15.0-2.17,57481,List1A,black,man,,,,null,,,,,,,,,
11187.7,,,survey-text,220,1334221,0.0-15.0-3.17,57481,List1A,black,man,,,,,"{""Q0"":""Beth is challenging Mike""}","<img src=""stim_listA/challenge1.gif""style=""height:400px;""></stim_listA>",is challenging,,,,,,
null,"<div style=""font-size:60px;"">+</div>",,html-keyboard-response,221,1334725,0.0-15.0-0.18,57481,List1A,black,man,,,,null,,,,,,,,,
null,"<img src=""stim_listA/kiss4.gif""style=""height:400px;""></stim_listA>",,html-keyboard-response,222,1336731,0.0-15.0-1.18,57481,List1A,black,man,,,,null,,,,,,,,,
null,is being kissed by,,html-keyboard-response,223,1338742,0.0-15.0-2.18,57481,List1A,black,man,,,,null,,,,,,,,,
24409.5,,,survey-text,224,1363157,0.0-15.0-3.18,57481,List1A,black,man,,,,,"{""Q0"":""Janes is being kissed by Dave""}","<img src=""stim_listA/kiss4.gif""style=""height:400px;""></stim_listA>",is being kissed by,,,,,,
null,"<div style=""font-size:60px;"">+</div>",,html-keyboard-response,225,1363666,0.0-15.0-0.19,57481,List1A,black,man,,,,null,,,,,,,,,
null,"<img src=""stim_listA/copy7.gif""style=""height:400px;""></stim_listA>",,html-keyboard-response,226,1365672,0.0-15.0-1.19,57481,List1A,black,man,,,,null,,,,,,,,,
null,is copying,,html-keyboard-response,227,1367675,0.0-15.0-2.19,57481,List1A,black,man,,,,null,,,,,,,,,
50853.7,,,survey-text,228,1418534,0.0-15.0-3.19,57481,List1A,black,man,,,,,"{""Q0"":""Kate is copying Ruth""}","<img src=""stim_listA/copy7.gif""style=""height:400px;""></stim_listA>",is copying,,,,,,
2302.6,"<img src='img/portrait_matrix_list1.jpg' style='width:900px;height:500px;''></img><p>If you have memorised all the portraits and names and are ready to start, press Continue.</p><p><strong>Please note: Your memory of these faces will be tested 4 times during this experiment.</strong></p>",0,html-button-response,229,1420838,0.0-16.0-0.0,57481,List1A,black,man,,,,,,,,,,,,,
3629.9,"<img src=""portrait/WM1.jpg""style=""height:400px;""></img>",6,html-button-response,230,1425471,0.0-16.0-1.0,57481,List1A,black,man,,TRUE,6,,,,,,,,,,
null,CORRECT,,html-keyboard-response,231,1426990,0.0-16.0-2.0-0.0,57481,List1A,black,man,,,,null,,,,,,,,,
8815.6,"<img src=""portrait/BW2.jpg""style=""height:400px;""></img>",0,html-button-response,232,1435808,0.0-16.0-4.0,57481,List1A,black,man,,TRUE,2,,,,,,,,,,
4566.1,"<img src=""portrait/BW2.jpg""style=""height:400px;""></img>",2,html-button-response,233,1441384,0.0-16.0-6.0-0.0,57481,List1A,black,man,,FALSE,2,,,,,,,,,,
null,CORRECT,,html-keyboard-response,234,1442913,0.0-16.0-6.0-1.0-0.0,57481,List1A,black,man,,,,null,,,,,,,,,
2092.7,"<img src=""portrait/WW2.jpg""style=""height:400px;""></img>",3,html-button-response,235,1445008,0.0-16.0-7.0,57481,List1A,black,man,,TRUE,3,,,,,,,,,,
null,CORRECT,,html-keyboard-response,236,1446521,0.0-16.0-8.0-0.0,57481,List1A,black,man,,,,null,,,,,,,,,
1756,"<img src=""portrait/WM2.jpg""style=""height:400px;""></img>",7,html-button-response,237,1448280,0.0-16.0-10.0,57481,List1A,black,man,,TRUE,7,,,,,,,,,,
null,CORRECT,,html-keyboard-response,238,1449792,0.0-16.0-11.0-0.0,57481,List1A,black,man,,,,null,,,,,,,,,
4637.2,"<img src=""portrait/BW1.jpg""style=""height:400px;""></img>",0,html-button-response,239,1454432,0.0-16.0-13.0,57481,List1A,black,man,,TRUE,0,,,,,,,,,,
null,CORRECT,,html-keyboard-response,240,1455940,0.0-16.0-14.0-0.0,57481,List1A,black,man,,,,null,,,,,,,,,
5785.1,"<img src=""portrait/BM1.jpg""style=""height:400px;""></img>",4,html-button-response,241,1461728,0.0-16.0-16.0,57481,List1A,black,man,,TRUE,4,,,,,,,,,,
null,CORRECT,,html-keyboard-response,242,1463245,0.0-16.0-17.0-0.0,57481,List1A,black,man,,,,null,,,,,,,,,
1688.2,"<img src=""portrait/BM2.jpg""style=""height:400px;""></img>",5,html-button-response,243,1464936,0.0-16.0-19.0,57481,List1A,black,man,,TRUE,5,,,,,,,,,,
null,CORRECT,,html-keyboard-response,244,1466454,0.0-16.0-20.0-0.0,57481,List1A,black,man,,,,null,,,,,,,,,
2631.3,"<img src=""portrait/WW1.jpg""style=""height:400px;""></img>",1,html-button-response,245,1469088,0.0-16.0-22.0,57481,List1A,black,man,,TRUE,1,,,,,,,,,,
null,CORRECT,,html-keyboard-response,246,1470610,0.0-16.0-23.0-0.0,57481,List1A,black,man,,,,null,,,,,,,,,
1611.1,<p>You got 7 out of 8 right first time. Press Continue.</p>,0,html-button-response,247,1472224,0.0-16.0-25.0,57481,List1A,black,man,,,,,,,,,,,,,
1605,"As you did not score 100%, the memory game will repeat. Press Continue.",0,html-button-response,248,1474832,0.0-16.0-26.0-0.0,57481,List1A,black,man,,,,,,,,,,,,,
2515.9,"<img src='img/portrait_matrix_list1.jpg' style='width:900px;height:500px;''></img><p>If you have memorised all the portraits and names and are ready to start, press Continue.</p><p><strong>Please note: Your memory of these faces will be tested 4 times during this experiment.</strong></p>",0,html-button-response,249,1478360,0.0-16.1-0.1,57481,List1A,black,man,,,,,,,,,,,,,
2269.8,"<img src=""portrait/WM1.jpg""style=""height:400px;""></img>",6,html-button-response,250,1481640,0.0-16.1-1.1,57481,List1A,black,man,,TRUE,6,,,,,,,,,,
null,CORRECT,,html-keyboard-response,251,1483159,0.0-16.1-2.1-0.1,57481,List1A,black,man,,,,null,,,,,,,,,
2237.9,"<img src=""portrait/BW2.jpg""style=""height:400px;""></img>",2,html-button-response,252,1485400,0.0-16.1-4.1,57481,List1A,black,man,,TRUE,2,,,,,,,,,,
null,CORRECT,,html-keyboard-response,253,1486921,0.0-16.1-5.1-0.1,57481,List1A,black,man,,,,null,,,,,,,,,
1885.3,"<img src=""portrait/WW2.jpg""style=""height:400px;""></img>",1,html-button-response,254,1488809,0.0-16.1-7.1,57481,List1A,black,man,,TRUE,3,,,,,,,,,,
5210.2,"<img src=""portrait/WW2.jpg""style=""height:400px;""></img>",3,html-button-response,255,1495025,0.0-16.1-9.1-0.1,57481,List1A,black,man,,FALSE,3,,,,,,,,,,
null,CORRECT,,html-keyboard-response,256,1496540,0.0-16.1-9.1-1.1-0.1,57481,List1A,black,man,,,,null,,,,,,,,,
2442.5,"<img src=""portrait/WM2.jpg""style=""height:400px;""></img>",7,html-button-response,257,1498985,0.0-16.1-10.1,57481,List1A,black,man,,TRUE,7,,,,,,,,,,
null,CORRECT,,html-keyboard-response,258,1500498,0.0-16.1-11.1-0.1,57481,List1A,black,man,,,,null,,,,,,,,,
2435.7,"<img src=""portrait/BW1.jpg""style=""height:400px;""></img>",0,html-button-response,259,1502937,0.0-16.1-13.1,57481,List1A,black,man,,TRUE,0,,,,,,,,,,
null,CORRECT,,html-keyboard-response,260,1504450,0.0-16.1-14.1-0.1,57481,List1A,black,man,,,,null,,,,,,,,,
4637.3,"<img src=""portrait/BM1.jpg""style=""height:400px;""></img>",4,html-button-response,261,1509089,0.0-16.1-16.1,57481,List1A,black,man,,TRUE,4,,,,,,,,,,
null,CORRECT,,html-keyboard-response,262,1510611,0.0-16.1-17.1-0.1,57481,List1A,black,man,,,,null,,,,,,,,,
2132.1,"<img src=""portrait/BM2.jpg""style=""height:400px;""></img>",5,html-button-response,263,1512745,0.0-16.1-19.1,57481,List1A,black,man,,TRUE,5,,,,,,,,,,
null,CORRECT,,html-keyboard-response,264,1514267,0.0-16.1-20.1-0.1,57481,List1A,black,man,,,,null,,,,,,,,,
3083.4,"<img src=""portrait/WW1.jpg""style=""height:400px;""></img>",1,html-button-response,265,1517353,0.0-16.1-22.1,57481,List1A,black,man,,TRUE,1,,,,,,,,,,
null,CORRECT,,html-keyboard-response,266,1518855,0.0-16.1-23.1-0.1,57481,List1A,black,man,,,,null,,,,,,,,,
1079,<p>You got 7 out of 8 right first time. Press Continue.</p>,0,html-button-response,267,1519937,0.0-16.1-25.1,57481,List1A,black,man,,,,,,,,,,,,,
1273,"As you did not score 100%, the memory game will repeat. Press Continue.",0,html-button-response,268,1522225,0.0-16.1-26.1-0.1,57481,List1A,black,man,,,,,,,,,,,,,
1171.2,"<img src='img/portrait_matrix_list1.jpg' style='width:900px;height:500px;''></img><p>If you have memorised all the portraits and names and are ready to start, press Continue.</p><p><strong>Please note: Your memory of these faces will be tested 4 times during this experiment.</strong></p>",0,html-button-response,269,1524409,0.0-16.2-0.2,57481,List1A,black,man,,,,,,,,,,,,,
3501.5,"<img src=""portrait/WM1.jpg""style=""height:400px;""></img>",6,html-button-response,270,1528913,0.0-16.2-1.2,57481,List1A,black,man,,TRUE,6,,,,,,,,,,
null,CORRECT,,html-keyboard-response,271,1530433,0.0-16.2-2.2-0.2,57481,List1A,black,man,,,,null,,,,,,,,,
2053.6,"<img src=""portrait/BW2.jpg""style=""height:400px;""></img>",2,html-button-response,272,1532489,0.0-16.2-4.2,57481,List1A,black,man,,TRUE,2,,,,,,,,,,
null,CORRECT,,html-keyboard-response,273,1534003,0.0-16.2-5.2-0.2,57481,List1A,black,man,,,,null,,,,,,,,,
1915.7,"<img src=""portrait/WW2.jpg""style=""height:400px;""></img>",3,html-button-response,274,1535921,0.0-16.2-7.2,57481,List1A,black,man,,TRUE,3,,,,,,,,,,
null,CORRECT,,html-keyboard-response,275,1537442,0.0-16.2-8.2-0.2,57481,List1A,black,man,,,,null,,,,,,,,,
4059.7,"<img src=""portrait/WM2.jpg""style=""height:400px;""></img>",7,html-button-response,276,1541505,0.0-16.2-10.2,57481,List1A,black,man,,TRUE,7,,,,,,,,,,
null,CORRECT,,html-keyboard-response,277,1543016,0.0-16.2-11.2-0.2,57481,List1A,black,man,,,,null,,,,,,,,,
3349.1,"<img src=""portrait/BW1.jpg""style=""height:400px;""></img>",0,html-button-response,278,1546369,0.0-16.2-13.2,57481,List1A,black,man,,TRUE,0,,,,,,,,,,
null,CORRECT,,html-keyboard-response,279,1547882,0.0-16.2-14.2-0.2,57481,List1A,black,man,,,,null,,,,,,,,,
1870.9,"<img src=""portrait/BM1.jpg""style=""height:400px;""></img>",4,html-button-response,280,1549755,0.0-16.2-16.2,57481,List1A,black,man,,TRUE,4,,,,,,,,,,
null,CORRECT,,html-keyboard-response,281,1551277,0.0-16.2-17.2-0.2,57481,List1A,black,man,,,,null,,,,,,,,,
1547.8,"<img src=""portrait/BM2.jpg""style=""height:400px;""></img>",5,html-button-response,282,1552827,0.0-16.2-19.2,57481,List1A,black,man,,TRUE,5,,,,,,,,,,
null,CORRECT,,html-keyboard-response,283,1554351,0.0-16.2-20.2-0.2,57481,List1A,black,man,,,,null,,,,,,,,,
3041.5,"<img src=""portrait/WW1.jpg""style=""height:400px;""></img>",1,html-button-response,284,1557395,0.0-16.2-22.2,57481,List1A,black,man,,TRUE,1,,,,,,,,,,
null,CORRECT,,html-keyboard-response,285,1558906,0.0-16.2-23.2-0.2,57481,List1A,black,man,,,,null,,,,,,,,,
51917.7,<p>You got 8 out of 8 right first time. Press Continue.</p>,0,html-button-response,286,1610828,0.0-16.2-25.2,57481,List1A,black,man,,,,,,,,,,,,,
null,"<div style=""font-size:60px;"">+</div>",,html-keyboard-response,287,1612336,0.0-17.0-0.0,57481,List1A,black,man,,,,null,,,,,,,,,
null,"<img src=""stim_listA/seduce6.gif""style=""height:400px;""></stim_listA>",,html-keyboard-response,288,1614345,0.0-17.0-1.0,57481,List1A,black,man,,,,null,,,,,,,,,
null,is being seduced by,,html-keyboard-response,289,1616361,0.0-17.0-2.0,57481,List1A,black,man,,,,null,,,,,,,,,
19613,,,survey-text,290,1635980,0.0-17.0-3.0,57481,List1A,black,man,,,,,"{""Q0"":""Luke is being looked at by mike""}","<img src=""stim_listA/seduce6.gif""style=""height:400px;""></stim_listA>",is being seduced by,,,,,,
null,"<div style=""font-size:60px;"">+</div>",,html-keyboard-response,291,1636483,0.0-17.0-0.1,57481,List1A,black,man,,,,null,,,,,,,,,
null,"<img src=""stim_listA/hug3.gif""style=""height:400px;""></stim_listA>",,html-keyboard-response,292,1638496,0.0-17.0-1.1,57481,List1A,black,man,,,,null,,,,,,,,,
null,is hugging,,html-keyboard-response,293,1640512,0.0-17.0-2.1,57481,List1A,black,man,,,,null,,,,,,,,,
12390.5,,,survey-text,294,1652908,0.0-17.0-3.1,57481,List1A,black,man,,,,,"{""Q0"":""Luke is hugging Ruth""}","<img src=""stim_listA/hug3.gif""style=""height:400px;""></stim_listA>",is hugging,,,,,,
null,"<div style=""font-size:60px;"">+</div>",,html-keyboard-response,295,1653418,0.0-17.0-0.2,57481,List1A,black,man,,,,null,,,,,,,,,
null,"<img src=""stim_listA/oppose7.gif""style=""height:400px;""></stim_listA>",,html-keyboard-response,296,1655428,0.0-17.0-1.2,57481,List1A,black,man,,,,null,,,,,,,,,
null,is opposing,,html-keyboard-response,297,1657432,0.0-17.0-2.2,57481,List1A,black,man,,,,null,,,,,,,,,
13341.7,,,survey-text,298,1670780,0.0-17.0-3.2,57481,List1A,black,man,,,,,"{""Q0"":""Kate is being opposed by Jane""}","<img src=""stim_listA/oppose7.gif""style=""height:400px;""></stim_listA>",is opposing,,,,,,
null,"<div style=""font-size:60px;"">+</div>",,html-keyboard-response,299,1671289,0.0-17.0-0.3,57481,List1A,black,man,,,,null,,,,,,,,,
null,"<img src=""stim_listA/look6.gif""style=""height:400px;""></stim_listA>",,html-keyboard-response,300,1673298,0.0-17.0-1.3,57481,List1A,black,man,,,,null,,,,,,,,,
null,is being looked at by,,html-keyboard-response,301,1675305,0.0-17.0-2.3,57481,List1A,black,man,,,,null,,,,,,,,,
8229.9,,,survey-text,302,1683540,0.0-17.0-3.3,57481,List1A,black,man,,,,,"{""Q0"":""Dave is being looked at by Mike""}","<img src=""stim_listA/look6.gif""style=""height:400px;""></stim_listA>",is being looked at by,,,,,,
null,"<div style=""font-size:60px;"">+</div>",,html-keyboard-response,303,1684055,0.0-17.0-0.4,57481,List1A,black,man,,,,null,,,,,,,,,
null,"<img src=""stim_listA/kiss5.gif""style=""height:400px;""></stim_listA>",,html-keyboard-response,304,1686057,0.0-17.0-1.4,57481,List1A,black,man,,,,null,,,,,,,,,
null,is kissing,,html-keyboard-response,305,1688073,0.0-17.0-2.4,57481,List1A,black,man,,,,null,,,,,,,,,
9757.1,,,survey-text,306,1697836,0.0-17.0-3.4,57481,List1A,black,man,,,,,"{""Q0"":""Fred is kissing Luke""}","<img src=""stim_listA/kiss5.gif""style=""height:400px;""></stim_listA>",is kissing,,,,,,
null,"<div style=""font-size:60px;"">+</div>",,html-keyboard-response,307,1698342,0.0-17.0-0.5,57481,List1A,black,man,,,,null,,,,,,,,,
null,"<img src=""stim_listA/challenge6.gif""style=""height:400px;""></stim_listA>",,html-keyboard-response,308,1700359,0.0-17.0-1.5,57481,List1A,black,man,,,,null,,,,,,,,,
null,is being challenged by,,html-keyboard-response,309,1702361,0.0-17.0-2.5,57481,List1A,black,man,,,,null,,,,,,,,,
13077.8,,,survey-text,310,1715444,0.0-17.0-3.5,57481,List1A,black,man,,,,,"{""Q0"":""Dave is being challenged by Fred""}","<img src=""stim_listA/challenge6.gif""style=""height:400px;""></stim_listA>",is being challenged by,,,,,,
null,"<div style=""font-size:60px;"">+</div>",,html-keyboard-response,311,1715955,0.0-17.0-0.6,57481,List1A,black,man,,,,null,,,,,,,,,
null,"<img src=""stim_listA/touch3.gif""style=""height:400px;""></stim_listA>",,html-keyboard-response,312,1717960,0.0-17.0-1.6,57481,List1A,black,man,,,,null,,,,,,,,,
null,is touching,,html-keyboard-response,313,1719962,0.0-17.0-2.6,57481,List1A,black,man,,,,null,,,,,,,,,
7196.4,,,survey-text,314,1727164,0.0-17.0-3.6,57481,List1A,black,man,,,,,"{""Q0"":""Dave is touching Jane""}","<img src=""stim_listA/touch3.gif""style=""height:400px;""></stim_listA>",is touching,,,,,,
null,"<div style=""font-size:60px;"">+</div>",,html-keyboard-response,315,1727678,0.0-17.0-0.7,57481,List1A,black,man,,,,null,,,,,,,,,
null,"<img src=""stim_listA/hug1.gif""style=""height:400px;""></stim_listA>",,html-keyboard-response,316,1729697,0.0-17.0-1.7,57481,List1A,black,man,,,,null,,,,,,,,,
null,is hugging,,html-keyboard-response,317,1731712,0.0-17.0-2.7,57481,List1A,black,man,,,,null,,,,,,,,,
12256.9,,,survey-text,318,1743975,0.0-17.0-3.7,57481,List1A,black,man,,,,,"{""Q0"":""Beth is hugging Fred""}","<img src=""stim_listA/hug1.gif""style=""height:400px;""></stim_listA>",is hugging,,,,,,
null,"<div style=""font-size:60px;"">+</div>",,html-keyboard-response,319,1744481,0.0-17.0-0.8,57481,List1A,black,man,,,,null,,,,,,,,,
null,"<img src=""stim_listA/copy4.gif""style=""height:400px;""></stim_listA>",,html-keyboard-response,320,1746491,0.0-17.0-1.8,57481,List1A,black,man,,,,null,,,,,,,,,
null,is being copied by,,html-keyboard-response,321,1748506,0.0-17.0-2.8,57481,List1A,black,man,,,,null,,,,,,,,,
7406.6,,,survey-text,322,1755918,0.0-17.0-3.8,57481,List1A,black,man,,,,,"{""Q0"":""Jane is being copied by Luke""}","<img src=""stim_listA/copy4.gif""style=""height:400px;""></stim_listA>",is being copied by,,,,,,
null,"<div style=""font-size:60px;"">+</div>",,html-keyboard-response,323,1756429,0.0-17.0-0.9,57481,List1A,black,man,,,,null,,,,,,,,,
null,"<img src=""stim_listA/touch8.gif""style=""height:400px;""></stim_listA>",,html-keyboard-response,324,1758435,0.0-17.0-1.9,57481,List1A,black,man,,,,null,,,,,,,,,
null,is being touched by,,html-keyboard-response,325,1760448,0.0-17.0-2.9,57481,List1A,black,man,,,,null,,,,,,,,,
15673.1,,,survey-text,326,1776126,0.0-17.0-3.9,57481,List1A,black,man,,,,,"{""Q0"":""Ruth is being touched by beth""}","<img src=""stim_listA/touch8.gif""style=""height:400px;""></stim_listA>",is being touched by,,,,,,
null,"<div style=""font-size:60px;"">+</div>",,html-keyboard-response,327,1776640,0.0-17.0-0.10,57481,List1A,black,man,,,,null,,,,,,,,,
null,"<img src=""stim_listA/touch5.gif""style=""height:400px;""></stim_listA>",,html-keyboard-response,328,1778645,0.0-17.0-1.10,57481,List1A,black,man,,,,null,,,,,,,,,
null,is touching,,html-keyboard-response,329,1780659,0.0-17.0-2.10,57481,List1A,black,man,,,,null,,,,,,,,,
12189.4,,,survey-text,330,1792855,0.0-17.0-3.10,57481,List1A,black,man,,,,,"{""Q0"":""Dave is touching Mike""}","<img src=""stim_listA/touch5.gif""style=""height:400px;""></stim_listA>",is touching,,,,,,
null,"<div style=""font-size:60px;"">+</div>",,html-keyboard-response,331,1793362,0.0-17.0-0.11,57481,List1A,black,man,,,,null,,,,,,,,,
null,"<img src=""stim_listA/seduce7.gif""style=""height:400px;""></stim_listA>",,html-keyboard-response,332,1795376,0.0-17.0-1.11,57481,List1A,black,man,,,,null,,,,,,,,,
null,is seducing,,html-keyboard-response,333,1797382,0.0-17.0-2.11,57481,List1A,black,man,,,,null,,,,,,,,,
12155,,,survey-text,334,1809543,0.0-17.0-3.11,57481,List1A,black,man,,,,,"{""Q0"":""Beth is seducing Jane""}","<img src=""stim_listA/seduce7.gif""style=""height:400px;""></stim_listA>",is seducing,,,,,,
null,"<div style=""font-size:60px;"">+</div>",,html-keyboard-response,335,1810046,0.0-17.0-0.12,57481,List1A,black,man,,,,null,,,,,,,,,
null,"<img src=""stim_listA/look7.gif""style=""height:400px;""></stim_listA>",,html-keyboard-response,336,1812061,0.0-17.0-1.12,57481,List1A,black,man,,,,null,,,,,,,,,
null,is looking at,,html-keyboard-response,337,1814070,0.0-17.0-2.12,57481,List1A,black,man,,,,null,,,,,,,,,
8499.4,,,survey-text,338,1822575,0.0-17.0-3.12,57481,List1A,black,man,,,,,"{""Q0"":""Beth is looking at Ruth""}","<img src=""stim_listA/look7.gif""style=""height:400px;""></stim_listA>",is looking at,,,,,,
null,"<div style=""font-size:60px;"">+</div>",,html-keyboard-response,339,1823091,0.0-17.0-0.13,57481,List1A,black,man,,,,null,,,,,,,,,
null,"<img src=""stim_listA/greet2.gif""style=""height:400px;""></stim_listA>",,html-keyboard-response,340,1825096,0.0-17.0-1.13,57481,List1A,black,man,,,,null,,,,,,,,,
null,is being greeted by,,html-keyboard-response,341,1827110,0.0-17.0-2.13,57481,List1A,black,man,,,,null,,,,,,,,,
14667.3,,,survey-text,342,1841783,0.0-17.0-3.13,57481,List1A,black,man,,,,,"{""Q0"":""Fred is being greeted by Kate""}","<img src=""stim_listA/greet2.gif""style=""height:400px;""></stim_listA>",is being greeted by,,,,,,
null,"<div style=""font-size:60px;"">+</div>",,html-keyboard-response,343,1842290,0.0-17.0-0.14,57481,List1A,black,man,,,,null,,,,,,,,,
null,"<img src=""stim_listA/challenge3.gif""style=""height:400px;""></stim_listA>",,html-keyboard-response,344,1844306,0.0-17.0-1.14,57481,List1A,black,man,,,,null,,,,,,,,,
null,is challenging,,html-keyboard-response,345,1846310,0.0-17.0-2.14,57481,List1A,black,man,,,,null,,,,,,,,,
11259.2,,,survey-text,346,1857577,0.0-17.0-3.14,57481,List1A,black,man,,,,,"{""Q0"":""Ruth is challenging Dave""}","<img src=""stim_listA/challenge3.gif""style=""height:400px;""></stim_listA>",is challenging,,,,,,
null,"<div style=""font-size:60px;"">+</div>",,html-keyboard-response,347,1858085,0.0-17.0-0.15,57481,List1A,black,man,,,,null,,,,,,,,,
null,"<img src=""stim_listA/oppose4.gif""style=""height:400px;""></stim_listA>",,html-keyboard-response,348,1860091,0.0-17.0-1.15,57481,List1A,black,man,,,,null,,,,,,,,,
null,is being opposed by,,html-keyboard-response,349,1862099,0.0-17.0-2.15,57481,List1A,black,man,,,,null,,,,,,,,,
8911.2,,,survey-text,350,1871017,0.0-17.0-3.15,57481,List1A,black,man,,,,,"{""Q0"":""Ruth is being opposed by Luke""}","<img src=""stim_listA/oppose4.gif""style=""height:400px;""></stim_listA>",is being opposed by,,,,,,
null,"<div style=""font-size:60px;"">+</div>",,html-keyboard-response,351,1871519,0.0-17.0-0.16,57481,List1A,black,man,,,,null,,,,,,,,,
null,"<img src=""stim_listA/greet4.gif""style=""height:400px;""></stim_listA>",,html-keyboard-response,352,1873529,0.0-17.0-1.16,57481,List1A,black,man,,,,null,,,,,,,,,
null,is being greeted by,,html-keyboard-response,353,1875544,0.0-17.0-2.16,57481,List1A,black,man,,,,null,,,,,,,,,
9434.3,,,survey-text,354,1884985,0.0-17.0-3.16,57481,List1A,black,man,,,,,"{""Q0"":""Jane is being greeted by luke""}","<img src=""stim_listA/greet4.gif""style=""height:400px;""></stim_listA>",is being greeted by,,,,,,
null,"<div style=""font-size:60px;"">+</div>",,html-keyboard-response,355,1885493,0.0-17.0-0.17,57481,List1A,black,man,,,,null,,,,,,,,,
null,"<img src=""stim_listA/oppose2.gif""style=""height:400px;""></stim_listA>",,html-keyboard-response,356,1887501,0.0-17.0-1.17,57481,List1A,black,man,,,,null,,,,,,,,,
null,is being opposed by,,html-keyboard-response,357,1889503,0.0-17.0-2.17,57481,List1A,black,man,,,,null,,,,,,,,,
13274.9,,,survey-text,358,1902784,0.0-17.0-3.17,57481,List1A,black,man,,,,,"{""Q0"":""Fred is being opposed by Beth""}","<img src=""stim_listA/oppose2.gif""style=""height:400px;""></stim_listA>",is being opposed by,,,,,,
null,"<div style=""font-size:60px;"">+</div>",,html-keyboard-response,359,1903287,0.0-17.0-0.18,57481,List1A,black,man,,,,null,,,,,,,,,
null,"<img src=""stim_listA/hug4.gif""style=""height:400px;""></stim_listA>",,html-keyboard-response,360,1905302,0.0-17.0-1.18,57481,List1A,black,man,,,,null,,,,,,,,,
null,is being hugged by,,html-keyboard-response,361,1907316,0.0-17.0-2.18,57481,List1A,black,man,,,,null,,,,,,,,,
8863.2,,,survey-text,362,1916186,0.0-17.0-3.18,57481,List1A,black,man,,,,,"{""Q0"":""Jane is being hugged by dave""}","<img src=""stim_listA/hug4.gif""style=""height:400px;""></stim_listA>",is being hugged by,,,,,,
null,"<div style=""font-size:60px;"">+</div>",,html-keyboard-response,363,1916693,0.0-17.0-0.19,57481,List1A,black,man,,,,null,,,,,,,,,
null,"<img src=""stim_listA/shout1.gif""style=""height:400px;""></stim_listA>",,html-keyboard-response,364,1918698,0.0-17.0-1.19,57481,List1A,black,man,,,,null,,,,,,,,,
null,is shouting at,,html-keyboard-response,365,1920714,0.0-17.0-2.19,57481,List1A,black,man,,,,null,,,,,,,,,
17562.9,,,survey-text,366,1938282,0.0-17.0-3.19,57481,List1A,black,man,,,,,"{""Q0"":""Beth is shouting at Fred""}","<img src=""stim_listA/shout1.gif""style=""height:400px;""></stim_listA>",is shouting at,,,,,,
5358.7,"<img src='img/portrait_matrix_list1.jpg' style='width:900px;height:500px;''></img><p>If you have memorised all the portraits and names and are ready to start, press Continue.</p><p><strong>Please note: Your memory of these faces will be tested 4 times during this experiment.</strong></p>",0,html-button-response,367,1943642,0.0-18.0-0.0,57481,List1A,black,man,,,,,,,,,,,,,
3307,"<img src=""portrait/BW2.jpg""style=""height:400px;""></img>",2,html-button-response,368,1947962,0.0-18.0-1.0,57481,List1A,black,man,,TRUE,2,,,,,,,,,,
null,CORRECT,,html-keyboard-response,369,1949476,0.0-18.0-2.0-0.0,57481,List1A,black,man,,,,null,,,,,,,,,
1803.9,"<img src=""portrait/BW1.jpg""style=""height:400px;""></img>",0,html-button-response,370,1951282,0.0-18.0-4.0,57481,List1A,black,man,,TRUE,0,,,,,,,,,,
null,CORRECT,,html-keyboard-response,371,1952801,0.0-18.0-5.0-0.0,57481,List1A,black,man,,,,null,,,,,,,,,
2207,"<img src=""portrait/BM1.jpg""style=""height:400px;""></img>",4,html-button-response,372,1955010,0.0-18.0-7.0,57481,List1A,black,man,,TRUE,4,,,,,,,,,,
null,CORRECT,,html-keyboard-response,373,1956527,0.0-18.0-8.0-0.0,57481,List1A,black,man,,,,null,,,,,,,,,
2857.3,"<img src=""portrait/WW2.jpg""style=""height:400px;""></img>",3,html-button-response,374,1959386,0.0-18.0-10.0,57481,List1A,black,man,,TRUE,3,,,,,,,,,,
null,CORRECT,,html-keyboard-response,375,1960890,0.0-18.0-11.0-0.0,57481,List1A,black,man,,,,null,,,,,,,,,
1597.2,"<img src=""portrait/WW1.jpg""style=""height:400px;""></img>",1,html-button-response,376,1962490,0.0-18.0-13.0,57481,List1A,black,man,,TRUE,1,,,,,,,,,,
null,CORRECT,,html-keyboard-response,377,1964013,0.0-18.0-14.0-0.0,57481,List1A,black,man,,,,null,,,,,,,,,
5474.8,"<img src=""portrait/WM1.jpg""style=""height:400px;""></img>",6,html-button-response,378,1969490,0.0-18.0-16.0,57481,List1A,black,man,,TRUE,6,,,,,,,,,,
null,CORRECT,,html-keyboard-response,379,1971024,0.0-18.0-17.0-0.0,57481,List1A,black,man,,,,null,,,,,,,,,
3501.6,"<img src=""portrait/WM2.jpg""style=""height:400px;""></img>",4,html-button-response,380,1974531,0.0-18.0-19.0,57481,List1A,black,man,,TRUE,7,,,,,,,,,,
27952.6,"<img src=""portrait/WM2.jpg""style=""height:400px;""></img>",7,html-button-response,381,2003491,0.0-18.0-21.0-0.0,57481,List1A,black,man,,FALSE,7,,,,,,,,,,
null,CORRECT,,html-keyboard-response,382,2005001,0.0-18.0-21.0-1.0-0.0,57481,List1A,black,man,,,,null,,,,,,,,,
2423.4,"<img src=""portrait/BM2.jpg""style=""height:400px;""></img>",5,html-button-response,383,2007427,0.0-18.0-22.0,57481,List1A,black,man,,TRUE,5,,,,,,,,,,
null,CORRECT,,html-keyboard-response,384,2008950,0.0-18.0-23.0-0.0,57481,List1A,black,man,,,,null,,,,,,,,,
3602.1,<p>You got 7 out of 8 right first time. Press Continue.</p>,0,html-button-response,385,2012555,0.0-18.0-25.0,57481,List1A,black,man,,,,,,,,,,,,,
1274.4,"As you did not score 100%, the memory game will repeat. Press Continue.",0,html-button-response,386,2014843,0.0-18.0-26.0-0.0,57481,List1A,black,man,,,,,,,,,,,,,
1524.3,"<img src='img/portrait_matrix_list1.jpg' style='width:900px;height:500px;''></img><p>If you have memorised all the portraits and names and are ready to start, press Continue.</p><p><strong>Please note: Your memory of these faces will be tested 4 times during this experiment.</strong></p>",0,html-button-response,387,2017371,0.0-18.1-0.1,57481,List1A,black,man,,,,,,,,,,,,,
1420.3,"<img src=""portrait/BW2.jpg""style=""height:400px;""></img>",2,html-button-response,388,2019795,0.0-18.1-1.1,57481,List1A,black,man,,TRUE,2,,,,,,,,,,
null,CORRECT,,html-keyboard-response,389,2021308,0.0-18.1-2.1-0.1,57481,List1A,black,man,,,,null,,,,,,,,,
1731.9,"<img src=""portrait/BW1.jpg""style=""height:400px;""></img>",0,html-button-response,390,2023042,0.0-18.1-4.1,57481,List1A,black,man,,TRUE,0,,,,,,,,,,
null,CORRECT,,html-keyboard-response,391,2024547,0.0-18.1-5.1-0.1,57481,List1A,black,man,,,,null,,,,,,,,,
1597,"<img src=""portrait/BM1.jpg""style=""height:400px;""></img>",4,html-button-response,392,2026147,0.0-18.1-7.1,57481,List1A,black,man,,TRUE,4,,,,,,,,,,
null,CORRECT,,html-keyboard-response,393,2027664,0.0-18.1-8.1-0.1,57481,List1A,black,man,,,,null,,,,,,,,,
1815.9,"<img src=""portrait/WW2.jpg""style=""height:400px;""></img>",3,html-button-response,394,2029483,0.0-18.1-10.1,57481,List1A,black,man,,TRUE,3,,,,,,,,,,
null,CORRECT,,html-keyboard-response,395,2030995,0.0-18.1-11.1-0.1,57481,List1A,black,man,,,,null,,,,,,,,,
1140.5,"<img src=""portrait/WW1.jpg""style=""height:400px;""></img>",1,html-button-response,396,2032139,0.0-18.1-13.1,57481,List1A,black,man,,TRUE,1,,,,,,,,,,
null,CORRECT,,html-keyboard-response,397,2033643,0.0-18.1-14.1-0.1,57481,List1A,black,man,,,,null,,,,,,,,,
2175.4,"<img src=""portrait/WM1.jpg""style=""height:400px;""></img>",6,html-button-response,398,2035820,0.0-18.1-16.1,57481,List1A,black,man,,TRUE,6,,,,,,,,,,
null,CORRECT,,html-keyboard-response,399,2037349,0.0-18.1-17.1-0.1,57481,List1A,black,man,,,,null,,,,,,,,,
4605.6,"<img src=""portrait/WM2.jpg""style=""height:400px;""></img>",7,html-button-response,400,2041956,0.0-18.1-19.1,57481,List1A,black,man,,TRUE,7,,,,,,,,,,
null,CORRECT,,html-keyboard-response,401,2043481,0.0-18.1-20.1-0.1,57481,List1A,black,man,,,,null,,,,,,,,,
1946,"<img src=""portrait/BM2.jpg""style=""height:400px;""></img>",5,html-button-response,402,2045428,0.0-18.1-22.1,57481,List1A,black,man,,TRUE,5,,,,,,,,,,
null,CORRECT,,html-keyboard-response,403,2046946,0.0-18.1-23.1-0.1,57481,List1A,black,man,,,,null,,,,,,,,,
993.2,<p>You got 8 out of 8 right first time. Press Continue.</p>,0,html-button-response,404,2047940,0.0-18.1-25.1,57481,List1A,black,man,,,,,,,,,,,,,
null,"<div style=""font-size:60px;"">+</div>",,html-keyboard-response,405,2049464,0.0-19.0-0.0,57481,List1A,black,man,,,,null,,,,,,,,,
null,"<img src=""stim_listA/challenge4.gif""style=""height:400px;""></stim_listA>",,html-keyboard-response,406,2051467,0.0-19.0-1.0,57481,List1A,black,man,,,,null,,,,,,,,,
null,is being challenged by,,html-keyboard-response,407,2053473,0.0-19.0-2.0,57481,List1A,black,man,,,,null,,,,,,,,,
14094.1,,,survey-text,408,2067572,0.0-19.0-3.0,57481,List1A,black,man,,,,,"{""Q0"":""Jane is being challenged by Luke""}","<img src=""stim_listA/challenge4.gif""style=""height:400px;""></stim_listA>",is being challenged by,,,,,,
null,"<div style=""font-size:60px;"">+</div>",,html-keyboard-response,409,2068076,0.0-19.0-0.1,57481,List1A,black,man,,,,null,,,,,,,,,
null,"<img src=""stim_listA/shout2.gif""style=""height:400px;""></stim_listA>",,html-keyboard-response,410,2070085,0.0-19.0-1.1,57481,List1A,black,man,,,,null,,,,,,,,,
null,is being shouted at by,,html-keyboard-response,411,2072088,0.0-19.0-2.1,57481,List1A,black,man,,,,null,,,,,,,,,
16942,,,survey-text,412,2089036,0.0-19.0-3.1,57481,List1A,black,man,,,,,"{""Q0"":""Kate is being shouted at by Mike""}","<img src=""stim_listA/shout2.gif""style=""height:400px;""></stim_listA>",is being shouted at by,,,,,,
null,"<div style=""font-size:60px;"">+</div>",,html-keyboard-response,413,2089546,0.0-19.0-0.2,57481,List1A,black,man,,,,null,,,,,,,,,
null,"<img src=""stim_listA/greet3.gif""style=""height:400px;""></stim_listA>",,html-keyboard-response,414,2091562,0.0-19.0-1.2,57481,List1A,black,man,,,,null,,,,,,,,,
null,is greeting,,html-keyboard-response,415,2093578,0.0-19.0-2.2,57481,List1A,black,man,,,,null,,,,,,,,,
6662,,,survey-text,416,2100246,0.0-19.0-3.2,57481,List1A,black,man,,,,,"{""Q0"":""Dave is greeting Ruth""}","<img src=""stim_listA/greet3.gif""style=""height:400px;""></stim_listA>",is greeting,,,,,,
null,"<div style=""font-size:60px;"">+</div>",,html-keyboard-response,417,2100762,0.0-19.0-0.3,57481,List1A,black,man,,,,null,,,,,,,,,
null,"<img src=""stim_listA/touch4.gif""style=""height:400px;""></stim_listA>",,html-keyboard-response,418,2102770,0.0-19.0-1.3,57481,List1A,black,man,,,,null,,,,,,,,,
null,is being touched by,,html-keyboard-response,419,2104772,0.0-19.0-2.3,57481,List1A,black,man,,,,null,,,,,,,,,
9603.6,,,survey-text,420,2114382,0.0-19.0-3.3,57481,List1A,black,man,,,,,"{""Q0"":""Luke is being touched by Ruth""}","<img src=""stim_listA/touch4.gif""style=""height:400px;""></stim_listA>",is being touched by,,,,,,
null,"<div style=""font-size:60px;"">+</div>",,html-keyboard-response,421,2114886,0.0-19.0-0.4,57481,List1A,black,man,,,,null,,,,,,,,,
null,"<img src=""stim_listA/hug8.gif""style=""height:400px;""></stim_listA>",,html-keyboard-response,422,2116903,0.0-19.0-1.4,57481,List1A,black,man,,,,null,,,,,,,,,
null,is being hugged by,,html-keyboard-response,423,2118912,0.0-19.0-2.4,57481,List1A,black,man,,,,null,,,,,,,,,
7880.2,,,survey-text,424,2126798,0.0-19.0-3.4,57481,List1A,black,man,,,,,"{""Q0"":""Jane is being hugged by Kate""}","<img src=""stim_listA/hug8.gif""style=""height:400px;""></stim_listA>",is being hugged by,,,,,,
null,"<div style=""font-size:60px;"">+</div>",,html-keyboard-response,425,2127302,0.0-19.0-0.5,57481,List1A,black,man,,,,null,,,,,,,,,
null,"<img src=""stim_listA/seduce3.gif""style=""height:400px;""></stim_listA>",,html-keyboard-response,426,2129305,0.0-19.0-1.5,57481,List1A,black,man,,,,null,,,,,,,,,
null,is seducing,,html-keyboard-response,427,2131323,0.0-19.0-2.5,57481,List1A,black,man,,,,null,,,,,,,,,
8196.9,,,survey-text,428,2139525,0.0-19.0-3.5,57481,List1A,black,man,,,,,"{""Q0"":""Jane is seducing Luke""}","<img src=""stim_listA/seduce3.gif""style=""height:400px;""></stim_listA>",is seducing,,,,,,
null,"<div style=""font-size:60px;"">+</div>",,html-keyboard-response,429,2140035,0.0-19.0-0.6,57481,List1A,black,man,,,,null,,,,,,,,,
null,"<img src=""stim_listA/shout6.gif""style=""height:400px;""></stim_listA>",,html-keyboard-response,430,2142048,0.0-19.0-1.6,57481,List1A,black,man,,,,null,,,,,,,,,
null,is being shouted at by,,html-keyboard-response,431,2144056,0.0-19.0-2.6,57481,List1A,black,man,,,,null,,,,,,,,,
14335.2,,,survey-text,432,2158398,0.0-19.0-3.6,57481,List1A,black,man,,,,,"{""Q0"":""Dave is being shouted at by Mike""}","<img src=""stim_listA/shout6.gif""style=""height:400px;""></stim_listA>",is being shouted at by,,,,,,
null,"<div style=""font-size:60px;"">+</div>",,html-keyboard-response,433,2158903,0.0-19.0-0.7,57481,List1A,black,man,,,,null,,,,,,,,,
null,"<img src=""stim_listA/kiss1.gif""style=""height:400px;""></stim_listA>",,html-keyboard-response,434,2160918,0.0-19.0-1.7,57481,List1A,black,man,,,,null,,,,,,,,,
null,is kissing,,html-keyboard-response,435,2162926,0.0-19.0-2.7,57481,List1A,black,man,,,,null,,,,,,,,,
6729.2,,,survey-text,436,2169662,0.0-19.0-3.7,57481,List1A,black,man,,,,,"{""Q0"":""Fred is kissing Beth""}","<img src=""stim_listA/kiss1.gif""style=""height:400px;""></stim_listA>",is kissing,,,,,,
null,"<div style=""font-size:60px;"">+</div>",,html-keyboard-response,437,2170168,0.0-19.0-0.8,57481,List1A,black,man,,,,null,,,,,,,,,
null,"<img src=""stim_listA/touch1.gif""style=""height:400px;""></stim_listA>",,html-keyboard-response,438,2172186,0.0-19.0-1.8,57481,List1A,black,man,,,,null,,,,,,,,,
null,is touching,,html-keyboard-response,439,2174192,0.0-19.0-2.8,57481,List1A,black,man,,,,null,,,,,,,,,
11383.5,,,survey-text,440,2185582,0.0-19.0-3.8,57481,List1A,black,man,,,,,"{""Q0"":""Mike is touching Kate""}","<img src=""stim_listA/touch1.gif""style=""height:400px;""></stim_listA>",is touching,,,,,,
null,"<div style=""font-size:60px;"">+</div>",,html-keyboard-response,441,2186098,0.0-19.0-0.9,57481,List1A,black,man,,,,null,,,,,,,,,
null,"<img src=""stim_listA/kiss7.gif""style=""height:400px;""></stim_listA>",,html-keyboard-response,442,2188103,0.0-19.0-1.9,57481,List1A,black,man,,,,null,,,,,,,,,
null,is kissing,,html-keyboard-response,443,2190107,0.0-19.0-2.9,57481,List1A,black,man,,,,null,,,,,,,,,
6364.6,,,survey-text,444,2196478,0.0-19.0-3.9,57481,List1A,black,man,,,,,"{""Q0"":""Ruth is kissing beth""}","<img src=""stim_listA/kiss7.gif""style=""height:400px;""></stim_listA>",is kissing,,,,,,
null,"<div style=""font-size:60px;"">+</div>",,html-keyboard-response,445,2196986,0.0-19.0-0.10,57481,List1A,black,man,,,,null,,,,,,,,,
null,"<img src=""stim_listA/copy6.gif""style=""height:400px;""></stim_listA>",,html-keyboard-response,446,2198992,0.0-19.0-1.10,57481,List1A,black,man,,,,null,,,,,,,,,
null,is being copied by,,html-keyboard-response,447,2201008,0.0-19.0-2.10,57481,List1A,black,man,,,,null,,,,,,,,,
8176.2,,,survey-text,448,2209190,0.0-19.0-3.10,57481,List1A,black,man,,,,,"{""Q0"":""Dave is being copied by fred""}","<img src=""stim_listA/copy6.gif""style=""height:400px;""></stim_listA>",is being copied by,,,,,,
null,"<div style=""font-size:60px;"">+</div>",,html-keyboard-response,449,2209706,0.0-19.0-0.11,57481,List1A,black,man,,,,null,,,,,,,,,
null,"<img src=""stim_listA/look5.gif""style=""height:400px;""></stim_listA>",,html-keyboard-response,450,2211723,0.0-19.0-1.11,57481,List1A,black,man,,,,null,,,,,,,,,
null,is looking at,,html-keyboard-response,451,2213740,0.0-19.0-2.11,57481,List1A,black,man,,,,null,,,,,,,,,
6155.7,,,survey-text,452,2219903,0.0-19.0-3.11,57481,List1A,black,man,,,,,"{""Q0"":""Fred is looking at luke""}","<img src=""stim_listA/look5.gif""style=""height:400px;""></stim_listA>",is looking at,,,,,,
null,"<div style=""font-size:60px;"">+</div>",,html-keyboard-response,453,2220419,0.0-19.0-0.12,57481,List1A,black,man,,,,null,,,,,,,,,
null,"<img src=""stim_listA/seduce8.gif""style=""height:400px;""></stim_listA>",,html-keyboard-response,454,2222430,0.0-19.0-1.12,57481,List1A,black,man,,,,null,,,,,,,,,
null,is being seduced by,,html-keyboard-response,455,2224432,0.0-19.0-2.12,57481,List1A,black,man,,,,null,,,,,,,,,
6945.3,,,survey-text,456,2231383,0.0-19.0-3.12,57481,List1A,black,man,,,,,"{""Q0"":""Ruth is being seduced by Kate""}","<img src=""stim_listA/seduce8.gif""style=""height:400px;""></stim_listA>",is being seduced by,,,,,,
null,"<div style=""font-size:60px;"">+</div>",,html-keyboard-response,457,2231895,0.0-19.0-0.13,57481,List1A,black,man,,,,null,,,,,,,,,
null,"<img src=""stim_listA/hug7.gif""style=""height:400px;""></stim_listA>",,html-keyboard-response,458,2233904,0.0-19.0-1.13,57481,List1A,black,man,,,,null,,,,,,,,,
null,is hugging,,html-keyboard-response,459,2235909,0.0-19.0-2.13,57481,List1A,black,man,,,,null,,,,,,,,,
12523.7,,,survey-text,460,2248439,0.0-19.0-3.13,57481,List1A,black,man,,,,,"{""Q0"":""Ruth is hugging Beth""}","<img src=""stim_listA/hug7.gif""style=""height:400px;""></stim_listA>",is hugging,,,,,,
null,"<div style=""font-size:60px;"">+</div>",,html-keyboard-response,461,2248945,0.0-19.0-0.14,57481,List1A,black,man,,,,null,,,,,,,,,
null,"<img src=""stim_listA/challenge2.gif""style=""height:400px;""></stim_listA>",,html-keyboard-response,462,2250962,0.0-19.0-1.14,57481,List1A,black,man,,,,null,,,,,,,,,
null,is being challenged by,,html-keyboard-response,463,2252977,0.0-19.0-2.14,57481,List1A,black,man,,,,null,,,,,,,,,
19579.7,,,survey-text,464,2272567,0.0-19.0-3.14,57481,List1A,black,man,,,,,"{""Q0"":""Fred is being challenged by Kate""}","<img src=""stim_listA/challenge2.gif""style=""height:400px;""></stim_listA>",is being challenged by,,,,,,
null,"<div style=""font-size:60px;"">+</div>",,html-keyboard-response,465,2273082,0.0-19.0-0.15,57481,List1A,black,man,,,,null,,,,,,,,,
null,"<img src=""stim_listA/challenge8.gif""style=""height:400px;""></stim_listA>",,html-keyboard-response,466,2275086,0.0-19.0-1.15,57481,List1A,black,man,,,,null,,,,,,,,,
null,is being challenged by,,html-keyboard-response,467,2277092,0.0-19.0-2.15,57481,List1A,black,man,,,,null,,,,,,,,,
13557.7,,,survey-text,468,2290655,0.0-19.0-3.15,57481,List1A,black,man,,,,,"{""Q0"":""Beth is being challenged by Jane""}","<img src=""stim_listA/challenge8.gif""style=""height:400px;""></stim_listA>",is being challenged by,,,,,,
null,"<div style=""font-size:60px;"">+</div>",,html-keyboard-response,469,2291171,0.0-19.0-0.16,57481,List1A,black,man,,,,null,,,,,,,,,
null,"<img src=""stim_listA/copy8.gif""style=""height:400px;""></stim_listA>",,html-keyboard-response,470,2293176,0.0-19.0-1.16,57481,List1A,black,man,,,,null,,,,,,,,,
null,is being copied by,,html-keyboard-response,471,2295192,0.0-19.0-2.16,57481,List1A,black,man,,,,null,,,,,,,,,
9865.1,,,survey-text,472,2305064,0.0-19.0-3.16,57481,List1A,black,man,,,,,"{""Q0"":""Beth is being copied by Jane""}","<img src=""stim_listA/copy8.gif""style=""height:400px;""></stim_listA>",is being copied by,,,,,,
null,"<div style=""font-size:60px;"">+</div>",,html-keyboard-response,473,2305568,0.0-19.0-0.17,57481,List1A,black,man,,,,null,,,,,,,,,
null,"<img src=""stim_listA/copy2.gif""style=""height:400px;""></stim_listA>",,html-keyboard-response,474,2307578,0.0-19.0-1.17,57481,List1A,black,man,,,,null,,,,,,,,,
null,is being copied by,,html-keyboard-response,475,2309589,0.0-19.0-2.17,57481,List1A,black,man,,,,null,,,,,,,,,
10323.8,,,survey-text,476,2319919,0.0-19.0-3.17,57481,List1A,black,man,,,,,"{""Q0"":""Kate is being copied by Fred""}","<img src=""stim_listA/copy2.gif""style=""height:400px;""></stim_listA>",is being copied by,,,,,,
null,"<div style=""font-size:60px;"">+</div>",,html-keyboard-response,477,2320427,0.0-19.0-0.18,57481,List1A,black,man,,,,null,,,,,,,,,
null,"<img src=""stim_listA/kiss2.gif""style=""height:400px;""></stim_listA>",,html-keyboard-response,478,2322444,0.0-19.0-1.18,57481,List1A,black,man,,,,null,,,,,,,,,
null,is being kissed by,,html-keyboard-response,479,2324451,0.0-19.0-2.18,57481,List1A,black,man,,,,null,,,,,,,,,
12204.2,,,survey-text,480,2336672,0.0-19.0-3.18,57481,List1A,black,man,,,,,"{""Q0"":""Kate is being kissed by Mike""}","<img src=""stim_listA/kiss2.gif""style=""height:400px;""></stim_listA>",is being kissed by,,,,,,
null,"<div style=""font-size:60px;"">+</div>",,html-keyboard-response,481,2337180,0.0-19.0-0.19,57481,List1A,black,man,,,,null,,,,,,,,,
null,"<img src=""stim_listA/oppose3.gif""style=""height:400px;""></stim_listA>",,html-keyboard-response,482,2339194,0.0-19.0-1.19,57481,List1A,black,man,,,,null,,,,,,,,,
null,is opposing,,html-keyboard-response,483,2341203,0.0-19.0-2.19,57481,List1A,black,man,,,,null,,,,,,,,,
13486.6,,,survey-text,484,2354696,0.0-19.0-3.19,57481,List1A,black,man,,,,,"{""Q0"":""Jane is being opposed by Dave""}","<img src=""stim_listA/oppose3.gif""style=""height:400px;""></stim_listA>",is opposing,,,,,,
4302.7,<p>Thank you for completing that task.</p><p>The final part of this session is a questionnaire that will take about 4 minutes.</p><p>Press Continue.</p>,0,html-button-response,485,2359000,0.0-20.0,57481,List1A,black,man,,,,,,,,,,,,,
44111.4,,,survey-text,486,2404144,0.0-21.0,57481,List1A,black,man,,,,,"{""Q0"":""39"",""Q1"":""English"",""Q2"":""English"",""Q3"":""United States"",""Q4"":""American"",""Q5"":""Black"",""Q6"":""Male""}",,,demographics,,,,,
2142.1,<p>Have you lived in the USA for the last 5 years or more?</p>,0,html-button-response,487,2406288,0.0-22.0,57481,List1A,black,man,,,,,,,,fiveyears,,,,,
2805.8,<p>Move the slider to show the extent to which you agree with the following statements.</p>,0,html-button-response,488,2410097,0.0-23.0,57481,List1A,black,man,,,,,,,,,,,,,
6813,,,html-slider-response,489,2417920,0.0-24.0-0.0-0.0,57481,List1A,black,man,,,,,,,,survey_race,22,,,I enjoy being in large groups.,filler
5510.4,,,html-slider-response,490,2423432,0.0-24.0-0.0-0.1,57481,List1A,black,man,,,,,,,,survey_race,68,,,I feel committed to my race.,committed
4086.2,,,html-slider-response,491,2427520,0.0-24.0-0.0-0.2,57481,List1A,black,man,,,,,,,,survey_race,85,,,I consider myself an introvert.,filler
4718.2,,,html-slider-response,492,2432240,0.0-24.0-0.0-0.3,57481,List1A,black,man,,,,,,,,survey_race,44,,,Getting older does not worry me.,filler
4037.8,,,html-slider-response,493,2436279,0.0-24.0-0.0-0.4,57481,List1A,black,man,,,,,,,,survey_race,85,,,It is pleasant to be my race.,pleasant
4814.8,,,html-slider-response,494,2441096,0.0-24.0-0.0-0.5,57481,List1A,black,man,,,,,,,,survey_race,68,,,People of my race are very similar to each other.,verysimilar
3850.9,,,html-slider-response,495,2444951,0.0-24.0-0.0-0.6,57481,List1A,black,man,,,,,,,,survey_race,100,,,Being my race gives me a good feeling.,feeling
3398.5,,,html-slider-response,496,2448351,0.0-24.0-0.0-0.7,57481,List1A,black,man,,,,,,,,survey_race,74,,,I have a lot in common with people of a similar age to me.,filler
5047,,,html-slider-response,497,2453400,0.0-24.0-0.0-0.8,57481,List1A,black,man,,,,,,,,survey_race,100,,,My age is not an important part of who I am.,filler
3886.2,,,html-slider-response,498,2457288,0.0-24.0-0.0-0.9,57481,List1A,black,man,,,,,,,,survey_race,73,,,I have a lot in common with the average person of my race.,average
4558.6,,,html-slider-response,499,2461848,0.0-24.0-0.0-0.10,57481,List1A,black,man,,,,,,,,survey_race,40,,,I often think about the fact that I am my race.,often
3270.1,,,html-slider-response,500,2465120,0.0-24.0-0.0-0.11,57481,List1A,black,man,,,,,,,,survey_race,100,,,I think that my race has a lot to be proud of.,proud
4431,,,html-slider-response,501,2469552,0.0-24.0-0.0-0.12,57481,List1A,black,man,,,,,,,,survey_race,71,,,I often think about the fact that I am my age.,filler
4504.6,,,html-slider-response,502,2474059,0.0-24.0-0.0-0.13,57481,List1A,black,man,,,,,,,,survey_race,50,,,I am glad to be my age.,filler
3867.2,,,html-slider-response,503,2477928,0.0-24.0-0.0-0.14,57481,List1A,black,man,,,,,,,,survey_race,79,,,I feel a bond with my race.,bond
5174.2,,,html-slider-response,504,2483104,0.0-24.0-0.0-0.15,57481,List1A,black,man,,,,,,,,survey_race,33,,,I am glad to be the age I am.,filler
5630.1,,,html-slider-response,505,2488736,0.0-24.0-0.0-0.16,57481,List1A,black,man,,,,,,,,survey_race,33,,,I feel solidarity with people the same age as me.,filler
4238.3,,,html-slider-response,506,2492976,0.0-24.0-0.0-0.17,57481,List1A,black,man,,,,,,,,survey_race,44,,,I consider myself an extrovert.,filler
3822.6,,,html-slider-response,507,2496800,0.0-24.0-0.0-0.18,57481,List1A,black,man,,,,,,,,survey_race,51,,,People my age have a lot in common with each other.,filler
4462.4,,,html-slider-response,508,2501264,0.0-24.0-0.0-0.19,57481,List1A,black,man,,,,,,,,survey_race,67,,,I feel solidarity with my race.,solidarity
3494.4,,,html-slider-response,509,2504760,0.0-24.0-0.0-0.20,57481,List1A,black,man,,,,,,,,survey_race,46,,,Being my age gives me a good feeling.,filler
2157.8,,,html-slider-response,510,2506920,0.0-24.0-0.0-0.21,57481,List1A,black,man,,,,,,,,survey_race,79,,,I am glad to be my race.,glad
3534.7,,,html-slider-response,511,2510456,0.0-24.0-0.0-0.22,57481,List1A,black,man,,,,,,,,survey_race,72,,,People of my race have a lot in common with each other.,common
3670.3,,,html-slider-response,512,2514128,0.0-24.0-0.0-0.23,57481,List1A,black,man,,,,,,,,survey_race,34,,,I feel a bond with people the same age as me.,filler
2527.1,,,html-slider-response,513,2516656,0.0-24.0-0.0-0.24,57481,List1A,black,man,,,,,,,,survey_race,73,,,"The older I get, the wiser I feel.",filler
3310,,,html-slider-response,514,2519968,0.0-24.0-0.0-0.25,57481,List1A,black,man,,,,,,,,survey_race,41,,,Being my race is an important part of how I see myself.,important
3142.7,,,html-slider-response,515,2523112,0.0-24.0-0.0-0.26,57481,List1A,black,man,,,,,,,,survey_race,71,,,The fact that I am my race is an important part of my identity.,identity
4574.1,,,html-slider-response,516,2527688,0.0-24.0-0.0-0.27,57481,List1A,black,man,,,,,,,,survey_race,26,,,I am similar to the average person of my race.,similar
3566.5,,,html-slider-response,517,2531256,0.0-24.0-1.0-0.0,57481,List1A,black,man,,,,,,,,survey_gender,70,,,Routine is not important to me.,filler
3470.5,,,html-slider-response,518,2534728,0.0-24.0-1.0-0.1,57481,List1A,black,man,,,,,,,,survey_gender,63,,,Being my gender is an important part of how I see myself.,important
2486.7,,,html-slider-response,519,2537216,0.0-24.0-1.0-0.2,57481,List1A,black,man,,,,,,,,survey_gender,73,,,I feel solidarity with my friends.,filler
3015.1,,,html-slider-response,520,2540232,0.0-24.0-1.0-0.3,57481,List1A,black,man,,,,,,,,survey_gender,72,,,I have a lot in common with my friends.,filler
2406.6,,,html-slider-response,521,2542640,0.0-24.0-1.0-0.4,57481,List1A,black,man,,,,,,,,survey_gender,74,,,My friends understand me.,filler
2382.6,,,html-slider-response,522,2545024,0.0-24.0-1.0-0.5,57481,List1A,black,man,,,,,,,,survey_gender,76,,,It is pleasant to be my gender.,pleasant
2622.9,,,html-slider-response,523,2547648,0.0-24.0-1.0-0.6,57481,List1A,black,man,,,,,,,,survey_gender,100,,,I feel committed to my gender.,committed
2718.7,,,html-slider-response,524,2550368,0.0-24.0-1.0-0.7,57481,List1A,black,man,,,,,,,,survey_gender,100,,,Being around my friends gives me a good feeling.,filler
3054.7,,,html-slider-response,525,2553424,0.0-24.0-1.0-0.8,57481,List1A,black,man,,,,,,,,survey_gender,100,,,I am glad to have the friends that I have.,filler
2694.1,,,html-slider-response,526,2556120,0.0-24.0-1.0-0.9,57481,List1A,black,man,,,,,,,,survey_gender,100,,,I feel a bond with my gender.,bond
3439.2,,,html-slider-response,527,2559560,0.0-24.0-1.0-0.10,57481,List1A,black,man,,,,,,,,survey_gender,86,,,I have a lot in common with the average person of my gender.,average
3998.5,,,html-slider-response,528,2563560,0.0-24.0-1.0-0.11,57481,List1A,black,man,,,,,,,,survey_gender,100,,,I feel solidarity with my gender.,solidarity
3318.7,,,html-slider-response,529,2566880,0.0-24.0-1.0-0.12,57481,List1A,black,man,,,,,,,,survey_gender,100,,,I feel a bond with my friends.,filler
2342.5,,,html-slider-response,530,2569224,0.0-24.0-1.0-0.13,57481,List1A,black,man,,,,,,,,survey_gender,100,,,I am glad to be my gender.,glad
4855.6,,,html-slider-response,531,2574080,0.0-24.0-1.0-0.14,57481,List1A,black,man,,,,,,,,survey_gender,99,,,It is not always easy for people to know what I am thinking.,filler
2653,,,html-slider-response,532,2576737,0.0-24.0-1.0-0.15,57481,List1A,black,man,,,,,,,,survey_gender,79,,,The fact that I am my gender is an important part of my identity.,identity
2910.7,,,html-slider-response,533,2579649,0.0-24.0-1.0-0.16,57481,List1A,black,man,,,,,,,,survey_gender,52,,,I often think about the fact that I am my gender.,often
3550.8,,,html-slider-response,534,2583201,0.0-24.0-1.0-0.17,57481,List1A,black,man,,,,,,,,survey_gender,54,,,People of my gender have a lot in common with each other.,common
3254.4,,,html-slider-response,535,2586457,0.0-24.0-1.0-0.18,57481,List1A,black,man,,,,,,,,survey_gender,100,,,My friends have a lot in common with each other.,filler
4230.9,,,html-slider-response,536,2590689,0.0-24.0-1.0-0.19,57481,List1A,black,man,,,,,,,,survey_gender,86,,,I consider myself a highly empathetic person.,filler
12718.6,,,html-slider-response,537,2603409,0.0-24.0-1.0-0.20,57481,List1A,black,man,,,,,,,,survey_gender,45,,,Family is not more important to me than friendship.,filler
3294.2,,,html-slider-response,538,2606705,0.0-24.0-1.0-0.21,57481,List1A,black,man,,,,,,,,survey_gender,76,,,People of my gender are very similar to each other.,verysimilar
2623,,,html-slider-response,539,2609329,0.0-24.0-1.0-0.22,57481,List1A,black,man,,,,,,,,survey_gender,100,,,I would say I am an animal person.,filler
2727.3,,,html-slider-response,540,2612057,0.0-24.0-1.0-0.23,57481,List1A,black,man,,,,,,,,survey_gender,80,,,I often think about my actions.,filler
4810,,,html-slider-response,541,2616873,0.0-24.0-1.0-0.24,57481,List1A,black,man,,,,,,,,survey_gender,31,,,I am similar to the average person of my gender.,similar
2742.7,,,html-slider-response,542,2619617,0.0-24.0-1.0-0.25,57481,List1A,black,man,,,,,,,,survey_gender,73,,,Most of the friends in my life are very similar to me.,filler
2558.6,,,html-slider-response,543,2622177,0.0-24.0-1.0-0.26,57481,List1A,black,man,,,,,,,,survey_gender,100,,,Being my gender gives me a good feeling.,feeling
2670.9,,,html-slider-response,544,2624849,0.0-24.0-1.0-0.27,57481,List1A,black,man,,,,,,,,survey_gender,100,,,I think that my gender has a lot to be proud of.,proud
19277,,,survey-text,545,2644129,0.0-25.0,57481,List1A,black,man,,,,,"{""Q0"":""ccc""}",,,worker_id,,,,,
41953.5,,,external-html,546,2687353,0.0-26.0,57481,List1A,black,man,debrief.html,,,,,,,,,,,,
