"rt","stimulus","button_pressed","trial_type","trial_index","time_elapsed","internal_node_id","subject","list","ppt_race","ppt_gender","url","first_guess","correct","key_press","responses","image_type","phrase_type","test_part","response","stimulus1","stimulus2","question_type","survey_item"
"1717.7000000178814","Welcome to the experiment. Press Continue to begin.","0","html-button-response","0","1724","0.0-0.0","59285","List1B","black","woman","","","","","","","","","","","","",""
"43702.20000001788","","","external-html","1","46554","0.0-1.0","59285","List1B","black","woman","consent.html","","","","","","","","","","","",""
"14100.100000023842","<p>On the next page, you will see portraits of 8 people and their names.</p><p>Your first task is to take a few minutes to memorise the names of these people.</p><p>You will have to recall their names during the rest of the experiment, so it is</p><p>essential that you try to memorise these people and their names as best as you can.</p><br><p><strong>You will then be tested on your memory of these names and portraits.</strong></p><br><p>The experiment will start after you have completed this memory test.</p><br><p>Ready?</p>","0","html-button-response","2","60658","0.0-2.0","59285","List1B","black","woman","","","","","","","","","","","","",""
"120016.5","<img src='img/portrait_matrix_list1.jpg' style='width:900px;height:500px;''></img><p>If you have memorised all the portraits and names and are ready to start, press Continue.</p><p><strong>Please note: Your memory of these faces will be tested 4 times during this experiment.</strong></p>","0","html-button-response","3","181677","0.0-3.0-0.0","59285","List1B","black","woman","","","","","","","","","","","","",""
"13582.59999999404","<img src=""portrait/WW1.jpg""style=""height:400px;""></img>","1","html-button-response","4","196263","0.0-3.0-1.0","59285","List1B","black","woman","","true","1","","","","","","","","","",""
"null","CORRECT","","html-keyboard-response","5","197769","0.0-3.0-2.0-0.0","59285","List1B","black","woman","","","","null","","","","","","","","",""
"2338.9000000059605","<img src=""portrait/BM1.jpg""style=""height:400px;""></img>","4","html-button-response","6","200111","0.0-3.0-4.0","59285","List1B","black","woman","","true","4","","","","","","","","","",""
"null","CORRECT","","html-keyboard-response","7","201614","0.0-3.0-5.0-0.0","59285","List1B","black","woman","","","","null","","","","","","","","",""
"2402.5","<img src=""portrait/WW2.jpg""style=""height:400px;""></img>","3","html-button-response","8","204020","0.0-3.0-7.0","59285","List1B","black","woman","","true","3","","","","","","","","","",""
"null","CORRECT","","html-keyboard-response","9","205522","0.0-3.0-8.0-0.0","59285","List1B","black","woman","","","","null","","","","","","","","",""
"1992.5","<img src=""portrait/BW1.jpg""style=""height:400px;""></img>","0","html-button-response","10","207517","0.0-3.0-10.0","59285","List1B","black","woman","","true","0","","","","","","","","","",""
"null","CORRECT","","html-keyboard-response","11","209019","0.0-3.0-11.0-0.0","59285","List1B","black","woman","","","","null","","","","","","","","",""
"2398","<img src=""portrait/BW2.jpg""style=""height:400px;""></img>","2","html-button-response","12","211420","0.0-3.0-13.0","59285","List1B","black","woman","","true","2","","","","","","","","","",""
"null","CORRECT","","html-keyboard-response","13","212922","0.0-3.0-14.0-0.0","59285","List1B","black","woman","","","","null","","","","","","","","",""
"8119.0999999940395","<img src=""portrait/BM2.jpg""style=""height:400px;""></img>","5","html-button-response","14","221043","0.0-3.0-16.0","59285","List1B","black","woman","","true","5","","","","","","","","","",""
"null","CORRECT","","html-keyboard-response","15","222544","0.0-3.0-17.0-0.0","59285","List1B","black","woman","","","","null","","","","","","","","",""
"2578.4000000059605","<img src=""portrait/WM1.jpg""style=""height:400px;""></img>","6","html-button-response","16","225125","0.0-3.0-19.0","59285","List1B","black","woman","","true","6","","","","","","","","","",""
"null","CORRECT","","html-keyboard-response","17","226627","0.0-3.0-20.0-0.0","59285","List1B","black","woman","","","","null","","","","","","","","",""
"1871.800000011921","<img src=""portrait/WM2.jpg""style=""height:400px;""></img>","7","html-button-response","18","228501","0.0-3.0-22.0","59285","List1B","black","woman","","true","7","","","","","","","","","",""
"null","CORRECT","","html-keyboard-response","19","230004","0.0-3.0-23.0-0.0","59285","List1B","black","woman","","","","null","","","","","","","","",""
"1957","<p>You got 8 out of 8 right first time. Press Continue.</p>","0","html-button-response","20","231964","0.0-3.0-25.0","59285","List1B","black","woman","","","","","","","","","","","","",""
"49637.69999998808","<p>In this experiment, you will view photographs of the people from the memory game interacting.</p><p>By using the <strong>exact</strong> phrase given <i>after</i> the photograph appears and recalling the correct names of the people in the photographs, form a sentence describing the interaction. You do not need to capitalise names.</p><p>Type your answer in the space provided. Please complete every sentence before moving onto the next trial.</p><p>You will only have a few seconds to memorise each given photograph and phrase before you can respond, so try your best to focus.</p><p>An example is given below. Press 'Continue' when you are ready.</p><img src='img/speaking_example.jpg' style='width:800px;height:460px;''></img>","0","html-button-response","21","282606","0.0-4.0","59285","List1B","black","woman","","","","","","","","","","","","",""
"4237.4000000059605","<p>Before the experiment starts, you will watch two example trials. Press 'Continue'.</p>","0","html-button-response","22","287846","0.0-5.0","59285","List1B","black","woman","","","","","","","","","","","","",""
"null","<img src='img/play_eg.gif' style='height:400px;''></img>","","html-keyboard-response","23","290848","0.0-6.0","59285","List1B","black","woman","","","","null","","","","","","","","",""
"null","<p>is playing with</p>","","html-keyboard-response","24","292850","0.0-7.0","59285","List1B","black","woman","","","","null","","","","","","","","",""
"26439.69999998808","<p><b>Answer:</b> kate is playing with beth</p>","0","html-button-response","25","319291","0.0-8.0","59285","List1B","black","woman","","","","","","","","","","","","",""
"null","<img src='img/dance_eg.gif' style='height:400px;''></img>","","html-keyboard-response","26","322293","0.0-9.0","59285","List1B","black","woman","","","","null","","","","","","","","",""
"null","<p>is being entertained by</p>","","html-keyboard-response","27","324295","0.0-10.0","59285","List1B","black","woman","","","","null","","","","","","","","",""
"7772.4000000059605","<p><b>Answer:</b> luke is being entertained by dave</p>","0","html-button-response","28","332069","0.0-11.0","59285","List1B","black","woman","","","","","","","","","","","","",""
"19414.09999999404","<p>Ready to start the experiment?</p><br><p><strong>Remember to describe the picture using a full sentence,</strong></p><p><strong>that combines the names of the people with the <i>exact</i> phrase given.</strong></p><p><strong>To receive full payment you must do this correctly.</strong></p><p><strong> You do not need to capitalise names or use punctuation.</strong></p><br><p>Press 'Continue' to begin.</p>","0","html-button-response","29","352486","0.0-12.0","59285","List1B","black","woman","","","","","","","","","","","","",""
"null","<div style=""font-size:60px;"">+</div>","","html-keyboard-response","30","353987","0.0-13.0-0.0","59285","List1B","black","woman","","","","null","","","","","","","","",""
"null","<img src=""stim_listB/look2.gif""style=""height:400px;""></stim_listB>","","html-keyboard-response","31","355989","0.0-13.0-1.0","59285","List1B","black","woman","","","","null","","","","","","","","",""
"null","is being looked at by","","html-keyboard-response","32","357990","0.0-13.0-2.0","59285","List1B","black","woman","","","","null","","","","","","","","",""
"37030.5","","","survey-text","33","395030","0.0-13.0-3.0","59285","List1B","black","woman","","","","","{""Q0"":""Kate is being looked at by mike""}","<img src=""stim_listB/look2.gif""style=""height:400px;""></stim_listB>","is being looked at by","","","","","",""
"null","<div style=""font-size:60px;"">+</div>","","html-keyboard-response","34","395532","0.0-13.0-0.1","59285","List1B","black","woman","","","","null","","","","","","","","",""
"null","<img src=""stim_listB/touch2.gif""style=""height:400px;""></stim_listB>","","html-keyboard-response","35","397533","0.0-13.0-1.1","59285","List1B","black","woman","","","","null","","","","","","","","",""
"null","is being touched by","","html-keyboard-response","36","399534","0.0-13.0-2.1","59285","List1B","black","woman","","","","null","","","","","","","","",""
"56876.59999999404","","","survey-text","37","456416","0.0-13.0-3.1","59285","List1B","black","woman","","","","","{""Q0"":""Fred is being touched by beth""}","<img src=""stim_listB/touch2.gif""style=""height:400px;""></stim_listB>","is being touched by","","","","","",""
"null","<div style=""font-size:60px;"">+</div>","","html-keyboard-response","38","456917","0.0-13.0-0.2","59285","List1B","black","woman","","","","null","","","","","","","","",""
"null","<img src=""stim_listB/oppose6.gif""style=""height:400px;""></stim_listB>","","html-keyboard-response","39","458920","0.0-13.0-1.2","59285","List1B","black","woman","","","","null","","","","","","","","",""
"null","is being opposed by","","html-keyboard-response","40","460921","0.0-13.0-2.2","59285","List1B","black","woman","","","","null","","","","","","","","",""
"55972.19999998808","","","survey-text","41","516896","0.0-13.0-3.2","59285","List1B","black","woman","","","","","{""Q0"":""luke is being opposed by fred""}","<img src=""stim_listB/oppose6.gif""style=""height:400px;""></stim_listB>","is being opposed by","","","","","",""
"null","<div style=""font-size:60px;"">+</div>","","html-keyboard-response","42","517397","0.0-13.0-0.3","59285","List1B","black","woman","","","","null","","","","","","","","",""
"null","<img src=""stim_listB/shout1.gif""style=""height:400px;""></stim_listB>","","html-keyboard-response","43","519398","0.0-13.0-1.3","59285","List1B","black","woman","","","","null","","","","","","","","",""
"null","is shouting at","","html-keyboard-response","44","521399","0.0-13.0-2.3","59285","List1B","black","woman","","","","null","","","","","","","","",""
"39897","","","survey-text","45","561301","0.0-13.0-3.3","59285","List1B","black","woman","","","","","{""Q0"":""beth is shouting at fred""}","<img src=""stim_listB/shout1.gif""style=""height:400px;""></stim_listB>","is shouting at","","","","","",""
"null","<div style=""font-size:60px;"">+</div>","","html-keyboard-response","46","561803","0.0-13.0-0.4","59285","List1B","black","woman","","","","null","","","","","","","","",""
"null","<img src=""stim_listB/seduce4.gif""style=""height:400px;""></stim_listB>","","html-keyboard-response","47","563806","0.0-13.0-1.4","59285","List1B","black","woman","","","","null","","","","","","","","",""
"null","is being seduced by","","html-keyboard-response","48","565808","0.0-13.0-2.4","59285","List1B","black","woman","","","","null","","","","","","","","",""
"54185.30000001192","","","survey-text","49","620002","0.0-13.0-3.4","59285","List1B","black","woman","","","","","{""Q0"":""ruth is being seduced by dave""}","<img src=""stim_listB/seduce4.gif""style=""height:400px;""></stim_listB>","is being seduced by","","","","","",""
"null","<div style=""font-size:60px;"">+</div>","","html-keyboard-response","50","620504","0.0-13.0-0.5","59285","List1B","black","woman","","","","null","","","","","","","","",""
"null","<img src=""stim_listB/touch3.gif""style=""height:400px;""></stim_listB>","","html-keyboard-response","51","622507","0.0-13.0-1.5","59285","List1B","black","woman","","","","null","","","","","","","","",""
"null","is touching","","html-keyboard-response","52","624509","0.0-13.0-2.5","59285","List1B","black","woman","","","","null","","","","","","","","",""
"47362.09999999404","","","survey-text","53","671878","0.0-13.0-3.5","59285","List1B","black","woman","","","","","{""Q0"":""dave is touching jane""}","<img src=""stim_listB/touch3.gif""style=""height:400px;""></stim_listB>","is touching","","","","","",""
"null","<div style=""font-size:60px;"">+</div>","","html-keyboard-response","54","672381","0.0-13.0-0.6","59285","List1B","black","woman","","","","null","","","","","","","","",""
"null","<img src=""stim_listB/challenge7.gif""style=""height:400px;""></stim_listB>","","html-keyboard-response","55","674385","0.0-13.0-1.6","59285","List1B","black","woman","","","","null","","","","","","","","",""
"null","is challenging","","html-keyboard-response","56","676387","0.0-13.0-2.6","59285","List1B","black","woman","","","","null","","","","","","","","",""
"36393.30000001192","","","survey-text","57","712789","0.0-13.0-3.6","59285","List1B","black","woman","","","","","{""Q0"":""kate is challenging ruth""}","<img src=""stim_listB/challenge7.gif""style=""height:400px;""></stim_listB>","is challenging","","","","","",""
"null","<div style=""font-size:60px;"">+</div>","","html-keyboard-response","58","713291","0.0-13.0-0.7","59285","List1B","black","woman","","","","null","","","","","","","","",""
"null","<img src=""stim_listB/kiss8.gif""style=""height:400px;""></stim_listB>","","html-keyboard-response","59","715294","0.0-13.0-1.7","59285","List1B","black","woman","","","","null","","","","","","","","",""
"null","is being kissed by","","html-keyboard-response","60","717296","0.0-13.0-2.7","59285","List1B","black","woman","","","","null","","","","","","","","",""
"58963","","","survey-text","61","776266","0.0-13.0-3.7","59285","List1B","black","woman","","","","","{""Q0"":""jane is being kissed by kate""}","<img src=""stim_listB/kiss8.gif""style=""height:400px;""></stim_listB>","is being kissed by","","","","","",""
"null","<div style=""font-size:60px;"">+</div>","","html-keyboard-response","62","776767","0.0-13.0-0.8","59285","List1B","black","woman","","","","null","","","","","","","","",""
"null","<img src=""stim_listB/hug6.gif""style=""height:400px;""></stim_listB>","","html-keyboard-response","63","778769","0.0-13.0-1.8","59285","List1B","black","woman","","","","null","","","","","","","","",""
"null","is being hugged by","","html-keyboard-response","64","780770","0.0-13.0-2.8","59285","List1B","black","woman","","","","null","","","","","","","","",""
"27582.19999998808","","","survey-text","65","808355","0.0-13.0-3.8","59285","List1B","black","woman","","","","","{""Q0"":""dave is being hugged by mike""}","<img src=""stim_listB/hug6.gif""style=""height:400px;""></stim_listB>","is being hugged by","","","","","",""
"null","<div style=""font-size:60px;"">+</div>","","html-keyboard-response","66","808857","0.0-13.0-0.9","59285","List1B","black","woman","","","","null","","","","","","","","",""
"null","<img src=""stim_listB/greet6.gif""style=""height:400px;""></stim_listB>","","html-keyboard-response","67","810858","0.0-13.0-1.9","59285","List1B","black","woman","","","","null","","","","","","","","",""
"null","is being greeted by","","html-keyboard-response","68","812861","0.0-13.0-2.9","59285","List1B","black","woman","","","","null","","","","","","","","",""
"18437.40000000596","","","survey-text","69","831302","0.0-13.0-3.9","59285","List1B","black","woman","","","","","{""Q0"":""dave is being greeted by fred""}","<img src=""stim_listB/greet6.gif""style=""height:400px;""></stim_listB>","is being greeted by","","","","","",""
"null","<div style=""font-size:60px;"">+</div>","","html-keyboard-response","70","831805","0.0-13.0-0.10","59285","List1B","black","woman","","","","null","","","","","","","","",""
"null","<img src=""stim_listB/greet5.gif""style=""height:400px;""></stim_listB>","","html-keyboard-response","71","833808","0.0-13.0-1.10","59285","List1B","black","woman","","","","null","","","","","","","","",""
"null","is greeting","","html-keyboard-response","72","835810","0.0-13.0-2.10","59285","List1B","black","woman","","","","null","","","","","","","","",""
"11114","","","survey-text","73","846933","0.0-13.0-3.10","59285","List1B","black","woman","","","","","{""Q0"":""mike is greeting luke""}","<img src=""stim_listB/greet5.gif""style=""height:400px;""></stim_listB>","is greeting","","","","","",""
"null","<div style=""font-size:60px;"">+</div>","","html-keyboard-response","74","847435","0.0-13.0-0.11","59285","List1B","black","woman","","","","null","","","","","","","","",""
"null","<img src=""stim_listB/seduce8.gif""style=""height:400px;""></stim_listB>","","html-keyboard-response","75","849436","0.0-13.0-1.11","59285","List1B","black","woman","","","","null","","","","","","","","",""
"null","is being seduced by","","html-keyboard-response","76","851438","0.0-13.0-2.11","59285","List1B","black","woman","","","","null","","","","","","","","",""
"35048.79999998212","","","survey-text","77","886496","0.0-13.0-3.11","59285","List1B","black","woman","","","","","{""Q0"":""ruth is being seduced by kate""}","<img src=""stim_listB/seduce8.gif""style=""height:400px;""></stim_listB>","is being seduced by","","","","","",""
"null","<div style=""font-size:60px;"">+</div>","","html-keyboard-response","78","887000","0.0-13.0-0.12","59285","List1B","black","woman","","","","null","","","","","","","","",""
"null","<img src=""stim_listB/shout4.gif""style=""height:400px;""></stim_listB>","","html-keyboard-response","79","889003","0.0-13.0-1.12","59285","List1B","black","woman","","","","null","","","","","","","","",""
"null","is being shouted at by","","html-keyboard-response","80","891005","0.0-13.0-2.12","59285","List1B","black","woman","","","","null","","","","","","","","",""
"27720.40000000596","","","survey-text","81","918734","0.0-13.0-3.12","59285","List1B","black","woman","","","","","{""Q0"":""dave is being shouted at by jane""}","<img src=""stim_listB/shout4.gif""style=""height:400px;""></stim_listB>","is being shouted at by","","","","","",""
"null","<div style=""font-size:60px;"">+</div>","","html-keyboard-response","82","919236","0.0-13.0-0.13","59285","List1B","black","woman","","","","null","","","","","","","","",""
"null","<img src=""stim_listB/hug2.gif""style=""height:400px;""></stim_listB>","","html-keyboard-response","83","921239","0.0-13.0-1.13","59285","List1B","black","woman","","","","null","","","","","","","","",""
"null","is being hugged by","","html-keyboard-response","84","923240","0.0-13.0-2.13","59285","List1B","black","woman","","","","null","","","","","","","","",""
"27518.80000001192","","","survey-text","85","950763","0.0-13.0-3.13","59285","List1B","black","woman","","","","","{""Q0"":""mike is being hugged by kate""}","<img src=""stim_listB/hug2.gif""style=""height:400px;""></stim_listB>","is being hugged by","","","","","",""
"null","<div style=""font-size:60px;"">+</div>","","html-keyboard-response","86","951265","0.0-13.0-0.14","59285","List1B","black","woman","","","","null","","","","","","","","",""
"null","<img src=""stim_listB/greet8.gif""style=""height:400px;""></stim_listB>","","html-keyboard-response","87","953268","0.0-13.0-1.14","59285","List1B","black","woman","","","","null","","","","","","","","",""
"null","is being greeted by","","html-keyboard-response","88","955269","0.0-13.0-2.14","59285","List1B","black","woman","","","","null","","","","","","","","",""
"31455.09999999404","","","survey-text","89","986733","0.0-13.0-3.14","59285","List1B","black","woman","","","","","{""Q0"":""jane is being greeted by beth""}","<img src=""stim_listB/greet8.gif""style=""height:400px;""></stim_listB>","is being greeted by","","","","","",""
"null","<div style=""font-size:60px;"">+</div>","","html-keyboard-response","90","987236","0.0-13.0-0.15","59285","List1B","black","woman","","","","null","","","","","","","","",""
"null","<img src=""stim_listB/shout8.gif""style=""height:400px;""></stim_listB>","","html-keyboard-response","91","989238","0.0-13.0-1.15","59285","List1B","black","woman","","","","null","","","","","","","","",""
"null","is being shouted at by","","html-keyboard-response","92","991240","0.0-13.0-2.15","59285","List1B","black","woman","","","","null","","","","","","","","",""
"9197.09999999404","","","survey-text","93","1000444","0.0-13.0-3.15","59285","List1B","black","woman","","","","","{""Q0"":""kate is being shouted at by jane""}","<img src=""stim_listB/shout8.gif""style=""height:400px;""></stim_listB>","is being shouted at by","","","","","",""
"null","<div style=""font-size:60px;"">+</div>","","html-keyboard-response","94","1000946","0.0-13.0-0.16","59285","List1B","black","woman","","","","null","","","","","","","","",""
"null","<img src=""stim_listB/look7.gif""style=""height:400px;""></stim_listB>","","html-keyboard-response","95","1002949","0.0-13.0-1.16","59285","List1B","black","woman","","","","null","","","","","","","","",""
"null","is looking at","","html-keyboard-response","96","1004951","0.0-13.0-2.16","59285","List1B","black","woman","","","","null","","","","","","","","",""
"38372.29999998212","","","survey-text","97","1043331","0.0-13.0-3.16","59285","List1B","black","woman","","","","","{""Q0"":""ruth is looking at beth""}","<img src=""stim_listB/look7.gif""style=""height:400px;""></stim_listB>","is looking at","","","","","",""
"null","<div style=""font-size:60px;"">+</div>","","html-keyboard-response","98","1043833","0.0-13.0-0.17","59285","List1B","black","woman","","","","null","","","","","","","","",""
"null","<img src=""stim_listB/copy8.gif""style=""height:400px;""></stim_listB>","","html-keyboard-response","99","1045836","0.0-13.0-1.17","59285","List1B","black","woman","","","","null","","","","","","","","",""
"null","is being copied by","","html-keyboard-response","100","1047838","0.0-13.0-2.17","59285","List1B","black","woman","","","","null","","","","","","","","",""
"28519.70000001788","","","survey-text","101","1076366","0.0-13.0-3.17","59285","List1B","black","woman","","","","","{""Q0"":""jane is being copied by beth""}","<img src=""stim_listB/copy8.gif""style=""height:400px;""></stim_listB>","is being copied by","","","","","",""
"null","<div style=""font-size:60px;"">+</div>","","html-keyboard-response","102","1076867","0.0-13.0-0.18","59285","List1B","black","woman","","","","null","","","","","","","","",""
"null","<img src=""stim_listB/copy1.gif""style=""height:400px;""></stim_listB>","","html-keyboard-response","103","1078870","0.0-13.0-1.18","59285","List1B","black","woman","","","","null","","","","","","","","",""
"null","is copying","","html-keyboard-response","104","1080872","0.0-13.0-2.18","59285","List1B","black","woman","","","","null","","","","","","","","",""
"29548.29999998212","","","survey-text","105","1110428","0.0-13.0-3.18","59285","List1B","black","woman","","","","","{""Q0"":""beth is copying mike""}","<img src=""stim_listB/copy1.gif""style=""height:400px;""></stim_listB>","is copying","","","","","",""
"null","<div style=""font-size:60px;"">+</div>","","html-keyboard-response","106","1110930","0.0-13.0-0.19","59285","List1B","black","woman","","","","null","","","","","","","","",""
"null","<img src=""stim_listB/hug4.gif""style=""height:400px;""></stim_listB>","","html-keyboard-response","107","1112933","0.0-13.0-1.19","59285","List1B","black","woman","","","","null","","","","","","","","",""
"null","is being hugged by","","html-keyboard-response","108","1114934","0.0-13.0-2.19","59285","List1B","black","woman","","","","null","","","","","","","","",""
"11690.5","","","survey-text","109","1126628","0.0-13.0-3.19","59285","List1B","black","woman","","","","","{""Q0"":""dave is being hugged by ruth""}","<img src=""stim_listB/hug4.gif""style=""height:400px;""></stim_listB>","is being hugged by","","","","","",""
"63520.10000002384","<img src='img/portrait_matrix_list1.jpg' style='width:900px;height:500px;''></img><p>If you have memorised all the portraits and names and are ready to start, press Continue.</p><p><strong>Please note: Your memory of these faces will be tested 4 times during this experiment.</strong></p>","0","html-button-response","110","1190151","0.0-14.0-0.0","59285","List1B","black","woman","","","","","","","","","","","","",""
"6118.4000000059605","<img src=""portrait/BW2.jpg""style=""height:400px;""></img>","2","html-button-response","111","1197274","0.0-14.0-1.0","59285","List1B","black","woman","","true","2","","","","","","","","","",""
"null","CORRECT","","html-keyboard-response","112","1198776","0.0-14.0-2.0-0.0","59285","List1B","black","woman","","","","null","","","","","","","","",""
"5948","<img src=""portrait/BM1.jpg""style=""height:400px;""></img>","4","html-button-response","113","1204728","0.0-14.0-4.0","59285","List1B","black","woman","","true","4","","","","","","","","","",""
"null","CORRECT","","html-keyboard-response","114","1206230","0.0-14.0-5.0-0.0","59285","List1B","black","woman","","","","null","","","","","","","","",""
"2143.5999999940395","<img src=""portrait/WM1.jpg""style=""height:400px;""></img>","6","html-button-response","115","1208377","0.0-14.0-7.0","59285","List1B","black","woman","","true","6","","","","","","","","","",""
"null","CORRECT","","html-keyboard-response","116","1209880","0.0-14.0-8.0-0.0","59285","List1B","black","woman","","","","null","","","","","","","","",""
"1997.5999999940395","<img src=""portrait/WW1.jpg""style=""height:400px;""></img>","1","html-button-response","117","1211880","0.0-14.0-10.0","59285","List1B","black","woman","","true","1","","","","","","","","","",""
"null","CORRECT","","html-keyboard-response","118","1213383","0.0-14.0-11.0-0.0","59285","List1B","black","woman","","","","null","","","","","","","","",""
"1893.2999999821186","<img src=""portrait/WM2.jpg""style=""height:400px;""></img>","7","html-button-response","119","1215280","0.0-14.0-13.0","59285","List1B","black","woman","","true","7","","","","","","","","","",""
"null","CORRECT","","html-keyboard-response","120","1216784","0.0-14.0-14.0-0.0","59285","List1B","black","woman","","","","null","","","","","","","","",""
"1752.199999988079","<img src=""portrait/WW2.jpg""style=""height:400px;""></img>","3","html-button-response","121","1218540","0.0-14.0-16.0","59285","List1B","black","woman","","true","3","","","","","","","","","",""
"null","CORRECT","","html-keyboard-response","122","1220042","0.0-14.0-17.0-0.0","59285","List1B","black","woman","","","","null","","","","","","","","",""
"4603.799999982119","<img src=""portrait/BW1.jpg""style=""height:400px;""></img>","0","html-button-response","123","1224649","0.0-14.0-19.0","59285","List1B","black","woman","","true","0","","","","","","","","","",""
"null","CORRECT","","html-keyboard-response","124","1226152","0.0-14.0-20.0-0.0","59285","List1B","black","woman","","","","null","","","","","","","","",""
"1839.300000011921","<img src=""portrait/BM2.jpg""style=""height:400px;""></img>","5","html-button-response","125","1227995","0.0-14.0-22.0","59285","List1B","black","woman","","true","5","","","","","","","","","",""
"null","CORRECT","","html-keyboard-response","126","1229499","0.0-14.0-23.0-0.0","59285","List1B","black","woman","","","","null","","","","","","","","",""
"2924.0999999940395","<p>You got 8 out of 8 right first time. Press Continue.</p>","0","html-button-response","127","1232426","0.0-14.0-25.0","59285","List1B","black","woman","","","","","","","","","","","","",""
"null","<div style=""font-size:60px;"">+</div>","","html-keyboard-response","128","1233929","0.0-15.0-0.0","59285","List1B","black","woman","","","","null","","","","","","","","",""
"null","<img src=""stim_listB/touch6.gif""style=""height:400px;""></stim_listB>","","html-keyboard-response","129","1235932","0.0-15.0-1.0","59285","List1B","black","woman","","","","null","","","","","","","","",""
"null","is being touched by","","html-keyboard-response","130","1237934","0.0-15.0-2.0","59285","List1B","black","woman","","","","null","","","","","","","","",""
"12836.5","","","survey-text","131","1250778","0.0-15.0-3.0","59285","List1B","black","woman","","","","","{""Q0"":""fred is being touched by luke""}","<img src=""stim_listB/touch6.gif""style=""height:400px;""></stim_listB>","is being touched by","","","","","",""
"null","<div style=""font-size:60px;"">+</div>","","html-keyboard-response","132","1251280","0.0-15.0-0.1","59285","List1B","black","woman","","","","null","","","","","","","","",""
"null","<img src=""stim_listB/greet3.gif""style=""height:400px;""></stim_listB>","","html-keyboard-response","133","1253283","0.0-15.0-1.1","59285","List1B","black","woman","","","","null","","","","","","","","",""
"null","is greeting","","html-keyboard-response","134","1255285","0.0-15.0-2.1","59285","List1B","black","woman","","","","null","","","","","","","","",""
"8538.600000023842","","","survey-text","135","1263827","0.0-15.0-3.1","59285","List1B","black","woman","","","","","{""Q0"":""ruth is greeting dave""}","<img src=""stim_listB/greet3.gif""style=""height:400px;""></stim_listB>","is greeting","","","","","",""
"null","<div style=""font-size:60px;"">+</div>","","html-keyboard-response","136","1264329","0.0-15.0-0.2","59285","List1B","black","woman","","","","null","","","","","","","","",""
"null","<img src=""stim_listB/copy6.gif""style=""height:400px;""></stim_listB>","","html-keyboard-response","137","1266330","0.0-15.0-1.2","59285","List1B","black","woman","","","","null","","","","","","","","",""
"null","is being copied by","","html-keyboard-response","138","1268332","0.0-15.0-2.2","59285","List1B","black","woman","","","","null","","","","","","","","",""
"9107.800000011921","","","survey-text","139","1277446","0.0-15.0-3.2","59285","List1B","black","woman","","","","","{""Q0"":""fred is being copied by dave""}","<img src=""stim_listB/copy6.gif""style=""height:400px;""></stim_listB>","is being copied by","","","","","",""
"null","<div style=""font-size:60px;"">+</div>","","html-keyboard-response","140","1277948","0.0-15.0-0.3","59285","List1B","black","woman","","","","null","","","","","","","","",""
"null","<img src=""stim_listB/touch8.gif""style=""height:400px;""></stim_listB>","","html-keyboard-response","141","1279952","0.0-15.0-1.3","59285","List1B","black","woman","","","","null","","","","","","","","",""
"null","is being touched by","","html-keyboard-response","142","1281954","0.0-15.0-2.3","59285","List1B","black","woman","","","","null","","","","","","","","",""
"10820.40000000596","","","survey-text","143","1292783","0.0-15.0-3.3","59285","List1B","black","woman","","","","","{""Q0"":""ruth is being touched by beth""}","<img src=""stim_listB/touch8.gif""style=""height:400px;""></stim_listB>","is being touched by","","","","","",""
"null","<div style=""font-size:60px;"">+</div>","","html-keyboard-response","144","1293285","0.0-15.0-0.4","59285","List1B","black","woman","","","","null","","","","","","","","",""
"null","<img src=""stim_listB/look6.gif""style=""height:400px;""></stim_listB>","","html-keyboard-response","145","1295289","0.0-15.0-1.4","59285","List1B","black","woman","","","","null","","","","","","","","",""
"null","is being looked at by","","html-keyboard-response","146","1297291","0.0-15.0-2.4","59285","List1B","black","woman","","","","null","","","","","","","","",""
"6381.200000017881","","","survey-text","147","1303680","0.0-15.0-3.4","59285","List1B","black","woman","","","","","{""Q0"":""dave is being looked at by mike""}","<img src=""stim_listB/look6.gif""style=""height:400px;""></stim_listB>","is being looked at by","","","","","",""
"null","<div style=""font-size:60px;"">+</div>","","html-keyboard-response","148","1304183","0.0-15.0-0.5","59285","List1B","black","woman","","","","null","","","","","","","","",""
"null","<img src=""stim_listB/look5.gif""style=""height:400px;""></stim_listB>","","html-keyboard-response","149","1306186","0.0-15.0-1.5","59285","List1B","black","woman","","","","null","","","","","","","","",""
"null","is looking at","","html-keyboard-response","150","1308188","0.0-15.0-2.5","59285","List1B","black","woman","","","","null","","","","","","","","",""
"29710.40000000596","","","survey-text","151","1337907","0.0-15.0-3.5","59285","List1B","black","woman","","","","","{""Q0"":""fred is looking at luke""}","<img src=""stim_listB/look5.gif""style=""height:400px;""></stim_listB>","is looking at","","","","","",""
"null","<div style=""font-size:60px;"">+</div>","","html-keyboard-response","152","1338409","0.0-15.0-0.6","59285","List1B","black","woman","","","","null","","","","","","","","",""
"null","<img src=""stim_listB/challenge2.gif""style=""height:400px;""></stim_listB>","","html-keyboard-response","153","1340413","0.0-15.0-1.6","59285","List1B","black","woman","","","","null","","","","","","","","",""
"null","is being challenged by","","html-keyboard-response","154","1342415","0.0-15.0-2.6","59285","List1B","black","woman","","","","null","","","","","","","","",""
"18932.19999998808","","","survey-text","155","1361356","0.0-15.0-3.6","59285","List1B","black","woman","","","","","{""Q0"":""fred is being challenged by kate""}","<img src=""stim_listB/challenge2.gif""style=""height:400px;""></stim_listB>","is being challenged by","","","","","",""
"null","<div style=""font-size:60px;"">+</div>","","html-keyboard-response","156","1361859","0.0-15.0-0.7","59285","List1B","black","woman","","","","null","","","","","","","","",""
"null","<img src=""stim_listB/hug1.gif""style=""height:400px;""></stim_listB>","","html-keyboard-response","157","1363863","0.0-15.0-1.7","59285","List1B","black","woman","","","","null","","","","","","","","",""
"null","is hugging","","html-keyboard-response","158","1365865","0.0-15.0-2.7","59285","List1B","black","woman","","","","null","","","","","","","","",""
"12597.199999988079","","","survey-text","159","1378470","0.0-15.0-3.7","59285","List1B","black","woman","","","","","{""Q0"":""fred is hugging beth""}","<img src=""stim_listB/hug1.gif""style=""height:400px;""></stim_listB>","is hugging","","","","","",""
"null","<div style=""font-size:60px;"">+</div>","","html-keyboard-response","160","1378973","0.0-15.0-0.8","59285","List1B","black","woman","","","","null","","","","","","","","",""
"null","<img src=""stim_listB/shout5.gif""style=""height:400px;""></stim_listB>","","html-keyboard-response","161","1380977","0.0-15.0-1.8","59285","List1B","black","woman","","","","null","","","","","","","","",""
"null","is shouting at","","html-keyboard-response","162","1382979","0.0-15.0-2.8","59285","List1B","black","woman","","","","null","","","","","","","","",""
"7485.5999999940395","","","survey-text","163","1390474","0.0-15.0-3.8","59285","List1B","black","woman","","","","","{""Q0"":""luke is shouting at fred""}","<img src=""stim_listB/shout5.gif""style=""height:400px;""></stim_listB>","is shouting at","","","","","",""
"null","<div style=""font-size:60px;"">+</div>","","html-keyboard-response","164","1390977","0.0-15.0-0.9","59285","List1B","black","woman","","","","null","","","","","","","","",""
"null","<img src=""stim_listB/copy3.gif""style=""height:400px;""></stim_listB>","","html-keyboard-response","165","1392982","0.0-15.0-1.9","59285","List1B","black","woman","","","","null","","","","","","","","",""
"null","is copying","","html-keyboard-response","166","1394984","0.0-15.0-2.9","59285","List1B","black","woman","","","","null","","","","","","","","",""
"8401.300000011921","","","survey-text","167","1403393","0.0-15.0-3.9","59285","List1B","black","woman","","","","","{""Q0"":""ruth is copying dave""}","<img src=""stim_listB/copy3.gif""style=""height:400px;""></stim_listB>","is copying","","","","","",""
"null","<div style=""font-size:60px;"">+</div>","","html-keyboard-response","168","1403896","0.0-15.0-0.10","59285","List1B","black","woman","","","","null","","","","","","","","",""
"null","<img src=""stim_listB/copy7.gif""style=""height:400px;""></stim_listB>","","html-keyboard-response","169","1405899","0.0-15.0-1.10","59285","List1B","black","woman","","","","null","","","","","","","","",""
"null","is copying","","html-keyboard-response","170","1407901","0.0-15.0-2.10","59285","List1B","black","woman","","","","null","","","","","","","","",""
"7672.199999988079","","","survey-text","171","1415581","0.0-15.0-3.10","59285","List1B","black","woman","","","","","{""Q0"":""kate is copying ruth""}","<img src=""stim_listB/copy7.gif""style=""height:400px;""></stim_listB>","is copying","","","","","",""
"null","<div style=""font-size:60px;"">+</div>","","html-keyboard-response","172","1416083","0.0-15.0-0.11","59285","List1B","black","woman","","","","null","","","","","","","","",""
"null","<img src=""stim_listB/challenge1.gif""style=""height:400px;""></stim_listB>","","html-keyboard-response","173","1418086","0.0-15.0-1.11","59285","List1B","black","woman","","","","null","","","","","","","","",""
"null","is challenging","","html-keyboard-response","174","1420086","0.0-15.0-2.11","59285","List1B","black","woman","","","","null","","","","","","","","",""
"8539.90000000596","","","survey-text","175","1428629","0.0-15.0-3.11","59285","List1B","black","woman","","","","","{""Q0"":""beth is challenging mike""}","<img src=""stim_listB/challenge1.gif""style=""height:400px;""></stim_listB>","is challenging","","","","","",""
"null","<div style=""font-size:60px;"">+</div>","","html-keyboard-response","176","1429131","0.0-15.0-0.12","59285","List1B","black","woman","","","","null","","","","","","","","",""
"null","<img src=""stim_listB/challenge3.gif""style=""height:400px;""></stim_listB>","","html-keyboard-response","177","1431133","0.0-15.0-1.12","59285","List1B","black","woman","","","","null","","","","","","","","",""
"null","is challenging","","html-keyboard-response","178","1433135","0.0-15.0-2.12","59285","List1B","black","woman","","","","null","","","","","","","","",""
"4415.699999988079","","","survey-text","179","1437558","0.0-15.0-3.12","59285","List1B","black","woman","","","","","{""Q0"":""ruth is challenging dave""}","<img src=""stim_listB/challenge3.gif""style=""height:400px;""></stim_listB>","is challenging","","","","","",""
"null","<div style=""font-size:60px;"">+</div>","","html-keyboard-response","180","1438059","0.0-15.0-0.13","59285","List1B","black","woman","","","","null","","","","","","","","",""
"null","<img src=""stim_listB/hug8.gif""style=""height:400px;""></stim_listB>","","html-keyboard-response","181","1440062","0.0-15.0-1.13","59285","List1B","black","woman","","","","null","","","","","","","","",""
"null","is being hugged by","","html-keyboard-response","182","1442063","0.0-15.0-2.13","59285","List1B","black","woman","","","","null","","","","","","","","",""
"12610.5","","","survey-text","183","1454681","0.0-15.0-3.13","59285","List1B","black","woman","","","","","{""Q0"":""jane is being hugged by kate""}","<img src=""stim_listB/hug8.gif""style=""height:400px;""></stim_listB>","is being hugged by","","","","","",""
"null","<div style=""font-size:60px;"">+</div>","","html-keyboard-response","184","1455183","0.0-15.0-0.14","59285","List1B","black","woman","","","","null","","","","","","","","",""
"null","<img src=""stim_listB/seduce1.gif""style=""height:400px;""></stim_listB>","","html-keyboard-response","185","1457186","0.0-15.0-1.14","59285","List1B","black","woman","","","","null","","","","","","","","",""
"null","is seducing","","html-keyboard-response","186","1459188","0.0-15.0-2.14","59285","List1B","black","woman","","","","null","","","","","","","","",""
"5705","","","survey-text","187","1464900","0.0-15.0-3.14","59285","List1B","black","woman","","","","","{""Q0"":""fred is seducing kate""}","<img src=""stim_listB/seduce1.gif""style=""height:400px;""></stim_listB>","is seducing","","","","","",""
"null","<div style=""font-size:60px;"">+</div>","","html-keyboard-response","188","1465402","0.0-15.0-0.15","59285","List1B","black","woman","","","","null","","","","","","","","",""
"null","<img src=""stim_listB/oppose8.gif""style=""height:400px;""></stim_listB>","","html-keyboard-response","189","1467407","0.0-15.0-1.15","59285","List1B","black","woman","","","","null","","","","","","","","",""
"null","is being opposed by","","html-keyboard-response","190","1469408","0.0-15.0-2.15","59285","List1B","black","woman","","","","null","","","","","","","","",""
"6136.799999982119","","","survey-text","191","1475551","0.0-15.0-3.15","59285","List1B","black","woman","","","","","{""Q0"":""ruth is being opposed by beth""}","<img src=""stim_listB/oppose8.gif""style=""height:400px;""></stim_listB>","is being opposed by","","","","","",""
"null","<div style=""font-size:60px;"">+</div>","","html-keyboard-response","192","1476053","0.0-15.0-0.16","59285","List1B","black","woman","","","","null","","","","","","","","",""
"null","<img src=""stim_listB/challenge6.gif""style=""height:400px;""></stim_listB>","","html-keyboard-response","193","1478056","0.0-15.0-1.16","59285","List1B","black","woman","","","","null","","","","","","","","",""
"null","is being challenged by","","html-keyboard-response","194","1480058","0.0-15.0-2.16","59285","List1B","black","woman","","","","null","","","","","","","","",""
"5648.199999988079","","","survey-text","195","1485715","0.0-15.0-3.16","59285","List1B","black","woman","","","","","{""Q0"":""fred is being challenged by dave""}","<img src=""stim_listB/challenge6.gif""style=""height:400px;""></stim_listB>","is being challenged by","","","","","",""
"null","<div style=""font-size:60px;"">+</div>","","html-keyboard-response","196","1486218","0.0-15.0-0.17","59285","List1B","black","woman","","","","null","","","","","","","","",""
"null","<img src=""stim_listB/hug5.gif""style=""height:400px;""></stim_listB>","","html-keyboard-response","197","1488221","0.0-15.0-1.17","59285","List1B","black","woman","","","","null","","","","","","","","",""
"null","is hugging","","html-keyboard-response","198","1490223","0.0-15.0-2.17","59285","List1B","black","woman","","","","null","","","","","","","","",""
"9661.59999999404","","","survey-text","199","1499892","0.0-15.0-3.17","59285","List1B","black","woman","","","","","{""Q0"":""dave is hugging luke""}","<img src=""stim_listB/hug5.gif""style=""height:400px;""></stim_listB>","is hugging","","","","","",""
"null","<div style=""font-size:60px;"">+</div>","","html-keyboard-response","200","1500395","0.0-15.0-0.18","59285","List1B","black","woman","","","","null","","","","","","","","",""
"null","<img src=""stim_listB/copy2.gif""style=""height:400px;""></stim_listB>","","html-keyboard-response","201","1502399","0.0-15.0-1.18","59285","List1B","black","woman","","","","null","","","","","","","","",""
"null","is being copied by","","html-keyboard-response","202","1504400","0.0-15.0-2.18","59285","List1B","black","woman","","","","null","","","","","","","","",""
"5766.299999982119","","","survey-text","203","1510174","0.0-15.0-3.18","59285","List1B","black","woman","","","","","{""Q0"":""fred is being copied by kate""}","<img src=""stim_listB/copy2.gif""style=""height:400px;""></stim_listB>","is being copied by","","","","","",""
"null","<div style=""font-size:60px;"">+</div>","","html-keyboard-response","204","1510676","0.0-15.0-0.19","59285","List1B","black","woman","","","","null","","","","","","","","",""
"null","<img src=""stim_listB/shout7.gif""style=""height:400px;""></stim_listB>","","html-keyboard-response","205","1512679","0.0-15.0-1.19","59285","List1B","black","woman","","","","null","","","","","","","","",""
"null","is shouting at","","html-keyboard-response","206","1514681","0.0-15.0-2.19","59285","List1B","black","woman","","","","null","","","","","","","","",""
"4327","","","survey-text","207","1519017","0.0-15.0-3.19","59285","List1B","black","woman","","","","","{""Q0"":""ruth is shouting at beth""}","<img src=""stim_listB/shout7.gif""style=""height:400px;""></stim_listB>","is shouting at","","","","","",""
"26219.80000001192","<img src='img/portrait_matrix_list1.jpg' style='width:900px;height:500px;''></img><p>If you have memorised all the portraits and names and are ready to start, press Continue.</p><p><strong>Please note: Your memory of these faces will be tested 4 times during this experiment.</strong></p>","0","html-button-response","208","1545240","0.0-16.0-0.0","59285","List1B","black","woman","","","","","","","","","","","","",""
"2311.0999999940395","<img src=""portrait/WW1.jpg""style=""height:400px;""></img>","1","html-button-response","209","1548556","0.0-16.0-1.0","59285","List1B","black","woman","","true","1","","","","","","","","","",""
"null","CORRECT","","html-keyboard-response","210","1550059","0.0-16.0-2.0-0.0","59285","List1B","black","woman","","","","null","","","","","","","","",""
"1967","<img src=""portrait/WM2.jpg""style=""height:400px;""></img>","7","html-button-response","211","1552030","0.0-16.0-4.0","59285","List1B","black","woman","","true","7","","","","","","","","","",""
"null","CORRECT","","html-keyboard-response","212","1553533","0.0-16.0-5.0-0.0","59285","List1B","black","woman","","","","null","","","","","","","","",""
"2267.800000011921","<img src=""portrait/BW2.jpg""style=""height:400px;""></img>","2","html-button-response","213","1555804","0.0-16.0-7.0","59285","List1B","black","woman","","true","2","","","","","","","","","",""
"null","CORRECT","","html-keyboard-response","214","1557308","0.0-16.0-8.0-0.0","59285","List1B","black","woman","","","","null","","","","","","","","",""
"2933.5999999940395","<img src=""portrait/WM1.jpg""style=""height:400px;""></img>","6","html-button-response","215","1560245","0.0-16.0-10.0","59285","List1B","black","woman","","true","6","","","","","","","","","",""
"null","CORRECT","","html-keyboard-response","216","1561746","0.0-16.0-11.0-0.0","59285","List1B","black","woman","","","","null","","","","","","","","",""
"1357.9000000059605","<img src=""portrait/BM1.jpg""style=""height:400px;""></img>","4","html-button-response","217","1563108","0.0-16.0-13.0","59285","List1B","black","woman","","true","4","","","","","","","","","",""
"null","CORRECT","","html-keyboard-response","218","1564611","0.0-16.0-14.0-0.0","59285","List1B","black","woman","","","","null","","","","","","","","",""
"2011.4000000059605","<img src=""portrait/WW2.jpg""style=""height:400px;""></img>","3","html-button-response","219","1566626","0.0-16.0-16.0","59285","List1B","black","woman","","true","3","","","","","","","","","",""
"null","CORRECT","","html-keyboard-response","220","1568129","0.0-16.0-17.0-0.0","59285","List1B","black","woman","","","","null","","","","","","","","",""
"2075.199999988079","<img src=""portrait/BW1.jpg""style=""height:400px;""></img>","0","html-button-response","221","1570208","0.0-16.0-19.0","59285","List1B","black","woman","","true","0","","","","","","","","","",""
"null","CORRECT","","html-keyboard-response","222","1571710","0.0-16.0-20.0-0.0","59285","List1B","black","woman","","","","null","","","","","","","","",""
"2108.7999999821186","<img src=""portrait/BM2.jpg""style=""height:400px;""></img>","5","html-button-response","223","1573823","0.0-16.0-22.0","59285","List1B","black","woman","","true","5","","","","","","","","","",""
"null","CORRECT","","html-keyboard-response","224","1575326","0.0-16.0-23.0-0.0","59285","List1B","black","woman","","","","null","","","","","","","","",""
"1943","<p>You got 8 out of 8 right first time. Press Continue.</p>","0","html-button-response","225","1577271","0.0-16.0-25.0","59285","List1B","black","woman","","","","","","","","","","","","",""
"null","<div style=""font-size:60px;"">+</div>","","html-keyboard-response","226","1578773","0.0-17.0-0.0","59285","List1B","black","woman","","","","null","","","","","","","","",""
"null","<img src=""stim_listB/hug3.gif""style=""height:400px;""></stim_listB>","","html-keyboard-response","227","1580779","0.0-17.0-1.0","59285","List1B","black","woman","","","","null","","","","","","","","",""
"null","is hugging","","html-keyboard-response","228","1582781","0.0-17.0-2.0","59285","List1B","black","woman","","","","null","","","","","","","","",""
"14743.59999999404","","","survey-text","229","1597532","0.0-17.0-3.0","59285","List1B","black","woman","","","","","{""Q0"":""ruth is hugging luke""}","<img src=""stim_listB/hug3.gif""style=""height:400px;""></stim_listB>","is hugging","","","","","",""
"null","<div style=""font-size:60px;"">+</div>","","html-keyboard-response","230","1598036","0.0-17.0-0.1","59285","List1B","black","woman","","","","null","","","","","","","","",""
"null","<img src=""stim_listB/shout6.gif""style=""height:400px;""></stim_listB>","","html-keyboard-response","231","1600040","0.0-17.0-1.1","59285","List1B","black","woman","","","","null","","","","","","","","",""
"null","is being shouted at by","","html-keyboard-response","232","1602042","0.0-17.0-2.1","59285","List1B","black","woman","","","","null","","","","","","","","",""
"5791.200000017881","","","survey-text","233","1607837","0.0-17.0-3.1","59285","List1B","black","woman","","","","","{""Q0"":""mike is being shouted at by dave""}","<img src=""stim_listB/shout6.gif""style=""height:400px;""></stim_listB>","is being shouted at by","","","","","",""
"null","<div style=""font-size:60px;"">+</div>","","html-keyboard-response","234","1608339","0.0-17.0-0.2","59285","List1B","black","woman","","","","null","","","","","","","","",""
"null","<img src=""stim_listB/touch5.gif""style=""height:400px;""></stim_listB>","","html-keyboard-response","235","1610341","0.0-17.0-1.2","59285","List1B","black","woman","","","","null","","","","","","","","",""
"null","is touching","","html-keyboard-response","236","1612344","0.0-17.0-2.2","59285","List1B","black","woman","","","","null","","","","","","","","",""
"6155.299999982119","","","survey-text","237","1618505","0.0-17.0-3.2","59285","List1B","black","woman","","","","","{""Q0"":""dave is touching mike""}","<img src=""stim_listB/touch5.gif""style=""height:400px;""></stim_listB>","is touching","","","","","",""
"null","<div style=""font-size:60px;"">+</div>","","html-keyboard-response","238","1619008","0.0-17.0-0.3","59285","List1B","black","woman","","","","null","","","","","","","","",""
"null","<img src=""stim_listB/oppose2.gif""style=""height:400px;""></stim_listB>","","html-keyboard-response","239","1621011","0.0-17.0-1.3","59285","List1B","black","woman","","","","null","","","","","","","","",""
"null","is being opposed by","","html-keyboard-response","240","1623013","0.0-17.0-2.3","59285","List1B","black","woman","","","","null","","","","","","","","",""
"6649.5999999940395","","","survey-text","241","1629671","0.0-17.0-3.3","59285","List1B","black","woman","","","","","{""Q0"":""fred is being opposed by beth""}","<img src=""stim_listB/oppose2.gif""style=""height:400px;""></stim_listB>","is being opposed by","","","","","",""
"null","<div style=""font-size:60px;"">+</div>","","html-keyboard-response","242","1630174","0.0-17.0-0.4","59285","List1B","black","woman","","","","null","","","","","","","","",""
"null","<img src=""stim_listB/touch4.gif""style=""height:400px;""></stim_listB>","","html-keyboard-response","243","1632177","0.0-17.0-1.4","59285","List1B","black","woman","","","","null","","","","","","","","",""
"null","is being touched by","","html-keyboard-response","244","1634180","0.0-17.0-2.4","59285","List1B","black","woman","","","","null","","","","","","","","",""
"9617.40000000596","","","survey-text","245","1643806","0.0-17.0-3.4","59285","List1B","black","woman","","","","","{""Q0"":""ruth is being touched by luke""}","<img src=""stim_listB/touch4.gif""style=""height:400px;""></stim_listB>","is being touched by","","","","","",""
"null","<div style=""font-size:60px;"">+</div>","","html-keyboard-response","246","1644309","0.0-17.0-0.5","59285","List1B","black","woman","","","","null","","","","","","","","",""
"null","<img src=""stim_listB/copy5.gif""style=""height:400px;""></stim_listB>","","html-keyboard-response","247","1646313","0.0-17.0-1.5","59285","List1B","black","woman","","","","null","","","","","","","","",""
"null","is copying","","html-keyboard-response","248","1648318","0.0-17.0-2.5","59285","List1B","black","woman","","","","null","","","","","","","","",""
"6991.0999999940395","","","survey-text","249","1655315","0.0-17.0-3.5","59285","List1B","black","woman","","","","","{""Q0"":""luke is copying mike""}","<img src=""stim_listB/copy5.gif""style=""height:400px;""></stim_listB>","is copying","","","","","",""
"null","<div style=""font-size:60px;"">+</div>","","html-keyboard-response","250","1655818","0.0-17.0-0.6","59285","List1B","black","woman","","","","null","","","","","","","","",""
"null","<img src=""stim_listB/shout3.gif""style=""height:400px;""></stim_listB>","","html-keyboard-response","251","1657821","0.0-17.0-1.6","59285","List1B","black","woman","","","","null","","","","","","","","",""
"null","is shouting at","","html-keyboard-response","252","1659823","0.0-17.0-2.6","59285","List1B","black","woman","","","","null","","","","","","","","",""
"4693.600000023842","","","survey-text","253","1664525","0.0-17.0-3.6","59285","List1B","black","woman","","","","","{""Q0"":""ruth is shouting at luke""}","<img src=""stim_listB/shout3.gif""style=""height:400px;""></stim_listB>","is shouting at","","","","","",""
"null","<div style=""font-size:60px;"">+</div>","","html-keyboard-response","254","1665027","0.0-17.0-0.7","59285","List1B","black","woman","","","","null","","","","","","","","",""
"null","<img src=""stim_listB/oppose7.gif""style=""height:400px;""></stim_listB>","","html-keyboard-response","255","1667031","0.0-17.0-1.7","59285","List1B","black","woman","","","","null","","","","","","","","",""
"null","is opposing","","html-keyboard-response","256","1669033","0.0-17.0-2.7","59285","List1B","black","woman","","","","null","","","","","","","","",""
"5249.800000011921","","","survey-text","257","1674290","0.0-17.0-3.7","59285","List1B","black","woman","","","","","{""Q0"":""jane is opposing kate""}","<img src=""stim_listB/oppose7.gif""style=""height:400px;""></stim_listB>","is opposing","","","","","",""
"null","<div style=""font-size:60px;"">+</div>","","html-keyboard-response","258","1674792","0.0-17.0-0.8","59285","List1B","black","woman","","","","null","","","","","","","","",""
"null","<img src=""stim_listB/kiss5.gif""style=""height:400px;""></stim_listB>","","html-keyboard-response","259","1676795","0.0-17.0-1.8","59285","List1B","black","woman","","","","null","","","","","","","","",""
"null","is kissing","","html-keyboard-response","260","1678796","0.0-17.0-2.8","59285","List1B","black","woman","","","","null","","","","","","","","",""
"7148.899999976158","","","survey-text","261","1685951","0.0-17.0-3.8","59285","List1B","black","woman","","","","","{""Q0"":""fred is kissing luke""}","<img src=""stim_listB/kiss5.gif""style=""height:400px;""></stim_listB>","is kissing","","","","","",""
"null","<div style=""font-size:60px;"">+</div>","","html-keyboard-response","262","1686453","0.0-17.0-0.9","59285","List1B","black","woman","","","","null","","","","","","","","",""
"null","<img src=""stim_listB/kiss6.gif""style=""height:400px;""></stim_listB>","","html-keyboard-response","263","1688456","0.0-17.0-1.9","59285","List1B","black","woman","","","","null","","","","","","","","",""
"null","is being kissed by","","html-keyboard-response","264","1690458","0.0-17.0-2.9","59285","List1B","black","woman","","","","null","","","","","","","","",""
"9458.200000017881","","","survey-text","265","1699924","0.0-17.0-3.9","59285","List1B","black","woman","","","","","{""Q0"":""dave is being kissed by mike""}","<img src=""stim_listB/kiss6.gif""style=""height:400px;""></stim_listB>","is being kissed by","","","","","",""
"null","<div style=""font-size:60px;"">+</div>","","html-keyboard-response","266","1700426","0.0-17.0-0.10","59285","List1B","black","woman","","","","null","","","","","","","","",""
"null","<img src=""stim_listB/seduce5.gif""style=""height:400px;""></stim_listB>","","html-keyboard-response","267","1702428","0.0-17.0-1.10","59285","List1B","black","woman","","","","null","","","","","","","","",""
"null","is seducing","","html-keyboard-response","268","1704430","0.0-17.0-2.10","59285","List1B","black","woman","","","","null","","","","","","","","",""
"6773.5999999940395","","","survey-text","269","1711207","0.0-17.0-3.10","59285","List1B","black","woman","","","","","{""Q0"":""fred is seducing dave""}","<img src=""stim_listB/seduce5.gif""style=""height:400px;""></stim_listB>","is seducing","","","","","",""
"null","<div style=""font-size:60px;"">+</div>","","html-keyboard-response","270","1711709","0.0-17.0-0.11","59285","List1B","black","woman","","","","null","","","","","","","","",""
"null","<img src=""stim_listB/shout2.gif""style=""height:400px;""></stim_listB>","","html-keyboard-response","271","1713712","0.0-17.0-1.11","59285","List1B","black","woman","","","","null","","","","","","","","",""
"null","is being shouted at by","","html-keyboard-response","272","1715714","0.0-17.0-2.11","59285","List1B","black","woman","","","","null","","","","","","","","",""
"7202","","","survey-text","273","1722924","0.0-17.0-3.11","59285","List1B","black","woman","","","","","{""Q0"":""mike is being shouted at by kate""}","<img src=""stim_listB/shout2.gif""style=""height:400px;""></stim_listB>","is being shouted at by","","","","","",""
"null","<div style=""font-size:60px;"">+</div>","","html-keyboard-response","274","1723426","0.0-17.0-0.12","59285","List1B","black","woman","","","","null","","","","","","","","",""
"null","<img src=""stim_listB/copy4.gif""style=""height:400px;""></stim_listB>","","html-keyboard-response","275","1725429","0.0-17.0-1.12","59285","List1B","black","woman","","","","null","","","","","","","","",""
"null","is being copied by","","html-keyboard-response","276","1727432","0.0-17.0-2.12","59285","List1B","black","woman","","","","null","","","","","","","","",""
"8390.299999982119","","","survey-text","277","1735830","0.0-17.0-3.12","59285","List1B","black","woman","","","","","{""Q0"":""luke is being copied by jane""}","<img src=""stim_listB/copy4.gif""style=""height:400px;""></stim_listB>","is being copied by","","","","","",""
"null","<div style=""font-size:60px;"">+</div>","","html-keyboard-response","278","1736333","0.0-17.0-0.13","59285","List1B","black","woman","","","","null","","","","","","","","",""
"null","<img src=""stim_listB/look1.gif""style=""height:400px;""></stim_listB>","","html-keyboard-response","279","1738336","0.0-17.0-1.13","59285","List1B","black","woman","","","","null","","","","","","","","",""
"null","is looking at","","html-keyboard-response","280","1740338","0.0-17.0-2.13","59285","List1B","black","woman","","","","null","","","","","","","","",""
"5730.700000017881","","","survey-text","281","1746077","0.0-17.0-3.13","59285","List1B","black","woman","","","","","{""Q0"":""beth is looking at fred""}","<img src=""stim_listB/look1.gif""style=""height:400px;""></stim_listB>","is looking at","","","","","",""
"null","<div style=""font-size:60px;"">+</div>","","html-keyboard-response","282","1746578","0.0-17.0-0.14","59285","List1B","black","woman","","","","null","","","","","","","","",""
"null","<img src=""stim_listB/kiss2.gif""style=""height:400px;""></stim_listB>","","html-keyboard-response","283","1748581","0.0-17.0-1.14","59285","List1B","black","woman","","","","null","","","","","","","","",""
"null","is being kissed by","","html-keyboard-response","284","1750583","0.0-17.0-2.14","59285","List1B","black","woman","","","","null","","","","","","","","",""
"9731.5","","","survey-text","285","1760322","0.0-17.0-3.14","59285","List1B","black","woman","","","","","{""Q0"":""mike is being kissed by kate""}","<img src=""stim_listB/kiss2.gif""style=""height:400px;""></stim_listB>","is being kissed by","","","","","",""
"null","<div style=""font-size:60px;"">+</div>","","html-keyboard-response","286","1760824","0.0-17.0-0.15","59285","List1B","black","woman","","","","null","","","","","","","","",""
"null","<img src=""stim_listB/kiss3.gif""style=""height:400px;""></stim_listB>","","html-keyboard-response","287","1762827","0.0-17.0-1.15","59285","List1B","black","woman","","","","null","","","","","","","","",""
"null","is kissing","","html-keyboard-response","288","1764828","0.0-17.0-2.15","59285","List1B","black","woman","","","","null","","","","","","","","",""
"7049.700000017881","","","survey-text","289","1771886","0.0-17.0-3.15","59285","List1B","black","woman","","","","","{""Q0"":""ruth is kissing luke""}","<img src=""stim_listB/kiss3.gif""style=""height:400px;""></stim_listB>","is kissing","","","","","",""
"null","<div style=""font-size:60px;"">+</div>","","html-keyboard-response","290","1772388","0.0-17.0-0.16","59285","List1B","black","woman","","","","null","","","","","","","","",""
"null","<img src=""stim_listB/seduce3.gif""style=""height:400px;""></stim_listB>","","html-keyboard-response","291","1774393","0.0-17.0-1.16","59285","List1B","black","woman","","","","null","","","","","","","","",""
"null","is seducing","","html-keyboard-response","292","1776395","0.0-17.0-2.16","59285","List1B","black","woman","","","","null","","","","","","","","",""
"6767.5","","","survey-text","293","1783170","0.0-17.0-3.16","59285","List1B","black","woman","","","","","{""Q0"":""jane is seducing luke""}","<img src=""stim_listB/seduce3.gif""style=""height:400px;""></stim_listB>","is seducing","","","","","",""
"null","<div style=""font-size:60px;"">+</div>","","html-keyboard-response","294","1783672","0.0-17.0-0.17","59285","List1B","black","woman","","","","null","","","","","","","","",""
"null","<img src=""stim_listB/challenge5.gif""style=""height:400px;""></stim_listB>","","html-keyboard-response","295","1785675","0.0-17.0-1.17","59285","List1B","black","woman","","","","null","","","","","","","","",""
"null","is challenging","","html-keyboard-response","296","1787677","0.0-17.0-2.17","59285","List1B","black","woman","","","","null","","","","","","","","",""
"5370.199999988079","","","survey-text","297","1793056","0.0-17.0-3.17","59285","List1B","black","woman","","","","","{""Q0"":""luke is challenging mike""}","<img src=""stim_listB/challenge5.gif""style=""height:400px;""></stim_listB>","is challenging","","","","","",""
"null","<div style=""font-size:60px;"">+</div>","","html-keyboard-response","298","1793557","0.0-17.0-0.18","59285","List1B","black","woman","","","","null","","","","","","","","",""
"null","<img src=""stim_listB/hug7.gif""style=""height:400px;""></stim_listB>","","html-keyboard-response","299","1795559","0.0-17.0-1.18","59285","List1B","black","woman","","","","null","","","","","","","","",""
"null","is hugging","","html-keyboard-response","300","1797560","0.0-17.0-2.18","59285","List1B","black","woman","","","","null","","","","","","","","",""
"5923.5","","","survey-text","301","1803490","0.0-17.0-3.18","59285","List1B","black","woman","","","","","{""Q0"":""ruth is hugging beth""}","<img src=""stim_listB/hug7.gif""style=""height:400px;""></stim_listB>","is hugging","","","","","",""
"null","<div style=""font-size:60px;"">+</div>","","html-keyboard-response","302","1803992","0.0-17.0-0.19","59285","List1B","black","woman","","","","null","","","","","","","","",""
"null","<img src=""stim_listB/kiss7.gif""style=""height:400px;""></stim_listB>","","html-keyboard-response","303","1805995","0.0-17.0-1.19","59285","List1B","black","woman","","","","null","","","","","","","","",""
"null","is kissing","","html-keyboard-response","304","1807997","0.0-17.0-2.19","59285","List1B","black","woman","","","","null","","","","","","","","",""
"4198","","","survey-text","305","1812202","0.0-17.0-3.19","59285","List1B","black","woman","","","","","{""Q0"":""ruth is kissing beth""}","<img src=""stim_listB/kiss7.gif""style=""height:400px;""></stim_listB>","is kissing","","","","","",""
"3052.0999999940395","<img src='img/portrait_matrix_list1.jpg' style='width:900px;height:500px;''></img><p>If you have memorised all the portraits and names and are ready to start, press Continue.</p><p><strong>Please note: Your memory of these faces will be tested 4 times during this experiment.</strong></p>","0","html-button-response","306","1815257","0.0-18.0-0.0","59285","List1B","black","woman","","","","","","","","","","","","",""
"2588","<img src=""portrait/BW1.jpg""style=""height:400px;""></img>","0","html-button-response","307","1818849","0.0-18.0-1.0","59285","List1B","black","woman","","true","0","","","","","","","","","",""
"null","CORRECT","","html-keyboard-response","308","1820352","0.0-18.0-2.0-0.0","59285","List1B","black","woman","","","","null","","","","","","","","",""
"1517.9000000059605","<img src=""portrait/BM2.jpg""style=""height:400px;""></img>","5","html-button-response","309","1821872","0.0-18.0-4.0","59285","List1B","black","woman","","true","5","","","","","","","","","",""
"null","CORRECT","","html-keyboard-response","310","1823375","0.0-18.0-5.0-0.0","59285","List1B","black","woman","","","","null","","","","","","","","",""
"1225.699999988079","<img src=""portrait/WM2.jpg""style=""height:400px;""></img>","7","html-button-response","311","1824606","0.0-18.0-7.0","59285","List1B","black","woman","","true","7","","","","","","","","","",""
"null","CORRECT","","html-keyboard-response","312","1826108","0.0-18.0-8.0-0.0","59285","List1B","black","woman","","","","null","","","","","","","","",""
"1795.2999999821186","<img src=""portrait/WW1.jpg""style=""height:400px;""></img>","1","html-button-response","313","1827907","0.0-18.0-10.0","59285","List1B","black","woman","","true","1","","","","","","","","","",""
"null","CORRECT","","html-keyboard-response","314","1829409","0.0-18.0-11.0-0.0","59285","List1B","black","woman","","","","null","","","","","","","","",""
"1839.4000000059605","<img src=""portrait/WM1.jpg""style=""height:400px;""></img>","6","html-button-response","315","1831252","0.0-18.0-13.0","59285","List1B","black","woman","","true","6","","","","","","","","","",""
"null","CORRECT","","html-keyboard-response","316","1832756","0.0-18.0-14.0-0.0","59285","List1B","black","woman","","","","null","","","","","","","","",""
"1719.5","<img src=""portrait/BW2.jpg""style=""height:400px;""></img>","2","html-button-response","317","1834479","0.0-18.0-16.0","59285","List1B","black","woman","","true","2","","","","","","","","","",""
"null","CORRECT","","html-keyboard-response","318","1835982","0.0-18.0-17.0-0.0","59285","List1B","black","woman","","","","null","","","","","","","","",""
"1280.0999999940395","<img src=""portrait/WW2.jpg""style=""height:400px;""></img>","3","html-button-response","319","1837265","0.0-18.0-19.0","59285","List1B","black","woman","","true","3","","","","","","","","","",""
"null","CORRECT","","html-keyboard-response","320","1838768","0.0-18.0-20.0-0.0","59285","List1B","black","woman","","","","null","","","","","","","","",""
"2870.699999988079","<img src=""portrait/BM1.jpg""style=""height:400px;""></img>","4","html-button-response","321","1841641","0.0-18.0-22.0","59285","List1B","black","woman","","true","4","","","","","","","","","",""
"null","CORRECT","","html-keyboard-response","322","1843143","0.0-18.0-23.0-0.0","59285","List1B","black","woman","","","","null","","","","","","","","",""
"1249.5999999940395","<p>You got 8 out of 8 right first time. Press Continue.</p>","0","html-button-response","323","1844397","0.0-18.0-25.0","59285","List1B","black","woman","","","","","","","","","","","","",""
"null","<div style=""font-size:60px;"">+</div>","","html-keyboard-response","324","1845901","0.0-19.0-0.0","59285","List1B","black","woman","","","","null","","","","","","","","",""
"null","<img src=""stim_listB/kiss1.gif""style=""height:400px;""></stim_listB>","","html-keyboard-response","325","1847904","0.0-19.0-1.0","59285","List1B","black","woman","","","","null","","","","","","","","",""
"null","is kissing","","html-keyboard-response","326","1849906","0.0-19.0-2.0","59285","List1B","black","woman","","","","null","","","","","","","","",""
"12028.399999976158","","","survey-text","327","1861942","0.0-19.0-3.0","59285","List1B","black","woman","","","","","{""Q0"":""beth is kissing fred""}","<img src=""stim_listB/kiss1.gif""style=""height:400px;""></stim_listB>","is kissing","","","","","",""
"null","<div style=""font-size:60px;"">+</div>","","html-keyboard-response","328","1862445","0.0-19.0-0.1","59285","List1B","black","woman","","","","null","","","","","","","","",""
"null","<img src=""stim_listB/greet7.gif""style=""height:400px;""></stim_listB>","","html-keyboard-response","329","1864449","0.0-19.0-1.1","59285","List1B","black","woman","","","","null","","","","","","","","",""
"null","is greeting","","html-keyboard-response","330","1866451","0.0-19.0-2.1","59285","List1B","black","woman","","","","null","","","","","","","","",""
"5073.9000000059605","","","survey-text","331","1871533","0.0-19.0-3.1","59285","List1B","black","woman","","","","","{""Q0"":""ruth is greeting kate""}","<img src=""stim_listB/greet7.gif""style=""height:400px;""></stim_listB>","is greeting","","","","","",""
"null","<div style=""font-size:60px;"">+</div>","","html-keyboard-response","332","1872036","0.0-19.0-0.2","59285","List1B","black","woman","","","","null","","","","","","","","",""
"null","<img src=""stim_listB/greet2.gif""style=""height:400px;""></stim_listB>","","html-keyboard-response","333","1874039","0.0-19.0-1.2","59285","List1B","black","woman","","","","null","","","","","","","","",""
"null","is being greeted by","","html-keyboard-response","334","1876040","0.0-19.0-2.2","59285","List1B","black","woman","","","","null","","","","","","","","",""
"6041","","","survey-text","335","1882089","0.0-19.0-3.2","59285","List1B","black","woman","","","","","{""Q0"":""fred is being greeted by kate""}","<img src=""stim_listB/greet2.gif""style=""height:400px;""></stim_listB>","is being greeted by","","","","","",""
"null","<div style=""font-size:60px;"">+</div>","","html-keyboard-response","336","1882591","0.0-19.0-0.3","59285","List1B","black","woman","","","","null","","","","","","","","",""
"null","<img src=""stim_listB/oppose1.gif""style=""height:400px;""></stim_listB>","","html-keyboard-response","337","1884595","0.0-19.0-1.3","59285","List1B","black","woman","","","","null","","","","","","","","",""
"null","is opposing","","html-keyboard-response","338","1886597","0.0-19.0-2.3","59285","List1B","black","woman","","","","null","","","","","","","","",""
"4244.4000000059605","","","survey-text","339","1890846","0.0-19.0-3.3","59285","List1B","black","woman","","","","","{""Q0"":""kate is opposing mike""}","<img src=""stim_listB/oppose1.gif""style=""height:400px;""></stim_listB>","is opposing","","","","","",""
"null","<div style=""font-size:60px;"">+</div>","","html-keyboard-response","340","1891349","0.0-19.0-0.4","59285","List1B","black","woman","","","","null","","","","","","","","",""
"null","<img src=""stim_listB/oppose3.gif""style=""height:400px;""></stim_listB>","","html-keyboard-response","341","1893352","0.0-19.0-1.4","59285","List1B","black","woman","","","","null","","","","","","","","",""
"null","is opposing","","html-keyboard-response","342","1895354","0.0-19.0-2.4","59285","List1B","black","woman","","","","null","","","","","","","","",""
"9387.90000000596","","","survey-text","343","1904747","0.0-19.0-3.4","59285","List1B","black","woman","","","","","{""Q0"":""jane is opposing dave""}","<img src=""stim_listB/oppose3.gif""style=""height:400px;""></stim_listB>","is opposing","","","","","",""
"null","<div style=""font-size:60px;"">+</div>","","html-keyboard-response","344","1905249","0.0-19.0-0.5","59285","List1B","black","woman","","","","null","","","","","","","","",""
"null","<img src=""stim_listB/touch7.gif""style=""height:400px;""></stim_listB>","","html-keyboard-response","345","1907254","0.0-19.0-1.5","59285","List1B","black","woman","","","","null","","","","","","","","",""
"null","is touching","","html-keyboard-response","346","1909256","0.0-19.0-2.5","59285","List1B","black","woman","","","","null","","","","","","","","",""
"4466","","","survey-text","347","1913730","0.0-19.0-3.5","59285","List1B","black","woman","","","","","{""Q0"":""jane is touching kate""}","<img src=""stim_listB/touch7.gif""style=""height:400px;""></stim_listB>","is touching","","","","","",""
"null","<div style=""font-size:60px;"">+</div>","","html-keyboard-response","348","1914232","0.0-19.0-0.6","59285","List1B","black","woman","","","","null","","","","","","","","",""
"null","<img src=""stim_listB/kiss4.gif""style=""height:400px;""></stim_listB>","","html-keyboard-response","349","1916235","0.0-19.0-1.6","59285","List1B","black","woman","","","","null","","","","","","","","",""
"null","is being kissed by","","html-keyboard-response","350","1918237","0.0-19.0-2.6","59285","List1B","black","woman","","","","null","","","","","","","","",""
"6425.5","","","survey-text","351","1924666","0.0-19.0-3.6","59285","List1B","black","woman","","","","","{""Q0"":""jane is being kissed by dave""}","<img src=""stim_listB/kiss4.gif""style=""height:400px;""></stim_listB>","is being kissed by","","","","","",""
"null","<div style=""font-size:60px;"">+</div>","","html-keyboard-response","352","1925169","0.0-19.0-0.7","59285","List1B","black","woman","","","","null","","","","","","","","",""
"null","<img src=""stim_listB/look8.gif""style=""height:400px;""></stim_listB>","","html-keyboard-response","353","1927173","0.0-19.0-1.7","59285","List1B","black","woman","","","","null","","","","","","","","",""
"null","is being looked at by","","html-keyboard-response","354","1929175","0.0-19.0-2.7","59285","List1B","black","woman","","","","null","","","","","","","","",""
"7659.199999988079","","","survey-text","355","1936842","0.0-19.0-3.7","59285","List1B","black","woman","","","","","{""Q0"":""jane is being looked at by kate""}","<img src=""stim_listB/look8.gif""style=""height:400px;""></stim_listB>","is being looked at by","","","","","",""
"null","<div style=""font-size:60px;"">+</div>","","html-keyboard-response","356","1937345","0.0-19.0-0.8","59285","List1B","black","woman","","","","null","","","","","","","","",""
"null","<img src=""stim_listB/seduce6.gif""style=""height:400px;""></stim_listB>","","html-keyboard-response","357","1939350","0.0-19.0-1.8","59285","List1B","black","woman","","","","null","","","","","","","","",""
"null","is being seduced by","","html-keyboard-response","358","1941352","0.0-19.0-2.8","59285","List1B","black","woman","","","","null","","","","","","","","",""
"7067.300000011921","","","survey-text","359","1948425","0.0-19.0-3.8","59285","List1B","black","woman","","","","","{""Q0"":""luke is being seduced by mike""}","<img src=""stim_listB/seduce6.gif""style=""height:400px;""></stim_listB>","is being seduced by","","","","","",""
"null","<div style=""font-size:60px;"">+</div>","","html-keyboard-response","360","1948928","0.0-19.0-0.9","59285","List1B","black","woman","","","","null","","","","","","","","",""
"null","<img src=""stim_listB/challenge8.gif""style=""height:400px;""></stim_listB>","","html-keyboard-response","361","1950932","0.0-19.0-1.9","59285","List1B","black","woman","","","","null","","","","","","","","",""
"null","is being challenged by","","html-keyboard-response","362","1952934","0.0-19.0-2.9","59285","List1B","black","woman","","","","null","","","","","","","","",""
"7595.199999988079","","","survey-text","363","1960538","0.0-19.0-3.9","59285","List1B","black","woman","","","","","{""Q0"":""beth is being challenged by jane""}","<img src=""stim_listB/challenge8.gif""style=""height:400px;""></stim_listB>","is being challenged by","","","","","",""
"null","<div style=""font-size:60px;"">+</div>","","html-keyboard-response","364","1961040","0.0-19.0-0.10","59285","List1B","black","woman","","","","null","","","","","","","","",""
"null","<img src=""stim_listB/seduce7.gif""style=""height:400px;""></stim_listB>","","html-keyboard-response","365","1963043","0.0-19.0-1.10","59285","List1B","black","woman","","","","null","","","","","","","","",""
"null","is seducing","","html-keyboard-response","366","1965045","0.0-19.0-2.10","59285","List1B","black","woman","","","","null","","","","","","","","",""
"6091.9000000059605","","","survey-text","367","1971145","0.0-19.0-3.10","59285","List1B","black","woman","","","","","{""Q0"":""jane is seducing beth""}","<img src=""stim_listB/seduce7.gif""style=""height:400px;""></stim_listB>","is seducing","","","","","",""
"null","<div style=""font-size:60px;"">+</div>","","html-keyboard-response","368","1971647","0.0-19.0-0.11","59285","List1B","black","woman","","","","null","","","","","","","","",""
"null","<img src=""stim_listB/challenge4.gif""style=""height:400px;""></stim_listB>","","html-keyboard-response","369","1973650","0.0-19.0-1.11","59285","List1B","black","woman","","","","null","","","","","","","","",""
"null","is being challenged by","","html-keyboard-response","370","1975651","0.0-19.0-2.11","59285","List1B","black","woman","","","","null","","","","","","","","",""
"5811.0999999940395","","","survey-text","371","1981470","0.0-19.0-3.11","59285","List1B","black","woman","","","","","{""Q0"":""luke is being challenged by jane""}","<img src=""stim_listB/challenge4.gif""style=""height:400px;""></stim_listB>","is being challenged by","","","","","",""
"null","<div style=""font-size:60px;"">+</div>","","html-keyboard-response","372","1981972","0.0-19.0-0.12","59285","List1B","black","woman","","","","null","","","","","","","","",""
"null","<img src=""stim_listB/seduce2.gif""style=""height:400px;""></stim_listB>","","html-keyboard-response","373","1983974","0.0-19.0-1.12","59285","List1B","black","woman","","","","null","","","","","","","","",""
"null","is being seduced by","","html-keyboard-response","374","1985975","0.0-19.0-2.12","59285","List1B","black","woman","","","","null","","","","","","","","",""
"5695.100000023842","","","survey-text","375","1991678","0.0-19.0-3.12","59285","List1B","black","woman","","","","","{""Q0"":""beth is being seduced by mike""}","<img src=""stim_listB/seduce2.gif""style=""height:400px;""></stim_listB>","is being seduced by","","","","","",""
"null","<div style=""font-size:60px;"">+</div>","","html-keyboard-response","376","1992181","0.0-19.0-0.13","59285","List1B","black","woman","","","","null","","","","","","","","",""
"null","<img src=""stim_listB/look4.gif""style=""height:400px;""></stim_listB>","","html-keyboard-response","377","1994184","0.0-19.0-1.13","59285","List1B","black","woman","","","","null","","","","","","","","",""
"null","is being looked at by","","html-keyboard-response","378","1996185","0.0-19.0-2.13","59285","List1B","black","woman","","","","null","","","","","","","","",""
"5037.5999999940395","","","survey-text","379","2001231","0.0-19.0-3.13","59285","List1B","black","woman","","","","","{""Q0"":""dave is being looked at by jane""}","<img src=""stim_listB/look4.gif""style=""height:400px;""></stim_listB>","is being looked at by","","","","","",""
"null","<div style=""font-size:60px;"">+</div>","","html-keyboard-response","380","2001733","0.0-19.0-0.14","59285","List1B","black","woman","","","","null","","","","","","","","",""
"null","<img src=""stim_listB/greet1.gif""style=""height:400px;""></stim_listB>","","html-keyboard-response","381","2003737","0.0-19.0-1.14","59285","List1B","black","woman","","","","null","","","","","","","","",""
"null","is greeting","","html-keyboard-response","382","2005738","0.0-19.0-2.14","59285","List1B","black","woman","","","","null","","","","","","","","",""
"4780.200000017881","","","survey-text","383","2010524","0.0-19.0-3.14","59285","List1B","black","woman","","","","","{""Q0"":""beth is greeting mike""}","<img src=""stim_listB/greet1.gif""style=""height:400px;""></stim_listB>","is greeting","","","","","",""
"null","<div style=""font-size:60px;"">+</div>","","html-keyboard-response","384","2011026","0.0-19.0-0.15","59285","List1B","black","woman","","","","null","","","","","","","","",""
"null","<img src=""stim_listB/touch1.gif""style=""height:400px;""></stim_listB>","","html-keyboard-response","385","2013029","0.0-19.0-1.15","59285","List1B","black","woman","","","","null","","","","","","","","",""
"null","is touching","","html-keyboard-response","386","2015031","0.0-19.0-2.15","59285","List1B","black","woman","","","","null","","","","","","","","",""
"4263.300000011921","","","survey-text","387","2019302","0.0-19.0-3.15","59285","List1B","black","woman","","","","","{""Q0"":""kate is touching mike""}","<img src=""stim_listB/touch1.gif""style=""height:400px;""></stim_listB>","is touching","","","","","",""
"null","<div style=""font-size:60px;"">+</div>","","html-keyboard-response","388","2019804","0.0-19.0-0.16","59285","List1B","black","woman","","","","null","","","","","","","","",""
"null","<img src=""stim_listB/oppose5.gif""style=""height:400px;""></stim_listB>","","html-keyboard-response","389","2021809","0.0-19.0-1.16","59285","List1B","black","woman","","","","null","","","","","","","","",""
"null","is opposing","","html-keyboard-response","390","2023810","0.0-19.0-2.16","59285","List1B","black","woman","","","","null","","","","","","","","",""
"4510.5","","","survey-text","391","2028327","0.0-19.0-3.16","59285","List1B","black","woman","","","","","{""Q0"":""dave is opposing mike""}","<img src=""stim_listB/oppose5.gif""style=""height:400px;""></stim_listB>","is opposing","","","","","",""
"null","<div style=""font-size:60px;"">+</div>","","html-keyboard-response","392","2028829","0.0-19.0-0.17","59285","List1B","black","woman","","","","null","","","","","","","","",""
"null","<img src=""stim_listB/look3.gif""style=""height:400px;""></stim_listB>","","html-keyboard-response","393","2030832","0.0-19.0-1.17","59285","List1B","black","woman","","","","null","","","","","","","","",""
"null","is looking at","","html-keyboard-response","394","2032834","0.0-19.0-2.17","59285","List1B","black","woman","","","","null","","","","","","","","",""
"4498.9000000059605","","","survey-text","395","2037341","0.0-19.0-3.17","59285","List1B","black","woman","","","","","{""Q0"":""ruth is looking at luke""}","<img src=""stim_listB/look3.gif""style=""height:400px;""></stim_listB>","is looking at","","","","","",""
"null","<div style=""font-size:60px;"">+</div>","","html-keyboard-response","396","2037843","0.0-19.0-0.18","59285","List1B","black","woman","","","","null","","","","","","","","",""
"null","<img src=""stim_listB/greet4.gif""style=""height:400px;""></stim_listB>","","html-keyboard-response","397","2039846","0.0-19.0-1.18","59285","List1B","black","woman","","","","null","","","","","","","","",""
"null","is being greeted by","","html-keyboard-response","398","2041849","0.0-19.0-2.18","59285","List1B","black","woman","","","","null","","","","","","","","",""
"6066.399999976158","","","survey-text","399","2047923","0.0-19.0-3.18","59285","List1B","black","woman","","","","","{""Q0"":""jane is being greeted by luke""}","<img src=""stim_listB/greet4.gif""style=""height:400px;""></stim_listB>","is being greeted by","","","","","",""
"null","<div style=""font-size:60px;"">+</div>","","html-keyboard-response","400","2048426","0.0-19.0-0.19","59285","List1B","black","woman","","","","null","","","","","","","","",""
"null","<img src=""stim_listB/oppose4.gif""style=""height:400px;""></stim_listB>","","html-keyboard-response","401","2050429","0.0-19.0-1.19","59285","List1B","black","woman","","","","null","","","","","","","","",""
"null","is being opposed by","","html-keyboard-response","402","2052431","0.0-19.0-2.19","59285","List1B","black","woman","","","","null","","","","","","","","",""
"5943.200000017881","","","survey-text","403","2058382","0.0-19.0-3.19","59285","List1B","black","woman","","","","","{""Q0"":""ruth is being opposed by luke""}","<img src=""stim_listB/oppose4.gif""style=""height:400px;""></stim_listB>","is being opposed by","","","","","",""
"2500","<p>Thank you for completing that task.</p><p>The final part of this session is a questionnaire that will take about 4 minutes.</p><p>Press Continue.</p>","0","html-button-response","404","2060885","0.0-20.0","59285","List1B","black","woman","","","","","","","","","","","","",""
"49279.29999998212","","","survey-text","405","2111197","0.0-21.0","59285","List1B","black","woman","","","","","{""Q0"":""22"",""Q1"":""English"",""Q2"":""English"",""Q3"":""United States"",""Q4"":""American"",""Q5"":""Black"",""Q6"":""Woman""}","","","demographics","","","","",""
"1884.199999988079","<p>Have you lived in the USA for the last 5 years or more?</p>","0","html-button-response","406","2113086","0.0-22.0","59285","List1B","black","woman","","","","","","","","fiveyears","","","","",""
"2387.699999988079","<p>Move the slider to show the extent to which you agree with the following statements.</p>","0","html-button-response","407","2116476","0.0-23.0","59285","List1B","black","woman","","","","","","","","","","","","",""
"3504.5","","","html-slider-response","408","2120985","0.0-24.0-0.0-0.0","59285","List1B","black","woman","","","","","","","","survey_gender","7","","","Being around my friends gives me a good feeling.","filler"
"2890.600000023842","","","html-slider-response","409","2123878","0.0-24.0-0.0-0.1","59285","List1B","black","woman","","","","","","","","survey_gender","76","","","People of my gender have a lot in common with each other.","common"
"2846.0999999940395","","","html-slider-response","410","2126730","0.0-24.0-0.0-0.2","59285","List1B","black","woman","","","","","","","","survey_gender","0","","","I consider myself a highly empathetic person.","filler"
"3738.9000000059605","","","html-slider-response","411","2130473","0.0-24.0-0.0-0.3","59285","List1B","black","woman","","","","","","","","survey_gender","57","","","It is not always easy for people to know what I am thinking.","filler"
"2187","","","html-slider-response","412","2132666","0.0-24.0-0.0-0.4","59285","List1B","black","woman","","","","","","","","survey_gender","30","","","I have a lot in common with my friends.","filler"
"2587.9000000059605","","","html-slider-response","413","2135258","0.0-24.0-0.0-0.5","59285","List1B","black","woman","","","","","","","","survey_gender","90","","","I think that my gender has a lot to be proud of.","proud"
"2640.4000000059605","","","html-slider-response","414","2137904","0.0-24.0-0.0-0.6","59285","List1B","black","woman","","","","","","","","survey_gender","84","","","People of my gender are very similar to each other.","verysimilar"
"2628.300000011921","","","html-slider-response","415","2140535","0.0-24.0-0.0-0.7","59285","List1B","black","woman","","","","","","","","survey_gender","68","","","I feel a bond with my gender.","bond"
"2193.4000000059605","","","html-slider-response","416","2142731","0.0-24.0-0.0-0.8","59285","List1B","black","woman","","","","","","","","survey_gender","20","","","My friends understand me.","filler"
"2146.7999999821186","","","html-slider-response","417","2144882","0.0-24.0-0.0-0.9","59285","List1B","black","woman","","","","","","","","survey_gender","10","","","I am glad to have the friends that I have.","filler"
"1960.9000000059605","","","html-slider-response","418","2146847","0.0-24.0-0.0-0.10","59285","List1B","black","woman","","","","","","","","survey_gender","1","","","I feel solidarity with my friends.","filler"
"3698","","","html-slider-response","419","2150547","0.0-24.0-0.0-0.11","59285","List1B","black","woman","","","","","","","","survey_gender","58","","","Routine is not important to me.","filler"
"2203.0999999940395","","","html-slider-response","420","2152754","0.0-24.0-0.0-0.12","59285","List1B","black","woman","","","","","","","","survey_gender","65","","","I feel committed to my gender.","committed"
"2189.2000000178814","","","html-slider-response","421","2154947","0.0-24.0-0.0-0.13","59285","List1B","black","woman","","","","","","","","survey_gender","67","","","It is pleasant to be my gender.","pleasant"
"3383.7000000178814","","","html-slider-response","422","2158333","0.0-24.0-0.0-0.14","59285","List1B","black","woman","","","","","","","","survey_gender","74","","","My friends have a lot in common with each other.","filler"
"3243.2999999821186","","","html-slider-response","423","2161582","0.0-24.0-0.0-0.15","59285","List1B","black","woman","","","","","","","","survey_gender","58","","","I often think about the fact that I am my gender.","often"
"3187.800000011921","","","html-slider-response","424","2164775","0.0-24.0-0.0-0.16","59285","List1B","black","woman","","","","","","","","survey_gender","34","","","Family is not more important to me than friendship.","filler"
"2264","","","html-slider-response","425","2167042","0.0-24.0-0.0-0.17","59285","List1B","black","woman","","","","","","","","survey_gender","76","","","I feel solidarity with my gender.","solidarity"
"2640.4000000059605","","","html-slider-response","426","2169686","0.0-24.0-0.0-0.18","59285","List1B","black","woman","","","","","","","","survey_gender","0","","","I would say I am an animal person.","filler"
"2300.699999988079","","","html-slider-response","427","2171991","0.0-24.0-0.0-0.19","59285","List1B","black","woman","","","","","","","","survey_gender","62","","","Being my gender gives me a good feeling.","feeling"
"3437.5","","","html-slider-response","428","2175432","0.0-24.0-0.0-0.20","59285","List1B","black","woman","","","","","","","","survey_gender","43","","","The fact that I am my gender is an important part of my identity.","identity"
"2778.0999999940395","","","html-slider-response","429","2178215","0.0-24.0-0.0-0.21","59285","List1B","black","woman","","","","","","","","survey_gender","59","","","I have a lot in common with the average person of my gender.","average"
"5363.800000011921","","","html-slider-response","430","2183582","0.0-24.0-0.0-0.22","59285","List1B","black","woman","","","","","","","","survey_gender","53","","","I am similar to the average person of my gender.","similar"
"2566.699999988079","","","html-slider-response","431","2186154","0.0-24.0-0.0-0.23","59285","List1B","black","woman","","","","","","","","survey_gender","22","","","Most of the friends in my life are very similar to me.","filler"
"2176.399999976158","","","html-slider-response","432","2188333","0.0-24.0-0.0-0.24","59285","List1B","black","woman","","","","","","","","survey_gender","83","","","I am glad to be my gender.","glad"
"2300.5999999940395","","","html-slider-response","433","2190637","0.0-24.0-0.0-0.25","59285","List1B","black","woman","","","","","","","","survey_gender","52","","","Being my gender is an important part of how I see myself.","important"
"1920.0999999940395","","","html-slider-response","434","2192561","0.0-24.0-0.0-0.26","59285","List1B","black","woman","","","","","","","","survey_gender","6","","","I feel a bond with my friends.","filler"
"2350.399999976158","","","html-slider-response","435","2194916","0.0-24.0-0.0-0.27","59285","List1B","black","woman","","","","","","","","survey_gender","89","","","I often think about my actions.","filler"
"2953.2000000178814","","","html-slider-response","436","2197873","0.0-24.0-1.0-0.0","59285","List1B","black","woman","","","","","","","","survey_race","80","","","Being my race is an important part of how I see myself.","important"
"2542.300000011921","","","html-slider-response","437","2200421","0.0-24.0-1.0-0.1","59285","List1B","black","woman","","","","","","","","survey_race","10","","","I am glad to be my age.","filler"
"1755.300000011921","","","html-slider-response","438","2202180","0.0-24.0-1.0-0.2","59285","List1B","black","woman","","","","","","","","survey_race","66","","","I feel a bond with my race.","bond"
"2077.5","","","html-slider-response","439","2204259","0.0-24.0-1.0-0.3","59285","List1B","black","woman","","","","","","","","survey_race","100","","","I consider myself an introvert.","filler"
"2320","","","html-slider-response","440","2206583","0.0-24.0-1.0-0.4","59285","List1B","black","woman","","","","","","","","survey_race","97","","","I think that my race has a lot to be proud of.","proud"
"2199.300000011921","","","html-slider-response","441","2208785","0.0-24.0-1.0-0.5","59285","List1B","black","woman","","","","","","","","survey_race","63","","","People my age have a lot in common with each other.","filler"
"1902.800000011921","","","html-slider-response","442","2210690","0.0-24.0-1.0-0.6","59285","List1B","black","woman","","","","","","","","survey_race","69","","","I feel a bond with people the same age as me.","filler"
"2124.5999999940395","","","html-slider-response","443","2212818","0.0-24.0-1.0-0.7","59285","List1B","black","woman","","","","","","","","survey_race","0","","","I enjoy being in large groups.","filler"
"3338.399999976158","","","html-slider-response","444","2216159","0.0-24.0-1.0-0.8","59285","List1B","black","woman","","","","","","","","survey_race","26","","","I have a lot in common with people of a similar age to me.","filler"
"2236.199999988079","","","html-slider-response","445","2218398","0.0-24.0-1.0-0.9","59285","List1B","black","woman","","","","","","","","survey_race","32","","","My age is not an important part of who I am.","filler"
"2707.5","","","html-slider-response","446","2221109","0.0-24.0-1.0-0.10","59285","List1B","black","woman","","","","","","","","survey_race","66","","","I have a lot in common with the average person of my race.","average"
"1900","","","html-slider-response","447","2223013","0.0-24.0-1.0-0.11","59285","List1B","black","woman","","","","","","","","survey_race","63","","","People of my race are very similar to each other.","verysimilar"
"2427.300000011921","","","html-slider-response","448","2225443","0.0-24.0-1.0-0.12","59285","List1B","black","woman","","","","","","","","survey_race","11","","","I am glad to be the age I am.","filler"
"2350.4000000059605","","","html-slider-response","449","2227798","0.0-24.0-1.0-0.13","59285","List1B","black","woman","","","","","","","","survey_race","64","","","The fact that I am my race is an important part of my identity.","identity"
"2176.0999999940395","","","html-slider-response","450","2229978","0.0-24.0-1.0-0.14","59285","List1B","black","woman","","","","","","","","survey_race","64","","","I am similar to the average person of my race.","similar"
"2684.800000011921","","","html-slider-response","451","2232665","0.0-24.0-1.0-0.15","59285","List1B","black","woman","","","","","","","","survey_race","73","","","People of my race have a lot in common with each other.","common"
"2712.100000023842","","","html-slider-response","452","2235379","0.0-24.0-1.0-0.16","59285","List1B","black","woman","","","","","","","","survey_race","93","","","I often think about the fact that I am my age.","filler"
"2047.7000000178814","","","html-slider-response","453","2237432","0.0-24.0-1.0-0.17","59285","List1B","black","woman","","","","","","","","survey_race","0","","","I consider myself an extrovert.","filler"
"1770.5999999940395","","","html-slider-response","454","2239206","0.0-24.0-1.0-0.18","59285","List1B","black","woman","","","","","","","","survey_race","73","","","I often think about the fact that I am my race.","often"
"2297.2999999821186","","","html-slider-response","455","2241506","0.0-24.0-1.0-0.19","59285","List1B","black","woman","","","","","","","","survey_race","0","","","The older I get, the wiser I feel.","filler"
"1702.7000000178814","","","html-slider-response","456","2243213","0.0-24.0-1.0-0.20","59285","List1B","black","woman","","","","","","","","survey_race","75","","","It is pleasant to be my race.","pleasant"
"2840.0999999940395","","","html-slider-response","457","2246055","0.0-24.0-1.0-0.21","59285","List1B","black","woman","","","","","","","","survey_race","4","","","Being my age gives me a good feeling.","filler"
"2986.2999999821186","","","html-slider-response","458","2249046","0.0-24.0-1.0-0.22","59285","List1B","black","woman","","","","","","","","survey_race","36","","","I feel solidarity with people the same age as me.","filler"
"3083.5","","","html-slider-response","459","2252133","0.0-24.0-1.0-0.23","59285","List1B","black","woman","","","","","","","","survey_race","6","","","Getting older does not worry me.","filler"
"1982","","","html-slider-response","460","2254122","0.0-24.0-1.0-0.24","59285","List1B","black","woman","","","","","","","","survey_race","72","","","I feel solidarity with my race.","solidarity"
"2404.899999976158","","","html-slider-response","461","2256530","0.0-24.0-1.0-0.25","59285","List1B","black","woman","","","","","","","","survey_race","69","","","I feel committed to my race.","committed"
"1694.7000000178814","","","html-slider-response","462","2258228","0.0-24.0-1.0-0.26","59285","List1B","black","woman","","","","","","","","survey_race","85","","","I am glad to be my race.","glad"
"1824.5","","","html-slider-response","463","2260057","0.0-24.0-1.0-0.27","59285","List1B","black","woman","","","","","","","","survey_race","87","","","Being my race gives me a good feeling.","feeling"
"11561.5","","","survey-text","464","2271627","0.0-25.0","59285","List1B","black","woman","","","","","{""Q0"":""60130d613d3ca613b04d39bb""}","","","worker_id","","","","",""
"35757.30000001192","","","external-html","465","2307793","0.0-26.0","59285","List1B","black","woman","debrief.html","","","","","","","","","","","",""
