"rt","stimulus","button_pressed","trial_type","trial_index","time_elapsed","internal_node_id","subject","list","ppt_race","ppt_gender","url","first_guess","correct","key_press","responses","image_type","phrase_type","test_part","response","stimulus1","stimulus2","question_type","survey_item"
"59151.70000001788","Welcome to the experiment. Press Continue to begin.","0","html-button-response","0","59163","0.0-0.0","5949","List1B","white","woman","","","","","","","","","","","","",""
"68440.40000000596","","","external-html","1","129010","0.0-1.0","5949","List1B","white","woman","consent.html","","","","","","","","","","","",""
"17545.90000000596","<p>On the next page, you will see portraits of 8 people and their names.</p><p>Your first task is to take a few minutes to memorise the names of these people.</p><p>You will have to recall their names during the rest of the experiment, so it is</p><p>essential that you try to memorise these people and their names as best as you can.</p><br><p><strong>You will then be tested on your memory of these names and portraits.</strong></p><br><p>The experiment will start after you have completed this memory test.</p><br><p>Ready?</p>","0","html-button-response","2","146563","0.0-2.0","5949","List1B","white","woman","","","","","","","","","","","","",""
"127753.39999997616","<img src='img/portrait_matrix_list1.jpg' style='width:900px;height:500px;''></img><p>If you have memorised all the portraits and names and are ready to start, press Continue.</p><p><strong>Please note: Your memory of these faces will be tested 4 times during this experiment.</strong></p>","0","html-button-response","3","275324","0.0-3.0-0.0","5949","List1B","white","woman","","","","","","","","","","","","",""
"4567.200000017881","<img src=""portrait/WW1.jpg""style=""height:400px;""></img>","1","html-button-response","4","280902","0.0-3.0-1.0","5949","List1B","white","woman","","true","1","","","","","","","","","",""
"null","CORRECT","","html-keyboard-response","5","282417","0.0-3.0-2.0-0.0","5949","List1B","white","woman","","","","null","","","","","","","","",""
"4810.0999999940395","<img src=""portrait/BM2.jpg""style=""height:400px;""></img>","5","html-button-response","6","287236","0.0-3.0-4.0","5949","List1B","white","woman","","true","5","","","","","","","","","",""
"null","CORRECT","","html-keyboard-response","7","288742","0.0-3.0-5.0-0.0","5949","List1B","white","woman","","","","null","","","","","","","","",""
"4102.5","<img src=""portrait/WM1.jpg""style=""height:400px;""></img>","6","html-button-response","8","292852","0.0-3.0-7.0","5949","List1B","white","woman","","true","6","","","","","","","","","",""
"null","CORRECT","","html-keyboard-response","9","294357","0.0-3.0-8.0-0.0","5949","List1B","white","woman","","","","null","","","","","","","","",""
"4474.200000017881","<img src=""portrait/BW1.jpg""style=""height:400px;""></img>","0","html-button-response","10","298838","0.0-3.0-10.0","5949","List1B","white","woman","","true","0","","","","","","","","","",""
"null","CORRECT","","html-keyboard-response","11","300343","0.0-3.0-11.0-0.0","5949","List1B","white","woman","","","","null","","","","","","","","",""
"3844.4000000059605","<img src=""portrait/WW2.jpg""style=""height:400px;""></img>","3","html-button-response","12","304194","0.0-3.0-13.0","5949","List1B","white","woman","","true","3","","","","","","","","","",""
"null","CORRECT","","html-keyboard-response","13","305699","0.0-3.0-14.0-0.0","5949","List1B","white","woman","","","","null","","","","","","","","",""
"2710.5","<img src=""portrait/WM2.jpg""style=""height:400px;""></img>","7","html-button-response","14","308416","0.0-3.0-16.0","5949","List1B","white","woman","","true","7","","","","","","","","","",""
"null","CORRECT","","html-keyboard-response","15","309921","0.0-3.0-17.0-0.0","5949","List1B","white","woman","","","","null","","","","","","","","",""
"3116","<img src=""portrait/BM1.jpg""style=""height:400px;""></img>","4","html-button-response","16","313043","0.0-3.0-19.0","5949","List1B","white","woman","","true","4","","","","","","","","","",""
"null","CORRECT","","html-keyboard-response","17","314548","0.0-3.0-20.0-0.0","5949","List1B","white","woman","","","","null","","","","","","","","",""
"3065.5999999940395","<img src=""portrait/BW2.jpg""style=""height:400px;""></img>","2","html-button-response","18","317618","0.0-3.0-22.0","5949","List1B","white","woman","","true","2","","","","","","","","","",""
"null","CORRECT","","html-keyboard-response","19","319123","0.0-3.0-23.0-0.0","5949","List1B","white","woman","","","","null","","","","","","","","",""
"3038","<p>You got 8 out of 8 right first time. Press Continue.</p>","0","html-button-response","20","322169","0.0-3.0-25.0","5949","List1B","white","woman","","","","","","","","","","","","",""
"51342.59999999404","<p>In this experiment, you will view photographs of the people from the memory game interacting.</p><p>By using the <strong>exact</strong> phrase given <i>after</i> the photograph appears and recalling the correct names of the people in the photographs, form a sentence describing the interaction. You do not need to capitalise names.</p><p>Type your answer in the space provided. Please complete every sentence before moving onto the next trial.</p><p>You will only have a few seconds to memorise each given photograph and phrase before you can respond, so try your best to focus.</p><p>An example is given below. Press 'Continue' when you are ready.</p><img src='img/speaking_example.jpg' style='width:800px;height:460px;''></img>","0","html-button-response","21","374523","0.0-4.0","5949","List1B","white","woman","","","","","","","","","","","","",""
"2263.899999976158","<p>Before the experiment starts, you will watch two example trials. Press 'Continue'.</p>","0","html-button-response","22","377793","0.0-5.0","5949","List1B","white","woman","","","","","","","","","","","","",""
"null","<img src='img/play_eg.gif' style='height:400px;''></img>","","html-keyboard-response","23","380798","0.0-6.0","5949","List1B","white","woman","","","","null","","","","","","","","",""
"null","<p>is playing with</p>","","html-keyboard-response","24","382802","0.0-7.0","5949","List1B","white","woman","","","","null","","","","","","","","",""
"5619.4000000059605","<p><b>Answer:</b> kate is playing with beth</p>","0","html-button-response","25","388426","0.0-8.0","5949","List1B","white","woman","","","","","","","","","","","","",""
"null","<img src='img/dance_eg.gif' style='height:400px;''></img>","","html-keyboard-response","26","391432","0.0-9.0","5949","List1B","white","woman","","","","null","","","","","","","","",""
"null","<p>is being entertained by</p>","","html-keyboard-response","27","393436","0.0-10.0","5949","List1B","white","woman","","","","null","","","","","","","","",""
"2210.399999976158","<p><b>Answer:</b> luke is being entertained by dave</p>","0","html-button-response","28","395650","0.0-11.0","5949","List1B","white","woman","","","","","","","","","","","","",""
"13564.300000011921","<p>Ready to start the experiment?</p><br><p><strong>Remember to describe the picture using a full sentence,</strong></p><p><strong>that combines the names of the people with the <i>exact</i> phrase given.</strong></p><p><strong>To receive full payment you must do this correctly.</strong></p><p><strong> You do not need to capitalise names or use punctuation.</strong></p><br><p>Press 'Continue' to begin.</p>","0","html-button-response","29","410219","0.0-12.0","5949","List1B","white","woman","","","","","","","","","","","","",""
"null","<div style=""font-size:60px;"">+</div>","","html-keyboard-response","30","411723","0.0-13.0-0.0","5949","List1B","white","woman","","","","null","","","","","","","","",""
"null","<img src=""stim_listB/oppose3.gif""style=""height:400px;""></stim_listB>","","html-keyboard-response","31","413730","0.0-13.0-1.0","5949","List1B","white","woman","","","","null","","","","","","","","",""
"null","is opposing","","html-keyboard-response","32","415734","0.0-13.0-2.0","5949","List1B","white","woman","","","","null","","","","","","","","",""
"13290.100000023842","","","survey-text","33","429036","0.0-13.0-3.0","5949","List1B","white","woman","","","","","{""Q0"":""jane is opposing dave.""}","<img src=""stim_listB/oppose3.gif""style=""height:400px;""></stim_listB>","is opposing","","","","","",""
"null","<div style=""font-size:60px;"">+</div>","","html-keyboard-response","34","429542","0.0-13.0-0.1","5949","List1B","white","woman","","","","null","","","","","","","","",""
"null","<img src=""stim_listB/oppose2.gif""style=""height:400px;""></stim_listB>","","html-keyboard-response","35","431547","0.0-13.0-1.1","5949","List1B","white","woman","","","","null","","","","","","","","",""
"null","is being opposed by","","html-keyboard-response","36","433551","0.0-13.0-2.1","5949","List1B","white","woman","","","","null","","","","","","","","",""
"11605.5","","","survey-text","37","445174","0.0-13.0-3.1","5949","List1B","white","woman","","","","","{""Q0"":""fred is being opposed by beth.""}","<img src=""stim_listB/oppose2.gif""style=""height:400px;""></stim_listB>","is being opposed by","","","","","",""
"null","<div style=""font-size:60px;"">+</div>","","html-keyboard-response","38","445678","0.0-13.0-0.2","5949","List1B","white","woman","","","","null","","","","","","","","",""
"null","<img src=""stim_listB/oppose8.gif""style=""height:400px;""></stim_listB>","","html-keyboard-response","39","447685","0.0-13.0-1.2","5949","List1B","white","woman","","","","null","","","","","","","","",""
"null","is being opposed by","","html-keyboard-response","40","449689","0.0-13.0-2.2","5949","List1B","white","woman","","","","null","","","","","","","","",""
"16285.300000011921","","","survey-text","41","465991","0.0-13.0-3.2","5949","List1B","white","woman","","","","","{""Q0"":""ruth is being forced by beth.""}","<img src=""stim_listB/oppose8.gif""style=""height:400px;""></stim_listB>","is being opposed by","","","","","",""
"null","<div style=""font-size:60px;"">+</div>","","html-keyboard-response","42","466497","0.0-13.0-0.3","5949","List1B","white","woman","","","","null","","","","","","","","",""
"null","<img src=""stim_listB/copy3.gif""style=""height:400px;""></stim_listB>","","html-keyboard-response","43","468504","0.0-13.0-1.3","5949","List1B","white","woman","","","","null","","","","","","","","",""
"null","is copying","","html-keyboard-response","44","470508","0.0-13.0-2.3","5949","List1B","white","woman","","","","null","","","","","","","","",""
"11728.699999988079","","","survey-text","45","482252","0.0-13.0-3.3","5949","List1B","white","woman","","","","","{""Q0"":""ruth is copying dave.""}","<img src=""stim_listB/copy3.gif""style=""height:400px;""></stim_listB>","is copying","","","","","",""
"null","<div style=""font-size:60px;"">+</div>","","html-keyboard-response","46","482757","0.0-13.0-0.4","5949","List1B","white","woman","","","","null","","","","","","","","",""
"null","<img src=""stim_listB/copy4.gif""style=""height:400px;""></stim_listB>","","html-keyboard-response","47","484765","0.0-13.0-1.4","5949","List1B","white","woman","","","","null","","","","","","","","",""
"null","is being copied by","","html-keyboard-response","48","486770","0.0-13.0-2.4","5949","List1B","white","woman","","","","null","","","","","","","","",""
"14981.199999988079","","","survey-text","49","501762","0.0-13.0-3.4","5949","List1B","white","woman","","","","","{""Q0"":""jane is being copied by luke.""}","<img src=""stim_listB/copy4.gif""style=""height:400px;""></stim_listB>","is being copied by","","","","","",""
"null","<div style=""font-size:60px;"">+</div>","","html-keyboard-response","50","502269","0.0-13.0-0.5","5949","List1B","white","woman","","","","null","","","","","","","","",""
"null","<img src=""stim_listB/greet7.gif""style=""height:400px;""></stim_listB>","","html-keyboard-response","51","504277","0.0-13.0-1.5","5949","List1B","white","woman","","","","null","","","","","","","","",""
"null","is greeting","","html-keyboard-response","52","506282","0.0-13.0-2.5","5949","List1B","white","woman","","","","null","","","","","","","","",""
"9747.399999976158","","","survey-text","53","516041","0.0-13.0-3.5","5949","List1B","white","woman","","","","","{""Q0"":""ruth is greeting kate.""}","<img src=""stim_listB/greet7.gif""style=""height:400px;""></stim_listB>","is greeting","","","","","",""
"null","<div style=""font-size:60px;"">+</div>","","html-keyboard-response","54","516548","0.0-13.0-0.6","5949","List1B","white","woman","","","","null","","","","","","","","",""
"null","<img src=""stim_listB/seduce5.gif""style=""height:400px;""></stim_listB>","","html-keyboard-response","55","518556","0.0-13.0-1.6","5949","List1B","white","woman","","","","null","","","","","","","","",""
"null","is seducing","","html-keyboard-response","56","520561","0.0-13.0-2.6","5949","List1B","white","woman","","","","null","","","","","","","","",""
"7835","","","survey-text","57","528406","0.0-13.0-3.6","5949","List1B","white","woman","","","","","{""Q0"":""fred is seducing dave.""}","<img src=""stim_listB/seduce5.gif""style=""height:400px;""></stim_listB>","is seducing","","","","","",""
"null","<div style=""font-size:60px;"">+</div>","","html-keyboard-response","58","528911","0.0-13.0-0.7","5949","List1B","white","woman","","","","null","","","","","","","","",""
"null","<img src=""stim_listB/seduce8.gif""style=""height:400px;""></stim_listB>","","html-keyboard-response","59","530917","0.0-13.0-1.7","5949","List1B","white","woman","","","","null","","","","","","","","",""
"null","is being seduced by","","html-keyboard-response","60","532921","0.0-13.0-2.7","5949","List1B","white","woman","","","","null","","","","","","","","",""
"11627.700000017881","","","survey-text","61","544560","0.0-13.0-3.7","5949","List1B","white","woman","","","","","{""Q0"":""ruth is being seduced by kate.""}","<img src=""stim_listB/seduce8.gif""style=""height:400px;""></stim_listB>","is being seduced by","","","","","",""
"null","<div style=""font-size:60px;"">+</div>","","html-keyboard-response","62","545066","0.0-13.0-0.8","5949","List1B","white","woman","","","","null","","","","","","","","",""
"null","<img src=""stim_listB/challenge5.gif""style=""height:400px;""></stim_listB>","","html-keyboard-response","63","547074","0.0-13.0-1.8","5949","List1B","white","woman","","","","null","","","","","","","","",""
"null","is challenging","","html-keyboard-response","64","549079","0.0-13.0-2.8","5949","List1B","white","woman","","","","null","","","","","","","","",""
"9514.199999988079","","","survey-text","65","558604","0.0-13.0-3.8","5949","List1B","white","woman","","","","","{""Q0"":""luke is challenging mike.""}","<img src=""stim_listB/challenge5.gif""style=""height:400px;""></stim_listB>","is challenging","","","","","",""
"null","<div style=""font-size:60px;"">+</div>","","html-keyboard-response","66","559108","0.0-13.0-0.9","5949","List1B","white","woman","","","","null","","","","","","","","",""
"null","<img src=""stim_listB/greet3.gif""style=""height:400px;""></stim_listB>","","html-keyboard-response","67","561113","0.0-13.0-1.9","5949","List1B","white","woman","","","","null","","","","","","","","",""
"null","is greeting","","html-keyboard-response","68","563123","0.0-13.0-2.9","5949","List1B","white","woman","","","","null","","","","","","","","",""
"9442.199999988079","","","survey-text","69","572573","0.0-13.0-3.9","5949","List1B","white","woman","","","","","{""Q0"":""ruth is greeting dave.""}","<img src=""stim_listB/greet3.gif""style=""height:400px;""></stim_listB>","is greeting","","","","","",""
"null","<div style=""font-size:60px;"">+</div>","","html-keyboard-response","70","573085","0.0-13.0-0.10","5949","List1B","white","woman","","","","null","","","","","","","","",""
"null","<img src=""stim_listB/greet8.gif""style=""height:400px;""></stim_listB>","","html-keyboard-response","71","575092","0.0-13.0-1.10","5949","List1B","white","woman","","","","null","","","","","","","","",""
"null","is being greeted by","","html-keyboard-response","72","577096","0.0-13.0-2.10","5949","List1B","white","woman","","","","null","","","","","","","","",""
"10289","","","survey-text","73","587394","0.0-13.0-3.10","5949","List1B","white","woman","","","","","{""Q0"":""beth is being greeted by jane.""}","<img src=""stim_listB/greet8.gif""style=""height:400px;""></stim_listB>","is being greeted by","","","","","",""
"null","<div style=""font-size:60px;"">+</div>","","html-keyboard-response","74","587899","0.0-13.0-0.11","5949","List1B","white","woman","","","","null","","","","","","","","",""
"null","<img src=""stim_listB/kiss7.gif""style=""height:400px;""></stim_listB>","","html-keyboard-response","75","589905","0.0-13.0-1.11","5949","List1B","white","woman","","","","null","","","","","","","","",""
"null","is kissing","","html-keyboard-response","76","591910","0.0-13.0-2.11","5949","List1B","white","woman","","","","null","","","","","","","","",""
"11855.300000011921","","","survey-text","77","603775","0.0-13.0-3.11","5949","List1B","white","woman","","","","","{""Q0"":""beth is kissing ruth.""}","<img src=""stim_listB/kiss7.gif""style=""height:400px;""></stim_listB>","is kissing","","","","","",""
"null","<div style=""font-size:60px;"">+</div>","","html-keyboard-response","78","604279","0.0-13.0-0.12","5949","List1B","white","woman","","","","null","","","","","","","","",""
"null","<img src=""stim_listB/seduce3.gif""style=""height:400px;""></stim_listB>","","html-keyboard-response","79","606285","0.0-13.0-1.12","5949","List1B","white","woman","","","","null","","","","","","","","",""
"null","is seducing","","html-keyboard-response","80","608290","0.0-13.0-2.12","5949","List1B","white","woman","","","","null","","","","","","","","",""
"7686.700000017881","","","survey-text","81","615987","0.0-13.0-3.12","5949","List1B","white","woman","","","","","{""Q0"":""jane is seducing luke.""}","<img src=""stim_listB/seduce3.gif""style=""height:400px;""></stim_listB>","is seducing","","","","","",""
"null","<div style=""font-size:60px;"">+</div>","","html-keyboard-response","82","616496","0.0-13.0-0.13","5949","List1B","white","woman","","","","null","","","","","","","","",""
"null","<img src=""stim_listB/challenge8.gif""style=""height:400px;""></stim_listB>","","html-keyboard-response","83","618503","0.0-13.0-1.13","5949","List1B","white","woman","","","","null","","","","","","","","",""
"null","is being challenged by","","html-keyboard-response","84","620507","0.0-13.0-2.13","5949","List1B","white","woman","","","","null","","","","","","","","",""
"10313.09999999404","","","survey-text","85","630830","0.0-13.0-3.13","5949","List1B","white","woman","","","","","{""Q0"":""beth is being challenged by jane.""}","<img src=""stim_listB/challenge8.gif""style=""height:400px;""></stim_listB>","is being challenged by","","","","","",""
"null","<div style=""font-size:60px;"">+</div>","","html-keyboard-response","86","631335","0.0-13.0-0.14","5949","List1B","white","woman","","","","null","","","","","","","","",""
"null","<img src=""stim_listB/seduce6.gif""style=""height:400px;""></stim_listB>","","html-keyboard-response","87","633343","0.0-13.0-1.14","5949","List1B","white","woman","","","","null","","","","","","","","",""
"null","is being seduced by","","html-keyboard-response","88","635348","0.0-13.0-2.14","5949","List1B","white","woman","","","","null","","","","","","","","",""
"10487.199999988079","","","survey-text","89","645854","0.0-13.0-3.14","5949","List1B","white","woman","","","","","{""Q0"":""luke is being seduced by mike.""}","<img src=""stim_listB/seduce6.gif""style=""height:400px;""></stim_listB>","is being seduced by","","","","","",""
"null","<div style=""font-size:60px;"">+</div>","","html-keyboard-response","90","646359","0.0-13.0-0.15","5949","List1B","white","woman","","","","null","","","","","","","","",""
"null","<img src=""stim_listB/touch8.gif""style=""height:400px;""></stim_listB>","","html-keyboard-response","91","648368","0.0-13.0-1.15","5949","List1B","white","woman","","","","null","","","","","","","","",""
"null","is being touched by","","html-keyboard-response","92","650371","0.0-13.0-2.15","5949","List1B","white","woman","","","","null","","","","","","","","",""
"8300","","","survey-text","93","658679","0.0-13.0-3.15","5949","List1B","white","woman","","","","","{""Q0"":""beth is being touched by ruth.""}","<img src=""stim_listB/touch8.gif""style=""height:400px;""></stim_listB>","is being touched by","","","","","",""
"null","<div style=""font-size:60px;"">+</div>","","html-keyboard-response","94","659184","0.0-13.0-0.16","5949","List1B","white","woman","","","","null","","","","","","","","",""
"null","<img src=""stim_listB/look2.gif""style=""height:400px;""></stim_listB>","","html-keyboard-response","95","661191","0.0-13.0-1.16","5949","List1B","white","woman","","","","null","","","","","","","","",""
"null","is being looked at by","","html-keyboard-response","96","663195","0.0-13.0-2.16","5949","List1B","white","woman","","","","null","","","","","","","","",""
"10856.300000011921","","","survey-text","97","674061","0.0-13.0-3.16","5949","List1B","white","woman","","","","","{""Q0"":""kate is being looked at by mike.""}","<img src=""stim_listB/look2.gif""style=""height:400px;""></stim_listB>","is being looked at by","","","","","",""
"null","<div style=""font-size:60px;"">+</div>","","html-keyboard-response","98","674566","0.0-13.0-0.17","5949","List1B","white","woman","","","","null","","","","","","","","",""
"null","<img src=""stim_listB/shout4.gif""style=""height:400px;""></stim_listB>","","html-keyboard-response","99","676572","0.0-13.0-1.17","5949","List1B","white","woman","","","","null","","","","","","","","",""
"null","is being shouted at by","","html-keyboard-response","100","678579","0.0-13.0-2.17","5949","List1B","white","woman","","","","null","","","","","","","","",""
"9373.90000000596","","","survey-text","101","687963","0.0-13.0-3.17","5949","List1B","white","woman","","","","","{""Q0"":""dave is being shouted at by jane.""}","<img src=""stim_listB/shout4.gif""style=""height:400px;""></stim_listB>","is being shouted at by","","","","","",""
"null","<div style=""font-size:60px;"">+</div>","","html-keyboard-response","102","688469","0.0-13.0-0.18","5949","List1B","white","woman","","","","null","","","","","","","","",""
"null","<img src=""stim_listB/touch4.gif""style=""height:400px;""></stim_listB>","","html-keyboard-response","103","690477","0.0-13.0-1.18","5949","List1B","white","woman","","","","null","","","","","","","","",""
"null","is being touched by","","html-keyboard-response","104","692482","0.0-13.0-2.18","5949","List1B","white","woman","","","","null","","","","","","","","",""
"7689.199999988079","","","survey-text","105","700183","0.0-13.0-3.18","5949","List1B","white","woman","","","","","{""Q0"":""ruth is being touched by luke.""}","<img src=""stim_listB/touch4.gif""style=""height:400px;""></stim_listB>","is being touched by","","","","","",""
"null","<div style=""font-size:60px;"">+</div>","","html-keyboard-response","106","700689","0.0-13.0-0.19","5949","List1B","white","woman","","","","null","","","","","","","","",""
"null","<img src=""stim_listB/kiss4.gif""style=""height:400px;""></stim_listB>","","html-keyboard-response","107","702698","0.0-13.0-1.19","5949","List1B","white","woman","","","","null","","","","","","","","",""
"null","is being kissed by","","html-keyboard-response","108","704704","0.0-13.0-2.19","5949","List1B","white","woman","","","","null","","","","","","","","",""
"10443.799999982119","","","survey-text","109","715165","0.0-13.0-3.19","5949","List1B","white","woman","","","","","{""Q0"":""jane is being kissed by dave.""}","<img src=""stim_listB/kiss4.gif""style=""height:400px;""></stim_listB>","is being kissed by","","","","","",""
"6550.300000011921","<img src='img/portrait_matrix_list1.jpg' style='width:900px;height:500px;''></img><p>If you have memorised all the portraits and names and are ready to start, press Continue.</p><p><strong>Please note: Your memory of these faces will be tested 4 times during this experiment.</strong></p>","0","html-button-response","110","721724","0.0-14.0-0.0","5949","List1B","white","woman","","","","","","","","","","","","",""
"4952.800000011921","<img src=""portrait/BW1.jpg""style=""height:400px;""></img>","0","html-button-response","111","727689","0.0-14.0-1.0","5949","List1B","white","woman","","true","0","","","","","","","","","",""
"null","CORRECT","","html-keyboard-response","112","729198","0.0-14.0-2.0-0.0","5949","List1B","white","woman","","","","null","","","","","","","","",""
"2943.9000000059605","<img src=""portrait/WW1.jpg""style=""height:400px;""></img>","1","html-button-response","113","732153","0.0-14.0-4.0","5949","List1B","white","woman","","true","1","","","","","","","","","",""
"null","CORRECT","","html-keyboard-response","114","733662","0.0-14.0-5.0-0.0","5949","List1B","white","woman","","","","null","","","","","","","","",""
"2322.2000000178814","<img src=""portrait/WW2.jpg""style=""height:400px;""></img>","3","html-button-response","115","735994","0.0-14.0-7.0","5949","List1B","white","woman","","true","3","","","","","","","","","",""
"null","CORRECT","","html-keyboard-response","116","737502","0.0-14.0-8.0-0.0","5949","List1B","white","woman","","","","null","","","","","","","","",""
"1361.4000000059605","<img src=""portrait/BW2.jpg""style=""height:400px;""></img>","2","html-button-response","117","738874","0.0-14.0-10.0","5949","List1B","white","woman","","true","2","","","","","","","","","",""
"null","CORRECT","","html-keyboard-response","118","740383","0.0-14.0-11.0-0.0","5949","List1B","white","woman","","","","null","","","","","","","","",""
"2041.0999999940395","<img src=""portrait/BM1.jpg""style=""height:400px;""></img>","4","html-button-response","119","742435","0.0-14.0-13.0","5949","List1B","white","woman","","true","4","","","","","","","","","",""
"null","CORRECT","","html-keyboard-response","120","743944","0.0-14.0-14.0-0.0","5949","List1B","white","woman","","","","null","","","","","","","","",""
"1767.7999999821186","<img src=""portrait/WM2.jpg""style=""height:400px;""></img>","7","html-button-response","121","745723","0.0-14.0-16.0","5949","List1B","white","woman","","true","7","","","","","","","","","",""
"null","CORRECT","","html-keyboard-response","122","747231","0.0-14.0-17.0-0.0","5949","List1B","white","woman","","","","null","","","","","","","","",""
"1371.4000000059605","<img src=""portrait/WM1.jpg""style=""height:400px;""></img>","6","html-button-response","123","748613","0.0-14.0-19.0","5949","List1B","white","woman","","true","6","","","","","","","","","",""
"null","CORRECT","","html-keyboard-response","124","750122","0.0-14.0-20.0-0.0","5949","List1B","white","woman","","","","null","","","","","","","","",""
"1263.2000000178814","<img src=""portrait/BM2.jpg""style=""height:400px;""></img>","5","html-button-response","125","751396","0.0-14.0-22.0","5949","List1B","white","woman","","true","5","","","","","","","","","",""
"null","CORRECT","","html-keyboard-response","126","752905","0.0-14.0-23.0-0.0","5949","List1B","white","woman","","","","null","","","","","","","","",""
"8325.59999999404","<p>You got 8 out of 8 right first time. Press Continue.</p>","0","html-button-response","127","761240","0.0-14.0-25.0","5949","List1B","white","woman","","","","","","","","","","","","",""
"null","<div style=""font-size:60px;"">+</div>","","html-keyboard-response","128","762749","0.0-15.0-0.0","5949","List1B","white","woman","","","","null","","","","","","","","",""
"null","<img src=""stim_listB/greet1.gif""style=""height:400px;""></stim_listB>","","html-keyboard-response","129","764759","0.0-15.0-1.0","5949","List1B","white","woman","","","","null","","","","","","","","",""
"null","is greeting","","html-keyboard-response","130","766766","0.0-15.0-2.0","5949","List1B","white","woman","","","","null","","","","","","","","",""
"9232.800000011921","","","survey-text","131","776011","0.0-15.0-3.0","5949","List1B","white","woman","","","","","{""Q0"":""beth is greeting mike.""}","<img src=""stim_listB/greet1.gif""style=""height:400px;""></stim_listB>","is greeting","","","","","",""
"null","<div style=""font-size:60px;"">+</div>","","html-keyboard-response","132","776519","0.0-15.0-0.1","5949","List1B","white","woman","","","","null","","","","","","","","",""
"null","<img src=""stim_listB/greet2.gif""style=""height:400px;""></stim_listB>","","html-keyboard-response","133","778528","0.0-15.0-1.1","5949","List1B","white","woman","","","","null","","","","","","","","",""
"null","is being greeted by","","html-keyboard-response","134","780536","0.0-15.0-2.1","5949","List1B","white","woman","","","","null","","","","","","","","",""
"9453.799999982119","","","survey-text","135","790005","0.0-15.0-3.1","5949","List1B","white","woman","","","","","{""Q0"":""fred is being greeted by kate.""}","<img src=""stim_listB/greet2.gif""style=""height:400px;""></stim_listB>","is being greeted by","","","","","",""
"null","<div style=""font-size:60px;"">+</div>","","html-keyboard-response","136","790512","0.0-15.0-0.2","5949","List1B","white","woman","","","","null","","","","","","","","",""
"null","<img src=""stim_listB/kiss5.gif""style=""height:400px;""></stim_listB>","","html-keyboard-response","137","792521","0.0-15.0-1.2","5949","List1B","white","woman","","","","null","","","","","","","","",""
"null","is kissing","","html-keyboard-response","138","794528","0.0-15.0-2.2","5949","List1B","white","woman","","","","null","","","","","","","","",""
"6376.200000017881","","","survey-text","139","800917","0.0-15.0-3.2","5949","List1B","white","woman","","","","","{""Q0"":""fred is kissing luke.""}","<img src=""stim_listB/kiss5.gif""style=""height:400px;""></stim_listB>","is kissing","","","","","",""
"null","<div style=""font-size:60px;"">+</div>","","html-keyboard-response","140","801424","0.0-15.0-0.3","5949","List1B","white","woman","","","","null","","","","","","","","",""
"null","<img src=""stim_listB/greet4.gif""style=""height:400px;""></stim_listB>","","html-keyboard-response","141","803434","0.0-15.0-1.3","5949","List1B","white","woman","","","","null","","","","","","","","",""
"null","is being greeted by","","html-keyboard-response","142","805441","0.0-15.0-2.3","5949","List1B","white","woman","","","","null","","","","","","","","",""
"7492.5","","","survey-text","143","812947","0.0-15.0-3.3","5949","List1B","white","woman","","","","","{""Q0"":""luke is being greeted by jane.""}","<img src=""stim_listB/greet4.gif""style=""height:400px;""></stim_listB>","is being greeted by","","","","","",""
"null","<div style=""font-size:60px;"">+</div>","","html-keyboard-response","144","813454","0.0-15.0-0.4","5949","List1B","white","woman","","","","null","","","","","","","","",""
"null","<img src=""stim_listB/kiss1.gif""style=""height:400px;""></stim_listB>","","html-keyboard-response","145","815464","0.0-15.0-1.4","5949","List1B","white","woman","","","","null","","","","","","","","",""
"null","is kissing","","html-keyboard-response","146","817471","0.0-15.0-2.4","5949","List1B","white","woman","","","","null","","","","","","","","",""
"6078.700000017881","","","survey-text","147","823562","0.0-15.0-3.4","5949","List1B","white","woman","","","","","{""Q0"":""beth is kissing fred.""}","<img src=""stim_listB/kiss1.gif""style=""height:400px;""></stim_listB>","is kissing","","","","","",""
"null","<div style=""font-size:60px;"">+</div>","","html-keyboard-response","148","824070","0.0-15.0-0.5","5949","List1B","white","woman","","","","null","","","","","","","","",""
"null","<img src=""stim_listB/touch3.gif""style=""height:400px;""></stim_listB>","","html-keyboard-response","149","826081","0.0-15.0-1.5","5949","List1B","white","woman","","","","null","","","","","","","","",""
"null","is touching","","html-keyboard-response","150","828089","0.0-15.0-2.5","5949","List1B","white","woman","","","","null","","","","","","","","",""
"5556.300000011921","","","survey-text","151","833658","0.0-15.0-3.5","5949","List1B","white","woman","","","","","{""Q0"":""jane is touching dave.""}","<img src=""stim_listB/touch3.gif""style=""height:400px;""></stim_listB>","is touching","","","","","",""
"null","<div style=""font-size:60px;"">+</div>","","html-keyboard-response","152","834166","0.0-15.0-0.6","5949","List1B","white","woman","","","","null","","","","","","","","",""
"null","<img src=""stim_listB/shout8.gif""style=""height:400px;""></stim_listB>","","html-keyboard-response","153","836176","0.0-15.0-1.6","5949","List1B","white","woman","","","","null","","","","","","","","",""
"null","is being shouted at by","","html-keyboard-response","154","838185","0.0-15.0-2.6","5949","List1B","white","woman","","","","null","","","","","","","","",""
"8951.800000011921","","","survey-text","155","847150","0.0-15.0-3.6","5949","List1B","white","woman","","","","","{""Q0"":""kate is being shouted at by jane.""}","<img src=""stim_listB/shout8.gif""style=""height:400px;""></stim_listB>","is being shouted at by","","","","","",""
"null","<div style=""font-size:60px;"">+</div>","","html-keyboard-response","156","847657","0.0-15.0-0.7","5949","List1B","white","woman","","","","null","","","","","","","","",""
"null","<img src=""stim_listB/seduce1.gif""style=""height:400px;""></stim_listB>","","html-keyboard-response","157","849666","0.0-15.0-1.7","5949","List1B","white","woman","","","","null","","","","","","","","",""
"null","is seducing","","html-keyboard-response","158","851673","0.0-15.0-2.7","5949","List1B","white","woman","","","","null","","","","","","","","",""
"6957.699999988079","","","survey-text","159","858644","0.0-15.0-3.7","5949","List1B","white","woman","","","","","{""Q0"":""kate is seducing fred.""}","<img src=""stim_listB/seduce1.gif""style=""height:400px;""></stim_listB>","is seducing","","","","","",""
"null","<div style=""font-size:60px;"">+</div>","","html-keyboard-response","160","859153","0.0-15.0-0.8","5949","List1B","white","woman","","","","null","","","","","","","","",""
"null","<img src=""stim_listB/hug1.gif""style=""height:400px;""></stim_listB>","","html-keyboard-response","161","861166","0.0-15.0-1.8","5949","List1B","white","woman","","","","null","","","","","","","","",""
"null","is hugging","","html-keyboard-response","162","863176","0.0-15.0-2.8","5949","List1B","white","woman","","","","null","","","","","","","","",""
"11930.399999976158","","","survey-text","163","875123","0.0-15.0-3.8","5949","List1B","white","woman","","","","","{""Q0"":""beth is hugging fred.""}","<img src=""stim_listB/hug1.gif""style=""height:400px;""></stim_listB>","is hugging","","","","","",""
"null","<div style=""font-size:60px;"">+</div>","","html-keyboard-response","164","875633","0.0-15.0-0.9","5949","List1B","white","woman","","","","null","","","","","","","","",""
"null","<img src=""stim_listB/copy6.gif""style=""height:400px;""></stim_listB>","","html-keyboard-response","165","877643","0.0-15.0-1.9","5949","List1B","white","woman","","","","null","","","","","","","","",""
"null","is being copied by","","html-keyboard-response","166","879652","0.0-15.0-2.9","5949","List1B","white","woman","","","","null","","","","","","","","",""
"8434.800000011921","","","survey-text","167","888103","0.0-15.0-3.9","5949","List1B","white","woman","","","","","{""Q0"":""fred is being copied by dave.""}","<img src=""stim_listB/copy6.gif""style=""height:400px;""></stim_listB>","is being copied by","","","","","",""
"null","<div style=""font-size:60px;"">+</div>","","html-keyboard-response","168","888613","0.0-15.0-0.10","5949","List1B","white","woman","","","","null","","","","","","","","",""
"null","<img src=""stim_listB/look8.gif""style=""height:400px;""></stim_listB>","","html-keyboard-response","169","890623","0.0-15.0-1.10","5949","List1B","white","woman","","","","null","","","","","","","","",""
"null","is being looked at by","","html-keyboard-response","170","892631","0.0-15.0-2.10","5949","List1B","white","woman","","","","null","","","","","","","","",""
"8010.600000023842","","","survey-text","171","900655","0.0-15.0-3.10","5949","List1B","white","woman","","","","","{""Q0"":""kate is being looked at by jane.""}","<img src=""stim_listB/look8.gif""style=""height:400px;""></stim_listB>","is being looked at by","","","","","",""
"null","<div style=""font-size:60px;"">+</div>","","html-keyboard-response","172","901164","0.0-15.0-0.11","5949","List1B","white","woman","","","","null","","","","","","","","",""
"null","<img src=""stim_listB/hug2.gif""style=""height:400px;""></stim_listB>","","html-keyboard-response","173","903175","0.0-15.0-1.11","5949","List1B","white","woman","","","","null","","","","","","","","",""
"null","is being hugged by","","html-keyboard-response","174","905184","0.0-15.0-2.11","5949","List1B","white","woman","","","","null","","","","","","","","",""
"9231.40000000596","","","survey-text","175","914434","0.0-15.0-3.11","5949","List1B","white","woman","","","","","{""Q0"":""mike is being hugged by kate.""}","<img src=""stim_listB/hug2.gif""style=""height:400px;""></stim_listB>","is being hugged by","","","","","",""
"null","<div style=""font-size:60px;"">+</div>","","html-keyboard-response","176","914938","0.0-15.0-0.12","5949","List1B","white","woman","","","","null","","","","","","","","",""
"null","<img src=""stim_listB/hug5.gif""style=""height:400px;""></stim_listB>","","html-keyboard-response","177","916944","0.0-15.0-1.12","5949","List1B","white","woman","","","","null","","","","","","","","",""
"null","is hugging","","html-keyboard-response","178","918948","0.0-15.0-2.12","5949","List1B","white","woman","","","","null","","","","","","","","",""
"6643.5999999940395","","","survey-text","179","925607","0.0-15.0-3.12","5949","List1B","white","woman","","","","","{""Q0"":""luke is hugging fred.""}","<img src=""stim_listB/hug5.gif""style=""height:400px;""></stim_listB>","is hugging","","","","","",""
"null","<div style=""font-size:60px;"">+</div>","","html-keyboard-response","180","926112","0.0-15.0-0.13","5949","List1B","white","woman","","","","null","","","","","","","","",""
"null","<img src=""stim_listB/look6.gif""style=""height:400px;""></stim_listB>","","html-keyboard-response","181","928118","0.0-15.0-1.13","5949","List1B","white","woman","","","","null","","","","","","","","",""
"null","is being looked at by","","html-keyboard-response","182","930122","0.0-15.0-2.13","5949","List1B","white","woman","","","","null","","","","","","","","",""
"8241.799999982119","","","survey-text","183","938374","0.0-15.0-3.13","5949","List1B","white","woman","","","","","{""Q0"":""mike is being looked at by dave.""}","<img src=""stim_listB/look6.gif""style=""height:400px;""></stim_listB>","is being looked at by","","","","","",""
"null","<div style=""font-size:60px;"">+</div>","","html-keyboard-response","184","938878","0.0-15.0-0.14","5949","List1B","white","woman","","","","null","","","","","","","","",""
"null","<img src=""stim_listB/touch7.gif""style=""height:400px;""></stim_listB>","","html-keyboard-response","185","940885","0.0-15.0-1.14","5949","List1B","white","woman","","","","null","","","","","","","","",""
"null","is touching","","html-keyboard-response","186","942889","0.0-15.0-2.14","5949","List1B","white","woman","","","","null","","","","","","","","",""
"8269.300000011921","","","survey-text","187","951168","0.0-15.0-3.14","5949","List1B","white","woman","","","","","{""Q0"":""jane is touching kate.""}","<img src=""stim_listB/touch7.gif""style=""height:400px;""></stim_listB>","is touching","","","","","",""
"null","<div style=""font-size:60px;"">+</div>","","html-keyboard-response","188","951672","0.0-15.0-0.15","5949","List1B","white","woman","","","","null","","","","","","","","",""
"null","<img src=""stim_listB/oppose5.gif""style=""height:400px;""></stim_listB>","","html-keyboard-response","189","953677","0.0-15.0-1.15","5949","List1B","white","woman","","","","null","","","","","","","","",""
"null","is opposing","","html-keyboard-response","190","955680","0.0-15.0-2.15","5949","List1B","white","woman","","","","null","","","","","","","","",""
"7086.600000023842","","","survey-text","191","962777","0.0-15.0-3.15","5949","List1B","white","woman","","","","","{""Q0"":""dave is opposing mike.""}","<img src=""stim_listB/oppose5.gif""style=""height:400px;""></stim_listB>","is opposing","","","","","",""
"null","<div style=""font-size:60px;"">+</div>","","html-keyboard-response","192","963282","0.0-15.0-0.16","5949","List1B","white","woman","","","","null","","","","","","","","",""
"null","<img src=""stim_listB/copy2.gif""style=""height:400px;""></stim_listB>","","html-keyboard-response","193","965289","0.0-15.0-1.16","5949","List1B","white","woman","","","","null","","","","","","","","",""
"null","is being copied by","","html-keyboard-response","194","967293","0.0-15.0-2.16","5949","List1B","white","woman","","","","null","","","","","","","","",""
"8705.299999982119","","","survey-text","195","976008","0.0-15.0-3.16","5949","List1B","white","woman","","","","","{""Q0"":""fred is being copied by kate.""}","<img src=""stim_listB/copy2.gif""style=""height:400px;""></stim_listB>","is being copied by","","","","","",""
"null","<div style=""font-size:60px;"">+</div>","","html-keyboard-response","196","976512","0.0-15.0-0.17","5949","List1B","white","woman","","","","null","","","","","","","","",""
"null","<img src=""stim_listB/oppose4.gif""style=""height:400px;""></stim_listB>","","html-keyboard-response","197","978519","0.0-15.0-1.17","5949","List1B","white","woman","","","","null","","","","","","","","",""
"null","is being opposed by","","html-keyboard-response","198","980524","0.0-15.0-2.17","5949","List1B","white","woman","","","","null","","","","","","","","",""
"9117.40000000596","","","survey-text","199","989652","0.0-15.0-3.17","5949","List1B","white","woman","","","","","{""Q0"":""luke is being opposed by ruth.""}","<img src=""stim_listB/oppose4.gif""style=""height:400px;""></stim_listB>","is being opposed by","","","","","",""
"null","<div style=""font-size:60px;"">+</div>","","html-keyboard-response","200","990157","0.0-15.0-0.18","5949","List1B","white","woman","","","","null","","","","","","","","",""
"null","<img src=""stim_listB/challenge1.gif""style=""height:400px;""></stim_listB>","","html-keyboard-response","201","992164","0.0-15.0-1.18","5949","List1B","white","woman","","","","null","","","","","","","","",""
"null","is challenging","","html-keyboard-response","202","994169","0.0-15.0-2.18","5949","List1B","white","woman","","","","null","","","","","","","","",""
"8771.199999988079","","","survey-text","203","1002954","0.0-15.0-3.18","5949","List1B","white","woman","","","","","{""Q0"":""beth is challenging mike.""}","<img src=""stim_listB/challenge1.gif""style=""height:400px;""></stim_listB>","is challenging","","","","","",""
"null","<div style=""font-size:60px;"">+</div>","","html-keyboard-response","204","1003459","0.0-15.0-0.19","5949","List1B","white","woman","","","","null","","","","","","","","",""
"null","<img src=""stim_listB/shout3.gif""style=""height:400px;""></stim_listB>","","html-keyboard-response","205","1005466","0.0-15.0-1.19","5949","List1B","white","woman","","","","null","","","","","","","","",""
"null","is shouting at","","html-keyboard-response","206","1007472","0.0-15.0-2.19","5949","List1B","white","woman","","","","null","","","","","","","","",""
"6765.0999999940395","","","survey-text","207","1014248","0.0-15.0-3.19","5949","List1B","white","woman","","","","","{""Q0"":""ruth is shouting at luke.""}","<img src=""stim_listB/shout3.gif""style=""height:400px;""></stim_listB>","is shouting at","","","","","",""
"2361.5999999940395","<img src='img/portrait_matrix_list1.jpg' style='width:900px;height:500px;''></img><p>If you have memorised all the portraits and names and are ready to start, press Continue.</p><p><strong>Please note: Your memory of these faces will be tested 4 times during this experiment.</strong></p>","0","html-button-response","208","1016617","0.0-16.0-0.0","5949","List1B","white","woman","","","","","","","","","","","","",""
"2911.0999999940395","<img src=""portrait/BW2.jpg""style=""height:400px;""></img>","2","html-button-response","209","1020538","0.0-16.0-1.0","5949","List1B","white","woman","","true","2","","","","","","","","","",""
"null","CORRECT","","html-keyboard-response","210","1022046","0.0-16.0-2.0-0.0","5949","List1B","white","woman","","","","null","","","","","","","","",""
"2255.0999999940395","<img src=""portrait/BM2.jpg""style=""height:400px;""></img>","5","html-button-response","211","1024310","0.0-16.0-4.0","5949","List1B","white","woman","","true","5","","","","","","","","","",""
"null","CORRECT","","html-keyboard-response","212","1025816","0.0-16.0-5.0-0.0","5949","List1B","white","woman","","","","null","","","","","","","","",""
"1573","<img src=""portrait/WM1.jpg""style=""height:400px;""></img>","6","html-button-response","213","1027405","0.0-16.0-7.0","5949","List1B","white","woman","","true","6","","","","","","","","","",""
"null","CORRECT","","html-keyboard-response","214","1028912","0.0-16.0-8.0-0.0","5949","List1B","white","woman","","","","null","","","","","","","","",""
"2159.0999999940395","<img src=""portrait/WW2.jpg""style=""height:400px;""></img>","3","html-button-response","215","1031081","0.0-16.0-10.0","5949","List1B","white","woman","","true","3","","","","","","","","","",""
"null","CORRECT","","html-keyboard-response","216","1032587","0.0-16.0-11.0-0.0","5949","List1B","white","woman","","","","null","","","","","","","","",""
"2199.5","<img src=""portrait/WW1.jpg""style=""height:400px;""></img>","1","html-button-response","217","1034795","0.0-16.0-13.0","5949","List1B","white","woman","","true","1","","","","","","","","","",""
"null","CORRECT","","html-keyboard-response","218","1036302","0.0-16.0-14.0-0.0","5949","List1B","white","woman","","","","null","","","","","","","","",""
"2246.5999999940395","<img src=""portrait/WM2.jpg""style=""height:400px;""></img>","7","html-button-response","219","1038558","0.0-16.0-16.0","5949","List1B","white","woman","","true","7","","","","","","","","","",""
"null","CORRECT","","html-keyboard-response","220","1040066","0.0-16.0-17.0-0.0","5949","List1B","white","woman","","","","null","","","","","","","","",""
"2107.699999988079","<img src=""portrait/BW1.jpg""style=""height:400px;""></img>","0","html-button-response","221","1042182","0.0-16.0-19.0","5949","List1B","white","woman","","true","0","","","","","","","","","",""
"null","CORRECT","","html-keyboard-response","222","1043689","0.0-16.0-20.0-0.0","5949","List1B","white","woman","","","","null","","","","","","","","",""
"2152.2999999821186","<img src=""portrait/BM1.jpg""style=""height:400px;""></img>","4","html-button-response","223","1045851","0.0-16.0-22.0","5949","List1B","white","woman","","true","4","","","","","","","","","",""
"null","CORRECT","","html-keyboard-response","224","1047359","0.0-16.0-23.0-0.0","5949","List1B","white","woman","","","","null","","","","","","","","",""
"2548.899999976158","<p>You got 8 out of 8 right first time. Press Continue.</p>","0","html-button-response","225","1049916","0.0-16.0-25.0","5949","List1B","white","woman","","","","","","","","","","","","",""
"null","<div style=""font-size:60px;"">+</div>","","html-keyboard-response","226","1051425","0.0-17.0-0.0","5949","List1B","white","woman","","","","null","","","","","","","","",""
"null","<img src=""stim_listB/look3.gif""style=""height:400px;""></stim_listB>","","html-keyboard-response","227","1053434","0.0-17.0-1.0","5949","List1B","white","woman","","","","null","","","","","","","","",""
"null","is looking at","","html-keyboard-response","228","1055443","0.0-17.0-2.0","5949","List1B","white","woman","","","","null","","","","","","","","",""
"7237.300000011921","","","survey-text","229","1062691","0.0-17.0-3.0","5949","List1B","white","woman","","","","","{""Q0"":""ruth is looking at luke.""}","<img src=""stim_listB/look3.gif""style=""height:400px;""></stim_listB>","is looking at","","","","","",""
"null","<div style=""font-size:60px;"">+</div>","","html-keyboard-response","230","1063197","0.0-17.0-0.1","5949","List1B","white","woman","","","","null","","","","","","","","",""
"null","<img src=""stim_listB/seduce2.gif""style=""height:400px;""></stim_listB>","","html-keyboard-response","231","1065205","0.0-17.0-1.1","5949","List1B","white","woman","","","","null","","","","","","","","",""
"null","is being seduced by","","html-keyboard-response","232","1067211","0.0-17.0-2.1","5949","List1B","white","woman","","","","null","","","","","","","","",""
"12219.800000011921","","","survey-text","233","1079443","0.0-17.0-3.1","5949","List1B","white","woman","","","","","{""Q0"":""beth is being seduced by mike.""}","<img src=""stim_listB/seduce2.gif""style=""height:400px;""></stim_listB>","is being seduced by","","","","","",""
"null","<div style=""font-size:60px;"">+</div>","","html-keyboard-response","234","1079949","0.0-17.0-0.2","5949","List1B","white","woman","","","","null","","","","","","","","",""
"null","<img src=""stim_listB/oppose7.gif""style=""height:400px;""></stim_listB>","","html-keyboard-response","235","1081957","0.0-17.0-1.2","5949","List1B","white","woman","","","","null","","","","","","","","",""
"null","is opposing","","html-keyboard-response","236","1083963","0.0-17.0-2.2","5949","List1B","white","woman","","","","null","","","","","","","","",""
"6513.300000011921","","","survey-text","237","1090496","0.0-17.0-3.2","5949","List1B","white","woman","","","","","{""Q0"":""jane is opposing kate.""}","<img src=""stim_listB/oppose7.gif""style=""height:400px;""></stim_listB>","is opposing","","","","","",""
"null","<div style=""font-size:60px;"">+</div>","","html-keyboard-response","238","1091005","0.0-17.0-0.3","5949","List1B","white","woman","","","","null","","","","","","","","",""
"null","<img src=""stim_listB/kiss6.gif""style=""height:400px;""></stim_listB>","","html-keyboard-response","239","1093013","0.0-17.0-1.3","5949","List1B","white","woman","","","","null","","","","","","","","",""
"null","is being kissed by","","html-keyboard-response","240","1095020","0.0-17.0-2.3","5949","List1B","white","woman","","","","null","","","","","","","","",""
"7837.5999999940395","","","survey-text","241","1102870","0.0-17.0-3.3","5949","List1B","white","woman","","","","","{""Q0"":""mike is being kissed by dave.""}","<img src=""stim_listB/kiss6.gif""style=""height:400px;""></stim_listB>","is being kissed by","","","","","",""
"null","<div style=""font-size:60px;"">+</div>","","html-keyboard-response","242","1103377","0.0-17.0-0.4","5949","List1B","white","woman","","","","null","","","","","","","","",""
"null","<img src=""stim_listB/shout5.gif""style=""height:400px;""></stim_listB>","","html-keyboard-response","243","1105387","0.0-17.0-1.4","5949","List1B","white","woman","","","","null","","","","","","","","",""
"null","is shouting at","","html-keyboard-response","244","1107393","0.0-17.0-2.4","5949","List1B","white","woman","","","","null","","","","","","","","",""
"7259.200000017881","","","survey-text","245","1114665","0.0-17.0-3.4","5949","List1B","white","woman","","","","","{""Q0"":""luke is shouting at fred.""}","<img src=""stim_listB/shout5.gif""style=""height:400px;""></stim_listB>","is shouting at","","","","","",""
"null","<div style=""font-size:60px;"">+</div>","","html-keyboard-response","246","1115172","0.0-17.0-0.5","5949","List1B","white","woman","","","","null","","","","","","","","",""
"null","<img src=""stim_listB/shout7.gif""style=""height:400px;""></stim_listB>","","html-keyboard-response","247","1117183","0.0-17.0-1.5","5949","List1B","white","woman","","","","null","","","","","","","","",""
"null","is shouting at","","html-keyboard-response","248","1119190","0.0-17.0-2.5","5949","List1B","white","woman","","","","null","","","","","","","","",""
"7684.4000000059605","","","survey-text","249","1126894","0.0-17.0-3.5","5949","List1B","white","woman","","","","","{""Q0"":""ruth is shouting at beth.""}","<img src=""stim_listB/shout7.gif""style=""height:400px;""></stim_listB>","is shouting at","","","","","",""
"null","<div style=""font-size:60px;"">+</div>","","html-keyboard-response","250","1127401","0.0-17.0-0.6","5949","List1B","white","woman","","","","null","","","","","","","","",""
"null","<img src=""stim_listB/challenge3.gif""style=""height:400px;""></stim_listB>","","html-keyboard-response","251","1129411","0.0-17.0-1.6","5949","List1B","white","woman","","","","null","","","","","","","","",""
"null","is challenging","","html-keyboard-response","252","1131418","0.0-17.0-2.6","5949","List1B","white","woman","","","","null","","","","","","","","",""
"7414.800000011921","","","survey-text","253","1138846","0.0-17.0-3.6","5949","List1B","white","woman","","","","","{""Q0"":""ruth is challenging dave.""}","<img src=""stim_listB/challenge3.gif""style=""height:400px;""></stim_listB>","is challenging","","","","","",""
"null","<div style=""font-size:60px;"">+</div>","","html-keyboard-response","254","1139354","0.0-17.0-0.7","5949","List1B","white","woman","","","","null","","","","","","","","",""
"null","<img src=""stim_listB/greet5.gif""style=""height:400px;""></stim_listB>","","html-keyboard-response","255","1141364","0.0-17.0-1.7","5949","List1B","white","woman","","","","null","","","","","","","","",""
"null","is greeting","","html-keyboard-response","256","1143371","0.0-17.0-2.7","5949","List1B","white","woman","","","","null","","","","","","","","",""
"6654.700000017881","","","survey-text","257","1150039","0.0-17.0-3.7","5949","List1B","white","woman","","","","","{""Q0"":""luke is greeting mike.""}","<img src=""stim_listB/greet5.gif""style=""height:400px;""></stim_listB>","is greeting","","","","","",""
"null","<div style=""font-size:60px;"">+</div>","","html-keyboard-response","258","1150547","0.0-17.0-0.8","5949","List1B","white","woman","","","","null","","","","","","","","",""
"null","<img src=""stim_listB/touch5.gif""style=""height:400px;""></stim_listB>","","html-keyboard-response","259","1152558","0.0-17.0-1.8","5949","List1B","white","woman","","","","null","","","","","","","","",""
"null","is touching","","html-keyboard-response","260","1154567","0.0-17.0-2.8","5949","List1B","white","woman","","","","null","","","","","","","","",""
"7021.399999976158","","","survey-text","261","1161608","0.0-17.0-3.8","5949","List1B","white","woman","","","","","{""Q0"":""dave is touching mike.""}","<img src=""stim_listB/touch5.gif""style=""height:400px;""></stim_listB>","is touching","","","","","",""
"null","<div style=""font-size:60px;"">+</div>","","html-keyboard-response","262","1162115","0.0-17.0-0.9","5949","List1B","white","woman","","","","null","","","","","","","","",""
"null","<img src=""stim_listB/hug3.gif""style=""height:400px;""></stim_listB>","","html-keyboard-response","263","1164125","0.0-17.0-1.9","5949","List1B","white","woman","","","","null","","","","","","","","",""
"null","is hugging","","html-keyboard-response","264","1166131","0.0-17.0-2.9","5949","List1B","white","woman","","","","null","","","","","","","","",""
"6485.300000011921","","","survey-text","265","1172636","0.0-17.0-3.9","5949","List1B","white","woman","","","","","{""Q0"":""ruth is hugging luke.""}","<img src=""stim_listB/hug3.gif""style=""height:400px;""></stim_listB>","is hugging","","","","","",""
"null","<div style=""font-size:60px;"">+</div>","","html-keyboard-response","266","1173142","0.0-17.0-0.10","5949","List1B","white","woman","","","","null","","","","","","","","",""
"null","<img src=""stim_listB/challenge4.gif""style=""height:400px;""></stim_listB>","","html-keyboard-response","267","1175151","0.0-17.0-1.10","5949","List1B","white","woman","","","","null","","","","","","","","",""
"null","is being challenged by","","html-keyboard-response","268","1177158","0.0-17.0-2.10","5949","List1B","white","woman","","","","null","","","","","","","","",""
"8783.59999999404","","","survey-text","269","1185957","0.0-17.0-3.10","5949","List1B","white","woman","","","","","{""Q0"":""luke is being challenged by jane.""}","<img src=""stim_listB/challenge4.gif""style=""height:400px;""></stim_listB>","is being challenged by","","","","","",""
"null","<div style=""font-size:60px;"">+</div>","","html-keyboard-response","270","1186465","0.0-17.0-0.11","5949","List1B","white","woman","","","","null","","","","","","","","",""
"null","<img src=""stim_listB/copy5.gif""style=""height:400px;""></stim_listB>","","html-keyboard-response","271","1188475","0.0-17.0-1.11","5949","List1B","white","woman","","","","null","","","","","","","","",""
"null","is copying","","html-keyboard-response","272","1190483","0.0-17.0-2.11","5949","List1B","white","woman","","","","null","","","","","","","","",""
"6781.5999999940395","","","survey-text","273","1197285","0.0-17.0-3.11","5949","List1B","white","woman","","","","","{""Q0"":""luke is copying mike.""}","<img src=""stim_listB/copy5.gif""style=""height:400px;""></stim_listB>","is copying","","","","","",""
"null","<div style=""font-size:60px;"">+</div>","","html-keyboard-response","274","1197793","0.0-17.0-0.12","5949","List1B","white","woman","","","","null","","","","","","","","",""
"null","<img src=""stim_listB/kiss8.gif""style=""height:400px;""></stim_listB>","","html-keyboard-response","275","1199803","0.0-17.0-1.12","5949","List1B","white","woman","","","","null","","","","","","","","",""
"null","is being kissed by","","html-keyboard-response","276","1201812","0.0-17.0-2.12","5949","List1B","white","woman","","","","null","","","","","","","","",""
"7934.699999988079","","","survey-text","277","1209766","0.0-17.0-3.12","5949","List1B","white","woman","","","","","{""Q0"":""kate is being kissed by jane.""}","<img src=""stim_listB/kiss8.gif""style=""height:400px;""></stim_listB>","is being kissed by","","","","","",""
"null","<div style=""font-size:60px;"">+</div>","","html-keyboard-response","278","1210274","0.0-17.0-0.13","5949","List1B","white","woman","","","","null","","","","","","","","",""
"null","<img src=""stim_listB/look7.gif""style=""height:400px;""></stim_listB>","","html-keyboard-response","279","1212286","0.0-17.0-1.13","5949","List1B","white","woman","","","","null","","","","","","","","",""
"null","is looking at","","html-keyboard-response","280","1214294","0.0-17.0-2.13","5949","List1B","white","woman","","","","null","","","","","","","","",""
"6403.799999982119","","","survey-text","281","1220718","0.0-17.0-3.13","5949","List1B","white","woman","","","","","{""Q0"":""ruth is looking at beth.""}","<img src=""stim_listB/look7.gif""style=""height:400px;""></stim_listB>","is looking at","","","","","",""
"null","<div style=""font-size:60px;"">+</div>","","html-keyboard-response","282","1221225","0.0-17.0-0.14","5949","List1B","white","woman","","","","null","","","","","","","","",""
"null","<img src=""stim_listB/copy7.gif""style=""height:400px;""></stim_listB>","","html-keyboard-response","283","1223235","0.0-17.0-1.14","5949","List1B","white","woman","","","","null","","","","","","","","",""
"null","is copying","","html-keyboard-response","284","1225243","0.0-17.0-2.14","5949","List1B","white","woman","","","","null","","","","","","","","",""
"8172.699999988079","","","survey-text","285","1233437","0.0-17.0-3.14","5949","List1B","white","woman","","","","","{""Q0"":""ruth is copying kate.""}","<img src=""stim_listB/copy7.gif""style=""height:400px;""></stim_listB>","is copying","","","","","",""
"null","<div style=""font-size:60px;"">+</div>","","html-keyboard-response","286","1233945","0.0-17.0-0.15","5949","List1B","white","woman","","","","null","","","","","","","","",""
"null","<img src=""stim_listB/touch1.gif""style=""height:400px;""></stim_listB>","","html-keyboard-response","287","1235955","0.0-17.0-1.15","5949","List1B","white","woman","","","","null","","","","","","","","",""
"null","is touching","","html-keyboard-response","288","1237962","0.0-17.0-2.15","5949","List1B","white","woman","","","","null","","","","","","","","",""
"6207.899999976158","","","survey-text","289","1244193","0.0-17.0-3.15","5949","List1B","white","woman","","","","","{""Q0"":""kate is touching mike.""}","<img src=""stim_listB/touch1.gif""style=""height:400px;""></stim_listB>","is touching","","","","","",""
"null","<div style=""font-size:60px;"">+</div>","","html-keyboard-response","290","1244701","0.0-17.0-0.16","5949","List1B","white","woman","","","","null","","","","","","","","",""
"null","<img src=""stim_listB/touch2.gif""style=""height:400px;""></stim_listB>","","html-keyboard-response","291","1246714","0.0-17.0-1.16","5949","List1B","white","woman","","","","null","","","","","","","","",""
"null","is being touched by","","html-keyboard-response","292","1248722","0.0-17.0-2.16","5949","List1B","white","woman","","","","null","","","","","","","","",""
"7119.5","","","survey-text","293","1255863","0.0-17.0-3.16","5949","List1B","white","woman","","","","","{""Q0"":""fred is being touched by beth.""}","<img src=""stim_listB/touch2.gif""style=""height:400px;""></stim_listB>","is being touched by","","","","","",""
"null","<div style=""font-size:60px;"">+</div>","","html-keyboard-response","294","1256371","0.0-17.0-0.17","5949","List1B","white","woman","","","","null","","","","","","","","",""
"null","<img src=""stim_listB/hug8.gif""style=""height:400px;""></stim_listB>","","html-keyboard-response","295","1258382","0.0-17.0-1.17","5949","List1B","white","woman","","","","null","","","","","","","","",""
"null","is being hugged by","","html-keyboard-response","296","1260389","0.0-17.0-2.17","5949","List1B","white","woman","","","","null","","","","","","","","",""
"7281.5","","","survey-text","297","1267684","0.0-17.0-3.17","5949","List1B","white","woman","","","","","{""Q0"":""kate is being hugged by jane.""}","<img src=""stim_listB/hug8.gif""style=""height:400px;""></stim_listB>","is being hugged by","","","","","",""
"null","<div style=""font-size:60px;"">+</div>","","html-keyboard-response","298","1268198","0.0-17.0-0.18","5949","List1B","white","woman","","","","null","","","","","","","","",""
"null","<img src=""stim_listB/kiss2.gif""style=""height:400px;""></stim_listB>","","html-keyboard-response","299","1270209","0.0-17.0-1.18","5949","List1B","white","woman","","","","null","","","","","","","","",""
"null","is being kissed by","","html-keyboard-response","300","1272217","0.0-17.0-2.18","5949","List1B","white","woman","","","","null","","","","","","","","",""
"7804.5","","","survey-text","301","1280035","0.0-17.0-3.18","5949","List1B","white","woman","","","","","{""Q0"":""mike is being kissed by kate.""}","<img src=""stim_listB/kiss2.gif""style=""height:400px;""></stim_listB>","is being kissed by","","","","","",""
"null","<div style=""font-size:60px;"">+</div>","","html-keyboard-response","302","1280544","0.0-17.0-0.19","5949","List1B","white","woman","","","","null","","","","","","","","",""
"null","<img src=""stim_listB/kiss3.gif""style=""height:400px;""></stim_listB>","","html-keyboard-response","303","1282556","0.0-17.0-1.19","5949","List1B","white","woman","","","","null","","","","","","","","",""
"null","is kissing","","html-keyboard-response","304","1284564","0.0-17.0-2.19","5949","List1B","white","woman","","","","null","","","","","","","","",""
"5862.0999999940395","","","survey-text","305","1290445","0.0-17.0-3.19","5949","List1B","white","woman","","","","","{""Q0"":""ruth is kissing luke.""}","<img src=""stim_listB/kiss3.gif""style=""height:400px;""></stim_listB>","is kissing","","","","","",""
"3283.100000023842","<img src='img/portrait_matrix_list1.jpg' style='width:900px;height:500px;''></img><p>If you have memorised all the portraits and names and are ready to start, press Continue.</p><p><strong>Please note: Your memory of these faces will be tested 4 times during this experiment.</strong></p>","0","html-button-response","306","1293741","0.0-18.0-0.0","5949","List1B","white","woman","","","","","","","","","","","","",""
"2718.5999999940395","<img src=""portrait/WW1.jpg""style=""height:400px;""></img>","1","html-button-response","307","1297478","0.0-18.0-1.0","5949","List1B","white","woman","","true","1","","","","","","","","","",""
"null","CORRECT","","html-keyboard-response","308","1298989","0.0-18.0-2.0-0.0","5949","List1B","white","woman","","","","null","","","","","","","","",""
"2031","<img src=""portrait/BW1.jpg""style=""height:400px;""></img>","0","html-button-response","309","1301037","0.0-18.0-4.0","5949","List1B","white","woman","","true","0","","","","","","","","","",""
"null","CORRECT","","html-keyboard-response","310","1302548","0.0-18.0-5.0-0.0","5949","List1B","white","woman","","","","null","","","","","","","","",""
"2123","<img src=""portrait/WW2.jpg""style=""height:400px;""></img>","3","html-button-response","311","1304685","0.0-18.0-7.0","5949","List1B","white","woman","","true","3","","","","","","","","","",""
"null","CORRECT","","html-keyboard-response","312","1306196","0.0-18.0-8.0-0.0","5949","List1B","white","woman","","","","null","","","","","","","","",""
"1606.7000000178814","<img src=""portrait/BW2.jpg""style=""height:400px;""></img>","2","html-button-response","313","1307817","0.0-18.0-10.0","5949","List1B","white","woman","","true","2","","","","","","","","","",""
"null","CORRECT","","html-keyboard-response","314","1309328","0.0-18.0-11.0-0.0","5949","List1B","white","woman","","","","null","","","","","","","","",""
"2045.0999999940395","<img src=""portrait/BM2.jpg""style=""height:400px;""></img>","5","html-button-response","315","1311388","0.0-18.0-13.0","5949","List1B","white","woman","","true","5","","","","","","","","","",""
"null","CORRECT","","html-keyboard-response","316","1312898","0.0-18.0-14.0-0.0","5949","List1B","white","woman","","","","null","","","","","","","","",""
"1151.4000000059605","<img src=""portrait/BM1.jpg""style=""height:400px;""></img>","4","html-button-response","317","1314065","0.0-18.0-16.0","5949","List1B","white","woman","","true","4","","","","","","","","","",""
"null","CORRECT","","html-keyboard-response","318","1315574","0.0-18.0-17.0-0.0","5949","List1B","white","woman","","","","null","","","","","","","","",""
"1685.5","<img src=""portrait/WM1.jpg""style=""height:400px;""></img>","6","html-button-response","319","1317276","0.0-18.0-19.0","5949","List1B","white","woman","","true","6","","","","","","","","","",""
"null","CORRECT","","html-keyboard-response","320","1318786","0.0-18.0-20.0-0.0","5949","List1B","white","woman","","","","null","","","","","","","","",""
"1617.5999999940395","<img src=""portrait/WM2.jpg""style=""height:400px;""></img>","7","html-button-response","321","1320421","0.0-18.0-22.0","5949","List1B","white","woman","","true","7","","","","","","","","","",""
"null","CORRECT","","html-keyboard-response","322","1321933","0.0-18.0-23.0-0.0","5949","List1B","white","woman","","","","null","","","","","","","","",""
"1934.1000000238419","<p>You got 8 out of 8 right first time. Press Continue.</p>","0","html-button-response","323","1323881","0.0-18.0-25.0","5949","List1B","white","woman","","","","","","","","","","","","",""
"null","<div style=""font-size:60px;"">+</div>","","html-keyboard-response","324","1325392","0.0-19.0-0.0","5949","List1B","white","woman","","","","null","","","","","","","","",""
"null","<img src=""stim_listB/oppose6.gif""style=""height:400px;""></stim_listB>","","html-keyboard-response","325","1327402","0.0-19.0-1.0","5949","List1B","white","woman","","","","null","","","","","","","","",""
"null","is being opposed by","","html-keyboard-response","326","1329412","0.0-19.0-2.0","5949","List1B","white","woman","","","","null","","","","","","","","",""
"9201.299999982119","","","survey-text","327","1338625","0.0-19.0-3.0","5949","List1B","white","woman","","","","","{""Q0"":""fred is being opposed by luke.""}","<img src=""stim_listB/oppose6.gif""style=""height:400px;""></stim_listB>","is being opposed by","","","","","",""
"null","<div style=""font-size:60px;"">+</div>","","html-keyboard-response","328","1339129","0.0-19.0-0.1","5949","List1B","white","woman","","","","null","","","","","","","","",""
"null","<img src=""stim_listB/copy8.gif""style=""height:400px;""></stim_listB>","","html-keyboard-response","329","1341137","0.0-19.0-1.1","5949","List1B","white","woman","","","","null","","","","","","","","",""
"null","is being copied by","","html-keyboard-response","330","1343141","0.0-19.0-2.1","5949","List1B","white","woman","","","","null","","","","","","","","",""
"7043","","","survey-text","331","1350200","0.0-19.0-3.1","5949","List1B","white","woman","","","","","{""Q0"":""beth is being copied by jane.""}","<img src=""stim_listB/copy8.gif""style=""height:400px;""></stim_listB>","is being copied by","","","","","",""
"null","<div style=""font-size:60px;"">+</div>","","html-keyboard-response","332","1350704","0.0-19.0-0.2","5949","List1B","white","woman","","","","null","","","","","","","","",""
"null","<img src=""stim_listB/look5.gif""style=""height:400px;""></stim_listB>","","html-keyboard-response","333","1352710","0.0-19.0-1.2","5949","List1B","white","woman","","","","null","","","","","","","","",""
"null","is looking at","","html-keyboard-response","334","1354715","0.0-19.0-2.2","5949","List1B","white","woman","","","","null","","","","","","","","",""
"6690.399999976158","","","survey-text","335","1361422","0.0-19.0-3.2","5949","List1B","white","woman","","","","","{""Q0"":""fred is looking at luke.""}","<img src=""stim_listB/look5.gif""style=""height:400px;""></stim_listB>","is looking at","","","","","",""
"null","<div style=""font-size:60px;"">+</div>","","html-keyboard-response","336","1361926","0.0-19.0-0.3","5949","List1B","white","woman","","","","null","","","","","","","","",""
"null","<img src=""stim_listB/hug6.gif""style=""height:400px;""></stim_listB>","","html-keyboard-response","337","1363933","0.0-19.0-1.3","5949","List1B","white","woman","","","","null","","","","","","","","",""
"null","is being hugged by","","html-keyboard-response","338","1365937","0.0-19.0-2.3","5949","List1B","white","woman","","","","null","","","","","","","","",""
"6999.5","","","survey-text","339","1372947","0.0-19.0-3.3","5949","List1B","white","woman","","","","","{""Q0"":""mike is being hugged by dave.""}","<img src=""stim_listB/hug6.gif""style=""height:400px;""></stim_listB>","is being hugged by","","","","","",""
"null","<div style=""font-size:60px;"">+</div>","","html-keyboard-response","340","1373452","0.0-19.0-0.4","5949","List1B","white","woman","","","","null","","","","","","","","",""
"null","<img src=""stim_listB/challenge7.gif""style=""height:400px;""></stim_listB>","","html-keyboard-response","341","1375459","0.0-19.0-1.4","5949","List1B","white","woman","","","","null","","","","","","","","",""
"null","is challenging","","html-keyboard-response","342","1377463","0.0-19.0-2.4","5949","List1B","white","woman","","","","null","","","","","","","","",""
"6461.5","","","survey-text","343","1383935","0.0-19.0-3.4","5949","List1B","white","woman","","","","","{""Q0"":""ruth is challenging kate.""}","<img src=""stim_listB/challenge7.gif""style=""height:400px;""></stim_listB>","is challenging","","","","","",""
"null","<div style=""font-size:60px;"">+</div>","","html-keyboard-response","344","1384446","0.0-19.0-0.5","5949","List1B","white","woman","","","","null","","","","","","","","",""
"null","<img src=""stim_listB/greet6.gif""style=""height:400px;""></stim_listB>","","html-keyboard-response","345","1386454","0.0-19.0-1.5","5949","List1B","white","woman","","","","null","","","","","","","","",""
"null","is being greeted by","","html-keyboard-response","346","1388458","0.0-19.0-2.5","5949","List1B","white","woman","","","","null","","","","","","","","",""
"6776.4000000059605","","","survey-text","347","1395254","0.0-19.0-3.5","5949","List1B","white","woman","","","","","{""Q0"":""fred is being greeted by dave.""}","<img src=""stim_listB/greet6.gif""style=""height:400px;""></stim_listB>","is being greeted by","","","","","",""
"null","<div style=""font-size:60px;"">+</div>","","html-keyboard-response","348","1395759","0.0-19.0-0.6","5949","List1B","white","woman","","","","null","","","","","","","","",""
"null","<img src=""stim_listB/hug7.gif""style=""height:400px;""></stim_listB>","","html-keyboard-response","349","1397765","0.0-19.0-1.6","5949","List1B","white","woman","","","","null","","","","","","","","",""
"null","is hugging","","html-keyboard-response","350","1399770","0.0-19.0-2.6","5949","List1B","white","woman","","","","null","","","","","","","","",""
"8004.5","","","survey-text","351","1407784","0.0-19.0-3.6","5949","List1B","white","woman","","","","","{""Q0"":""ruth is hugging beth.""}","<img src=""stim_listB/hug7.gif""style=""height:400px;""></stim_listB>","is hugging","","","","","",""
"null","<div style=""font-size:60px;"">+</div>","","html-keyboard-response","352","1408288","0.0-19.0-0.7","5949","List1B","white","woman","","","","null","","","","","","","","",""
"null","<img src=""stim_listB/touch6.gif""style=""height:400px;""></stim_listB>","","html-keyboard-response","353","1410296","0.0-19.0-1.7","5949","List1B","white","woman","","","","null","","","","","","","","",""
"null","is being touched by","","html-keyboard-response","354","1412300","0.0-19.0-2.7","5949","List1B","white","woman","","","","null","","","","","","","","",""
"7269.700000017881","","","survey-text","355","1419585","0.0-19.0-3.7","5949","List1B","white","woman","","","","","{""Q0"":""fred is being touched by luke.""}","<img src=""stim_listB/touch6.gif""style=""height:400px;""></stim_listB>","is being touched by","","","","","",""
"null","<div style=""font-size:60px;"">+</div>","","html-keyboard-response","356","1420090","0.0-19.0-0.8","5949","List1B","white","woman","","","","null","","","","","","","","",""
"null","<img src=""stim_listB/look1.gif""style=""height:400px;""></stim_listB>","","html-keyboard-response","357","1422097","0.0-19.0-1.8","5949","List1B","white","woman","","","","null","","","","","","","","",""
"null","is looking at","","html-keyboard-response","358","1424102","0.0-19.0-2.8","5949","List1B","white","woman","","","","null","","","","","","","","",""
"6467.4000000059605","","","survey-text","359","1430581","0.0-19.0-3.8","5949","List1B","white","woman","","","","","{""Q0"":""beth is looking at fred.""}","<img src=""stim_listB/look1.gif""style=""height:400px;""></stim_listB>","is looking at","","","","","",""
"null","<div style=""font-size:60px;"">+</div>","","html-keyboard-response","360","1431091","0.0-19.0-0.9","5949","List1B","white","woman","","","","null","","","","","","","","",""
"null","<img src=""stim_listB/shout2.gif""style=""height:400px;""></stim_listB>","","html-keyboard-response","361","1433098","0.0-19.0-1.9","5949","List1B","white","woman","","","","null","","","","","","","","",""
"null","is being shouted at by","","html-keyboard-response","362","1435103","0.0-19.0-2.9","5949","List1B","white","woman","","","","null","","","","","","","","",""
"8137.0999999940395","","","survey-text","363","1443258","0.0-19.0-3.9","5949","List1B","white","woman","","","","","{""Q0"":""mike is being shouted at by kate.""}","<img src=""stim_listB/shout2.gif""style=""height:400px;""></stim_listB>","is being shouted at by","","","","","",""
"null","<div style=""font-size:60px;"">+</div>","","html-keyboard-response","364","1443763","0.0-19.0-0.10","5949","List1B","white","woman","","","","null","","","","","","","","",""
"null","<img src=""stim_listB/look4.gif""style=""height:400px;""></stim_listB>","","html-keyboard-response","365","1445772","0.0-19.0-1.10","5949","List1B","white","woman","","","","null","","","","","","","","",""
"null","is being looked at by","","html-keyboard-response","366","1447776","0.0-19.0-2.10","5949","List1B","white","woman","","","","null","","","","","","","","",""
"7414.4000000059605","","","survey-text","367","1455208","0.0-19.0-3.10","5949","List1B","white","woman","","","","","{""Q0"":""dave is being looked at by jane.""}","<img src=""stim_listB/look4.gif""style=""height:400px;""></stim_listB>","is being looked at by","","","","","",""
"null","<div style=""font-size:60px;"">+</div>","","html-keyboard-response","368","1455713","0.0-19.0-0.11","5949","List1B","white","woman","","","","null","","","","","","","","",""
"null","<img src=""stim_listB/challenge6.gif""style=""height:400px;""></stim_listB>","","html-keyboard-response","369","1457719","0.0-19.0-1.11","5949","List1B","white","woman","","","","null","","","","","","","","",""
"null","is being challenged by","","html-keyboard-response","370","1459724","0.0-19.0-2.11","5949","List1B","white","woman","","","","null","","","","","","","","",""
"8609.399999976158","","","survey-text","371","1468344","0.0-19.0-3.11","5949","List1B","white","woman","","","","","{""Q0"":""fred is being challenged by dave.""}","<img src=""stim_listB/challenge6.gif""style=""height:400px;""></stim_listB>","is being challenged by","","","","","",""
"null","<div style=""font-size:60px;"">+</div>","","html-keyboard-response","372","1468849","0.0-19.0-0.12","5949","List1B","white","woman","","","","null","","","","","","","","",""
"null","<img src=""stim_listB/seduce7.gif""style=""height:400px;""></stim_listB>","","html-keyboard-response","373","1470858","0.0-19.0-1.12","5949","List1B","white","woman","","","","null","","","","","","","","",""
"null","is seducing","","html-keyboard-response","374","1472864","0.0-19.0-2.12","5949","List1B","white","woman","","","","null","","","","","","","","",""
"5877.899999976158","","","survey-text","375","1478753","0.0-19.0-3.12","5949","List1B","white","woman","","","","","{""Q0"":""jane is seducing beth.""}","<img src=""stim_listB/seduce7.gif""style=""height:400px;""></stim_listB>","is seducing","","","","","",""
"null","<div style=""font-size:60px;"">+</div>","","html-keyboard-response","376","1479259","0.0-19.0-0.13","5949","List1B","white","woman","","","","null","","","","","","","","",""
"null","<img src=""stim_listB/copy1.gif""style=""height:400px;""></stim_listB>","","html-keyboard-response","377","1481267","0.0-19.0-1.13","5949","List1B","white","woman","","","","null","","","","","","","","",""
"null","is copying","","html-keyboard-response","378","1483272","0.0-19.0-2.13","5949","List1B","white","woman","","","","null","","","","","","","","",""
"6487.5","","","survey-text","379","1489778","0.0-19.0-3.13","5949","List1B","white","woman","","","","","{""Q0"":""beth is copying mike.""}","<img src=""stim_listB/copy1.gif""style=""height:400px;""></stim_listB>","is copying","","","","","",""
"null","<div style=""font-size:60px;"">+</div>","","html-keyboard-response","380","1490283","0.0-19.0-0.14","5949","List1B","white","woman","","","","null","","","","","","","","",""
"null","<img src=""stim_listB/seduce4.gif""style=""height:400px;""></stim_listB>","","html-keyboard-response","381","1492292","0.0-19.0-1.14","5949","List1B","white","woman","","","","null","","","","","","","","",""
"null","is being seduced by","","html-keyboard-response","382","1494297","0.0-19.0-2.14","5949","List1B","white","woman","","","","null","","","","","","","","",""
"10895.5","","","survey-text","383","1505209","0.0-19.0-3.14","5949","List1B","white","woman","","","","","{""Q0"":""dave is being seduced by ruth.""}","<img src=""stim_listB/seduce4.gif""style=""height:400px;""></stim_listB>","is being seduced by","","","","","",""
"null","<div style=""font-size:60px;"">+</div>","","html-keyboard-response","384","1505715","0.0-19.0-0.15","5949","List1B","white","woman","","","","null","","","","","","","","",""
"null","<img src=""stim_listB/challenge2.gif""style=""height:400px;""></stim_listB>","","html-keyboard-response","385","1507723","0.0-19.0-1.15","5949","List1B","white","woman","","","","null","","","","","","","","",""
"null","is being challenged by","","html-keyboard-response","386","1509727","0.0-19.0-2.15","5949","List1B","white","woman","","","","null","","","","","","","","",""
"10414.40000000596","","","survey-text","387","1520154","0.0-19.0-3.15","5949","List1B","white","woman","","","","","{""Q0"":""fred is being challenged by kate.""}","<img src=""stim_listB/challenge2.gif""style=""height:400px;""></stim_listB>","is being challenged by","","","","","",""
"null","<div style=""font-size:60px;"">+</div>","","html-keyboard-response","388","1520661","0.0-19.0-0.16","5949","List1B","white","woman","","","","null","","","","","","","","",""
"null","<img src=""stim_listB/shout1.gif""style=""height:400px;""></stim_listB>","","html-keyboard-response","389","1522670","0.0-19.0-1.16","5949","List1B","white","woman","","","","null","","","","","","","","",""
"null","is shouting at","","html-keyboard-response","390","1524676","0.0-19.0-2.16","5949","List1B","white","woman","","","","null","","","","","","","","",""
"6391","","","survey-text","391","1531087","0.0-19.0-3.16","5949","List1B","white","woman","","","","","{""Q0"":""beth is shouting at fred.""}","<img src=""stim_listB/shout1.gif""style=""height:400px;""></stim_listB>","is shouting at","","","","","",""
"null","<div style=""font-size:60px;"">+</div>","","html-keyboard-response","392","1531593","0.0-19.0-0.17","5949","List1B","white","woman","","","","null","","","","","","","","",""
"null","<img src=""stim_listB/shout6.gif""style=""height:400px;""></stim_listB>","","html-keyboard-response","393","1533600","0.0-19.0-1.17","5949","List1B","white","woman","","","","null","","","","","","","","",""
"null","is being shouted at by","","html-keyboard-response","394","1535606","0.0-19.0-2.17","5949","List1B","white","woman","","","","null","","","","","","","","",""
"7656.800000011921","","","survey-text","395","1543273","0.0-19.0-3.17","5949","List1B","white","woman","","","","","{""Q0"":""mike is being shouted at by dave.""}","<img src=""stim_listB/shout6.gif""style=""height:400px;""></stim_listB>","is being shouted at by","","","","","",""
"null","<div style=""font-size:60px;"">+</div>","","html-keyboard-response","396","1543780","0.0-19.0-0.18","5949","List1B","white","woman","","","","null","","","","","","","","",""
"null","<img src=""stim_listB/oppose1.gif""style=""height:400px;""></stim_listB>","","html-keyboard-response","397","1545794","0.0-19.0-1.18","5949","List1B","white","woman","","","","null","","","","","","","","",""
"null","is opposing","","html-keyboard-response","398","1547799","0.0-19.0-2.18","5949","List1B","white","woman","","","","null","","","","","","","","",""
"6086.700000017881","","","survey-text","399","1553896","0.0-19.0-3.18","5949","List1B","white","woman","","","","","{""Q0"":""kate is opposing mike.""}","<img src=""stim_listB/oppose1.gif""style=""height:400px;""></stim_listB>","is opposing","","","","","",""
"null","<div style=""font-size:60px;"">+</div>","","html-keyboard-response","400","1554403","0.0-19.0-0.19","5949","List1B","white","woman","","","","null","","","","","","","","",""
"null","<img src=""stim_listB/hug4.gif""style=""height:400px;""></stim_listB>","","html-keyboard-response","401","1556411","0.0-19.0-1.19","5949","List1B","white","woman","","","","null","","","","","","","","",""
"null","is being hugged by","","html-keyboard-response","402","1558417","0.0-19.0-2.19","5949","List1B","white","woman","","","","null","","","","","","","","",""
"6232.600000023842","","","survey-text","403","1564670","0.0-19.0-3.19","5949","List1B","white","woman","","","","","{""Q0"":""dave is being hugged by jane.""}","<img src=""stim_listB/hug4.gif""style=""height:400px;""></stim_listB>","is being hugged by","","","","","",""
"4333.800000011921","<p>Thank you for completing that task.</p><p>The final part of this session is a questionnaire that will take about 4 minutes.</p><p>Press Continue.</p>","0","html-button-response","404","1569012","0.0-20.0","5949","List1B","white","woman","","","","","","","","","","","","",""
"85151.29999998212","","","survey-text","405","1655190","0.0-21.0","5949","List1B","white","woman","","","","","{""Q0"":""30"",""Q1"":""english"",""Q2"":""english"",""Q3"":""United States"",""Q4"":""american?"",""Q5"":""white/caucasian"",""Q6"":""female""}","","","demographics","","","","",""
"2806.399999976158","<p>Have you lived in the USA for the last 5 years or more?</p>","0","html-button-response","406","1658008","0.0-22.0","5949","List1B","white","woman","","","","","","","","fiveyears","","","","",""
"4220.0999999940395","<p>Move the slider to show the extent to which you agree with the following statements.</p>","0","html-button-response","407","1663238","0.0-23.0","5949","List1B","white","woman","","","","","","","","","","","","",""
"14208.799999982119","","","html-slider-response","408","1678464","0.0-24.0-0.0-0.0","5949","List1B","white","woman","","","","","","","","survey_race","35","","","I am glad to be the age I am.","filler"
"6705.0999999940395","","","html-slider-response","409","1685186","0.0-24.0-0.0-0.1","5949","List1B","white","woman","","","","","","","","survey_race","100","","","The fact that I am my race is an important part of my identity.","identity"
"8195.300000011921","","","html-slider-response","410","1693394","0.0-24.0-0.0-0.2","5949","List1B","white","woman","","","","","","","","survey_race","100","","","Being my race gives me a good feeling.","feeling"
"6401.199999988079","","","html-slider-response","411","1699805","0.0-24.0-0.0-0.3","5949","List1B","white","woman","","","","","","","","survey_race","100","","","I have a lot in common with the average person of my race.","average"
"8017.300000011921","","","html-slider-response","412","1707831","0.0-24.0-0.0-0.4","5949","List1B","white","woman","","","","","","","","survey_race","33","","","Being my age gives me a good feeling.","filler"
"4514.700000017881","","","html-slider-response","413","1712353","0.0-24.0-0.0-0.5","5949","List1B","white","woman","","","","","","","","survey_race","100","","","I feel a bond with people the same age as me.","filler"
"3960.4000000059605","","","html-slider-response","414","1716322","0.0-24.0-0.0-0.6","5949","List1B","white","woman","","","","","","","","survey_race","100","","","I feel solidarity with my race.","solidarity"
"7058.4000000059605","","","html-slider-response","415","1723390","0.0-24.0-0.0-0.7","5949","List1B","white","woman","","","","","","","","survey_race","76","","","I feel solidarity with people the same age as me.","filler"
"7024.4000000059605","","","html-slider-response","416","1730424","0.0-24.0-0.0-0.8","5949","List1B","white","woman","","","","","","","","survey_race","85","","","Being my race is an important part of how I see myself.","important"
"4615.799999982119","","","html-slider-response","417","1735050","0.0-24.0-0.0-0.9","5949","List1B","white","woman","","","","","","","","survey_race","100","","","The older I get, the wiser I feel.","filler"
"10316.699999988079","","","html-slider-response","418","1745377","0.0-24.0-0.0-0.10","5949","List1B","white","woman","","","","","","","","survey_race","52","","","I consider myself an introvert.","filler"
"7073.9000000059605","","","html-slider-response","419","1752461","0.0-24.0-0.0-0.11","5949","List1B","white","woman","","","","","","","","survey_race","100","","","People of my race have a lot in common with each other.","common"
"7161.5","","","html-slider-response","420","1759633","0.0-24.0-0.0-0.12","5949","List1B","white","woman","","","","","","","","survey_race","24","","","Getting older does not worry me.","filler"
"6114.199999988079","","","html-slider-response","421","1765758","0.0-24.0-0.0-0.13","5949","List1B","white","woman","","","","","","","","survey_race","100","","","I often think about the fact that I am my age.","filler"
"5348.800000011921","","","html-slider-response","422","1771118","0.0-24.0-0.0-0.14","5949","List1B","white","woman","","","","","","","","survey_race","94","","","I think that my race has a lot to be proud of.","proud"
"8113.299999982119","","","html-slider-response","423","1779242","0.0-24.0-0.0-0.15","5949","List1B","white","woman","","","","","","","","survey_race","94","","","My age is not an important part of who I am.","filler"
"4908","","","html-slider-response","424","1784162","0.0-24.0-0.0-0.16","5949","List1B","white","woman","","","","","","","","survey_race","100","","","I feel committed to my race.","committed"
"3871.0999999940395","","","html-slider-response","425","1788045","0.0-24.0-0.0-0.17","5949","List1B","white","woman","","","","","","","","survey_race","100","","","I feel a bond with my race.","bond"
"8430.200000017881","","","html-slider-response","426","1796489","0.0-24.0-0.0-0.18","5949","List1B","white","woman","","","","","","","","survey_race","94","","","It is pleasant to be my race.","pleasant"
"4575.4000000059605","","","html-slider-response","427","1801075","0.0-24.0-0.0-0.19","5949","List1B","white","woman","","","","","","","","survey_race","100","","","I have a lot in common with people of a similar age to me.","filler"
"6564.300000011921","","","html-slider-response","428","1807647","0.0-24.0-0.0-0.20","5949","List1B","white","woman","","","","","","","","survey_race","25","","","I often think about the fact that I am my race.","often"
"5317.5","","","html-slider-response","429","1812973","0.0-24.0-0.0-0.21","5949","List1B","white","woman","","","","","","","","survey_race","100","","","People my age have a lot in common with each other.","filler"
"5601.4000000059605","","","html-slider-response","430","1818583","0.0-24.0-0.0-0.22","5949","List1B","white","woman","","","","","","","","survey_race","54","","","I consider myself an extrovert.","filler"
"6407.5999999940395","","","html-slider-response","431","1824999","0.0-24.0-0.0-0.23","5949","List1B","white","woman","","","","","","","","survey_race","35","","","I enjoy being in large groups.","filler"
"9831","","","html-slider-response","432","1834838","0.0-24.0-0.0-0.24","5949","List1B","white","woman","","","","","","","","survey_race","41","","","People of my race are very similar to each other.","verysimilar"
"16001.59999999404","","","html-slider-response","433","1850850","0.0-24.0-0.0-0.25","5949","List1B","white","woman","","","","","","","","survey_race","66","","","I am similar to the average person of my race.","similar"
"5676.600000023842","","","html-slider-response","434","1856537","0.0-24.0-0.0-0.26","5949","List1B","white","woman","","","","","","","","survey_race","28","","","I am glad to be my age.","filler"
"5034.4000000059605","","","html-slider-response","435","1861581","0.0-24.0-0.0-0.27","5949","List1B","white","woman","","","","","","","","survey_race","94","","","I am glad to be my race.","glad"
"4018.9000000059605","","","html-slider-response","436","1865610","0.0-24.0-1.0-0.0","5949","List1B","white","woman","","","","","","","","survey_gender","100","","","I feel committed to my gender.","committed"
"3328.0999999940395","","","html-slider-response","437","1868949","0.0-24.0-1.0-0.1","5949","List1B","white","woman","","","","","","","","survey_gender","100","","","My friends understand me.","filler"
"5605.300000011921","","","html-slider-response","438","1874565","0.0-24.0-1.0-0.2","5949","List1B","white","woman","","","","","","","","survey_gender","0","","","Routine is not important to me.","filler"
"8888.300000011921","","","html-slider-response","439","1883464","0.0-24.0-1.0-0.3","5949","List1B","white","woman","","","","","","","","survey_gender","23","","","It is pleasant to be my gender.","pleasant"
"5138.800000011921","","","html-slider-response","440","1888614","0.0-24.0-1.0-0.4","5949","List1B","white","woman","","","","","","","","survey_gender","21","","","Being my gender gives me a good feeling.","feeling"
"4065","","","html-slider-response","441","1892692","0.0-24.0-1.0-0.5","5949","List1B","white","woman","","","","","","","","survey_gender","100","","","I would say I am an animal person.","filler"
"6099.9000000059605","","","html-slider-response","442","1898804","0.0-24.0-1.0-0.6","5949","List1B","white","woman","","","","","","","","survey_gender","0","","","Family is not more important to me than friendship.","filler"
"6789.5","","","html-slider-response","443","1905606","0.0-24.0-1.0-0.7","5949","List1B","white","woman","","","","","","","","survey_gender","97","","","People of my gender have a lot in common with each other.","common"
"3442.0999999940395","","","html-slider-response","444","1909061","0.0-24.0-1.0-0.8","5949","List1B","white","woman","","","","","","","","survey_gender","100","","","I feel a bond with my friends.","filler"
"5036","","","html-slider-response","445","1914106","0.0-24.0-1.0-0.9","5949","List1B","white","woman","","","","","","","","survey_gender","100","","","The fact that I am my gender is an important part of my identity.","identity"
"3649.5999999940395","","","html-slider-response","446","1917764","0.0-24.0-1.0-0.10","5949","List1B","white","woman","","","","","","","","survey_gender","100","","","I have a lot in common with my friends.","filler"
"4374.4000000059605","","","html-slider-response","447","1922144","0.0-24.0-1.0-0.11","5949","List1B","white","woman","","","","","","","","survey_gender","100","","","I feel solidarity with my gender.","solidarity"
"4523","","","html-slider-response","448","1926676","0.0-24.0-1.0-0.12","5949","List1B","white","woman","","","","","","","","survey_gender","100","","","Being around my friends gives me a good feeling.","filler"
"5286","","","html-slider-response","449","1931973","0.0-24.0-1.0-0.13","5949","List1B","white","woman","","","","","","","","survey_gender","69","","","I often think about the fact that I am my gender.","often"
"6980","","","html-slider-response","450","1938962","0.0-24.0-1.0-0.14","5949","List1B","white","woman","","","","","","","","survey_gender","69","","","I am similar to the average person of my gender.","similar"
"6183.199999988079","","","html-slider-response","451","1945154","0.0-24.0-1.0-0.15","5949","List1B","white","woman","","","","","","","","survey_gender","100","","","I think that my gender has a lot to be proud of.","proud"
"4009.0999999940395","","","html-slider-response","452","1949173","0.0-24.0-1.0-0.16","5949","List1B","white","woman","","","","","","","","survey_gender","100","","","I am glad to have the friends that I have.","filler"
"6936.799999982119","","","html-slider-response","453","1956120","0.0-24.0-1.0-0.17","5949","List1B","white","woman","","","","","","","","survey_gender","86","","","My friends have a lot in common with each other.","filler"
"12370","","","html-slider-response","454","1968501","0.0-24.0-1.0-0.18","5949","List1B","white","woman","","","","","","","","survey_gender","87","","","Being my gender is an important part of how I see myself.","important"
"3590.9000000059605","","","html-slider-response","455","1972102","0.0-24.0-1.0-0.19","5949","List1B","white","woman","","","","","","","","survey_gender","100","","","I feel solidarity with my friends.","filler"
"6445.9000000059605","","","html-slider-response","456","1978557","0.0-24.0-1.0-0.20","5949","List1B","white","woman","","","","","","","","survey_gender","64","","","I have a lot in common with the average person of my gender.","average"
"4947.700000017881","","","html-slider-response","457","1983519","0.0-24.0-1.0-0.21","5949","List1B","white","woman","","","","","","","","survey_gender","100","","","Most of the friends in my life are very similar to me.","filler"
"4103.9000000059605","","","html-slider-response","458","1987634","0.0-24.0-1.0-0.22","5949","List1B","white","woman","","","","","","","","survey_gender","100","","","I feel a bond with my gender.","bond"
"7548.5999999940395","","","html-slider-response","459","1995193","0.0-24.0-1.0-0.23","5949","List1B","white","woman","","","","","","","","survey_gender","32","","","People of my gender are very similar to each other.","verysimilar"
"98556.09999999404","","","html-slider-response","460","2093761","0.0-24.0-1.0-0.24","5949","List1B","white","woman","","","","","","","","survey_gender","100","","","It is not always easy for people to know what I am thinking.","filler"
"3908.100000023842","","","html-slider-response","461","2097682","0.0-24.0-1.0-0.25","5949","List1B","white","woman","","","","","","","","survey_gender","100","","","I often think about my actions.","filler"
"5354.299999982119","","","html-slider-response","462","2103047","0.0-24.0-1.0-0.26","5949","List1B","white","woman","","","","","","","","survey_gender","85","","","I am glad to be my gender.","glad"
"4393.699999988079","","","html-slider-response","463","2107454","0.0-24.0-1.0-0.27","5949","List1B","white","woman","","","","","","","","survey_gender","93","","","I consider myself a highly empathetic person.","filler"
"7134.200000017881","","","survey-text","464","2114609","0.0-25.0","5949","List1B","white","woman","","","","","{""Q0"":""5f315ad66fa12562604a28a1""}","","","worker_id","","","","",""
"82231.80000001192","","","external-html","465","2197263","0.0-26.0","5949","List1B","white","woman","debrief.html","","","","","","","","","","","",""
