"rt","stimulus","button_pressed","trial_type","trial_index","time_elapsed","internal_node_id","subject","list","ppt_race","ppt_gender","url","first_guess","correct","key_press","responses","image_type","phrase_type","test_part","response","stimulus1","stimulus2","question_type","survey_item"
"12892.5","Welcome to the experiment. Press Continue to begin.","0","html-button-response","0","12896","0.0-0.0","59955","List2B","white","man","","","","","","","","","","","","",""
"53381.5","","","external-html","1","67716","0.0-1.0","59955","List2B","white","man","consent.html","","","","","","","","","","","",""
"14111.80000000447","<p>On the next page, you will see portraits of 8 people and their names.</p><p>Your first task is to take a few minutes to memorise the names of these people.</p><p>You will have to recall their names during the rest of the experiment, so it is</p><p>essential that you try to memorise these people and their names as best as you can.</p><br><p><strong>You will then be tested on your memory of these names and portraits.</strong></p><br><p>The experiment will start after you have completed this memory test.</p><br><p>Ready?</p>","0","html-button-response","2","81830","0.0-2.0","59955","List2B","white","man","","","","","","","","","","","","",""
"50476.89999999851","<img src='img/portrait_matrix_list2.jpg' style='width:900px;height:500px;''></img><p>If you have memorised all the portraits and names and are ready to start, press Continue.</p><p><strong>Please note: Your memory of these faces will be tested 4 times during this experiment.</strong></p>","0","html-button-response","3","133315","0.0-3.0-0.0","59955","List2B","white","man","","","","","","","","","","","","",""
"3071.2999999970198","<img src=""portrait/WM1.jpg""style=""height:400px;""></img>","6","html-button-response","4","137393","0.0-3.0-1.0","59955","List2B","white","man","","true","6","","","","","","","","","",""
"null","CORRECT","","html-keyboard-response","5","138905","0.0-3.0-2.0-0.0","59955","List2B","white","man","","","","null","","","","","","","","",""
"4085.10000000149","<img src=""portrait/BM1.jpg""style=""height:400px;""></img>","4","html-button-response","6","142991","0.0-3.0-4.0","59955","List2B","white","man","","true","4","","","","","","","","","",""
"null","CORRECT","","html-keyboard-response","7","144500","0.0-3.0-5.0-0.0","59955","List2B","white","man","","","","null","","","","","","","","",""
"2990.89999999851","<img src=""portrait/BM2.jpg""style=""height:400px;""></img>","5","html-button-response","8","147493","0.0-3.0-7.0","59955","List2B","white","man","","true","5","","","","","","","","","",""
"null","CORRECT","","html-keyboard-response","9","148999","0.0-3.0-8.0-0.0","59955","List2B","white","man","","","","null","","","","","","","","",""
"4025","<img src=""portrait/WW1.jpg""style=""height:400px;""></img>","1","html-button-response","10","153025","0.0-3.0-10.0","59955","List2B","white","man","","true","1","","","","","","","","","",""
"null","CORRECT","","html-keyboard-response","11","154535","0.0-3.0-11.0-0.0","59955","List2B","white","man","","","","null","","","","","","","","",""
"6519.5","<img src=""portrait/BW1.jpg""style=""height:400px;""></img>","0","html-button-response","12","161056","0.0-3.0-13.0","59955","List2B","white","man","","true","0","","","","","","","","","",""
"null","CORRECT","","html-keyboard-response","13","162562","0.0-3.0-14.0-0.0","59955","List2B","white","man","","","","null","","","","","","","","",""
"4454.79999999702","<img src=""portrait/WM2.jpg""style=""height:400px;""></img>","7","html-button-response","14","167019","0.0-3.0-16.0","59955","List2B","white","man","","true","7","","","","","","","","","",""
"null","CORRECT","","html-keyboard-response","15","168529","0.0-3.0-17.0-0.0","59955","List2B","white","man","","","","null","","","","","","","","",""
"3291.7999999970198","<img src=""portrait/BW2.jpg""style=""height:400px;""></img>","2","html-button-response","16","171822","0.0-3.0-19.0","59955","List2B","white","man","","true","2","","","","","","","","","",""
"null","CORRECT","","html-keyboard-response","17","173331","0.0-3.0-20.0-0.0","59955","List2B","white","man","","","","null","","","","","","","","",""
"5438.20000000298","<img src=""portrait/WW2.jpg""style=""height:400px;""></img>","3","html-button-response","18","178771","0.0-3.0-22.0","59955","List2B","white","man","","true","3","","","","","","","","","",""
"null","CORRECT","","html-keyboard-response","19","180281","0.0-3.0-23.0-0.0","59955","List2B","white","man","","","","null","","","","","","","","",""
"2153.7000000029802","<p>You got 8 out of 8 right first time. Press Continue.</p>","0","html-button-response","20","182437","0.0-3.0-25.0","59955","List2B","white","man","","","","","","","","","","","","",""
"37718.39999999851","<p>In this experiment, you will view photographs of the people from the memory game interacting.</p><p>By using the <strong>exact</strong> phrase given <i>after</i> the photograph appears and recalling the correct names of the people in the photographs, form a sentence describing the interaction. You do not need to capitalise names.</p><p>Type your answer in the space provided. Please complete every sentence before moving onto the next trial.</p><p>You will only have a few seconds to memorise each given photograph and phrase before you can respond, so try your best to focus.</p><p>An example is given below. Press 'Continue' when you are ready.</p><img src='img/speaking_example.jpg' style='width:800px;height:460px;''></img>","0","html-button-response","21","221164","0.0-4.0","59955","List2B","white","man","","","","","","","","","","","","",""
"2437.10000000149","<p>Before the experiment starts, you will watch two example trials. Press 'Continue'.</p>","0","html-button-response","22","224606","0.0-5.0","59955","List2B","white","man","","","","","","","","","","","","",""
"null","<img src='img/play_eg.gif' style='height:400px;''></img>","","html-keyboard-response","23","227618","0.0-6.0","59955","List2B","white","man","","","","null","","","","","","","","",""
"null","<p>is playing with</p>","","html-keyboard-response","24","229625","0.0-7.0","59955","List2B","white","man","","","","null","","","","","","","","",""
"5026.19999999553","<p><b>Answer:</b> jane is playing with ruth</p>","0","html-button-response","25","234652","0.0-8.0","59955","List2B","white","man","","","","","","","","","","","","",""
"null","<img src='img/dance_eg.gif' style='height:400px;''></img>","","html-keyboard-response","26","237659","0.0-9.0","59955","List2B","white","man","","","","null","","","","","","","","",""
"null","<p>is being entertained by</p>","","html-keyboard-response","27","239663","0.0-10.0","59955","List2B","white","man","","","","null","","","","","","","","",""
"5556.70000000298","<p><b>Answer:</b> fred is being entertained by mike</p>","0","html-button-response","28","245221","0.0-11.0","59955","List2B","white","man","","","","","","","","","","","","",""
"8322","<p>Ready to start the experiment?</p><br><p><strong>Remember to describe the picture using a full sentence,</strong></p><p><strong>that combines the names of the people with the <i>exact</i> phrase given.</strong></p><p><strong>To receive full payment you must do this correctly.</strong></p><p><strong> You do not need to capitalise names or use punctuation.</strong></p><br><p>Press 'Continue' to begin.</p>","0","html-button-response","29","254548","0.0-12.0","59955","List2B","white","man","","","","","","","","","","","","",""
"null","<div style=""font-size:60px;"">+</div>","","html-keyboard-response","30","256059","0.0-13.0-0.0","59955","List2B","white","man","","","","null","","","","","","","","",""
"null","<img src=""stim_listB/kiss7.gif""style=""height:400px;""></stim_listB>","","html-keyboard-response","31","258066","0.0-13.0-1.0","59955","List2B","white","man","","","","null","","","","","","","","",""
"null","is kissing","","html-keyboard-response","32","260071","0.0-13.0-2.0","59955","List2B","white","man","","","","null","","","","","","","","",""
"13630.20000000298","","","survey-text","33","273705","0.0-13.0-3.0","59955","List2B","white","man","","","","","{""Q0"":""Beth is kissing Ruth""}","<img src=""stim_listB/kiss7.gif""style=""height:400px;""></stim_listB>","is kissing","","","","","",""
"null","<div style=""font-size:60px;"">+</div>","","html-keyboard-response","34","274207","0.0-13.0-0.1","59955","List2B","white","man","","","","null","","","","","","","","",""
"null","<img src=""stim_listB/touch2.gif""style=""height:400px;""></stim_listB>","","html-keyboard-response","35","276211","0.0-13.0-1.1","59955","List2B","white","man","","","","null","","","","","","","","",""
"null","is being touched by","","html-keyboard-response","36","278217","0.0-13.0-2.1","59955","List2B","white","man","","","","null","","","","","","","","",""
"7869.60000000149","","","survey-text","37","286089","0.0-13.0-3.1","59955","List2B","white","man","","","","","{""Q0"":""Luke is being touched by Ruth""}","<img src=""stim_listB/touch2.gif""style=""height:400px;""></stim_listB>","is being touched by","","","","","",""
"null","<div style=""font-size:60px;"">+</div>","","html-keyboard-response","38","286593","0.0-13.0-0.2","59955","List2B","white","man","","","","null","","","","","","","","",""
"null","<img src=""stim_listB/hug2.gif""style=""height:400px;""></stim_listB>","","html-keyboard-response","39","288600","0.0-13.0-1.2","59955","List2B","white","man","","","","null","","","","","","","","",""
"null","is being hugged by","","html-keyboard-response","40","290601","0.0-13.0-2.2","59955","List2B","white","man","","","","null","","","","","","","","",""
"8026.89999999851","","","survey-text","41","298630","0.0-13.0-3.2","59955","List2B","white","man","","","","","{""Q0"":""Dave is being hugged by Jane""}","<img src=""stim_listB/hug2.gif""style=""height:400px;""></stim_listB>","is being hugged by","","","","","",""
"null","<div style=""font-size:60px;"">+</div>","","html-keyboard-response","42","299134","0.0-13.0-0.3","59955","List2B","white","man","","","","null","","","","","","","","",""
"null","<img src=""stim_listB/seduce8.gif""style=""height:400px;""></stim_listB>","","html-keyboard-response","43","301141","0.0-13.0-1.3","59955","List2B","white","man","","","","null","","","","","","","","",""
"null","is being seduced by","","html-keyboard-response","44","303143","0.0-13.0-2.3","59955","List2B","white","man","","","","null","","","","","","","","",""
"7578.70000000298","","","survey-text","45","310724","0.0-13.0-3.3","59955","List2B","white","man","","","","","{""Q0"":""Jane is being seduced by Beth""}","<img src=""stim_listB/seduce8.gif""style=""height:400px;""></stim_listB>","is being seduced by","","","","","",""
"null","<div style=""font-size:60px;"">+</div>","","html-keyboard-response","46","311229","0.0-13.0-0.4","59955","List2B","white","man","","","","null","","","","","","","","",""
"null","<img src=""stim_listB/challenge3.gif""style=""height:400px;""></stim_listB>","","html-keyboard-response","47","313235","0.0-13.0-1.4","59955","List2B","white","man","","","","null","","","","","","","","",""
"null","is challenging","","html-keyboard-response","48","315237","0.0-13.0-2.4","59955","List2B","white","man","","","","null","","","","","","","","",""
"8812.70000000298","","","survey-text","49","324051","0.0-13.0-3.4","59955","List2B","white","man","","","","","{""Q0"":""Beth is challenging Mike""}","<img src=""stim_listB/challenge3.gif""style=""height:400px;""></stim_listB>","is challenging","","","","","",""
"null","<div style=""font-size:60px;"">+</div>","","html-keyboard-response","50","324553","0.0-13.0-0.5","59955","List2B","white","man","","","","null","","","","","","","","",""
"null","<img src=""stim_listB/oppose2.gif""style=""height:400px;""></stim_listB>","","html-keyboard-response","51","326556","0.0-13.0-1.5","59955","List2B","white","man","","","","null","","","","","","","","",""
"null","is being opposed by","","html-keyboard-response","52","328562","0.0-13.0-2.5","59955","List2B","white","man","","","","null","","","","","","","","",""
"8251.20000000298","","","survey-text","53","336815","0.0-13.0-3.5","59955","List2B","white","man","","","","","{""Q0"":""Luke is being opposed by Ruth""}","<img src=""stim_listB/oppose2.gif""style=""height:400px;""></stim_listB>","is being opposed by","","","","","",""
"null","<div style=""font-size:60px;"">+</div>","","html-keyboard-response","54","337319","0.0-13.0-0.6","59955","List2B","white","man","","","","null","","","","","","","","",""
"null","<img src=""stim_listB/oppose3.gif""style=""height:400px;""></stim_listB>","","html-keyboard-response","55","339322","0.0-13.0-1.6","59955","List2B","white","man","","","","null","","","","","","","","",""
"null","is opposing","","html-keyboard-response","56","341324","0.0-13.0-2.6","59955","List2B","white","man","","","","null","","","","","","","","",""
"9961.60000000149","","","survey-text","57","351288","0.0-13.0-3.6","59955","List2B","white","man","","","","","{""Q0"":""Mike is opposing Kate""}","<img src=""stim_listB/oppose3.gif""style=""height:400px;""></stim_listB>","is opposing","","","","","",""
"null","<div style=""font-size:60px;"">+</div>","","html-keyboard-response","58","351789","0.0-13.0-0.7","59955","List2B","white","man","","","","null","","","","","","","","",""
"null","<img src=""stim_listB/hug7.gif""style=""height:400px;""></stim_listB>","","html-keyboard-response","59","353793","0.0-13.0-1.7","59955","List2B","white","man","","","","null","","","","","","","","",""
"null","is hugging","","html-keyboard-response","60","355799","0.0-13.0-2.7","59955","List2B","white","man","","","","null","","","","","","","","",""
"5895.30000000447","","","survey-text","61","361696","0.0-13.0-3.7","59955","List2B","white","man","","","","","{""Q0"":""Beth is hugging Ruth""}","<img src=""stim_listB/hug7.gif""style=""height:400px;""></stim_listB>","is hugging","","","","","",""
"null","<div style=""font-size:60px;"">+</div>","","html-keyboard-response","62","362201","0.0-13.0-0.8","59955","List2B","white","man","","","","null","","","","","","","","",""
"null","<img src=""stim_listB/shout7.gif""style=""height:400px;""></stim_listB>","","html-keyboard-response","63","364202","0.0-13.0-1.8","59955","List2B","white","man","","","","null","","","","","","","","",""
"null","is shouting at","","html-keyboard-response","64","366206","0.0-13.0-2.8","59955","List2B","white","man","","","","null","","","","","","","","",""
"7886.39999999851","","","survey-text","65","374095","0.0-13.0-3.8","59955","List2B","white","man","","","","","{""Q0"":""Ruth is shouting at Beth""}","<img src=""stim_listB/shout7.gif""style=""height:400px;""></stim_listB>","is shouting at","","","","","",""
"null","<div style=""font-size:60px;"">+</div>","","html-keyboard-response","66","374597","0.0-13.0-0.9","59955","List2B","white","man","","","","null","","","","","","","","",""
"null","<img src=""stim_listB/challenge2.gif""style=""height:400px;""></stim_listB>","","html-keyboard-response","67","376600","0.0-13.0-1.9","59955","List2B","white","man","","","","null","","","","","","","","",""
"null","is being challenged by","","html-keyboard-response","68","378604","0.0-13.0-2.9","59955","List2B","white","man","","","","null","","","","","","","","",""
"9103.19999999553","","","survey-text","69","387709","0.0-13.0-3.9","59955","List2B","white","man","","","","","{""Q0"":""Jane is being challenged by Luke""}","<img src=""stim_listB/challenge2.gif""style=""height:400px;""></stim_listB>","is being challenged by","","","","","",""
"null","<div style=""font-size:60px;"">+</div>","","html-keyboard-response","70","388211","0.0-13.0-0.10","59955","List2B","white","man","","","","null","","","","","","","","",""
"null","<img src=""stim_listB/kiss2.gif""style=""height:400px;""></stim_listB>","","html-keyboard-response","71","390218","0.0-13.0-1.10","59955","List2B","white","man","","","","null","","","","","","","","",""
"null","is being kissed by","","html-keyboard-response","72","392220","0.0-13.0-2.10","59955","List2B","white","man","","","","null","","","","","","","","",""
"7498.39999999851","","","survey-text","73","399721","0.0-13.0-3.10","59955","List2B","white","man","","","","","{""Q0"":""Dave is being kissed by Jane""}","<img src=""stim_listB/kiss2.gif""style=""height:400px;""></stim_listB>","is being kissed by","","","","","",""
"null","<div style=""font-size:60px;"">+</div>","","html-keyboard-response","74","400226","0.0-13.0-0.11","59955","List2B","white","man","","","","null","","","","","","","","",""
"null","<img src=""stim_listB/challenge4.gif""style=""height:400px;""></stim_listB>","","html-keyboard-response","75","402232","0.0-13.0-1.11","59955","List2B","white","man","","","","null","","","","","","","","",""
"null","is being challenged by","","html-keyboard-response","76","404238","0.0-13.0-2.11","59955","List2B","white","man","","","","null","","","","","","","","",""
"8547.10000000149","","","survey-text","77","412787","0.0-13.0-3.11","59955","List2B","white","man","","","","","{""Q0"":""Fred is being challenged by Kate""}","<img src=""stim_listB/challenge4.gif""style=""height:400px;""></stim_listB>","is being challenged by","","","","","",""
"null","<div style=""font-size:60px;"">+</div>","","html-keyboard-response","78","413291","0.0-13.0-0.12","59955","List2B","white","man","","","","null","","","","","","","","",""
"null","<img src=""stim_listB/seduce4.gif""style=""height:400px;""></stim_listB>","","html-keyboard-response","79","415293","0.0-13.0-1.12","59955","List2B","white","man","","","","null","","","","","","","","",""
"null","is being seduced by","","html-keyboard-response","80","417296","0.0-13.0-2.12","59955","List2B","white","man","","","","null","","","","","","","","",""
"7794.80000000447","","","survey-text","81","425093","0.0-13.0-3.12","59955","List2B","white","man","","","","","{""Q0"":""Beth is being seduced by Mike""}","<img src=""stim_listB/seduce4.gif""style=""height:400px;""></stim_listB>","is being seduced by","","","","","",""
"null","<div style=""font-size:60px;"">+</div>","","html-keyboard-response","82","425595","0.0-13.0-0.13","59955","List2B","white","man","","","","null","","","","","","","","",""
"null","<img src=""stim_listB/look5.gif""style=""height:400px;""></stim_listB>","","html-keyboard-response","83","427597","0.0-13.0-1.13","59955","List2B","white","man","","","","null","","","","","","","","",""
"null","is looking at","","html-keyboard-response","84","429598","0.0-13.0-2.13","59955","List2B","white","man","","","","null","","","","","","","","",""
"6564","","","survey-text","85","436165","0.0-13.0-3.13","59955","List2B","white","man","","","","","{""Q0"":""Fred is looking at Luke""}","<img src=""stim_listB/look5.gif""style=""height:400px;""></stim_listB>","is looking at","","","","","",""
"null","<div style=""font-size:60px;"">+</div>","","html-keyboard-response","86","436666","0.0-13.0-0.14","59955","List2B","white","man","","","","null","","","","","","","","",""
"null","<img src=""stim_listB/touch7.gif""style=""height:400px;""></stim_listB>","","html-keyboard-response","87","438668","0.0-13.0-1.14","59955","List2B","white","man","","","","null","","","","","","","","",""
"null","is touching","","html-keyboard-response","88","440669","0.0-13.0-2.14","59955","List2B","white","man","","","","null","","","","","","","","",""
"5402.5","","","survey-text","89","446074","0.0-13.0-3.14","59955","List2B","white","man","","","","","{""Q0"":""Kate is touching Jane""}","<img src=""stim_listB/touch7.gif""style=""height:400px;""></stim_listB>","is touching","","","","","",""
"null","<div style=""font-size:60px;"">+</div>","","html-keyboard-response","90","446576","0.0-13.0-0.15","59955","List2B","white","man","","","","null","","","","","","","","",""
"null","<img src=""stim_listB/seduce6.gif""style=""height:400px;""></stim_listB>","","html-keyboard-response","91","448577","0.0-13.0-1.15","59955","List2B","white","man","","","","null","","","","","","","","",""
"null","is being seduced by","","html-keyboard-response","92","450578","0.0-13.0-2.15","59955","List2B","white","man","","","","null","","","","","","","","",""
"11675.70000000298","","","survey-text","93","462256","0.0-13.0-3.15","59955","List2B","white","man","","","","","{""Q0"":""Fred is being seduced by Dave""}","<img src=""stim_listB/seduce6.gif""style=""height:400px;""></stim_listB>","is being seduced by","","","","","",""
"null","<div style=""font-size:60px;"">+</div>","","html-keyboard-response","94","462757","0.0-13.0-0.16","59955","List2B","white","man","","","","null","","","","","","","","",""
"null","<img src=""stim_listB/seduce5.gif""style=""height:400px;""></stim_listB>","","html-keyboard-response","95","464762","0.0-13.0-1.16","59955","List2B","white","man","","","","null","","","","","","","","",""
"null","is seducing","","html-keyboard-response","96","466762","0.0-13.0-2.16","59955","List2B","white","man","","","","null","","","","","","","","",""
"5601.69999999553","","","survey-text","97","472367","0.0-13.0-3.16","59955","List2B","white","man","","","","","{""Q0"":""Mike is seducing Luke""}","<img src=""stim_listB/seduce5.gif""style=""height:400px;""></stim_listB>","is seducing","","","","","",""
"null","<div style=""font-size:60px;"">+</div>","","html-keyboard-response","98","472868","0.0-13.0-0.17","59955","List2B","white","man","","","","null","","","","","","","","",""
"null","<img src=""stim_listB/copy6.gif""style=""height:400px;""></stim_listB>","","html-keyboard-response","99","474870","0.0-13.0-1.17","59955","List2B","white","man","","","","null","","","","","","","","",""
"null","is being copied by","","html-keyboard-response","100","476871","0.0-13.0-2.17","59955","List2B","white","man","","","","null","","","","","","","","",""
"10685.19999999553","","","survey-text","101","487558","0.0-13.0-3.17","59955","List2B","white","man","","","","","{""Q0"":""Mike is being copied by Luke""}","<img src=""stim_listB/copy6.gif""style=""height:400px;""></stim_listB>","is being copied by","","","","","",""
"null","<div style=""font-size:60px;"">+</div>","","html-keyboard-response","102","488059","0.0-13.0-0.18","59955","List2B","white","man","","","","null","","","","","","","","",""
"null","<img src=""stim_listB/touch5.gif""style=""height:400px;""></stim_listB>","","html-keyboard-response","103","490064","0.0-13.0-1.18","59955","List2B","white","man","","","","null","","","","","","","","",""
"null","is touching","","html-keyboard-response","104","492065","0.0-13.0-2.18","59955","List2B","white","man","","","","null","","","","","","","","",""
"8748.20000000298","","","survey-text","105","500816","0.0-13.0-3.18","59955","List2B","white","man","","","","","{""Q0"":""Mike is touching Dave""}","<img src=""stim_listB/touch5.gif""style=""height:400px;""></stim_listB>","is touching","","","","","",""
"null","<div style=""font-size:60px;"">+</div>","","html-keyboard-response","106","501317","0.0-13.0-0.19","59955","List2B","white","man","","","","null","","","","","","","","",""
"null","<img src=""stim_listB/hug8.gif""style=""height:400px;""></stim_listB>","","html-keyboard-response","107","503318","0.0-13.0-1.19","59955","List2B","white","man","","","","null","","","","","","","","",""
"null","is being hugged by","","html-keyboard-response","108","505319","0.0-13.0-2.19","59955","List2B","white","man","","","","null","","","","","","","","",""
"5983.20000000298","","","survey-text","109","511305","0.0-13.0-3.19","59955","List2B","white","man","","","","","{""Q0"":""Kate is being hugged by Jane""}","<img src=""stim_listB/hug8.gif""style=""height:400px;""></stim_listB>","is being hugged by","","","","","",""
"9492.89999999851","<img src='img/portrait_matrix_list2.jpg' style='width:900px;height:500px;''></img><p>If you have memorised all the portraits and names and are ready to start, press Continue.</p><p><strong>Please note: Your memory of these faces will be tested 4 times during this experiment.</strong></p>","0","html-button-response","110","520799","0.0-14.0-0.0","59955","List2B","white","man","","","","","","","","","","","","",""
"2254.2000000029802","<img src=""portrait/WW1.jpg""style=""height:400px;""></img>","1","html-button-response","111","524055","0.0-14.0-1.0","59955","List2B","white","man","","true","1","","","","","","","","","",""
"null","CORRECT","","html-keyboard-response","112","525558","0.0-14.0-2.0-0.0","59955","List2B","white","man","","","","null","","","","","","","","",""
"2429.60000000149","<img src=""portrait/WM2.jpg""style=""height:400px;""></img>","7","html-button-response","113","527989","0.0-14.0-4.0","59955","List2B","white","man","","true","7","","","","","","","","","",""
"null","CORRECT","","html-keyboard-response","114","529491","0.0-14.0-5.0-0.0","59955","List2B","white","man","","","","null","","","","","","","","",""
"2506.10000000149","<img src=""portrait/BW1.jpg""style=""height:400px;""></img>","0","html-button-response","115","531998","0.0-14.0-7.0","59955","List2B","white","man","","true","0","","","","","","","","","",""
"null","CORRECT","","html-keyboard-response","116","533501","0.0-14.0-8.0-0.0","59955","List2B","white","man","","","","null","","","","","","","","",""
"2070.7999999970198","<img src=""portrait/WM1.jpg""style=""height:400px;""></img>","6","html-button-response","117","535573","0.0-14.0-10.0","59955","List2B","white","man","","true","6","","","","","","","","","",""
"null","CORRECT","","html-keyboard-response","118","537078","0.0-14.0-11.0-0.0","59955","List2B","white","man","","","","null","","","","","","","","",""
"1940.5","<img src=""portrait/WW2.jpg""style=""height:400px;""></img>","3","html-button-response","119","539020","0.0-14.0-13.0","59955","List2B","white","man","","true","3","","","","","","","","","",""
"null","CORRECT","","html-keyboard-response","120","540526","0.0-14.0-14.0-0.0","59955","List2B","white","man","","","","null","","","","","","","","",""
"1992.1999999955297","<img src=""portrait/BM1.jpg""style=""height:400px;""></img>","4","html-button-response","121","542520","0.0-14.0-16.0","59955","List2B","white","man","","true","4","","","","","","","","","",""
"null","CORRECT","","html-keyboard-response","122","544022","0.0-14.0-17.0-0.0","59955","List2B","white","man","","","","null","","","","","","","","",""
"1679.8000000044703","<img src=""portrait/BM2.jpg""style=""height:400px;""></img>","5","html-button-response","123","545703","0.0-14.0-19.0","59955","List2B","white","man","","true","5","","","","","","","","","",""
"null","CORRECT","","html-keyboard-response","124","547204","0.0-14.0-20.0-0.0","59955","List2B","white","man","","","","null","","","","","","","","",""
"2695.2999999970198","<img src=""portrait/BW2.jpg""style=""height:400px;""></img>","2","html-button-response","125","549901","0.0-14.0-22.0","59955","List2B","white","man","","true","2","","","","","","","","","",""
"null","CORRECT","","html-keyboard-response","126","551405","0.0-14.0-23.0-0.0","59955","List2B","white","man","","","","null","","","","","","","","",""
"1604.9000000059605","<p>You got 8 out of 8 right first time. Press Continue.</p>","0","html-button-response","127","553012","0.0-14.0-25.0","59955","List2B","white","man","","","","","","","","","","","","",""
"null","<div style=""font-size:60px;"">+</div>","","html-keyboard-response","128","554516","0.0-15.0-0.0","59955","List2B","white","man","","","","null","","","","","","","","",""
"null","<img src=""stim_listB/seduce7.gif""style=""height:400px;""></stim_listB>","","html-keyboard-response","129","556518","0.0-15.0-1.0","59955","List2B","white","man","","","","null","","","","","","","","",""
"null","is seducing","","html-keyboard-response","130","558519","0.0-15.0-2.0","59955","List2B","white","man","","","","null","","","","","","","","",""
"7054.19999999553","","","survey-text","131","565576","0.0-15.0-3.0","59955","List2B","white","man","","","","","{""Q0"":""Kate is seducing Ruth""}","<img src=""stim_listB/seduce7.gif""style=""height:400px;""></stim_listB>","is seducing","","","","","",""
"null","<div style=""font-size:60px;"">+</div>","","html-keyboard-response","132","566077","0.0-15.0-0.1","59955","List2B","white","man","","","","null","","","","","","","","",""
"null","<img src=""stim_listB/shout4.gif""style=""height:400px;""></stim_listB>","","html-keyboard-response","133","568079","0.0-15.0-1.1","59955","List2B","white","man","","","","null","","","","","","","","",""
"null","is being shouted at by","","html-keyboard-response","134","570080","0.0-15.0-2.1","59955","List2B","white","man","","","","null","","","","","","","","",""
"7873.10000000149","","","survey-text","135","577956","0.0-15.0-3.1","59955","List2B","white","man","","","","","{""Q0"":""Mike is being shouted at by Kate""}","<img src=""stim_listB/shout4.gif""style=""height:400px;""></stim_listB>","is being shouted at by","","","","","",""
"null","<div style=""font-size:60px;"">+</div>","","html-keyboard-response","136","578457","0.0-15.0-0.2","59955","List2B","white","man","","","","null","","","","","","","","",""
"null","<img src=""stim_listB/oppose8.gif""style=""height:400px;""></stim_listB>","","html-keyboard-response","137","580460","0.0-15.0-1.2","59955","List2B","white","man","","","","null","","","","","","","","",""
"null","is being opposed by","","html-keyboard-response","138","582461","0.0-15.0-2.2","59955","List2B","white","man","","","","null","","","","","","","","",""
"7255","","","survey-text","139","589719","0.0-15.0-3.2","59955","List2B","white","man","","","","","{""Q0"":""Ruth is being opposed by Beth""}","<img src=""stim_listB/oppose8.gif""style=""height:400px;""></stim_listB>","is being opposed by","","","","","",""
"null","<div style=""font-size:60px;"">+</div>","","html-keyboard-response","140","590220","0.0-15.0-0.3","59955","List2B","white","man","","","","null","","","","","","","","",""
"null","<img src=""stim_listB/touch6.gif""style=""height:400px;""></stim_listB>","","html-keyboard-response","141","592223","0.0-15.0-1.3","59955","List2B","white","man","","","","null","","","","","","","","",""
"null","is being touched by","","html-keyboard-response","142","594224","0.0-15.0-2.3","59955","List2B","white","man","","","","null","","","","","","","","",""
"6915.89999999851","","","survey-text","143","601143","0.0-15.0-3.3","59955","List2B","white","man","","","","","{""Q0"":""Fred is being touched by Luke""}","<img src=""stim_listB/touch6.gif""style=""height:400px;""></stim_listB>","is being touched by","","","","","",""
"null","<div style=""font-size:60px;"">+</div>","","html-keyboard-response","144","601645","0.0-15.0-0.4","59955","List2B","white","man","","","","null","","","","","","","","",""
"null","<img src=""stim_listB/challenge8.gif""style=""height:400px;""></stim_listB>","","html-keyboard-response","145","603647","0.0-15.0-1.4","59955","List2B","white","man","","","","null","","","","","","","","",""
"null","is being challenged by","","html-keyboard-response","146","605651","0.0-15.0-2.4","59955","List2B","white","man","","","","null","","","","","","","","",""
"7660.20000000298","","","survey-text","147","613314","0.0-15.0-3.4","59955","List2B","white","man","","","","","{""Q0"":""Kate is being challenged by Ruth""}","<img src=""stim_listB/challenge8.gif""style=""height:400px;""></stim_listB>","is being challenged by","","","","","",""
"null","<div style=""font-size:60px;"">+</div>","","html-keyboard-response","148","613814","0.0-15.0-0.5","59955","List2B","white","man","","","","null","","","","","","","","",""
"null","<img src=""stim_listB/greet7.gif""style=""height:400px;""></stim_listB>","","html-keyboard-response","149","615816","0.0-15.0-1.5","59955","List2B","white","man","","","","null","","","","","","","","",""
"null","is greeting","","html-keyboard-response","150","617817","0.0-15.0-2.5","59955","List2B","white","man","","","","null","","","","","","","","",""
"4901.5999999940395","","","survey-text","151","622720","0.0-15.0-3.5","59955","List2B","white","man","","","","","{""Q0"":""Beth is greeting Jane""}","<img src=""stim_listB/greet7.gif""style=""height:400px;""></stim_listB>","is greeting","","","","","",""
"null","<div style=""font-size:60px;"">+</div>","","html-keyboard-response","152","623224","0.0-15.0-0.6","59955","List2B","white","man","","","","null","","","","","","","","",""
"null","<img src=""stim_listB/kiss4.gif""style=""height:400px;""></stim_listB>","","html-keyboard-response","153","625226","0.0-15.0-1.6","59955","List2B","white","man","","","","null","","","","","","","","",""
"null","is being kissed by","","html-keyboard-response","154","627228","0.0-15.0-2.6","59955","List2B","white","man","","","","null","","","","","","","","",""
"7835","","","survey-text","155","635065","0.0-15.0-3.6","59955","List2B","white","man","","","","","{""Q0"":""Mike is being kissed by Kate""}","<img src=""stim_listB/kiss4.gif""style=""height:400px;""></stim_listB>","is being kissed by","","","","","",""
"null","<div style=""font-size:60px;"">+</div>","","html-keyboard-response","156","635567","0.0-15.0-0.7","59955","List2B","white","man","","","","null","","","","","","","","",""
"null","<img src=""stim_listB/copy7.gif""style=""height:400px;""></stim_listB>","","html-keyboard-response","157","637573","0.0-15.0-1.7","59955","List2B","white","man","","","","null","","","","","","","","",""
"null","is copying","","html-keyboard-response","158","639574","0.0-15.0-2.7","59955","List2B","white","man","","","","null","","","","","","","","",""
"6799.39999999851","","","survey-text","159","646376","0.0-15.0-3.7","59955","List2B","white","man","","","","","{""Q0"":""Jane is copying Beth""}","<img src=""stim_listB/copy7.gif""style=""height:400px;""></stim_listB>","is copying","","","","","",""
"null","<div style=""font-size:60px;"">+</div>","","html-keyboard-response","160","646877","0.0-15.0-0.8","59955","List2B","white","man","","","","null","","","","","","","","",""
"null","<img src=""stim_listB/shout8.gif""style=""height:400px;""></stim_listB>","","html-keyboard-response","161","648884","0.0-15.0-1.8","59955","List2B","white","man","","","","null","","","","","","","","",""
"null","is being shouted at by","","html-keyboard-response","162","650887","0.0-15.0-2.8","59955","List2B","white","man","","","","null","","","","","","","","",""
"8368","","","survey-text","163","659257","0.0-15.0-3.8","59955","List2B","white","man","","","","","{""Q0"":""Kate is shouting at Jane""}","<img src=""stim_listB/shout8.gif""style=""height:400px;""></stim_listB>","is being shouted at by","","","","","",""
"null","<div style=""font-size:60px;"">+</div>","","html-keyboard-response","164","659758","0.0-15.0-0.9","59955","List2B","white","man","","","","null","","","","","","","","",""
"null","<img src=""stim_listB/greet8.gif""style=""height:400px;""></stim_listB>","","html-keyboard-response","165","661762","0.0-15.0-1.9","59955","List2B","white","man","","","","null","","","","","","","","",""
"null","is being greeted by","","html-keyboard-response","166","663767","0.0-15.0-2.9","59955","List2B","white","man","","","","null","","","","","","","","",""
"13147.39999999851","","","survey-text","167","676917","0.0-15.0-3.9","59955","List2B","white","man","","","","","{""Q0"":""Ruth is being greeted by Kate""}","<img src=""stim_listB/greet8.gif""style=""height:400px;""></stim_listB>","is being greeted by","","","","","",""
"null","<div style=""font-size:60px;"">+</div>","","html-keyboard-response","168","677422","0.0-15.0-0.10","59955","List2B","white","man","","","","null","","","","","","","","",""
"null","<img src=""stim_listB/look8.gif""style=""height:400px;""></stim_listB>","","html-keyboard-response","169","679428","0.0-15.0-1.10","59955","List2B","white","man","","","","null","","","","","","","","",""
"null","is being looked at by","","html-keyboard-response","170","681433","0.0-15.0-2.10","59955","List2B","white","man","","","","null","","","","","","","","",""
"15135.20000000298","","","survey-text","171","696571","0.0-15.0-3.10","59955","List2B","white","man","","","","","{""Q0"":""Kate is being looked at by Jane""}","<img src=""stim_listB/look8.gif""style=""height:400px;""></stim_listB>","is being looked at by","","","","","",""
"null","<div style=""font-size:60px;"">+</div>","","html-keyboard-response","172","697072","0.0-15.0-0.11","59955","List2B","white","man","","","","null","","","","","","","","",""
"null","<img src=""stim_listB/greet6.gif""style=""height:400px;""></stim_listB>","","html-keyboard-response","173","699075","0.0-15.0-1.11","59955","List2B","white","man","","","","null","","","","","","","","",""
"null","is being greeted by","","html-keyboard-response","174","701079","0.0-15.0-2.11","59955","List2B","white","man","","","","null","","","","","","","","",""
"8332.29999999702","","","survey-text","175","709414","0.0-15.0-3.11","59955","List2B","white","man","","","","","{""Q0"":""Mike is being greeted by Luke""}","<img src=""stim_listB/greet6.gif""style=""height:400px;""></stim_listB>","is being greeted by","","","","","",""
"null","<div style=""font-size:60px;"">+</div>","","html-keyboard-response","176","709918","0.0-15.0-0.12","59955","List2B","white","man","","","","null","","","","","","","","",""
"null","<img src=""stim_listB/look3.gif""style=""height:400px;""></stim_listB>","","html-keyboard-response","177","711920","0.0-15.0-1.12","59955","List2B","white","man","","","","null","","","","","","","","",""
"null","is looking at","","html-keyboard-response","178","713921","0.0-15.0-2.12","59955","List2B","white","man","","","","null","","","","","","","","",""
"6140.9000000059605","","","survey-text","179","720064","0.0-15.0-3.12","59955","List2B","white","man","","","","","{""Q0"":""Fred is looking at Beth""}","<img src=""stim_listB/look3.gif""style=""height:400px;""></stim_listB>","is looking at","","","","","",""
"null","<div style=""font-size:60px;"">+</div>","","html-keyboard-response","180","720569","0.0-15.0-0.13","59955","List2B","white","man","","","","null","","","","","","","","",""
"null","<img src=""stim_listB/hug4.gif""style=""height:400px;""></stim_listB>","","html-keyboard-response","181","722571","0.0-15.0-1.13","59955","List2B","white","man","","","","null","","","","","","","","",""
"null","is being hugged by","","html-keyboard-response","182","724576","0.0-15.0-2.13","59955","List2B","white","man","","","","null","","","","","","","","",""
"7093.20000000298","","","survey-text","183","731671","0.0-15.0-3.13","59955","List2B","white","man","","","","","{""Q0"":""Mike is being hugged by Kate""}","<img src=""stim_listB/hug4.gif""style=""height:400px;""></stim_listB>","is being hugged by","","","","","",""
"null","<div style=""font-size:60px;"">+</div>","","html-keyboard-response","184","732172","0.0-15.0-0.14","59955","List2B","white","man","","","","null","","","","","","","","",""
"null","<img src=""stim_listB/seduce2.gif""style=""height:400px;""></stim_listB>","","html-keyboard-response","185","734176","0.0-15.0-1.14","59955","List2B","white","man","","","","null","","","","","","","","",""
"null","is being seduced by","","html-keyboard-response","186","736180","0.0-15.0-2.14","59955","List2B","white","man","","","","null","","","","","","","","",""
"7545.19999999553","","","survey-text","187","743727","0.0-15.0-3.14","59955","List2B","white","man","","","","","{""Q0"":""Dave is being seduced by Ruth""}","<img src=""stim_listB/seduce2.gif""style=""height:400px;""></stim_listB>","is being seduced by","","","","","",""
"null","<div style=""font-size:60px;"">+</div>","","html-keyboard-response","188","744232","0.0-15.0-0.15","59955","List2B","white","man","","","","null","","","","","","","","",""
"null","<img src=""stim_listB/greet4.gif""style=""height:400px;""></stim_listB>","","html-keyboard-response","189","746238","0.0-15.0-1.15","59955","List2B","white","man","","","","null","","","","","","","","",""
"null","is being greeted by","","html-keyboard-response","190","748240","0.0-15.0-2.15","59955","List2B","white","man","","","","null","","","","","","","","",""
"7322.5","","","survey-text","191","755565","0.0-15.0-3.15","59955","List2B","white","man","","","","","{""Q0"":""Fred is being greeted by Kate""}","<img src=""stim_listB/greet4.gif""style=""height:400px;""></stim_listB>","is being greeted by","","","","","",""
"null","<div style=""font-size:60px;"">+</div>","","html-keyboard-response","192","756069","0.0-15.0-0.16","59955","List2B","white","man","","","","null","","","","","","","","",""
"null","<img src=""stim_listB/kiss6.gif""style=""height:400px;""></stim_listB>","","html-keyboard-response","193","758076","0.0-15.0-1.16","59955","List2B","white","man","","","","null","","","","","","","","",""
"null","is being kissed by","","html-keyboard-response","194","760080","0.0-15.0-2.16","59955","List2B","white","man","","","","null","","","","","","","","",""
"6501.29999999702","","","survey-text","195","766583","0.0-15.0-3.16","59955","List2B","white","man","","","","","{""Q0"":""Mike is being kissed by Dave""}","<img src=""stim_listB/kiss6.gif""style=""height:400px;""></stim_listB>","is being kissed by","","","","","",""
"null","<div style=""font-size:60px;"">+</div>","","html-keyboard-response","196","767088","0.0-15.0-0.17","59955","List2B","white","man","","","","null","","","","","","","","",""
"null","<img src=""stim_listB/oppose1.gif""style=""height:400px;""></stim_listB>","","html-keyboard-response","197","769093","0.0-15.0-1.17","59955","List2B","white","man","","","","null","","","","","","","","",""
"null","is opposing","","html-keyboard-response","198","771098","0.0-15.0-2.17","59955","List2B","white","man","","","","null","","","","","","","","",""
"5390.10000000149","","","survey-text","199","776491","0.0-15.0-3.17","59955","List2B","white","man","","","","","{""Q0"":""Jane is opposing Dave""}","<img src=""stim_listB/oppose1.gif""style=""height:400px;""></stim_listB>","is opposing","","","","","",""
"null","<div style=""font-size:60px;"">+</div>","","html-keyboard-response","200","776995","0.0-15.0-0.18","59955","List2B","white","man","","","","null","","","","","","","","",""
"null","<img src=""stim_listB/shout2.gif""style=""height:400px;""></stim_listB>","","html-keyboard-response","201","779002","0.0-15.0-1.18","59955","List2B","white","man","","","","null","","","","","","","","",""
"null","is being shouted at by","","html-keyboard-response","202","781008","0.0-15.0-2.18","59955","List2B","white","man","","","","null","","","","","","","","",""
"7275.19999999553","","","survey-text","203","788286","0.0-15.0-3.18","59955","List2B","white","man","","","","","{""Q0"":""Dave is being shouted at by Jane""}","<img src=""stim_listB/shout2.gif""style=""height:400px;""></stim_listB>","is being shouted at by","","","","","",""
"null","<div style=""font-size:60px;"">+</div>","","html-keyboard-response","204","788787","0.0-15.0-0.19","59955","List2B","white","man","","","","null","","","","","","","","",""
"null","<img src=""stim_listB/copy2.gif""style=""height:400px;""></stim_listB>","","html-keyboard-response","205","790794","0.0-15.0-1.19","59955","List2B","white","man","","","","null","","","","","","","","",""
"null","is being copied by","","html-keyboard-response","206","792798","0.0-15.0-2.19","59955","List2B","white","man","","","","null","","","","","","","","",""
"20895","","","survey-text","207","813696","0.0-15.0-3.19","59955","List2B","white","man","","","","","{""Q0"":""Luke is being copied at by Jane""}","<img src=""stim_listB/copy2.gif""style=""height:400px;""></stim_listB>","is being copied by","","","","","",""
"5638.10000000149","<img src='img/portrait_matrix_list2.jpg' style='width:900px;height:500px;''></img><p>If you have memorised all the portraits and names and are ready to start, press Continue.</p><p><strong>Please note: Your memory of these faces will be tested 4 times during this experiment.</strong></p>","0","html-button-response","208","819335","0.0-16.0-0.0","59955","List2B","white","man","","","","","","","","","","","","",""
"2229.39999999851","<img src=""portrait/BM2.jpg""style=""height:400px;""></img>","5","html-button-response","209","822572","0.0-16.0-1.0","59955","List2B","white","man","","true","5","","","","","","","","","",""
"null","CORRECT","","html-keyboard-response","210","824084","0.0-16.0-2.0-0.0","59955","List2B","white","man","","","","null","","","","","","","","",""
"1635.5","<img src=""portrait/WM2.jpg""style=""height:400px;""></img>","7","html-button-response","211","825721","0.0-16.0-4.0","59955","List2B","white","man","","true","7","","","","","","","","","",""
"null","CORRECT","","html-keyboard-response","212","827227","0.0-16.0-5.0-0.0","59955","List2B","white","man","","","","null","","","","","","","","",""
"2903.8000000044703","<img src=""portrait/WW1.jpg""style=""height:400px;""></img>","1","html-button-response","213","830133","0.0-16.0-7.0","59955","List2B","white","man","","true","1","","","","","","","","","",""
"null","CORRECT","","html-keyboard-response","214","831640","0.0-16.0-8.0-0.0","59955","List2B","white","man","","","","null","","","","","","","","",""
"1695.8999999985099","<img src=""portrait/BM1.jpg""style=""height:400px;""></img>","4","html-button-response","215","833337","0.0-16.0-10.0","59955","List2B","white","man","","true","4","","","","","","","","","",""
"null","CORRECT","","html-keyboard-response","216","834846","0.0-16.0-11.0-0.0","59955","List2B","white","man","","","","null","","","","","","","","",""
"1861.3999999985099","<img src=""portrait/WW2.jpg""style=""height:400px;""></img>","3","html-button-response","217","836709","0.0-16.0-13.0","59955","List2B","white","man","","true","3","","","","","","","","","",""
"null","CORRECT","","html-keyboard-response","218","838216","0.0-16.0-14.0-0.0","59955","List2B","white","man","","","","null","","","","","","","","",""
"2245.7999999970198","<img src=""portrait/BW2.jpg""style=""height:400px;""></img>","2","html-button-response","219","840464","0.0-16.0-16.0","59955","List2B","white","man","","true","2","","","","","","","","","",""
"null","CORRECT","","html-keyboard-response","220","841970","0.0-16.0-17.0-0.0","59955","List2B","white","man","","","","null","","","","","","","","",""
"2159.89999999851","<img src=""portrait/WM1.jpg""style=""height:400px;""></img>","6","html-button-response","221","844132","0.0-16.0-19.0","59955","List2B","white","man","","true","6","","","","","","","","","",""
"null","CORRECT","","html-keyboard-response","222","845639","0.0-16.0-20.0-0.0","59955","List2B","white","man","","","","null","","","","","","","","",""
"2973.5","<img src=""portrait/BW1.jpg""style=""height:400px;""></img>","0","html-button-response","223","848614","0.0-16.0-22.0","59955","List2B","white","man","","true","0","","","","","","","","","",""
"null","CORRECT","","html-keyboard-response","224","850122","0.0-16.0-23.0-0.0","59955","List2B","white","man","","","","null","","","","","","","","",""
"2590.1999999955297","<p>You got 8 out of 8 right first time. Press Continue.</p>","0","html-button-response","225","852713","0.0-16.0-25.0","59955","List2B","white","man","","","","","","","","","","","","",""
"null","<div style=""font-size:60px;"">+</div>","","html-keyboard-response","226","854222","0.0-17.0-0.0","59955","List2B","white","man","","","","null","","","","","","","","",""
"null","<img src=""stim_listB/oppose7.gif""style=""height:400px;""></stim_listB>","","html-keyboard-response","227","856229","0.0-17.0-1.0","59955","List2B","white","man","","","","null","","","","","","","","",""
"null","is opposing","","html-keyboard-response","228","858231","0.0-17.0-2.0","59955","List2B","white","man","","","","null","","","","","","","","",""
"8361","","","survey-text","229","866594","0.0-17.0-3.0","59955","List2B","white","man","","","","","{""Q0"":""Kate is opposing Jane""}","<img src=""stim_listB/oppose7.gif""style=""height:400px;""></stim_listB>","is opposing","","","","","",""
"null","<div style=""font-size:60px;"">+</div>","","html-keyboard-response","230","867099","0.0-17.0-0.1","59955","List2B","white","man","","","","null","","","","","","","","",""
"null","<img src=""stim_listB/challenge1.gif""style=""height:400px;""></stim_listB>","","html-keyboard-response","231","869105","0.0-17.0-1.1","59955","List2B","white","man","","","","null","","","","","","","","",""
"null","is challenging","","html-keyboard-response","232","871110","0.0-17.0-2.1","59955","List2B","white","man","","","","null","","","","","","","","",""
"6895.70000000298","","","survey-text","233","878008","0.0-17.0-3.1","59955","List2B","white","man","","","","","{""Q0"":""Dave is challenging Ruth""}","<img src=""stim_listB/challenge1.gif""style=""height:400px;""></stim_listB>","is challenging","","","","","",""
"null","<div style=""font-size:60px;"">+</div>","","html-keyboard-response","234","878509","0.0-17.0-0.2","59955","List2B","white","man","","","","null","","","","","","","","",""
"null","<img src=""stim_listB/oppose5.gif""style=""height:400px;""></stim_listB>","","html-keyboard-response","235","880514","0.0-17.0-1.2","59955","List2B","white","man","","","","null","","","","","","","","",""
"null","is opposing","","html-keyboard-response","236","882516","0.0-17.0-2.2","59955","List2B","white","man","","","","null","","","","","","","","",""
"4601.20000000298","","","survey-text","237","887120","0.0-17.0-3.2","59955","List2B","white","man","","","","","{""Q0"":""mike is opposing dave""}","<img src=""stim_listB/oppose5.gif""style=""height:400px;""></stim_listB>","is opposing","","","","","",""
"null","<div style=""font-size:60px;"">+</div>","","html-keyboard-response","238","887624","0.0-17.0-0.3","59955","List2B","white","man","","","","null","","","","","","","","",""
"null","<img src=""stim_listB/shout6.gif""style=""height:400px;""></stim_listB>","","html-keyboard-response","239","889631","0.0-17.0-1.3","59955","List2B","white","man","","","","null","","","","","","","","",""
"null","is being shouted at by","","html-keyboard-response","240","891633","0.0-17.0-2.3","59955","List2B","white","man","","","","null","","","","","","","","",""
"8284.39999999851","","","survey-text","241","899920","0.0-17.0-3.3","59955","List2B","white","man","","","","","{""Q0"":""Mike is being shouted at by Dave""}","<img src=""stim_listB/shout6.gif""style=""height:400px;""></stim_listB>","is being shouted at by","","","","","",""
"null","<div style=""font-size:60px;"">+</div>","","html-keyboard-response","242","900421","0.0-17.0-0.4","59955","List2B","white","man","","","","null","","","","","","","","",""
"null","<img src=""stim_listB/touch3.gif""style=""height:400px;""></stim_listB>","","html-keyboard-response","243","902427","0.0-17.0-1.4","59955","List2B","white","man","","","","null","","","","","","","","",""
"null","is touching","","html-keyboard-response","244","904429","0.0-17.0-2.4","59955","List2B","white","man","","","","null","","","","","","","","",""
"3802.1999999955297","","","survey-text","245","908233","0.0-17.0-3.4","59955","List2B","white","man","","","","","{""Q0"":""Kate is touching Mike""}","<img src=""stim_listB/touch3.gif""style=""height:400px;""></stim_listB>","is touching","","","","","",""
"null","<div style=""font-size:60px;"">+</div>","","html-keyboard-response","246","908738","0.0-17.0-0.5","59955","List2B","white","man","","","","null","","","","","","","","",""
"null","<img src=""stim_listB/kiss1.gif""style=""height:400px;""></stim_listB>","","html-keyboard-response","247","910745","0.0-17.0-1.5","59955","List2B","white","man","","","","null","","","","","","","","",""
"null","is kissing","","html-keyboard-response","248","912748","0.0-17.0-2.5","59955","List2B","white","man","","","","null","","","","","","","","",""
"5959.29999999702","","","survey-text","249","918710","0.0-17.0-3.5","59955","List2B","white","man","","","","","{""Q0"":""Luke is kissing Ruth""}","<img src=""stim_listB/kiss1.gif""style=""height:400px;""></stim_listB>","is kissing","","","","","",""
"null","<div style=""font-size:60px;"">+</div>","","html-keyboard-response","250","919211","0.0-17.0-0.6","59955","List2B","white","man","","","","null","","","","","","","","",""
"null","<img src=""stim_listB/look7.gif""style=""height:400px;""></stim_listB>","","html-keyboard-response","251","921218","0.0-17.0-1.6","59955","List2B","white","man","","","","null","","","","","","","","",""
"null","is looking at","","html-keyboard-response","252","923223","0.0-17.0-2.6","59955","List2B","white","man","","","","null","","","","","","","","",""
"6008.5","","","survey-text","253","929234","0.0-17.0-3.6","59955","List2B","white","man","","","","","{""Q0"":""Beth is looking at Ruth""}","<img src=""stim_listB/look7.gif""style=""height:400px;""></stim_listB>","is looking at","","","","","",""
"null","<div style=""font-size:60px;"">+</div>","","html-keyboard-response","254","929735","0.0-17.0-0.7","59955","List2B","white","man","","","","null","","","","","","","","",""
"null","<img src=""stim_listB/touch8.gif""style=""height:400px;""></stim_listB>","","html-keyboard-response","255","931740","0.0-17.0-1.7","59955","List2B","white","man","","","","null","","","","","","","","",""
"null","is being touched by","","html-keyboard-response","256","933743","0.0-17.0-2.7","59955","List2B","white","man","","","","null","","","","","","","","",""
"12269","","","survey-text","257","946014","0.0-17.0-3.7","59955","List2B","white","man","","","","","{""Q0"":""Beth is being touched by Ruth""}","<img src=""stim_listB/touch8.gif""style=""height:400px;""></stim_listB>","is being touched by","","","","","",""
"null","<div style=""font-size:60px;"">+</div>","","html-keyboard-response","258","946515","0.0-17.0-0.8","59955","List2B","white","man","","","","null","","","","","","","","",""
"null","<img src=""stim_listB/greet1.gif""style=""height:400px;""></stim_listB>","","html-keyboard-response","259","948521","0.0-17.0-1.8","59955","List2B","white","man","","","","null","","","","","","","","",""
"null","is greeting","","html-keyboard-response","260","950525","0.0-17.0-2.8","59955","List2B","white","man","","","","null","","","","","","","","",""
"4468.39999999851","","","survey-text","261","954996","0.0-17.0-3.8","59955","List2B","white","man","","","","","{""Q0"":""Ruth is greeting Dave""}","<img src=""stim_listB/greet1.gif""style=""height:400px;""></stim_listB>","is greeting","","","","","",""
"null","<div style=""font-size:60px;"">+</div>","","html-keyboard-response","262","955500","0.0-17.0-0.9","59955","List2B","white","man","","","","null","","","","","","","","",""
"null","<img src=""stim_listB/look1.gif""style=""height:400px;""></stim_listB>","","html-keyboard-response","263","957507","0.0-17.0-1.9","59955","List2B","white","man","","","","null","","","","","","","","",""
"null","is looking at","","html-keyboard-response","264","959513","0.0-17.0-2.9","59955","List2B","white","man","","","","null","","","","","","","","",""
"5366.39999999851","","","survey-text","265","964882","0.0-17.0-3.9","59955","List2B","white","man","","","","","{""Q0"":""Ruth is looking at Luke""}","<img src=""stim_listB/look1.gif""style=""height:400px;""></stim_listB>","is looking at","","","","","",""
"null","<div style=""font-size:60px;"">+</div>","","html-keyboard-response","266","965383","0.0-17.0-0.10","59955","List2B","white","man","","","","null","","","","","","","","",""
"null","<img src=""stim_listB/seduce3.gif""style=""height:400px;""></stim_listB>","","html-keyboard-response","267","967390","0.0-17.0-1.10","59955","List2B","white","man","","","","null","","","","","","","","",""
"null","is seducing","","html-keyboard-response","268","969393","0.0-17.0-2.10","59955","List2B","white","man","","","","null","","","","","","","","",""
"5579.39999999851","","","survey-text","269","974975","0.0-17.0-3.10","59955","List2B","white","man","","","","","{""Q0"":""Kate is seducing Fred""}","<img src=""stim_listB/seduce3.gif""style=""height:400px;""></stim_listB>","is seducing","","","","","",""
"null","<div style=""font-size:60px;"">+</div>","","html-keyboard-response","270","975477","0.0-17.0-0.11","59955","List2B","white","man","","","","null","","","","","","","","",""
"null","<img src=""stim_listB/shout3.gif""style=""height:400px;""></stim_listB>","","html-keyboard-response","271","977483","0.0-17.0-1.11","59955","List2B","white","man","","","","null","","","","","","","","",""
"null","is shouting at","","html-keyboard-response","272","979490","0.0-17.0-2.11","59955","List2B","white","man","","","","null","","","","","","","","",""
"6230.5","","","survey-text","273","985723","0.0-17.0-3.11","59955","List2B","white","man","","","","","{""Q0"":""Beth is shouting at ""}","<img src=""stim_listB/shout3.gif""style=""height:400px;""></stim_listB>","is shouting at","","","","","",""
"null","<div style=""font-size:60px;"">+</div>","","html-keyboard-response","274","986224","0.0-17.0-0.12","59955","List2B","white","man","","","","null","","","","","","","","",""
"null","<img src=""stim_listB/copy3.gif""style=""height:400px;""></stim_listB>","","html-keyboard-response","275","988231","0.0-17.0-1.12","59955","List2B","white","man","","","","null","","","","","","","","",""
"null","is copying","","html-keyboard-response","276","990237","0.0-17.0-2.12","59955","List2B","white","man","","","","null","","","","","","","","",""
"5079","","","survey-text","277","995319","0.0-17.0-3.12","59955","List2B","white","man","","","","","{""Q0"":""Mike is copying Beth""}","<img src=""stim_listB/copy3.gif""style=""height:400px;""></stim_listB>","is copying","","","","","",""
"null","<div style=""font-size:60px;"">+</div>","","html-keyboard-response","278","995823","0.0-17.0-0.13","59955","List2B","white","man","","","","null","","","","","","","","",""
"null","<img src=""stim_listB/hug3.gif""style=""height:400px;""></stim_listB>","","html-keyboard-response","279","997827","0.0-17.0-1.13","59955","List2B","white","man","","","","null","","","","","","","","",""
"null","is hugging","","html-keyboard-response","280","999833","0.0-17.0-2.13","59955","List2B","white","man","","","","null","","","","","","","","",""
"7641.39999999851","","","survey-text","281","1007477","0.0-17.0-3.13","59955","List2B","white","man","","","","","{""Q0"":""Beth is hugging Fred""}","<img src=""stim_listB/hug3.gif""style=""height:400px;""></stim_listB>","is hugging","","","","","",""
"null","<div style=""font-size:60px;"">+</div>","","html-keyboard-response","282","1007982","0.0-17.0-0.14","59955","List2B","white","man","","","","null","","","","","","","","",""
"null","<img src=""stim_listB/touch1.gif""style=""height:400px;""></stim_listB>","","html-keyboard-response","283","1009988","0.0-17.0-1.14","59955","List2B","white","man","","","","null","","","","","","","","",""
"null","is touching","","html-keyboard-response","284","1011993","0.0-17.0-2.14","59955","List2B","white","man","","","","null","","","","","","","","",""
"4608.70000000298","","","survey-text","285","1016604","0.0-17.0-3.14","59955","List2B","white","man","","","","","{""Q0"":""Jane is touching Dave""}","<img src=""stim_listB/touch1.gif""style=""height:400px;""></stim_listB>","is touching","","","","","",""
"null","<div style=""font-size:60px;"">+</div>","","html-keyboard-response","286","1017107","0.0-17.0-0.15","59955","List2B","white","man","","","","null","","","","","","","","",""
"null","<img src=""stim_listB/hug1.gif""style=""height:400px;""></stim_listB>","","html-keyboard-response","287","1019114","0.0-17.0-1.15","59955","List2B","white","man","","","","null","","","","","","","","",""
"null","is hugging","","html-keyboard-response","288","1021115","0.0-17.0-2.15","59955","List2B","white","man","","","","null","","","","","","","","",""
"5749.60000000149","","","survey-text","289","1026867","0.0-17.0-3.15","59955","List2B","white","man","","","","","{""Q0"":""Ruth is hugging Luke""}","<img src=""stim_listB/hug1.gif""style=""height:400px;""></stim_listB>","is hugging","","","","","",""
"null","<div style=""font-size:60px;"">+</div>","","html-keyboard-response","290","1027371","0.0-17.0-0.16","59955","List2B","white","man","","","","null","","","","","","","","",""
"null","<img src=""stim_listB/challenge6.gif""style=""height:400px;""></stim_listB>","","html-keyboard-response","291","1029375","0.0-17.0-1.16","59955","List2B","white","man","","","","null","","","","","","","","",""
"null","is being challenged by","","html-keyboard-response","292","1031381","0.0-17.0-2.16","59955","List2B","white","man","","","","null","","","","","","","","",""
"8562.60000000149","","","survey-text","293","1039947","0.0-17.0-3.16","59955","List2B","white","man","","","","","{""Q0"":""Mike is being challenged by Luke""}","<img src=""stim_listB/challenge6.gif""style=""height:400px;""></stim_listB>","is being challenged by","","","","","",""
"null","<div style=""font-size:60px;"">+</div>","","html-keyboard-response","294","1040448","0.0-17.0-0.17","59955","List2B","white","man","","","","null","","","","","","","","",""
"null","<img src=""stim_listB/oppose4.gif""style=""height:400px;""></stim_listB>","","html-keyboard-response","295","1042453","0.0-17.0-1.17","59955","List2B","white","man","","","","null","","","","","","","","",""
"null","is being opposed by","","html-keyboard-response","296","1044454","0.0-17.0-2.17","59955","List2B","white","man","","","","null","","","","","","","","",""
"8707.60000000149","","","survey-text","297","1053164","0.0-17.0-3.17","59955","List2B","white","man","","","","","{""Q0"":""Fred is being opposed by Beth""}","<img src=""stim_listB/oppose4.gif""style=""height:400px;""></stim_listB>","is being opposed by","","","","","",""
"null","<div style=""font-size:60px;"">+</div>","","html-keyboard-response","298","1053667","0.0-17.0-0.18","59955","List2B","white","man","","","","null","","","","","","","","",""
"null","<img src=""stim_listB/copy8.gif""style=""height:400px;""></stim_listB>","","html-keyboard-response","299","1055673","0.0-17.0-1.18","59955","List2B","white","man","","","","null","","","","","","","","",""
"null","is being copied by","","html-keyboard-response","300","1057676","0.0-17.0-2.18","59955","List2B","white","man","","","","null","","","","","","","","",""
"12323.60000000149","","","survey-text","301","1070002","0.0-17.0-3.18","59955","List2B","white","man","","","","","{""Q0"":""Kate is being copied by Ruth""}","<img src=""stim_listB/copy8.gif""style=""height:400px;""></stim_listB>","is being copied by","","","","","",""
"null","<div style=""font-size:60px;"">+</div>","","html-keyboard-response","302","1070507","0.0-17.0-0.19","59955","List2B","white","man","","","","null","","","","","","","","",""
"null","<img src=""stim_listB/shout5.gif""style=""height:400px;""></stim_listB>","","html-keyboard-response","303","1072513","0.0-17.0-1.19","59955","List2B","white","man","","","","null","","","","","","","","",""
"null","is shouting at","","html-keyboard-response","304","1074519","0.0-17.0-2.19","59955","List2B","white","man","","","","null","","","","","","","","",""
"5015.70000000298","","","survey-text","305","1079537","0.0-17.0-3.19","59955","List2B","white","man","","","","","{""Q0"":""Fred is shouting at Luke""}","<img src=""stim_listB/shout5.gif""style=""height:400px;""></stim_listB>","is shouting at","","","","","",""
"9183.09999999404","<img src='img/portrait_matrix_list2.jpg' style='width:900px;height:500px;''></img><p>If you have memorised all the portraits and names and are ready to start, press Continue.</p><p><strong>Please note: Your memory of these faces will be tested 4 times during this experiment.</strong></p>","0","html-button-response","306","1088722","0.0-18.0-0.0","59955","List2B","white","man","","","","","","","","","","","","",""
"1733.3999999985099","<img src=""portrait/WW2.jpg""style=""height:400px;""></img>","3","html-button-response","307","1091463","0.0-18.0-1.0","59955","List2B","white","man","","true","3","","","","","","","","","",""
"null","CORRECT","","html-keyboard-response","308","1092971","0.0-18.0-2.0-0.0","59955","List2B","white","man","","","","null","","","","","","","","",""
"1405.7999999970198","<img src=""portrait/BM2.jpg""style=""height:400px;""></img>","5","html-button-response","309","1094378","0.0-18.0-4.0","59955","List2B","white","man","","true","5","","","","","","","","","",""
"null","CORRECT","","html-keyboard-response","310","1095881","0.0-18.0-5.0-0.0","59955","List2B","white","man","","","","null","","","","","","","","",""
"2414.60000000149","<img src=""portrait/WM1.jpg""style=""height:400px;""></img>","6","html-button-response","311","1098297","0.0-18.0-7.0","59955","List2B","white","man","","true","6","","","","","","","","","",""
"null","CORRECT","","html-keyboard-response","312","1099806","0.0-18.0-8.0-0.0","59955","List2B","white","man","","","","null","","","","","","","","",""
"2612.89999999851","<img src=""portrait/WM2.jpg""style=""height:400px;""></img>","7","html-button-response","313","1102420","0.0-18.0-10.0","59955","List2B","white","man","","true","7","","","","","","","","","",""
"null","CORRECT","","html-keyboard-response","314","1103926","0.0-18.0-11.0-0.0","59955","List2B","white","man","","","","null","","","","","","","","",""
"2485.39999999851","<img src=""portrait/BM1.jpg""style=""height:400px;""></img>","4","html-button-response","315","1106413","0.0-18.0-13.0","59955","List2B","white","man","","true","4","","","","","","","","","",""
"null","CORRECT","","html-keyboard-response","316","1107925","0.0-18.0-14.0-0.0","59955","List2B","white","man","","","","null","","","","","","","","",""
"1824.9000000059605","<img src=""portrait/BW1.jpg""style=""height:400px;""></img>","0","html-button-response","317","1109751","0.0-18.0-16.0","59955","List2B","white","man","","true","0","","","","","","","","","",""
"null","CORRECT","","html-keyboard-response","318","1111259","0.0-18.0-17.0-0.0","59955","List2B","white","man","","","","null","","","","","","","","",""
"1159.8999999985099","<img src=""portrait/WW1.jpg""style=""height:400px;""></img>","1","html-button-response","319","1112420","0.0-18.0-19.0","59955","List2B","white","man","","true","1","","","","","","","","","",""
"null","CORRECT","","html-keyboard-response","320","1113926","0.0-18.0-20.0-0.0","59955","List2B","white","man","","","","null","","","","","","","","",""
"1303.6000000014901","<img src=""portrait/BW2.jpg""style=""height:400px;""></img>","2","html-button-response","321","1115231","0.0-18.0-22.0","59955","List2B","white","man","","true","2","","","","","","","","","",""
"null","CORRECT","","html-keyboard-response","322","1116737","0.0-18.0-23.0-0.0","59955","List2B","white","man","","","","null","","","","","","","","",""
"1590.8999999985099","<p>You got 8 out of 8 right first time. Press Continue.</p>","0","html-button-response","323","1118329","0.0-18.0-25.0","59955","List2B","white","man","","","","","","","","","","","","",""
"null","<div style=""font-size:60px;"">+</div>","","html-keyboard-response","324","1119836","0.0-19.0-0.0","59955","List2B","white","man","","","","null","","","","","","","","",""
"null","<img src=""stim_listB/look6.gif""style=""height:400px;""></stim_listB>","","html-keyboard-response","325","1121843","0.0-19.0-1.0","59955","List2B","white","man","","","","null","","","","","","","","",""
"null","is being looked at by","","html-keyboard-response","326","1123850","0.0-19.0-2.0","59955","List2B","white","man","","","","null","","","","","","","","",""
"10453.19999999553","","","survey-text","327","1134305","0.0-19.0-3.0","59955","List2B","white","man","","","","","{""Q0"":""Mike is being looked at by Dave""}","<img src=""stim_listB/look6.gif""style=""height:400px;""></stim_listB>","is being looked at by","","","","","",""
"null","<div style=""font-size:60px;"">+</div>","","html-keyboard-response","328","1134810","0.0-19.0-0.1","59955","List2B","white","man","","","","null","","","","","","","","",""
"null","<img src=""stim_listB/greet2.gif""style=""height:400px;""></stim_listB>","","html-keyboard-response","329","1136814","0.0-19.0-1.1","59955","List2B","white","man","","","","null","","","","","","","","",""
"null","is being greeted by","","html-keyboard-response","330","1138817","0.0-19.0-2.1","59955","List2B","white","man","","","","null","","","","","","","","",""
"7405.4000000059605","","","survey-text","331","1146225","0.0-19.0-3.1","59955","List2B","white","man","","","","","{""Q0"":""Luke is being greeted by Jane""}","<img src=""stim_listB/greet2.gif""style=""height:400px;""></stim_listB>","is being greeted by","","","","","",""
"null","<div style=""font-size:60px;"">+</div>","","html-keyboard-response","332","1146730","0.0-19.0-0.2","59955","List2B","white","man","","","","null","","","","","","","","",""
"null","<img src=""stim_listB/seduce1.gif""style=""height:400px;""></stim_listB>","","html-keyboard-response","333","1148737","0.0-19.0-1.2","59955","List2B","white","man","","","","null","","","","","","","","",""
"null","is seducing","","html-keyboard-response","334","1150743","0.0-19.0-2.2","59955","List2B","white","man","","","","null","","","","","","","","",""
"5103.69999999553","","","survey-text","335","1155849","0.0-19.0-3.2","59955","List2B","white","man","","","","","{""Q0"":""Jane is seducing Luke""}","<img src=""stim_listB/seduce1.gif""style=""height:400px;""></stim_listB>","is seducing","","","","","",""
"null","<div style=""font-size:60px;"">+</div>","","html-keyboard-response","336","1156354","0.0-19.0-0.3","59955","List2B","white","man","","","","null","","","","","","","","",""
"null","<img src=""stim_listB/shout1.gif""style=""height:400px;""></stim_listB>","","html-keyboard-response","337","1158361","0.0-19.0-1.3","59955","List2B","white","man","","","","null","","","","","","","","",""
"null","is shouting at","","html-keyboard-response","338","1160365","0.0-19.0-2.3","59955","List2B","white","man","","","","null","","","","","","","","",""
"6675.79999999702","","","survey-text","339","1167043","0.0-19.0-3.3","59955","List2B","white","man","","","","","{""Q0"":""Ruth is shouting at Luke""}","<img src=""stim_listB/shout1.gif""style=""height:400px;""></stim_listB>","is shouting at","","","","","",""
"null","<div style=""font-size:60px;"">+</div>","","html-keyboard-response","340","1167546","0.0-19.0-0.4","59955","List2B","white","man","","","","null","","","","","","","","",""
"null","<img src=""stim_listB/challenge7.gif""style=""height:400px;""></stim_listB>","","html-keyboard-response","341","1169550","0.0-19.0-1.4","59955","List2B","white","man","","","","null","","","","","","","","",""
"null","is challenging","","html-keyboard-response","342","1171553","0.0-19.0-2.4","59955","List2B","white","man","","","","null","","","","","","","","",""
"9975.29999999702","","","survey-text","343","1181531","0.0-19.0-3.4","59955","List2B","white","man","","","","","{""Q0"":""Beth is challenging Jane""}","<img src=""stim_listB/challenge7.gif""style=""height:400px;""></stim_listB>","is challenging","","","","","",""
"null","<div style=""font-size:60px;"">+</div>","","html-keyboard-response","344","1182033","0.0-19.0-0.5","59955","List2B","white","man","","","","null","","","","","","","","",""
"null","<img src=""stim_listB/hug6.gif""style=""height:400px;""></stim_listB>","","html-keyboard-response","345","1184039","0.0-19.0-1.5","59955","List2B","white","man","","","","null","","","","","","","","",""
"null","is being hugged by","","html-keyboard-response","346","1186045","0.0-19.0-2.5","59955","List2B","white","man","","","","null","","","","","","","","",""
"12655.29999999702","","","survey-text","347","1198703","0.0-19.0-3.5","59955","List2B","white","man","","","","","{""Q0"":""Mike is being hugged by Dave""}","<img src=""stim_listB/hug6.gif""style=""height:400px;""></stim_listB>","is being hugged by","","","","","",""
"null","<div style=""font-size:60px;"">+</div>","","html-keyboard-response","348","1199207","0.0-19.0-0.6","59955","List2B","white","man","","","","null","","","","","","","","",""
"null","<img src=""stim_listB/copy4.gif""style=""height:400px;""></stim_listB>","","html-keyboard-response","349","1201214","0.0-19.0-1.6","59955","List2B","white","man","","","","null","","","","","","","","",""
"null","is being copied by","","html-keyboard-response","350","1203216","0.0-19.0-2.6","59955","List2B","white","man","","","","null","","","","","","","","",""
"9528.5","","","survey-text","351","1212747","0.0-19.0-3.6","59955","List2B","white","man","","","","","{""Q0"":""Kate is being copied by Fred""}","<img src=""stim_listB/copy4.gif""style=""height:400px;""></stim_listB>","is being copied by","","","","","",""
"null","<div style=""font-size:60px;"">+</div>","","html-keyboard-response","352","1213248","0.0-19.0-0.7","59955","List2B","white","man","","","","null","","","","","","","","",""
"null","<img src=""stim_listB/look2.gif""style=""height:400px;""></stim_listB>","","html-keyboard-response","353","1215250","0.0-19.0-1.7","59955","List2B","white","man","","","","null","","","","","","","","",""
"null","is being looked at by","","html-keyboard-response","354","1217252","0.0-19.0-2.7","59955","List2B","white","man","","","","null","","","","","","","","",""
"8820.09999999404","","","survey-text","355","1226074","0.0-19.0-3.7","59955","List2B","white","man","","","","","{""Q0"":""Dave is being looked at by Jane""}","<img src=""stim_listB/look2.gif""style=""height:400px;""></stim_listB>","is being looked at by","","","","","",""
"null","<div style=""font-size:60px;"">+</div>","","html-keyboard-response","356","1226579","0.0-19.0-0.8","59955","List2B","white","man","","","","null","","","","","","","","",""
"null","<img src=""stim_listB/challenge5.gif""style=""height:400px;""></stim_listB>","","html-keyboard-response","357","1228586","0.0-19.0-1.8","59955","List2B","white","man","","","","null","","","","","","","","",""
"null","is challenging","","html-keyboard-response","358","1230587","0.0-19.0-2.8","59955","List2B","white","man","","","","null","","","","","","","","",""
"6839.0999999940395","","","survey-text","359","1237429","0.0-19.0-3.8","59955","List2B","white","man","","","","","{""Q0"":""Fred is challenging Dave""}","<img src=""stim_listB/challenge5.gif""style=""height:400px;""></stim_listB>","is challenging","","","","","",""
"null","<div style=""font-size:60px;"">+</div>","","html-keyboard-response","360","1237934","0.0-19.0-0.9","59955","List2B","white","man","","","","null","","","","","","","","",""
"null","<img src=""stim_listB/copy5.gif""style=""height:400px;""></stim_listB>","","html-keyboard-response","361","1239940","0.0-19.0-1.9","59955","List2B","white","man","","","","null","","","","","","","","",""
"null","is copying","","html-keyboard-response","362","1241947","0.0-19.0-2.9","59955","List2B","white","man","","","","null","","","","","","","","",""
"7209.89999999851","","","survey-text","363","1249159","0.0-19.0-3.9","59955","List2B","white","man","","","","","{""Q0"":""Fred is copying Dave""}","<img src=""stim_listB/copy5.gif""style=""height:400px;""></stim_listB>","is copying","","","","","",""
"null","<div style=""font-size:60px;"">+</div>","","html-keyboard-response","364","1249664","0.0-19.0-0.10","59955","List2B","white","man","","","","null","","","","","","","","",""
"null","<img src=""stim_listB/kiss3.gif""style=""height:400px;""></stim_listB>","","html-keyboard-response","365","1251670","0.0-19.0-1.10","59955","List2B","white","man","","","","null","","","","","","","","",""
"null","is kissing","","html-keyboard-response","366","1253675","0.0-19.0-2.10","59955","List2B","white","man","","","","null","","","","","","","","",""
"4246.10000000149","","","survey-text","367","1257923","0.0-19.0-3.10","59955","List2B","white","man","","","","","{""Q0"":""Fred is kissing Beth""}","<img src=""stim_listB/kiss3.gif""style=""height:400px;""></stim_listB>","is kissing","","","","","",""
"null","<div style=""font-size:60px;"">+</div>","","html-keyboard-response","368","1258428","0.0-19.0-0.11","59955","List2B","white","man","","","","null","","","","","","","","",""
"null","<img src=""stim_listB/greet5.gif""style=""height:400px;""></stim_listB>","","html-keyboard-response","369","1260430","0.0-19.0-1.11","59955","List2B","white","man","","","","null","","","","","","","","",""
"null","is greeting","","html-keyboard-response","370","1262431","0.0-19.0-2.11","59955","List2B","white","man","","","","null","","","","","","","","",""
"5645.79999999702","","","survey-text","371","1268080","0.0-19.0-3.11","59955","List2B","white","man","","","","","{""Q0"":""Fred is greeting Dave""}","<img src=""stim_listB/greet5.gif""style=""height:400px;""></stim_listB>","is greeting","","","","","",""
"null","<div style=""font-size:60px;"">+</div>","","html-keyboard-response","372","1268581","0.0-19.0-0.12","59955","List2B","white","man","","","","null","","","","","","","","",""
"null","<img src=""stim_listB/touch4.gif""style=""height:400px;""></stim_listB>","","html-keyboard-response","373","1270588","0.0-19.0-1.12","59955","List2B","white","man","","","","null","","","","","","","","",""
"null","is being touched by","","html-keyboard-response","374","1272590","0.0-19.0-2.12","59955","List2B","white","man","","","","null","","","","","","","","",""
"8636.20000000298","","","survey-text","375","1281229","0.0-19.0-3.12","59955","List2B","white","man","","","","","{""Q0"":""Fred is being touched by Beth""}","<img src=""stim_listB/touch4.gif""style=""height:400px;""></stim_listB>","is being touched by","","","","","",""
"null","<div style=""font-size:60px;"">+</div>","","html-keyboard-response","376","1281731","0.0-19.0-0.13","59955","List2B","white","man","","","","null","","","","","","","","",""
"null","<img src=""stim_listB/look4.gif""style=""height:400px;""></stim_listB>","","html-keyboard-response","377","1283734","0.0-19.0-1.13","59955","List2B","white","man","","","","null","","","","","","","","",""
"null","is being looked at by","","html-keyboard-response","378","1285739","0.0-19.0-2.13","59955","List2B","white","man","","","","null","","","","","","","","",""
"12448.79999999702","","","survey-text","379","1298191","0.0-19.0-3.13","59955","List2B","white","man","","","","","{""Q0"":""Mike is being looked at by Kate""}","<img src=""stim_listB/look4.gif""style=""height:400px;""></stim_listB>","is being looked at by","","","","","",""
"null","<div style=""font-size:60px;"">+</div>","","html-keyboard-response","380","1298695","0.0-19.0-0.14","59955","List2B","white","man","","","","null","","","","","","","","",""
"null","<img src=""stim_listB/kiss5.gif""style=""height:400px;""></stim_listB>","","html-keyboard-response","381","1300699","0.0-19.0-1.14","59955","List2B","white","man","","","","null","","","","","","","","",""
"null","is kissing","","html-keyboard-response","382","1302702","0.0-19.0-2.14","59955","List2B","white","man","","","","null","","","","","","","","",""
"4608.70000000298","","","survey-text","383","1307313","0.0-19.0-3.14","59955","List2B","white","man","","","","","{""Q0"":""Fred is kissing Luke""}","<img src=""stim_listB/kiss5.gif""style=""height:400px;""></stim_listB>","is kissing","","","","","",""
"null","<div style=""font-size:60px;"">+</div>","","html-keyboard-response","384","1307816","0.0-19.0-0.15","59955","List2B","white","man","","","","null","","","","","","","","",""
"null","<img src=""stim_listB/greet3.gif""style=""height:400px;""></stim_listB>","","html-keyboard-response","385","1309821","0.0-19.0-1.15","59955","List2B","white","man","","","","null","","","","","","","","",""
"null","is greeting","","html-keyboard-response","386","1311823","0.0-19.0-2.15","59955","List2B","white","man","","","","null","","","","","","","","",""
"6497.29999999702","","","survey-text","387","1318322","0.0-19.0-3.15","59955","List2B","white","man","","","","","{""Q0"":""Beth is greeting Mike""}","<img src=""stim_listB/greet3.gif""style=""height:400px;""></stim_listB>","is greeting","","","","","",""
"null","<div style=""font-size:60px;"">+</div>","","html-keyboard-response","388","1318824","0.0-19.0-0.16","59955","List2B","white","man","","","","null","","","","","","","","",""
"null","<img src=""stim_listB/kiss8.gif""style=""height:400px;""></stim_listB>","","html-keyboard-response","389","1320830","0.0-19.0-1.16","59955","List2B","white","man","","","","null","","","","","","","","",""
"null","is being kissed by","","html-keyboard-response","390","1322834","0.0-19.0-2.16","59955","List2B","white","man","","","","null","","","","","","","","",""
"6704.89999999851","","","survey-text","391","1329542","0.0-19.0-3.16","59955","List2B","white","man","","","","","{""Q0"":""Jane is being kissed by Kate""}","<img src=""stim_listB/kiss8.gif""style=""height:400px;""></stim_listB>","is being kissed by","","","","","",""
"null","<div style=""font-size:60px;"">+</div>","","html-keyboard-response","392","1330046","0.0-19.0-0.17","59955","List2B","white","man","","","","null","","","","","","","","",""
"null","<img src=""stim_listB/oppose6.gif""style=""height:400px;""></stim_listB>","","html-keyboard-response","393","1332048","0.0-19.0-1.17","59955","List2B","white","man","","","","null","","","","","","","","",""
"null","is being opposed by","","html-keyboard-response","394","1334052","0.0-19.0-2.17","59955","List2B","white","man","","","","null","","","","","","","","",""
"8156.20000000298","","","survey-text","395","1342211","0.0-19.0-3.17","59955","List2B","white","man","","","","","{""Q0"":""Luke is being opposed by Fred""}","<img src=""stim_listB/oppose6.gif""style=""height:400px;""></stim_listB>","is being opposed by","","","","","",""
"null","<div style=""font-size:60px;"">+</div>","","html-keyboard-response","396","1342712","0.0-19.0-0.18","59955","List2B","white","man","","","","null","","","","","","","","",""
"null","<img src=""stim_listB/hug5.gif""style=""height:400px;""></stim_listB>","","html-keyboard-response","397","1344717","0.0-19.0-1.18","59955","List2B","white","man","","","","null","","","","","","","","",""
"null","is hugging","","html-keyboard-response","398","1346718","0.0-19.0-2.18","59955","List2B","white","man","","","","null","","","","","","","","",""
"5883.70000000298","","","survey-text","399","1352603","0.0-19.0-3.18","59955","List2B","white","man","","","","","{""Q0"":""Luke is hugging Fred""}","<img src=""stim_listB/hug5.gif""style=""height:400px;""></stim_listB>","is hugging","","","","","",""
"null","<div style=""font-size:60px;"">+</div>","","html-keyboard-response","400","1353108","0.0-19.0-0.19","59955","List2B","white","man","","","","null","","","","","","","","",""
"null","<img src=""stim_listB/copy1.gif""style=""height:400px;""></stim_listB>","","html-keyboard-response","401","1355113","0.0-19.0-1.19","59955","List2B","white","man","","","","null","","","","","","","","",""
"null","is copying","","html-keyboard-response","402","1357115","0.0-19.0-2.19","59955","List2B","white","man","","","","null","","","","","","","","",""
"6324.89999999851","","","survey-text","403","1363442","0.0-19.0-3.19","59955","List2B","white","man","","","","","{""Q0"":""Ruth is copying Dave""}","<img src=""stim_listB/copy1.gif""style=""height:400px;""></stim_listB>","is copying","","","","","",""
"3423.39999999851","<p>Thank you for completing that task.</p><p>The final part of this session is a questionnaire that will take about 4 minutes.</p><p>Press Continue.</p>","0","html-button-response","404","1366866","0.0-20.0","59955","List2B","white","man","","","","","","","","","","","","",""
"67585.10000000149","","","survey-text","405","1435461","0.0-21.0","59955","List2B","white","man","","","","","{""Q0"":""22"",""Q1"":""English"",""Q2"":""English"",""Q3"":""America"",""Q4"":""American"",""Q5"":""White"",""Q6"":""Male""}","","","demographics","","","","",""
"2745.2000000029802","<p>Have you lived in the USA for the last 5 years or more?</p>","0","html-button-response","406","1438208","0.0-22.0","59955","List2B","white","man","","","","","","","","fiveyears","","","","",""
"3827.7000000029802","<p>Move the slider to show the extent to which you agree with the following statements.</p>","0","html-button-response","407","1443040","0.0-23.0","59955","List2B","white","man","","","","","","","","","","","","",""
"17488","","","html-slider-response","408","1461532","0.0-24.0-0.0-0.0","59955","List2B","white","man","","","","","","","","survey_gender","83","","","Most of the friends in my life are very similar to me.","filler"
"9752.90000000596","","","html-slider-response","409","1471288","0.0-24.0-0.0-0.1","59955","List2B","white","man","","","","","","","","survey_gender","5","","","Being my gender gives me a good feeling.","feeling"
"6974.30000000447","","","html-slider-response","410","1478264","0.0-24.0-0.0-0.2","59955","List2B","white","man","","","","","","","","survey_gender","34","","","I often think about my actions.","filler"
"3821.9000000059605","","","html-slider-response","411","1482088","0.0-24.0-0.0-0.3","59955","List2B","white","man","","","","","","","","survey_gender","93","","","I feel solidarity with my friends.","filler"
"4261.19999999553","","","html-slider-response","412","1486351","0.0-24.0-0.0-0.4","59955","List2B","white","man","","","","","","","","survey_gender","90","","","I feel solidarity with my gender.","solidarity"
"3605.7000000029802","","","html-slider-response","413","1489958","0.0-24.0-0.0-0.5","59955","List2B","white","man","","","","","","","","survey_gender","100","","","I have a lot in common with my friends.","filler"
"5330.20000000298","","","html-slider-response","414","1495290","0.0-24.0-0.0-0.6","59955","List2B","white","man","","","","","","","","survey_gender","63","","","I have a lot in common with the average person of my gender.","average"
"4060.89999999851","","","html-slider-response","415","1499353","0.0-24.0-0.0-0.7","59955","List2B","white","man","","","","","","","","survey_gender","22","","","Routine is not important to me.","filler"
"5808.5","","","html-slider-response","416","1505163","0.0-24.0-0.0-0.8","59955","List2B","white","man","","","","","","","","survey_gender","17","","","Being my gender is an important part of how I see myself.","important"
"3734.1999999955297","","","html-slider-response","417","1508899","0.0-24.0-0.0-0.9","59955","List2B","white","man","","","","","","","","survey_gender","62","","","I consider myself a highly empathetic person.","filler"
"3398.39999999851","","","html-slider-response","418","1512299","0.0-24.0-0.0-0.10","59955","List2B","white","man","","","","","","","","survey_gender","100","","","I am glad to have the friends that I have.","filler"
"6137.20000000298","","","html-slider-response","419","1518438","0.0-24.0-0.0-0.11","59955","List2B","white","man","","","","","","","","survey_gender","0","","","I often think about the fact that I am my gender.","often"
"4300.20000000298","","","html-slider-response","420","1522740","0.0-24.0-0.0-0.12","59955","List2B","white","man","","","","","","","","survey_gender","89","","","My friends have a lot in common with each other.","filler"
"6934.19999999553","","","html-slider-response","421","1529676","0.0-24.0-0.0-0.13","59955","List2B","white","man","","","","","","","","survey_gender","42","","","People of my gender are very similar to each other.","verysimilar"
"4061.1999999955297","","","html-slider-response","422","1533739","0.0-24.0-0.0-0.14","59955","List2B","white","man","","","","","","","","survey_gender","100","","","Being around my friends gives me a good feeling.","filler"
"4291.5999999940395","","","html-slider-response","423","1538033","0.0-24.0-0.0-0.15","59955","List2B","white","man","","","","","","","","survey_gender","5","","","The fact that I am my gender is an important part of my identity.","identity"
"5625.5","","","html-slider-response","424","1543660","0.0-24.0-0.0-0.16","59955","List2B","white","man","","","","","","","","survey_gender","24","","","People of my gender have a lot in common with each other.","common"
"20186.60000000149","","","html-slider-response","425","1563849","0.0-24.0-0.0-0.17","59955","List2B","white","man","","","","","","","","survey_gender","0","","","Family is not more important to me than friendship.","filler"
"3302.8000000044703","","","html-slider-response","426","1567153","0.0-24.0-0.0-0.18","59955","List2B","white","man","","","","","","","","survey_gender","20","","","I think that my gender has a lot to be proud of.","proud"
"3223.5999999940395","","","html-slider-response","427","1570378","0.0-24.0-0.0-0.19","59955","List2B","white","man","","","","","","","","survey_gender","100","","","I would say I am an animal person.","filler"
"4577.89999999851","","","html-slider-response","428","1574958","0.0-24.0-0.0-0.20","59955","List2B","white","man","","","","","","","","survey_gender","100","","","It is not always easy for people to know what I am thinking.","filler"
"3040.1999999955297","","","html-slider-response","429","1577999","0.0-24.0-0.0-0.21","59955","List2B","white","man","","","","","","","","survey_gender","86","","","My friends understand me.","filler"
"2424.7999999970198","","","html-slider-response","430","1580426","0.0-24.0-0.0-0.22","59955","List2B","white","man","","","","","","","","survey_gender","30","","","I feel a bond with my gender.","bond"
"2680.39999999851","","","html-slider-response","431","1583107","0.0-24.0-0.0-0.23","59955","List2B","white","man","","","","","","","","survey_gender","85","","","I feel a bond with my friends.","filler"
"2711.5","","","html-slider-response","432","1585820","0.0-24.0-0.0-0.24","59955","List2B","white","man","","","","","","","","survey_gender","58","","","It is pleasant to be my gender.","pleasant"
"3071","","","html-slider-response","433","1588893","0.0-24.0-0.0-0.25","59955","List2B","white","man","","","","","","","","survey_gender","72","","","I am glad to be my gender.","glad"
"3446.39999999851","","","html-slider-response","434","1592341","0.0-24.0-0.0-0.26","59955","List2B","white","man","","","","","","","","survey_gender","58","","","I am similar to the average person of my gender.","similar"
"2321","","","html-slider-response","435","1594663","0.0-24.0-0.0-0.27","59955","List2B","white","man","","","","","","","","survey_gender","58","","","I feel committed to my gender.","committed"
"5130.19999999553","","","html-slider-response","436","1599795","0.0-24.0-1.0-0.0","59955","List2B","white","man","","","","","","","","survey_race","56","","","My age is not an important part of who I am.","filler"
"3246.2000000029802","","","html-slider-response","437","1603043","0.0-24.0-1.0-0.1","59955","List2B","white","man","","","","","","","","survey_race","72","","","I have a lot in common with the average person of my race.","average"
"3334.5","","","html-slider-response","438","1606379","0.0-24.0-1.0-0.2","59955","List2B","white","man","","","","","","","","survey_race","72","","","I am glad to be the age I am.","filler"
"3446.3000000044703","","","html-slider-response","439","1609827","0.0-24.0-1.0-0.3","59955","List2B","white","man","","","","","","","","survey_race","99","","","I feel committed to my race.","committed"
"4092.5","","","html-slider-response","440","1613921","0.0-24.0-1.0-0.4","59955","List2B","white","man","","","","","","","","survey_race","53","","","I am glad to be my race.","glad"
"7363.5999999940395","","","html-slider-response","441","1621286","0.0-24.0-1.0-0.5","59955","List2B","white","man","","","","","","","","survey_race","0","","","I often think about the fact that I am my race.","often"
"3135.3000000044703","","","html-slider-response","442","1624423","0.0-24.0-1.0-0.6","59955","List2B","white","man","","","","","","","","survey_race","47","","","It is pleasant to be my race.","pleasant"
"7918.60000000149","","","html-slider-response","443","1632344","0.0-24.0-1.0-0.7","59955","List2B","white","man","","","","","","","","survey_race","68","","","I have a lot in common with people of a similar age to me.","filler"
"5648.9000000059605","","","html-slider-response","444","1637994","0.0-24.0-1.0-0.8","59955","List2B","white","man","","","","","","","","survey_race","56","","","People of my race have a lot in common with each other.","common"
"5409.10000000149","","","html-slider-response","445","1643405","0.0-24.0-1.0-0.9","59955","List2B","white","man","","","","","","","","survey_race","43","","","I feel a bond with my race.","bond"
"3086.7999999970198","","","html-slider-response","446","1646494","0.0-24.0-1.0-0.10","59955","List2B","white","man","","","","","","","","survey_race","62","","","I feel solidarity with people the same age as me.","filler"
"2879","","","html-slider-response","447","1649375","0.0-24.0-1.0-0.11","59955","List2B","white","man","","","","","","","","survey_race","45","","","I consider myself an extrovert.","filler"
"2951.5","","","html-slider-response","448","1652328","0.0-24.0-1.0-0.12","59955","List2B","white","man","","","","","","","","survey_race","52","","","I am glad to be my age.","filler"
"3501.39999999851","","","html-slider-response","449","1655831","0.0-24.0-1.0-0.13","59955","List2B","white","man","","","","","","","","survey_race","55","","","I consider myself an introvert.","filler"
"5935.39999999851","","","html-slider-response","450","1661768","0.0-24.0-1.0-0.14","59955","List2B","white","man","","","","","","","","survey_race","77","","","Getting older does not worry me.","filler"
"3661.5","","","html-slider-response","451","1665431","0.0-24.0-1.0-0.15","59955","List2B","white","man","","","","","","","","survey_race","56","","","Being my age gives me a good feeling.","filler"
"4211.4000000059605","","","html-slider-response","452","1669644","0.0-24.0-1.0-0.16","59955","List2B","white","man","","","","","","","","survey_race","22","","","Being my race is an important part of how I see myself.","important"
"11904","","","html-slider-response","453","1681550","0.0-24.0-1.0-0.17","59955","List2B","white","man","","","","","","","","survey_race","46","","","People my age have a lot in common with each other.","filler"
"4857.70000000298","","","html-slider-response","454","1686410","0.0-24.0-1.0-0.18","59955","List2B","white","man","","","","","","","","survey_race","58","","","The older I get, the wiser I feel.","filler"
"4173.0999999940395","","","html-slider-response","455","1690585","0.0-24.0-1.0-0.19","59955","List2B","white","man","","","","","","","","survey_race","0","","","I often think about the fact that I am my age.","filler"
"3205.89999999851","","","html-slider-response","456","1693792","0.0-24.0-1.0-0.20","59955","List2B","white","man","","","","","","","","survey_race","52","","","I feel a bond with people the same age as me.","filler"
"4475.29999999702","","","html-slider-response","457","1698269","0.0-24.0-1.0-0.21","59955","List2B","white","man","","","","","","","","survey_race","45","","","I enjoy being in large groups.","filler"
"6209","","","html-slider-response","458","1704480","0.0-24.0-1.0-0.22","59955","List2B","white","man","","","","","","","","survey_race","58","","","I am similar to the average person of my race.","similar"
"5480.80000000447","","","html-slider-response","459","1709962","0.0-24.0-1.0-0.23","59955","List2B","white","man","","","","","","","","survey_race","43","","","Being my race gives me a good feeling.","feeling"
"6588.5999999940395","","","html-slider-response","460","1716553","0.0-24.0-1.0-0.24","59955","List2B","white","man","","","","","","","","survey_race","37","","","I think that my race has a lot to be proud of.","proud"
"4603.30000000447","","","html-slider-response","461","1721158","0.0-24.0-1.0-0.25","59955","List2B","white","man","","","","","","","","survey_race","45","","","People of my race are very similar to each other.","verysimilar"
"4863.79999999702","","","html-slider-response","462","1726024","0.0-24.0-1.0-0.26","59955","List2B","white","man","","","","","","","","survey_race","43","","","The fact that I am my race is an important part of my identity.","identity"
"3676.89999999851","","","html-slider-response","463","1729702","0.0-24.0-1.0-0.27","59955","List2B","white","man","","","","","","","","survey_race","42","","","I feel solidarity with my race.","solidarity"
"4506.39999999851","","","survey-text","464","1734211","0.0-25.0","59955","List2B","white","man","","","","","{""Q0"":""615e09848e9c93c61f523fb5""}","","","worker_id","","","","",""
"53615.10000000149","","","external-html","465","1788603","0.0-26.0","59955","List2B","white","man","debrief.html","","","","","","","","","","","",""
