rt,stimulus,button_pressed,trial_type,trial_index,time_elapsed,internal_node_id,subject,list,ppt_race,ppt_gender,url,first_guess,correct,key_press,responses,image_type,phrase_type,test_part,response,stimulus1,stimulus2,question_type,survey_item
3969.2,Welcome to the experiment. Press Continue to begin.,0,html-button-response,0,3972,0.0-0.0,60330,List1B,white,woman,,,,,,,,,,,,,
8673,,,external-html,1,13779,0.0-1.0,60330,List1B,white,woman,consent.html,,,,,,,,,,,,
4160,"<p>On the next page, you will see portraits of 8 people and their names.</p><p>Your first task is to take a few minutes to memorise the names of these people.</p><p>You will have to recall their names during the rest of the experiment, so it is</p><p>essential that you try to memorise these people and their names as best as you can.</p><br><p><strong>You will then be tested on your memory of these names and portraits.</strong></p><br><p>The experiment will start after you have completed this memory test.</p><br><p>Ready?</p>",0,html-button-response,2,17941,0.0-2.0,60330,List1B,white,woman,,,,,,,,,,,,,
22926.6,"<img src='img/portrait_matrix_list1.jpg' style='width:900px;height:500px;''></img><p>If you have memorised all the portraits and names and are ready to start, press Continue.</p><p><strong>Please note: Your memory of these faces will be tested 4 times during this experiment.</strong></p>",0,html-button-response,3,41869,0.0-3.0-0.0,60330,List1B,white,woman,,,,,,,,,,,,,
13473,"<img src=""portrait/WW1.jpg""style=""height:400px;""></img>",1,html-button-response,4,56348,0.0-3.0-1.0,60330,List1B,white,woman,,TRUE,1,,,,,,,,,,
null,CORRECT,,html-keyboard-response,5,57857,0.0-3.0-2.0-0.0,60330,List1B,white,woman,,,,null,,,,,,,,,
2968.6,"<img src=""portrait/WM2.jpg""style=""height:400px;""></img>",7,html-button-response,6,60827,0.0-3.0-4.0,60330,List1B,white,woman,,TRUE,7,,,,,,,,,,
null,CORRECT,,html-keyboard-response,7,62332,0.0-3.0-5.0-0.0,60330,List1B,white,woman,,,,null,,,,,,,,,
3183.5,"<img src=""portrait/WM1.jpg""style=""height:400px;""></img>",6,html-button-response,8,65516,0.0-3.0-7.0,60330,List1B,white,woman,,TRUE,6,,,,,,,,,,
null,CORRECT,,html-keyboard-response,9,67021,0.0-3.0-8.0-0.0,60330,List1B,white,woman,,,,null,,,,,,,,,
2781.4,"<img src=""portrait/BW2.jpg""style=""height:400px;""></img>",2,html-button-response,10,69803,0.0-3.0-10.0,60330,List1B,white,woman,,TRUE,2,,,,,,,,,,
null,CORRECT,,html-keyboard-response,11,71307,0.0-3.0-11.0-0.0,60330,List1B,white,woman,,,,null,,,,,,,,,
2871.8,"<img src=""portrait/WW2.jpg""style=""height:400px;""></img>",3,html-button-response,12,74180,0.0-3.0-13.0,60330,List1B,white,woman,,TRUE,3,,,,,,,,,,
null,CORRECT,,html-keyboard-response,13,75683,0.0-3.0-14.0-0.0,60330,List1B,white,woman,,,,null,,,,,,,,,
3073.9,"<img src=""portrait/BM1.jpg""style=""height:400px;""></img>",4,html-button-response,14,78758,0.0-3.0-16.0,60330,List1B,white,woman,,TRUE,4,,,,,,,,,,
null,CORRECT,,html-keyboard-response,15,80259,0.0-3.0-17.0-0.0,60330,List1B,white,woman,,,,null,,,,,,,,,
4651.3,"<img src=""portrait/BW1.jpg""style=""height:400px;""></img>",0,html-button-response,16,84911,0.0-3.0-19.0,60330,List1B,white,woman,,TRUE,0,,,,,,,,,,
null,CORRECT,,html-keyboard-response,17,86414,0.0-3.0-20.0-0.0,60330,List1B,white,woman,,,,null,,,,,,,,,
2828.7,"<img src=""portrait/BM2.jpg""style=""height:400px;""></img>",5,html-button-response,18,89243,0.0-3.0-22.0,60330,List1B,white,woman,,TRUE,5,,,,,,,,,,
null,CORRECT,,html-keyboard-response,19,90749,0.0-3.0-23.0-0.0,60330,List1B,white,woman,,,,null,,,,,,,,,
1586,<p>You got 8 out of 8 right first time. Press Continue.</p>,0,html-button-response,20,92337,0.0-3.0-25.0,60330,List1B,white,woman,,,,,,,,,,,,,
28570.4,"<p>In this experiment, you will view photographs of the people from the memory game interacting.</p><p>By using the <strong>exact</strong> phrase given <i>after</i> the photograph appears and recalling the correct names of the people in the photographs, form a sentence describing the interaction. You do not need to capitalise names.</p><p>Type your answer in the space provided. Please complete every sentence before moving onto the next trial.</p><p>You will only have a few seconds to memorise each given photograph and phrase before you can respond, so try your best to focus.</p><p>An example is given below. Press 'Continue' when you are ready.</p><img src='img/speaking_example.jpg' style='width:800px;height:460px;''></img>",0,html-button-response,21,121913,0.0-4.0,60330,List1B,white,woman,,,,,,,,,,,,,
2274.8,"<p>Before the experiment starts, you will watch two example trials. Press 'Continue'.</p>",0,html-button-response,22,125189,0.0-5.0,60330,List1B,white,woman,,,,,,,,,,,,,
null,<img src='img/play_eg.gif' style='height:400px;''></img>,,html-keyboard-response,23,128192,0.0-6.0,60330,List1B,white,woman,,,,null,,,,,,,,,
null,<p>is playing with</p>,,html-keyboard-response,24,130196,0.0-7.0,60330,List1B,white,woman,,,,null,,,,,,,,,
1200.2,<p><b>Answer:</b> kate is playing with beth</p>,0,html-button-response,25,131397,0.0-8.0,60330,List1B,white,woman,,,,,,,,,,,,,
null,<img src='img/dance_eg.gif' style='height:400px;''></img>,,html-keyboard-response,26,134402,0.0-9.0,60330,List1B,white,woman,,,,null,,,,,,,,,
null,<p>is being entertained by</p>,,html-keyboard-response,27,136403,0.0-10.0,60330,List1B,white,woman,,,,null,,,,,,,,,
989.9,<p><b>Answer:</b> luke is being entertained by dave</p>,0,html-button-response,28,137393,0.0-11.0,60330,List1B,white,woman,,,,,,,,,,,,,
6895.7,"<p>Ready to start the experiment?</p><br><p><strong>Remember to describe the picture using a full sentence,</strong></p><p><strong>that combines the names of the people with the <i>exact</i> phrase given.</strong></p><p><strong>To receive full payment you must do this correctly.</strong></p><p><strong> You do not need to capitalise names or use punctuation.</strong></p><br><p>Press 'Continue' to begin.</p>",0,html-button-response,29,145291,0.0-12.0,60330,List1B,white,woman,,,,,,,,,,,,,
null,"<div style=""font-size:60px;"">+</div>",,html-keyboard-response,30,146793,0.0-13.0-0.0,60330,List1B,white,woman,,,,null,,,,,,,,,
null,"<img src=""stim_listB/touch2.gif""style=""height:400px;""></stim_listB>",,html-keyboard-response,31,148798,0.0-13.0-1.0,60330,List1B,white,woman,,,,null,,,,,,,,,
null,is being touched by,,html-keyboard-response,32,150798,0.0-13.0-2.0,60330,List1B,white,woman,,,,null,,,,,,,,,
6741.5,,,survey-text,33,157547,0.0-13.0-3.0,60330,List1B,white,woman,,,,,"{""Q0"":""beth is being touched by fred""}","<img src=""stim_listB/touch2.gif""style=""height:400px;""></stim_listB>",is being touched by,,,,,,
null,"<div style=""font-size:60px;"">+</div>",,html-keyboard-response,34,158050,0.0-13.0-0.1,60330,List1B,white,woman,,,,null,,,,,,,,,
null,"<img src=""stim_listB/greet7.gif""style=""height:400px;""></stim_listB>",,html-keyboard-response,35,160054,0.0-13.0-1.1,60330,List1B,white,woman,,,,null,,,,,,,,,
null,is greeting,,html-keyboard-response,36,162055,0.0-13.0-2.1,60330,List1B,white,woman,,,,null,,,,,,,,,
5745.5,,,survey-text,37,167803,0.0-13.0-3.1,60330,List1B,white,woman,,,,,"{""Q0"":""ruth is gretting kate""}","<img src=""stim_listB/greet7.gif""style=""height:400px;""></stim_listB>",is greeting,,,,,,
null,"<div style=""font-size:60px;"">+</div>",,html-keyboard-response,38,168306,0.0-13.0-0.2,60330,List1B,white,woman,,,,null,,,,,,,,,
null,"<img src=""stim_listB/kiss7.gif""style=""height:400px;""></stim_listB>",,html-keyboard-response,39,170307,0.0-13.0-1.2,60330,List1B,white,woman,,,,null,,,,,,,,,
null,is kissing,,html-keyboard-response,40,172311,0.0-13.0-2.2,60330,List1B,white,woman,,,,null,,,,,,,,,
6852.7,,,survey-text,41,179166,0.0-13.0-3.2,60330,List1B,white,woman,,,,,"{""Q0"":""ruth is kissing beth""}","<img src=""stim_listB/kiss7.gif""style=""height:400px;""></stim_listB>",is kissing,,,,,,
null,"<div style=""font-size:60px;"">+</div>",,html-keyboard-response,42,179667,0.0-13.0-0.3,60330,List1B,white,woman,,,,null,,,,,,,,,
null,"<img src=""stim_listB/seduce7.gif""style=""height:400px;""></stim_listB>",,html-keyboard-response,43,181671,0.0-13.0-1.3,60330,List1B,white,woman,,,,null,,,,,,,,,
null,is seducing,,html-keyboard-response,44,183672,0.0-13.0-2.3,60330,List1B,white,woman,,,,null,,,,,,,,,
3601.8,,,survey-text,45,187276,0.0-13.0-3.3,60330,List1B,white,woman,,,,,"{""Q0"":""beth is seducing jane""}","<img src=""stim_listB/seduce7.gif""style=""height:400px;""></stim_listB>",is seducing,,,,,,
null,"<div style=""font-size:60px;"">+</div>",,html-keyboard-response,46,187781,0.0-13.0-0.4,60330,List1B,white,woman,,,,null,,,,,,,,,
null,"<img src=""stim_listB/touch4.gif""style=""height:400px;""></stim_listB>",,html-keyboard-response,47,189783,0.0-13.0-1.4,60330,List1B,white,woman,,,,null,,,,,,,,,
null,is being touched by,,html-keyboard-response,48,191784,0.0-13.0-2.4,60330,List1B,white,woman,,,,null,,,,,,,,,
7672.9,,,survey-text,49,199460,0.0-13.0-3.4,60330,List1B,white,woman,,,,,"{""Q0"":""luke is being touched by ruth""}","<img src=""stim_listB/touch4.gif""style=""height:400px;""></stim_listB>",is being touched by,,,,,,
null,"<div style=""font-size:60px;"">+</div>",,html-keyboard-response,50,199963,0.0-13.0-0.5,60330,List1B,white,woman,,,,null,,,,,,,,,
null,"<img src=""stim_listB/shout6.gif""style=""height:400px;""></stim_listB>",,html-keyboard-response,51,201965,0.0-13.0-1.5,60330,List1B,white,woman,,,,null,,,,,,,,,
null,is being shouted at by,,html-keyboard-response,52,203970,0.0-13.0-2.5,60330,List1B,white,woman,,,,null,,,,,,,,,
10631.7,,,survey-text,53,214604,0.0-13.0-3.5,60330,List1B,white,woman,,,,,"{""Q0"":""dave is being shouted at by mike""}","<img src=""stim_listB/shout6.gif""style=""height:400px;""></stim_listB>",is being shouted at by,,,,,,
null,"<div style=""font-size:60px;"">+</div>",,html-keyboard-response,54,215106,0.0-13.0-0.6,60330,List1B,white,woman,,,,null,,,,,,,,,
null,"<img src=""stim_listB/challenge7.gif""style=""height:400px;""></stim_listB>",,html-keyboard-response,55,217108,0.0-13.0-1.6,60330,List1B,white,woman,,,,null,,,,,,,,,
null,is challenging,,html-keyboard-response,56,219112,0.0-13.0-2.6,60330,List1B,white,woman,,,,null,,,,,,,,,
9472.1,,,survey-text,57,228587,0.0-13.0-3.6,60330,List1B,white,woman,,,,,"{""Q0"":""ruth is challenging kate""}","<img src=""stim_listB/challenge7.gif""style=""height:400px;""></stim_listB>",is challenging,,,,,,
null,"<div style=""font-size:60px;"">+</div>",,html-keyboard-response,58,229090,0.0-13.0-0.7,60330,List1B,white,woman,,,,null,,,,,,,,,
null,"<img src=""stim_listB/challenge3.gif""style=""height:400px;""></stim_listB>",,html-keyboard-response,59,231092,0.0-13.0-1.7,60330,List1B,white,woman,,,,null,,,,,,,,,
null,is challenging,,html-keyboard-response,60,233094,0.0-13.0-2.7,60330,List1B,white,woman,,,,null,,,,,,,,,
10699.5,,,survey-text,61,243797,0.0-13.0-3.7,60330,List1B,white,woman,,,,,"{""Q0"":""ruth is challenging dave""}","<img src=""stim_listB/challenge3.gif""style=""height:400px;""></stim_listB>",is challenging,,,,,,
null,"<div style=""font-size:60px;"">+</div>",,html-keyboard-response,62,244301,0.0-13.0-0.8,60330,List1B,white,woman,,,,null,,,,,,,,,
null,"<img src=""stim_listB/kiss3.gif""style=""height:400px;""></stim_listB>",,html-keyboard-response,63,246303,0.0-13.0-1.8,60330,List1B,white,woman,,,,null,,,,,,,,,
null,is kissing,,html-keyboard-response,64,248306,0.0-13.0-2.8,60330,List1B,white,woman,,,,null,,,,,,,,,
4039.1,,,survey-text,65,252347,0.0-13.0-3.8,60330,List1B,white,woman,,,,,"{""Q0"":""luke is kissing ruth""}","<img src=""stim_listB/kiss3.gif""style=""height:400px;""></stim_listB>",is kissing,,,,,,
null,"<div style=""font-size:60px;"">+</div>",,html-keyboard-response,66,252849,0.0-13.0-0.9,60330,List1B,white,woman,,,,null,,,,,,,,,
null,"<img src=""stim_listB/oppose5.gif""style=""height:400px;""></stim_listB>",,html-keyboard-response,67,254851,0.0-13.0-1.9,60330,List1B,white,woman,,,,null,,,,,,,,,
null,is opposing,,html-keyboard-response,68,256856,0.0-13.0-2.9,60330,List1B,white,woman,,,,null,,,,,,,,,
4848.8,,,survey-text,69,261708,0.0-13.0-3.9,60330,List1B,white,woman,,,,,"{""Q0"":""dave is opposing mike""}","<img src=""stim_listB/oppose5.gif""style=""height:400px;""></stim_listB>",is opposing,,,,,,
null,"<div style=""font-size:60px;"">+</div>",,html-keyboard-response,70,262209,0.0-13.0-0.10,60330,List1B,white,woman,,,,null,,,,,,,,,
null,"<img src=""stim_listB/greet3.gif""style=""height:400px;""></stim_listB>",,html-keyboard-response,71,264211,0.0-13.0-1.10,60330,List1B,white,woman,,,,null,,,,,,,,,
null,is greeting,,html-keyboard-response,72,266214,0.0-13.0-2.10,60330,List1B,white,woman,,,,null,,,,,,,,,
6538.4,,,survey-text,73,272755,0.0-13.0-3.10,60330,List1B,white,woman,,,,,"{""Q0"":""dave is greeting ruth""}","<img src=""stim_listB/greet3.gif""style=""height:400px;""></stim_listB>",is greeting,,,,,,
null,"<div style=""font-size:60px;"">+</div>",,html-keyboard-response,74,273257,0.0-13.0-0.11,60330,List1B,white,woman,,,,null,,,,,,,,,
null,"<img src=""stim_listB/oppose8.gif""style=""height:400px;""></stim_listB>",,html-keyboard-response,75,275260,0.0-13.0-1.11,60330,List1B,white,woman,,,,null,,,,,,,,,
null,is being opposed by,,html-keyboard-response,76,277261,0.0-13.0-2.11,60330,List1B,white,woman,,,,null,,,,,,,,,
84813.4,,,survey-text,77,362079,0.0-13.0-3.11,60330,List1B,white,woman,,,,,"{""Q0"":""beth is being opposed by ruth ""}","<img src=""stim_listB/oppose8.gif""style=""height:400px;""></stim_listB>",is being opposed by,,,,,,
null,"<div style=""font-size:60px;"">+</div>",,html-keyboard-response,78,362581,0.0-13.0-0.12,60330,List1B,white,woman,,,,null,,,,,,,,,
null,"<img src=""stim_listB/look3.gif""style=""height:400px;""></stim_listB>",,html-keyboard-response,79,364583,0.0-13.0-1.12,60330,List1B,white,woman,,,,null,,,,,,,,,
null,is looking at,,html-keyboard-response,80,366585,0.0-13.0-2.12,60330,List1B,white,woman,,,,null,,,,,,,,,
4493.1,,,survey-text,81,371080,0.0-13.0-3.12,60330,List1B,white,woman,,,,,"{""Q0"":""ruth is looking at luke""}","<img src=""stim_listB/look3.gif""style=""height:400px;""></stim_listB>",is looking at,,,,,,
null,"<div style=""font-size:60px;"">+</div>",,html-keyboard-response,82,371584,0.0-13.0-0.13,60330,List1B,white,woman,,,,null,,,,,,,,,
null,"<img src=""stim_listB/oppose3.gif""style=""height:400px;""></stim_listB>",,html-keyboard-response,83,373586,0.0-13.0-1.13,60330,List1B,white,woman,,,,null,,,,,,,,,
null,is opposing,,html-keyboard-response,84,375587,0.0-13.0-2.13,60330,List1B,white,woman,,,,null,,,,,,,,,
7650.9,,,survey-text,85,383241,0.0-13.0-3.13,60330,List1B,white,woman,,,,,"{""Q0"":""jane is opposing dave""}","<img src=""stim_listB/oppose3.gif""style=""height:400px;""></stim_listB>",is opposing,,,,,,
null,"<div style=""font-size:60px;"">+</div>",,html-keyboard-response,86,383744,0.0-13.0-0.14,60330,List1B,white,woman,,,,null,,,,,,,,,
null,"<img src=""stim_listB/copy1.gif""style=""height:400px;""></stim_listB>",,html-keyboard-response,87,385747,0.0-13.0-1.14,60330,List1B,white,woman,,,,null,,,,,,,,,
null,is copying,,html-keyboard-response,88,387750,0.0-13.0-2.14,60330,List1B,white,woman,,,,null,,,,,,,,,
4028.9,,,survey-text,89,391781,0.0-13.0-3.14,60330,List1B,white,woman,,,,,"{""Q0"":""beth is copying mike""}","<img src=""stim_listB/copy1.gif""style=""height:400px;""></stim_listB>",is copying,,,,,,
null,"<div style=""font-size:60px;"">+</div>",,html-keyboard-response,90,392282,0.0-13.0-0.15,60330,List1B,white,woman,,,,null,,,,,,,,,
null,"<img src=""stim_listB/look2.gif""style=""height:400px;""></stim_listB>",,html-keyboard-response,91,394286,0.0-13.0-1.15,60330,List1B,white,woman,,,,null,,,,,,,,,
null,is being looked at by,,html-keyboard-response,92,396289,0.0-13.0-2.15,60330,List1B,white,woman,,,,null,,,,,,,,,
5120,,,survey-text,93,401411,0.0-13.0-3.15,60330,List1B,white,woman,,,,,"{""Q0"":""kate is being looked at by mike""}","<img src=""stim_listB/look2.gif""style=""height:400px;""></stim_listB>",is being looked at by,,,,,,
null,"<div style=""font-size:60px;"">+</div>",,html-keyboard-response,94,401914,0.0-13.0-0.16,60330,List1B,white,woman,,,,null,,,,,,,,,
null,"<img src=""stim_listB/oppose6.gif""style=""height:400px;""></stim_listB>",,html-keyboard-response,95,403916,0.0-13.0-1.16,60330,List1B,white,woman,,,,null,,,,,,,,,
null,is being opposed by,,html-keyboard-response,96,405918,0.0-13.0-2.16,60330,List1B,white,woman,,,,null,,,,,,,,,
7224.8,,,survey-text,97,413145,0.0-13.0-3.16,60330,List1B,white,woman,,,,,"{""Q0"":""fred is opposing mik""}","<img src=""stim_listB/oppose6.gif""style=""height:400px;""></stim_listB>",is being opposed by,,,,,,
null,"<div style=""font-size:60px;"">+</div>",,html-keyboard-response,98,413646,0.0-13.0-0.17,60330,List1B,white,woman,,,,null,,,,,,,,,
null,"<img src=""stim_listB/kiss5.gif""style=""height:400px;""></stim_listB>",,html-keyboard-response,99,415651,0.0-13.0-1.17,60330,List1B,white,woman,,,,null,,,,,,,,,
null,is kissing,,html-keyboard-response,100,417652,0.0-13.0-2.17,60330,List1B,white,woman,,,,null,,,,,,,,,
6717.3,,,survey-text,101,424372,0.0-13.0-3.17,60330,List1B,white,woman,,,,,"{""Q0"":""fred is kissing luke""}","<img src=""stim_listB/kiss5.gif""style=""height:400px;""></stim_listB>",is kissing,,,,,,
null,"<div style=""font-size:60px;"">+</div>",,html-keyboard-response,102,424874,0.0-13.0-0.18,60330,List1B,white,woman,,,,null,,,,,,,,,
null,"<img src=""stim_listB/hug8.gif""style=""height:400px;""></stim_listB>",,html-keyboard-response,103,426877,0.0-13.0-1.18,60330,List1B,white,woman,,,,null,,,,,,,,,
null,is being hugged by,,html-keyboard-response,104,428881,0.0-13.0-2.18,60330,List1B,white,woman,,,,null,,,,,,,,,
15389.2,,,survey-text,105,444274,0.0-13.0-3.18,60330,List1B,white,woman,,,,,"{""Q0"":""kate is being hugged by mike""}","<img src=""stim_listB/hug8.gif""style=""height:400px;""></stim_listB>",is being hugged by,,,,,,
null,"<div style=""font-size:60px;"">+</div>",,html-keyboard-response,106,444778,0.0-13.0-0.19,60330,List1B,white,woman,,,,null,,,,,,,,,
null,"<img src=""stim_listB/hug1.gif""style=""height:400px;""></stim_listB>",,html-keyboard-response,107,446782,0.0-13.0-1.19,60330,List1B,white,woman,,,,null,,,,,,,,,
null,is hugging,,html-keyboard-response,108,448787,0.0-13.0-2.19,60330,List1B,white,woman,,,,null,,,,,,,,,
4697.9,,,survey-text,109,453487,0.0-13.0-3.19,60330,List1B,white,woman,,,,,"{""Q0"":""fred is hugging beth""}","<img src=""stim_listB/hug1.gif""style=""height:400px;""></stim_listB>",is hugging,,,,,,
83976.2,"<img src='img/portrait_matrix_list1.jpg' style='width:900px;height:500px;''></img><p>If you have memorised all the portraits and names and are ready to start, press Continue.</p><p><strong>Please note: Your memory of these faces will be tested 4 times during this experiment.</strong></p>",0,html-button-response,110,537468,0.0-14.0-0.0,60330,List1B,white,woman,,,,,,,,,,,,,
3115.6,"<img src=""portrait/BM2.jpg""style=""height:400px;""></img>",5,html-button-response,111,541585,0.0-14.0-1.0,60330,List1B,white,woman,,TRUE,5,,,,,,,,,,
null,CORRECT,,html-keyboard-response,112,543091,0.0-14.0-2.0-0.0,60330,List1B,white,woman,,,,null,,,,,,,,,
2069.3,"<img src=""portrait/BM1.jpg""style=""height:400px;""></img>",4,html-button-response,113,545162,0.0-14.0-4.0,60330,List1B,white,woman,,TRUE,4,,,,,,,,,,
null,CORRECT,,html-keyboard-response,114,546666,0.0-14.0-5.0-0.0,60330,List1B,white,woman,,,,null,,,,,,,,,
3006.1,"<img src=""portrait/WM1.jpg""style=""height:400px;""></img>",6,html-button-response,115,549674,0.0-14.0-7.0,60330,List1B,white,woman,,TRUE,6,,,,,,,,,,
null,CORRECT,,html-keyboard-response,116,551181,0.0-14.0-8.0-0.0,60330,List1B,white,woman,,,,null,,,,,,,,,
2553,"<img src=""portrait/WW1.jpg""style=""height:400px;""></img>",1,html-button-response,117,553735,0.0-14.0-10.0,60330,List1B,white,woman,,TRUE,1,,,,,,,,,,
null,CORRECT,,html-keyboard-response,118,555237,0.0-14.0-11.0-0.0,60330,List1B,white,woman,,,,null,,,,,,,,,
2703.9,"<img src=""portrait/BW2.jpg""style=""height:400px;""></img>",2,html-button-response,119,557942,0.0-14.0-13.0,60330,List1B,white,woman,,TRUE,2,,,,,,,,,,
null,CORRECT,,html-keyboard-response,120,559446,0.0-14.0-14.0-0.0,60330,List1B,white,woman,,,,null,,,,,,,,,
2736.2,"<img src=""portrait/BW1.jpg""style=""height:400px;""></img>",0,html-button-response,121,562184,0.0-14.0-16.0,60330,List1B,white,woman,,TRUE,0,,,,,,,,,,
null,CORRECT,,html-keyboard-response,122,563690,0.0-14.0-17.0-0.0,60330,List1B,white,woman,,,,null,,,,,,,,,
3071.2,"<img src=""portrait/WM2.jpg""style=""height:400px;""></img>",7,html-button-response,123,566763,0.0-14.0-19.0,60330,List1B,white,woman,,TRUE,7,,,,,,,,,,
null,CORRECT,,html-keyboard-response,124,568265,0.0-14.0-20.0-0.0,60330,List1B,white,woman,,,,null,,,,,,,,,
2107.2,"<img src=""portrait/WW2.jpg""style=""height:400px;""></img>",3,html-button-response,125,570374,0.0-14.0-22.0,60330,List1B,white,woman,,TRUE,3,,,,,,,,,,
null,CORRECT,,html-keyboard-response,126,571879,0.0-14.0-23.0-0.0,60330,List1B,white,woman,,,,null,,,,,,,,,
979.2,<p>You got 8 out of 8 right first time. Press Continue.</p>,0,html-button-response,127,572860,0.0-14.0-25.0,60330,List1B,white,woman,,,,,,,,,,,,,
null,"<div style=""font-size:60px;"">+</div>",,html-keyboard-response,128,574365,0.0-15.0-0.0,60330,List1B,white,woman,,,,null,,,,,,,,,
null,"<img src=""stim_listB/oppose2.gif""style=""height:400px;""></stim_listB>",,html-keyboard-response,129,576368,0.0-15.0-1.0,60330,List1B,white,woman,,,,null,,,,,,,,,
null,is being opposed by,,html-keyboard-response,130,578371,0.0-15.0-2.0,60330,List1B,white,woman,,,,null,,,,,,,,,
6896.5,,,survey-text,131,585270,0.0-15.0-3.0,60330,List1B,white,woman,,,,,"{""Q0"":""beth is being opposed by fred""}","<img src=""stim_listB/oppose2.gif""style=""height:400px;""></stim_listB>",is being opposed by,,,,,,
null,"<div style=""font-size:60px;"">+</div>",,html-keyboard-response,132,585773,0.0-15.0-0.1,60330,List1B,white,woman,,,,null,,,,,,,,,
null,"<img src=""stim_listB/oppose1.gif""style=""height:400px;""></stim_listB>",,html-keyboard-response,133,588555,0.0-15.0-1.1,60330,List1B,white,woman,,,,null,,,,,,,,,
null,is opposing,,html-keyboard-response,134,592081,0.0-15.0-2.1,60330,List1B,white,woman,,,,null,,,,,,,,,
893709,,,survey-text,135,5275383,0.0-15.0-3.1,60330,List1B,white,woman,,,,,"{""Q0"":""Beth is kissing fred""}","<img src=""stim_listB/oppose1.gif""style=""height:400px;""></stim_listB>",is opposing,,,,,,
null,"<div style=""font-size:60px;"">+</div>",,html-keyboard-response,136,5275885,0.0-15.0-0.2,60330,List1B,white,woman,,,,null,,,,,,,,,
null,"<img src=""stim_listB/copy4.gif""style=""height:400px;""></stim_listB>",,html-keyboard-response,137,5277891,0.0-15.0-1.2,60330,List1B,white,woman,,,,null,,,,,,,,,
null,is being copied by,,html-keyboard-response,138,5279896,0.0-15.0-2.2,60330,List1B,white,woman,,,,null,,,,,,,,,
8479.3,,,survey-text,139,5288378,0.0-15.0-3.2,60330,List1B,white,woman,,,,,"{""Q0"":""ruth is being coppied by luke""}","<img src=""stim_listB/copy4.gif""style=""height:400px;""></stim_listB>",is being copied by,,,,,,
null,"<div style=""font-size:60px;"">+</div>",,html-keyboard-response,140,5288879,0.0-15.0-0.3,60330,List1B,white,woman,,,,null,,,,,,,,,
null,"<img src=""stim_listB/look8.gif""style=""height:400px;""></stim_listB>",,html-keyboard-response,141,5290886,0.0-15.0-1.3,60330,List1B,white,woman,,,,null,,,,,,,,,
null,is being looked at by,,html-keyboard-response,142,5292888,0.0-15.0-2.3,60330,List1B,white,woman,,,,null,,,,,,,,,
6554.8,,,survey-text,143,5299445,0.0-15.0-3.3,60330,List1B,white,woman,,,,,"{""Q0"":""kate is being looked at by jane""}","<img src=""stim_listB/look8.gif""style=""height:400px;""></stim_listB>",is being looked at by,,,,,,
null,"<div style=""font-size:60px;"">+</div>",,html-keyboard-response,144,5299950,0.0-15.0-0.4,60330,List1B,white,woman,,,,null,,,,,,,,,
null,"<img src=""stim_listB/look4.gif""style=""height:400px;""></stim_listB>",,html-keyboard-response,145,5301955,0.0-15.0-1.4,60330,List1B,white,woman,,,,null,,,,,,,,,
null,is being looked at by,,html-keyboard-response,146,5303960,0.0-15.0-2.4,60330,List1B,white,woman,,,,null,,,,,,,,,
12291.5,,,survey-text,147,5316254,0.0-15.0-3.4,60330,List1B,white,woman,,,,,"{""Q0"":""dave is being looked at by jane""}","<img src=""stim_listB/look4.gif""style=""height:400px;""></stim_listB>",is being looked at by,,,,,,
null,"<div style=""font-size:60px;"">+</div>",,html-keyboard-response,148,5316756,0.0-15.0-0.5,60330,List1B,white,woman,,,,null,,,,,,,,,
null,"<img src=""stim_listB/challenge6.gif""style=""height:400px;""></stim_listB>",,html-keyboard-response,149,5318759,0.0-15.0-1.5,60330,List1B,white,woman,,,,null,,,,,,,,,
null,is being challenged by,,html-keyboard-response,150,5320761,0.0-15.0-2.5,60330,List1B,white,woman,,,,null,,,,,,,,,
12128.2,,,survey-text,151,5332891,0.0-15.0-3.5,60330,List1B,white,woman,,,,,"{""Q0"":""fred is being challenged by dave""}","<img src=""stim_listB/challenge6.gif""style=""height:400px;""></stim_listB>",is being challenged by,,,,,,
null,"<div style=""font-size:60px;"">+</div>",,html-keyboard-response,152,5333393,0.0-15.0-0.6,60330,List1B,white,woman,,,,null,,,,,,,,,
null,"<img src=""stim_listB/shout8.gif""style=""height:400px;""></stim_listB>",,html-keyboard-response,153,5335395,0.0-15.0-1.6,60330,List1B,white,woman,,,,null,,,,,,,,,
null,is being shouted at by,,html-keyboard-response,154,5337400,0.0-15.0-2.6,60330,List1B,white,woman,,,,null,,,,,,,,,
9519.3,,,survey-text,155,5346922,0.0-15.0-3.6,60330,List1B,white,woman,,,,,"{""Q0"":""kate is being shouted at by jane""}","<img src=""stim_listB/shout8.gif""style=""height:400px;""></stim_listB>",is being shouted at by,,,,,,
null,"<div style=""font-size:60px;"">+</div>",,html-keyboard-response,156,5347423,0.0-15.0-0.7,60330,List1B,white,woman,,,,null,,,,,,,,,
null,"<img src=""stim_listB/greet2.gif""style=""height:400px;""></stim_listB>",,html-keyboard-response,157,5349426,0.0-15.0-1.7,60330,List1B,white,woman,,,,null,,,,,,,,,
null,is being greeted by,,html-keyboard-response,158,5351427,0.0-15.0-2.7,60330,List1B,white,woman,,,,null,,,,,,,,,
7934.2,,,survey-text,159,5359364,0.0-15.0-3.7,60330,List1B,white,woman,,,,,"{""Q0"":""kate is being greeted by fred""}","<img src=""stim_listB/greet2.gif""style=""height:400px;""></stim_listB>",is being greeted by,,,,,,
null,"<div style=""font-size:60px;"">+</div>",,html-keyboard-response,160,5359866,0.0-15.0-0.8,60330,List1B,white,woman,,,,null,,,,,,,,,
null,"<img src=""stim_listB/touch1.gif""style=""height:400px;""></stim_listB>",,html-keyboard-response,161,5361869,0.0-15.0-1.8,60330,List1B,white,woman,,,,null,,,,,,,,,
null,is touching,,html-keyboard-response,162,5363870,0.0-15.0-2.8,60330,List1B,white,woman,,,,null,,,,,,,,,
3523.4,,,survey-text,163,5367396,0.0-15.0-3.8,60330,List1B,white,woman,,,,,"{""Q0"":""kate is touching mike""}","<img src=""stim_listB/touch1.gif""style=""height:400px;""></stim_listB>",is touching,,,,,,
null,"<div style=""font-size:60px;"">+</div>",,html-keyboard-response,164,5367899,0.0-15.0-0.9,60330,List1B,white,woman,,,,null,,,,,,,,,
null,"<img src=""stim_listB/hug2.gif""style=""height:400px;""></stim_listB>",,html-keyboard-response,165,5369902,0.0-15.0-1.9,60330,List1B,white,woman,,,,null,,,,,,,,,
null,is being hugged by,,html-keyboard-response,166,5371904,0.0-15.0-2.9,60330,List1B,white,woman,,,,null,,,,,,,,,
5829.6,,,survey-text,167,5377736,0.0-15.0-3.9,60330,List1B,white,woman,,,,,"{""Q0"":""kate is being hugged by""}","<img src=""stim_listB/hug2.gif""style=""height:400px;""></stim_listB>",is being hugged by,,,,,,
null,"<div style=""font-size:60px;"">+</div>",,html-keyboard-response,168,5378240,0.0-15.0-0.10,60330,List1B,white,woman,,,,null,,,,,,,,,
null,"<img src=""stim_listB/shout4.gif""style=""height:400px;""></stim_listB>",,html-keyboard-response,169,5380242,0.0-15.0-1.10,60330,List1B,white,woman,,,,null,,,,,,,,,
null,is being shouted at by,,html-keyboard-response,170,5382244,0.0-15.0-2.10,60330,List1B,white,woman,,,,null,,,,,,,,,
6232.7,,,survey-text,171,5388480,0.0-15.0-3.10,60330,List1B,white,woman,,,,,"{""Q0"":""dave is being shouted at by jane""}","<img src=""stim_listB/shout4.gif""style=""height:400px;""></stim_listB>",is being shouted at by,,,,,,
null,"<div style=""font-size:60px;"">+</div>",,html-keyboard-response,172,5388981,0.0-15.0-0.11,60330,List1B,white,woman,,,,null,,,,,,,,,
null,"<img src=""stim_listB/copy6.gif""style=""height:400px;""></stim_listB>",,html-keyboard-response,173,5390983,0.0-15.0-1.11,60330,List1B,white,woman,,,,null,,,,,,,,,
null,is being copied by,,html-keyboard-response,174,5392987,0.0-15.0-2.11,60330,List1B,white,woman,,,,null,,,,,,,,,
7393.8,,,survey-text,175,5400383,0.0-15.0-3.11,60330,List1B,white,woman,,,,,"{""Q0"":""dave is being copied by fred""}","<img src=""stim_listB/copy6.gif""style=""height:400px;""></stim_listB>",is being copied by,,,,,,
null,"<div style=""font-size:60px;"">+</div>",,html-keyboard-response,176,5400884,0.0-15.0-0.12,60330,List1B,white,woman,,,,null,,,,,,,,,
null,"<img src=""stim_listB/shout5.gif""style=""height:400px;""></stim_listB>",,html-keyboard-response,177,5402897,0.0-15.0-1.12,60330,List1B,white,woman,,,,null,,,,,,,,,
null,is shouting at,,html-keyboard-response,178,5404901,0.0-15.0-2.12,60330,List1B,white,woman,,,,null,,,,,,,,,
5220.7,,,survey-text,179,5410124,0.0-15.0-3.12,60330,List1B,white,woman,,,,,"{""Q0"":""fred is shouting at luke""}","<img src=""stim_listB/shout5.gif""style=""height:400px;""></stim_listB>",is shouting at,,,,,,
null,"<div style=""font-size:60px;"">+</div>",,html-keyboard-response,180,5410626,0.0-15.0-0.13,60330,List1B,white,woman,,,,null,,,,,,,,,
null,"<img src=""stim_listB/challenge1.gif""style=""height:400px;""></stim_listB>",,html-keyboard-response,181,5412633,0.0-15.0-1.13,60330,List1B,white,woman,,,,null,,,,,,,,,
null,is challenging,,html-keyboard-response,182,5414638,0.0-15.0-2.13,60330,List1B,white,woman,,,,null,,,,,,,,,
4843.3,,,survey-text,183,5419484,0.0-15.0-3.13,60330,List1B,white,woman,,,,,"{""Q0"":""beth is challenging mike""}","<img src=""stim_listB/challenge1.gif""style=""height:400px;""></stim_listB>",is challenging,,,,,,
null,"<div style=""font-size:60px;"">+</div>",,html-keyboard-response,184,5419985,0.0-15.0-0.14,60330,List1B,white,woman,,,,null,,,,,,,,,
null,"<img src=""stim_listB/seduce3.gif""style=""height:400px;""></stim_listB>",,html-keyboard-response,185,5421987,0.0-15.0-1.14,60330,List1B,white,woman,,,,null,,,,,,,,,
null,is seducing,,html-keyboard-response,186,5423994,0.0-15.0-2.14,60330,List1B,white,woman,,,,null,,,,,,,,,
5399.6,,,survey-text,187,5429396,0.0-15.0-3.14,60330,List1B,white,woman,,,,,"{""Q0"":""jane is seducing luke""}","<img src=""stim_listB/seduce3.gif""style=""height:400px;""></stim_listB>",is seducing,,,,,,
null,"<div style=""font-size:60px;"">+</div>",,html-keyboard-response,188,5429897,0.0-15.0-0.15,60330,List1B,white,woman,,,,null,,,,,,,,,
null,"<img src=""stim_listB/copy5.gif""style=""height:400px;""></stim_listB>",,html-keyboard-response,189,5431899,0.0-15.0-1.15,60330,List1B,white,woman,,,,null,,,,,,,,,
null,is copying,,html-keyboard-response,190,5433900,0.0-15.0-2.15,60330,List1B,white,woman,,,,null,,,,,,,,,
3615.8,,,survey-text,191,5437518,0.0-15.0-3.15,60330,List1B,white,woman,,,,,"{""Q0"":""luke is copying mike""}","<img src=""stim_listB/copy5.gif""style=""height:400px;""></stim_listB>",is copying,,,,,,
null,"<div style=""font-size:60px;"">+</div>",,html-keyboard-response,192,5438023,0.0-15.0-0.16,60330,List1B,white,woman,,,,null,,,,,,,,,
null,"<img src=""stim_listB/shout1.gif""style=""height:400px;""></stim_listB>",,html-keyboard-response,193,5440027,0.0-15.0-1.16,60330,List1B,white,woman,,,,null,,,,,,,,,
null,is shouting at,,html-keyboard-response,194,5442028,0.0-15.0-2.16,60330,List1B,white,woman,,,,null,,,,,,,,,
4015.7,,,survey-text,195,5446047,0.0-15.0-3.16,60330,List1B,white,woman,,,,,"{""Q0"":""fred is shouting at beth ""}","<img src=""stim_listB/shout1.gif""style=""height:400px;""></stim_listB>",is shouting at,,,,,,
null,"<div style=""font-size:60px;"">+</div>",,html-keyboard-response,196,5446549,0.0-15.0-0.17,60330,List1B,white,woman,,,,null,,,,,,,,,
null,"<img src=""stim_listB/challenge5.gif""style=""height:400px;""></stim_listB>",,html-keyboard-response,197,5448553,0.0-15.0-1.17,60330,List1B,white,woman,,,,null,,,,,,,,,
null,is challenging,,html-keyboard-response,198,5450558,0.0-15.0-2.17,60330,List1B,white,woman,,,,null,,,,,,,,,
4641.4,,,survey-text,199,5455202,0.0-15.0-3.17,60330,List1B,white,woman,,,,,"{""Q0"":""luke is challenging mike""}","<img src=""stim_listB/challenge5.gif""style=""height:400px;""></stim_listB>",is challenging,,,,,,
null,"<div style=""font-size:60px;"">+</div>",,html-keyboard-response,200,5455703,0.0-15.0-0.18,60330,List1B,white,woman,,,,null,,,,,,,,,
null,"<img src=""stim_listB/kiss4.gif""style=""height:400px;""></stim_listB>",,html-keyboard-response,201,5457708,0.0-15.0-1.18,60330,List1B,white,woman,,,,null,,,,,,,,,
null,is being kissed by,,html-keyboard-response,202,5459711,0.0-15.0-2.18,60330,List1B,white,woman,,,,null,,,,,,,,,
5144.2,,,survey-text,203,5464858,0.0-15.0-3.18,60330,List1B,white,woman,,,,,"{""Q0"":""jane is bring kissed by dave""}","<img src=""stim_listB/kiss4.gif""style=""height:400px;""></stim_listB>",is being kissed by,,,,,,
null,"<div style=""font-size:60px;"">+</div>",,html-keyboard-response,204,5465362,0.0-15.0-0.19,60330,List1B,white,woman,,,,null,,,,,,,,,
null,"<img src=""stim_listB/copy7.gif""style=""height:400px;""></stim_listB>",,html-keyboard-response,205,5467367,0.0-15.0-1.19,60330,List1B,white,woman,,,,null,,,,,,,,,
null,is copying,,html-keyboard-response,206,5469373,0.0-15.0-2.19,60330,List1B,white,woman,,,,null,,,,,,,,,
5200.9,,,survey-text,207,5474576,0.0-15.0-3.19,60330,List1B,white,woman,,,,,"{""Q0"":""jane is copying kate""}","<img src=""stim_listB/copy7.gif""style=""height:400px;""></stim_listB>",is copying,,,,,,
2281.5,"<img src='img/portrait_matrix_list1.jpg' style='width:900px;height:500px;''></img><p>If you have memorised all the portraits and names and are ready to start, press Continue.</p><p><strong>Please note: Your memory of these faces will be tested 4 times during this experiment.</strong></p>",0,html-button-response,208,5476859,0.0-16.0-0.0,60330,List1B,white,woman,,,,,,,,,,,,,
4026.1,"<img src=""portrait/WM2.jpg""style=""height:400px;""></img>",7,html-button-response,209,5481887,0.0-16.0-1.0,60330,List1B,white,woman,,TRUE,7,,,,,,,,,,
null,CORRECT,,html-keyboard-response,210,5483392,0.0-16.0-2.0-0.0,60330,List1B,white,woman,,,,null,,,,,,,,,
3241.7,"<img src=""portrait/BW2.jpg""style=""height:400px;""></img>",2,html-button-response,211,5486635,0.0-16.0-4.0,60330,List1B,white,woman,,TRUE,2,,,,,,,,,,
null,CORRECT,,html-keyboard-response,212,5488146,0.0-16.0-5.0-0.0,60330,List1B,white,woman,,,,null,,,,,,,,,
2144.6,"<img src=""portrait/BM2.jpg""style=""height:400px;""></img>",5,html-button-response,213,5490291,0.0-16.0-7.0,60330,List1B,white,woman,,TRUE,5,,,,,,,,,,
null,CORRECT,,html-keyboard-response,214,5491795,0.0-16.0-8.0-0.0,60330,List1B,white,woman,,,,null,,,,,,,,,
3939.7,"<img src=""portrait/WM1.jpg""style=""height:400px;""></img>",6,html-button-response,215,5495736,0.0-16.0-10.0,60330,List1B,white,woman,,TRUE,6,,,,,,,,,,
null,CORRECT,,html-keyboard-response,216,5497238,0.0-16.0-11.0-0.0,60330,List1B,white,woman,,,,null,,,,,,,,,
2197.8,"<img src=""portrait/BM1.jpg""style=""height:400px;""></img>",4,html-button-response,217,5499437,0.0-16.0-13.0,60330,List1B,white,woman,,TRUE,4,,,,,,,,,,
null,CORRECT,,html-keyboard-response,218,5500943,0.0-16.0-14.0-0.0,60330,List1B,white,woman,,,,null,,,,,,,,,
2520,"<img src=""portrait/WW1.jpg""style=""height:400px;""></img>",1,html-button-response,219,5503465,0.0-16.0-16.0,60330,List1B,white,woman,,TRUE,1,,,,,,,,,,
null,CORRECT,,html-keyboard-response,220,5504970,0.0-16.0-17.0-0.0,60330,List1B,white,woman,,,,null,,,,,,,,,
2160.9,"<img src=""portrait/WW2.jpg""style=""height:400px;""></img>",3,html-button-response,221,5507133,0.0-16.0-19.0,60330,List1B,white,woman,,TRUE,3,,,,,,,,,,
null,CORRECT,,html-keyboard-response,222,5508638,0.0-16.0-20.0-0.0,60330,List1B,white,woman,,,,null,,,,,,,,,
2261.7,"<img src=""portrait/BW1.jpg""style=""height:400px;""></img>",4,html-button-response,223,5510901,0.0-16.0-22.0,60330,List1B,white,woman,,TRUE,0,,,,,,,,,,
4891.4,"<img src=""portrait/BW1.jpg""style=""height:400px;""></img>",0,html-button-response,224,5516796,0.0-16.0-24.0-0.0,60330,List1B,white,woman,,FALSE,0,,,,,,,,,,
null,CORRECT,,html-keyboard-response,225,5518307,0.0-16.0-24.0-1.0-0.0,60330,List1B,white,woman,,,,null,,,,,,,,,
1694.4,<p>You got 7 out of 8 right first time. Press Continue.</p>,0,html-button-response,226,5520002,0.0-16.0-25.0,60330,List1B,white,woman,,,,,,,,,,,,,
2372.8,"As you did not score 100%, the memory game will repeat. Press Continue.",0,html-button-response,227,5523378,0.0-16.0-26.0-0.0,60330,List1B,white,woman,,,,,,,,,,,,,
1389.9,"<img src='img/portrait_matrix_list1.jpg' style='width:900px;height:500px;''></img><p>If you have memorised all the portraits and names and are ready to start, press Continue.</p><p><strong>Please note: Your memory of these faces will be tested 4 times during this experiment.</strong></p>",0,html-button-response,228,5525774,0.0-16.1-0.1,60330,List1B,white,woman,,,,,,,,,,,,,
2722,"<img src=""portrait/WM2.jpg""style=""height:400px;""></img>",7,html-button-response,229,5529498,0.0-16.1-1.1,60330,List1B,white,woman,,TRUE,7,,,,,,,,,,
null,CORRECT,,html-keyboard-response,230,5531006,0.0-16.1-2.1-0.1,60330,List1B,white,woman,,,,null,,,,,,,,,
2777.1,"<img src=""portrait/BW2.jpg""style=""height:400px;""></img>",2,html-button-response,231,5533784,0.0-16.1-4.1,60330,List1B,white,woman,,TRUE,2,,,,,,,,,,
null,CORRECT,,html-keyboard-response,232,5535293,0.0-16.1-5.1-0.1,60330,List1B,white,woman,,,,null,,,,,,,,,
2551.4,"<img src=""portrait/BM2.jpg""style=""height:400px;""></img>",5,html-button-response,233,5537846,0.0-16.1-7.1,60330,List1B,white,woman,,TRUE,5,,,,,,,,,,
null,CORRECT,,html-keyboard-response,234,5539352,0.0-16.1-8.1-0.1,60330,List1B,white,woman,,,,null,,,,,,,,,
3306.2,"<img src=""portrait/WM1.jpg""style=""height:400px;""></img>",6,html-button-response,235,5542660,0.0-16.1-10.1,60330,List1B,white,woman,,TRUE,6,,,,,,,,,,
null,CORRECT,,html-keyboard-response,236,5544167,0.0-16.1-11.1-0.1,60330,List1B,white,woman,,,,null,,,,,,,,,
2384.8,"<img src=""portrait/BM1.jpg""style=""height:400px;""></img>",4,html-button-response,237,5546553,0.0-16.1-13.1,60330,List1B,white,woman,,TRUE,4,,,,,,,,,,
null,CORRECT,,html-keyboard-response,238,5548056,0.0-16.1-14.1-0.1,60330,List1B,white,woman,,,,null,,,,,,,,,
3659,"<img src=""portrait/WW1.jpg""style=""height:400px;""></img>",1,html-button-response,239,5551717,0.0-16.1-16.1,60330,List1B,white,woman,,TRUE,1,,,,,,,,,,
null,CORRECT,,html-keyboard-response,240,5553226,0.0-16.1-17.1-0.1,60330,List1B,white,woman,,,,null,,,,,,,,,
2336.5,"<img src=""portrait/WW2.jpg""style=""height:400px;""></img>",3,html-button-response,241,5555564,0.0-16.1-19.1,60330,List1B,white,woman,,TRUE,3,,,,,,,,,,
null,CORRECT,,html-keyboard-response,242,5557069,0.0-16.1-20.1-0.1,60330,List1B,white,woman,,,,null,,,,,,,,,
2915.4,"<img src=""portrait/BW1.jpg""style=""height:400px;""></img>",0,html-button-response,243,5559985,0.0-16.1-22.1,60330,List1B,white,woman,,TRUE,0,,,,,,,,,,
null,CORRECT,,html-keyboard-response,244,5561490,0.0-16.1-23.1-0.1,60330,List1B,white,woman,,,,null,,,,,,,,,
1182,<p>You got 8 out of 8 right first time. Press Continue.</p>,0,html-button-response,245,5562673,0.0-16.1-25.1,60330,List1B,white,woman,,,,,,,,,,,,,
null,"<div style=""font-size:60px;"">+</div>",,html-keyboard-response,246,5564176,0.0-17.0-0.0,60330,List1B,white,woman,,,,null,,,,,,,,,
null,"<img src=""stim_listB/shout2.gif""style=""height:400px;""></stim_listB>",,html-keyboard-response,247,5566182,0.0-17.0-1.0,60330,List1B,white,woman,,,,null,,,,,,,,,
null,is being shouted at by,,html-keyboard-response,248,5568185,0.0-17.0-2.0,60330,List1B,white,woman,,,,null,,,,,,,,,
6300.1,,,survey-text,249,5574488,0.0-17.0-3.0,60330,List1B,white,woman,,,,,"{""Q0"":""kate is being shouted at by mike""}","<img src=""stim_listB/shout2.gif""style=""height:400px;""></stim_listB>",is being shouted at by,,,,,,
null,"<div style=""font-size:60px;"">+</div>",,html-keyboard-response,250,5574990,0.0-17.0-0.1,60330,List1B,white,woman,,,,null,,,,,,,,,
null,"<img src=""stim_listB/greet8.gif""style=""height:400px;""></stim_listB>",,html-keyboard-response,251,5576992,0.0-17.0-1.1,60330,List1B,white,woman,,,,null,,,,,,,,,
null,is being greeted by,,html-keyboard-response,252,5578998,0.0-17.0-2.1,60330,List1B,white,woman,,,,null,,,,,,,,,
4701.5,,,survey-text,253,5583702,0.0-17.0-3.1,60330,List1B,white,woman,,,,,"{""Q0"":""jane is being greeted by beth""}","<img src=""stim_listB/greet8.gif""style=""height:400px;""></stim_listB>",is being greeted by,,,,,,
null,"<div style=""font-size:60px;"">+</div>",,html-keyboard-response,254,5584207,0.0-17.0-0.2,60330,List1B,white,woman,,,,null,,,,,,,,,
null,"<img src=""stim_listB/kiss8.gif""style=""height:400px;""></stim_listB>",,html-keyboard-response,255,5586212,0.0-17.0-1.2,60330,List1B,white,woman,,,,null,,,,,,,,,
null,is being kissed by,,html-keyboard-response,256,5588214,0.0-17.0-2.2,60330,List1B,white,woman,,,,null,,,,,,,,,
6297,,,survey-text,257,5594514,0.0-17.0-3.2,60330,List1B,white,woman,,,,,"{""Q0"":""kate is being kissed by jane""}","<img src=""stim_listB/kiss8.gif""style=""height:400px;""></stim_listB>",is being kissed by,,,,,,
null,"<div style=""font-size:60px;"">+</div>",,html-keyboard-response,258,5595018,0.0-17.0-0.3,60330,List1B,white,woman,,,,null,,,,,,,,,
null,"<img src=""stim_listB/challenge4.gif""style=""height:400px;""></stim_listB>",,html-keyboard-response,259,5597022,0.0-17.0-1.3,60330,List1B,white,woman,,,,null,,,,,,,,,
null,is being challenged by,,html-keyboard-response,260,5599024,0.0-17.0-2.3,60330,List1B,white,woman,,,,null,,,,,,,,,
7366.6,,,survey-text,261,5606393,0.0-17.0-3.3,60330,List1B,white,woman,,,,,"{""Q0"":""jane is being challenged by luke ""}","<img src=""stim_listB/challenge4.gif""style=""height:400px;""></stim_listB>",is being challenged by,,,,,,
null,"<div style=""font-size:60px;"">+</div>",,html-keyboard-response,262,5606898,0.0-17.0-0.4,60330,List1B,white,woman,,,,null,,,,,,,,,
null,"<img src=""stim_listB/look1.gif""style=""height:400px;""></stim_listB>",,html-keyboard-response,263,5608900,0.0-17.0-1.4,60330,List1B,white,woman,,,,null,,,,,,,,,
null,is looking at,,html-keyboard-response,264,5610904,0.0-17.0-2.4,60330,List1B,white,woman,,,,null,,,,,,,,,
5106.3,,,survey-text,265,5616012,0.0-17.0-3.4,60330,List1B,white,woman,,,,,"{""Q0"":""beth is looking at fred""}","<img src=""stim_listB/look1.gif""style=""height:400px;""></stim_listB>",is looking at,,,,,,
null,"<div style=""font-size:60px;"">+</div>",,html-keyboard-response,266,5616513,0.0-17.0-0.5,60330,List1B,white,woman,,,,null,,,,,,,,,
null,"<img src=""stim_listB/seduce6.gif""style=""height:400px;""></stim_listB>",,html-keyboard-response,267,5618520,0.0-17.0-1.5,60330,List1B,white,woman,,,,null,,,,,,,,,
null,is being seduced by,,html-keyboard-response,268,5620523,0.0-17.0-2.5,60330,List1B,white,woman,,,,null,,,,,,,,,
5296.5,,,survey-text,269,5625822,0.0-17.0-3.5,60330,List1B,white,woman,,,,,"{""Q0"":""luke is being seduced by mike""}","<img src=""stim_listB/seduce6.gif""style=""height:400px;""></stim_listB>",is being seduced by,,,,,,
null,"<div style=""font-size:60px;"">+</div>",,html-keyboard-response,270,5626327,0.0-17.0-0.6,60330,List1B,white,woman,,,,null,,,,,,,,,
null,"<img src=""stim_listB/seduce5.gif""style=""height:400px;""></stim_listB>",,html-keyboard-response,271,5628331,0.0-17.0-1.6,60330,List1B,white,woman,,,,null,,,,,,,,,
null,is seducing,,html-keyboard-response,272,5630333,0.0-17.0-2.6,60330,List1B,white,woman,,,,null,,,,,,,,,
6016,,,survey-text,273,5636352,0.0-17.0-3.6,60330,List1B,white,woman,,,,,"{""Q0"":""fred is seducing dave""}","<img src=""stim_listB/seduce5.gif""style=""height:400px;""></stim_listB>",is seducing,,,,,,
null,"<div style=""font-size:60px;"">+</div>",,html-keyboard-response,274,5636855,0.0-17.0-0.7,60330,List1B,white,woman,,,,null,,,,,,,,,
null,"<img src=""stim_listB/look7.gif""style=""height:400px;""></stim_listB>",,html-keyboard-response,275,5638862,0.0-17.0-1.7,60330,List1B,white,woman,,,,null,,,,,,,,,
null,is looking at,,html-keyboard-response,276,5640865,0.0-17.0-2.7,60330,List1B,white,woman,,,,null,,,,,,,,,
339926.6,,,survey-text,277,5980804,0.0-17.0-3.7,60330,List1B,white,woman,,,,,"{""Q0"":""ruth is looking at beth ""}","<img src=""stim_listB/look7.gif""style=""height:400px;""></stim_listB>",is looking at,,,,,,
null,"<div style=""font-size:60px;"">+</div>",,html-keyboard-response,278,5981308,0.0-17.0-0.8,60330,List1B,white,woman,,,,null,,,,,,,,,
null,"<img src=""stim_listB/hug3.gif""style=""height:400px;""></stim_listB>",,html-keyboard-response,279,5983310,0.0-17.0-1.8,60330,List1B,white,woman,,,,null,,,,,,,,,
null,is hugging,,html-keyboard-response,280,5985311,0.0-17.0-2.8,60330,List1B,white,woman,,,,null,,,,,,,,,
4559.8,,,survey-text,281,5989873,0.0-17.0-3.8,60330,List1B,white,woman,,,,,"{""Q0"":""luke is hugging ruth""}","<img src=""stim_listB/hug3.gif""style=""height:400px;""></stim_listB>",is hugging,,,,,,
null,"<div style=""font-size:60px;"">+</div>",,html-keyboard-response,282,5990378,0.0-17.0-0.9,60330,List1B,white,woman,,,,null,,,,,,,,,
null,"<img src=""stim_listB/kiss2.gif""style=""height:400px;""></stim_listB>",,html-keyboard-response,283,5992385,0.0-17.0-1.9,60330,List1B,white,woman,,,,null,,,,,,,,,
null,is being kissed by,,html-keyboard-response,284,5994386,0.0-17.0-2.9,60330,List1B,white,woman,,,,null,,,,,,,,,
6408.7,,,survey-text,285,6000797,0.0-17.0-3.9,60330,List1B,white,woman,,,,,"{""Q0"":""kate is being kissed by mike""}","<img src=""stim_listB/kiss2.gif""style=""height:400px;""></stim_listB>",is being kissed by,,,,,,
null,"<div style=""font-size:60px;"">+</div>",,html-keyboard-response,286,6001299,0.0-17.0-0.10,60330,List1B,white,woman,,,,null,,,,,,,,,
null,"<img src=""stim_listB/touch3.gif""style=""height:400px;""></stim_listB>",,html-keyboard-response,287,6003305,0.0-17.0-1.10,60330,List1B,white,woman,,,,null,,,,,,,,,
null,is touching,,html-keyboard-response,288,6005310,0.0-17.0-2.10,60330,List1B,white,woman,,,,null,,,,,,,,,
4395.2,,,survey-text,289,6009708,0.0-17.0-3.10,60330,List1B,white,woman,,,,,"{""Q0"":""dave is touchung jane""}","<img src=""stim_listB/touch3.gif""style=""height:400px;""></stim_listB>",is touching,,,,,,
null,"<div style=""font-size:60px;"">+</div>",,html-keyboard-response,290,6010212,0.0-17.0-0.11,60330,List1B,white,woman,,,,null,,,,,,,,,
null,"<img src=""stim_listB/touch8.gif""style=""height:400px;""></stim_listB>",,html-keyboard-response,291,6012214,0.0-17.0-1.11,60330,List1B,white,woman,,,,null,,,,,,,,,
null,is being touched by,,html-keyboard-response,292,6014216,0.0-17.0-2.11,60330,List1B,white,woman,,,,null,,,,,,,,,
4804.1,,,survey-text,293,6019022,0.0-17.0-3.11,60330,List1B,white,woman,,,,,"{""Q0"":""ruth is being touched by beth""}","<img src=""stim_listB/touch8.gif""style=""height:400px;""></stim_listB>",is being touched by,,,,,,
null,"<div style=""font-size:60px;"">+</div>",,html-keyboard-response,294,6019525,0.0-17.0-0.12,60330,List1B,white,woman,,,,null,,,,,,,,,
null,"<img src=""stim_listB/challenge2.gif""style=""height:400px;""></stim_listB>",,html-keyboard-response,295,6021527,0.0-17.0-1.12,60330,List1B,white,woman,,,,null,,,,,,,,,
null,is being challenged by,,html-keyboard-response,296,6023529,0.0-17.0-2.12,60330,List1B,white,woman,,,,null,,,,,,,,,
1202852.4,,,survey-text,297,7226420,0.0-17.0-3.12,60330,List1B,white,woman,,,,,"{""Q0"":""kate is being challenged by fred""}","<img src=""stim_listB/challenge2.gif""style=""height:400px;""></stim_listB>",is being challenged by,,,,,,
null,"<div style=""font-size:60px;"">+</div>",,html-keyboard-response,298,7226932,0.0-17.0-0.13,60330,List1B,white,woman,,,,null,,,,,,,,,
null,"<img src=""stim_listB/hug4.gif""style=""height:400px;""></stim_listB>",,html-keyboard-response,299,7228938,0.0-17.0-1.13,60330,List1B,white,woman,,,,null,,,,,,,,,
null,is being hugged by,,html-keyboard-response,300,7230939,0.0-17.0-2.13,60330,List1B,white,woman,,,,null,,,,,,,,,
13254.2,,,survey-text,301,7244196,0.0-17.0-3.13,60330,List1B,white,woman,,,,,"{""Q0"":""dave is being hugged by ruth""}","<img src=""stim_listB/hug4.gif""style=""height:400px;""></stim_listB>",is being hugged by,,,,,,
null,"<div style=""font-size:60px;"">+</div>",,html-keyboard-response,302,7244699,0.0-17.0-0.14,60330,List1B,white,woman,,,,null,,,,,,,,,
null,"<img src=""stim_listB/seduce4.gif""style=""height:400px;""></stim_listB>",,html-keyboard-response,303,7246702,0.0-17.0-1.14,60330,List1B,white,woman,,,,null,,,,,,,,,
null,is being seduced by,,html-keyboard-response,304,7248705,0.0-17.0-2.14,60330,List1B,white,woman,,,,null,,,,,,,,,
7458.2,,,survey-text,305,7256166,0.0-17.0-3.14,60330,List1B,white,woman,,,,,"{""Q0"":""dave is being seduced by ruth""}","<img src=""stim_listB/seduce4.gif""style=""height:400px;""></stim_listB>",is being seduced by,,,,,,
null,"<div style=""font-size:60px;"">+</div>",,html-keyboard-response,306,7256669,0.0-17.0-0.15,60330,List1B,white,woman,,,,null,,,,,,,,,
null,"<img src=""stim_listB/seduce1.gif""style=""height:400px;""></stim_listB>",,html-keyboard-response,307,7258672,0.0-17.0-1.15,60330,List1B,white,woman,,,,null,,,,,,,,,
null,is seducing,,html-keyboard-response,308,7260675,0.0-17.0-2.15,60330,List1B,white,woman,,,,null,,,,,,,,,
4938.7,,,survey-text,309,7265616,0.0-17.0-3.15,60330,List1B,white,woman,,,,,"{""Q0"":""kate is seducing fred""}","<img src=""stim_listB/seduce1.gif""style=""height:400px;""></stim_listB>",is seducing,,,,,,
null,"<div style=""font-size:60px;"">+</div>",,html-keyboard-response,310,7266117,0.0-17.0-0.16,60330,List1B,white,woman,,,,null,,,,,,,,,
null,"<img src=""stim_listB/greet4.gif""style=""height:400px;""></stim_listB>",,html-keyboard-response,311,7268120,0.0-17.0-1.16,60330,List1B,white,woman,,,,null,,,,,,,,,
null,is being greeted by,,html-keyboard-response,312,7270124,0.0-17.0-2.16,60330,List1B,white,woman,,,,null,,,,,,,,,
9011.6,,,survey-text,313,7279139,0.0-17.0-3.16,60330,List1B,white,woman,,,,,"{""Q0"":""jane is being greeted by luke""}","<img src=""stim_listB/greet4.gif""style=""height:400px;""></stim_listB>",is being greeted by,,,,,,
null,"<div style=""font-size:60px;"">+</div>",,html-keyboard-response,314,7279640,0.0-17.0-0.17,60330,List1B,white,woman,,,,null,,,,,,,,,
null,"<img src=""stim_listB/shout7.gif""style=""height:400px;""></stim_listB>",,html-keyboard-response,315,7281642,0.0-17.0-1.17,60330,List1B,white,woman,,,,null,,,,,,,,,
null,is shouting at,,html-keyboard-response,316,7283646,0.0-17.0-2.17,60330,List1B,white,woman,,,,null,,,,,,,,,
5390.4,,,survey-text,317,7289038,0.0-17.0-3.17,60330,List1B,white,woman,,,,,"{""Q0"":""ruth is shouting at beth""}","<img src=""stim_listB/shout7.gif""style=""height:400px;""></stim_listB>",is shouting at,,,,,,
null,"<div style=""font-size:60px;"">+</div>",,html-keyboard-response,318,7289542,0.0-17.0-0.18,60330,List1B,white,woman,,,,null,,,,,,,,,
null,"<img src=""stim_listB/copy2.gif""style=""height:400px;""></stim_listB>",,html-keyboard-response,319,7291545,0.0-17.0-1.18,60330,List1B,white,woman,,,,null,,,,,,,,,
null,is being copied by,,html-keyboard-response,320,7293551,0.0-17.0-2.18,60330,List1B,white,woman,,,,null,,,,,,,,,
13034.8,,,survey-text,321,7306589,0.0-17.0-3.18,60330,List1B,white,woman,,,,,"{""Q0"":""fred is being copied by beth""}","<img src=""stim_listB/copy2.gif""style=""height:400px;""></stim_listB>",is being copied by,,,,,,
null,"<div style=""font-size:60px;"">+</div>",,html-keyboard-response,322,7307093,0.0-17.0-0.19,60330,List1B,white,woman,,,,null,,,,,,,,,
null,"<img src=""stim_listB/kiss1.gif""style=""height:400px;""></stim_listB>",,html-keyboard-response,323,7309098,0.0-17.0-1.19,60330,List1B,white,woman,,,,null,,,,,,,,,
null,is kissing,,html-keyboard-response,324,7311099,0.0-17.0-2.19,60330,List1B,white,woman,,,,null,,,,,,,,,
3811.9,,,survey-text,325,7314914,0.0-17.0-3.19,60330,List1B,white,woman,,,,,"{""Q0"":""fred is kissing beth""}","<img src=""stim_listB/kiss1.gif""style=""height:400px;""></stim_listB>",is kissing,,,,,,
3114.4,"<img src='img/portrait_matrix_list1.jpg' style='width:900px;height:500px;''></img><p>If you have memorised all the portraits and names and are ready to start, press Continue.</p><p><strong>Please note: Your memory of these faces will be tested 4 times during this experiment.</strong></p>",0,html-button-response,326,7318029,0.0-18.0-0.0,60330,List1B,white,woman,,,,,,,,,,,,,
2404.8,"<img src=""portrait/WM2.jpg""style=""height:400px;""></img>",7,html-button-response,327,7321438,0.0-18.0-1.0,60330,List1B,white,woman,,TRUE,7,,,,,,,,,,
null,CORRECT,,html-keyboard-response,328,7322940,0.0-18.0-2.0-0.0,60330,List1B,white,woman,,,,null,,,,,,,,,
2737.2,"<img src=""portrait/BM2.jpg""style=""height:400px;""></img>",5,html-button-response,329,7325678,0.0-18.0-4.0,60330,List1B,white,woman,,TRUE,5,,,,,,,,,,
null,CORRECT,,html-keyboard-response,330,7327187,0.0-18.0-5.0-0.0,60330,List1B,white,woman,,,,null,,,,,,,,,
4272.7,"<img src=""portrait/BW1.jpg""style=""height:400px;""></img>",0,html-button-response,331,7331461,0.0-18.0-7.0,60330,List1B,white,woman,,TRUE,0,,,,,,,,,,
null,CORRECT,,html-keyboard-response,332,7332971,0.0-18.0-8.0-0.0,60330,List1B,white,woman,,,,null,,,,,,,,,
3776.4,"<img src=""portrait/BM1.jpg""style=""height:400px;""></img>",4,html-button-response,333,7336749,0.0-18.0-10.0,60330,List1B,white,woman,,TRUE,4,,,,,,,,,,
null,CORRECT,,html-keyboard-response,334,7338251,0.0-18.0-11.0-0.0,60330,List1B,white,woman,,,,null,,,,,,,,,
5336.5,"<img src=""portrait/BW2.jpg""style=""height:400px;""></img>",2,html-button-response,335,7343589,0.0-18.0-13.0,60330,List1B,white,woman,,TRUE,2,,,,,,,,,,
null,CORRECT,,html-keyboard-response,336,7345091,0.0-18.0-14.0-0.0,60330,List1B,white,woman,,,,null,,,,,,,,,
2400.8,"<img src=""portrait/WW2.jpg""style=""height:400px;""></img>",3,html-button-response,337,7347493,0.0-18.0-16.0,60330,List1B,white,woman,,TRUE,3,,,,,,,,,,
null,CORRECT,,html-keyboard-response,338,7348996,0.0-18.0-17.0-0.0,60330,List1B,white,woman,,,,null,,,,,,,,,
2646.3,"<img src=""portrait/WW1.jpg""style=""height:400px;""></img>",1,html-button-response,339,7351644,0.0-18.0-19.0,60330,List1B,white,woman,,TRUE,1,,,,,,,,,,
null,CORRECT,,html-keyboard-response,340,7353152,0.0-18.0-20.0-0.0,60330,List1B,white,woman,,,,null,,,,,,,,,
3642.9,"<img src=""portrait/WM1.jpg""style=""height:400px;""></img>",6,html-button-response,341,7356796,0.0-18.0-22.0,60330,List1B,white,woman,,TRUE,6,,,,,,,,,,
null,CORRECT,,html-keyboard-response,342,7358302,0.0-18.0-23.0-0.0,60330,List1B,white,woman,,,,null,,,,,,,,,
25165.4,<p>You got 8 out of 8 right first time. Press Continue.</p>,0,html-button-response,343,7383470,0.0-18.0-25.0,60330,List1B,white,woman,,,,,,,,,,,,,
null,"<div style=""font-size:60px;"">+</div>",,html-keyboard-response,344,7384977,0.0-19.0-0.0,60330,List1B,white,woman,,,,null,,,,,,,,,
null,"<img src=""stim_listB/hug6.gif""style=""height:400px;""></stim_listB>",,html-keyboard-response,345,7386982,0.0-19.0-1.0,60330,List1B,white,woman,,,,null,,,,,,,,,
null,is being hugged by,,html-keyboard-response,346,7388987,0.0-19.0-2.0,60330,List1B,white,woman,,,,null,,,,,,,,,
9096.8,,,survey-text,347,7398085,0.0-19.0-3.0,60330,List1B,white,woman,,,,,"{""Q0"":""luke is seducing mike""}","<img src=""stim_listB/hug6.gif""style=""height:400px;""></stim_listB>",is being hugged by,,,,,,
null,"<div style=""font-size:60px;"">+</div>",,html-keyboard-response,348,7398589,0.0-19.0-0.1,60330,List1B,white,woman,,,,null,,,,,,,,,
null,"<img src=""stim_listB/touch5.gif""style=""height:400px;""></stim_listB>",,html-keyboard-response,349,7400594,0.0-19.0-1.1,60330,List1B,white,woman,,,,null,,,,,,,,,
null,is touching,,html-keyboard-response,350,7402596,0.0-19.0-2.1,60330,List1B,white,woman,,,,null,,,,,,,,,
6376.8,,,survey-text,351,7408975,0.0-19.0-3.1,60330,List1B,white,woman,,,,,"{""Q0"":""dave is touching luke""}","<img src=""stim_listB/touch5.gif""style=""height:400px;""></stim_listB>",is touching,,,,,,
null,"<div style=""font-size:60px;"">+</div>",,html-keyboard-response,352,7409476,0.0-19.0-0.2,60330,List1B,white,woman,,,,null,,,,,,,,,
null,"<img src=""stim_listB/hug7.gif""style=""height:400px;""></stim_listB>",,html-keyboard-response,353,7411479,0.0-19.0-1.2,60330,List1B,white,woman,,,,null,,,,,,,,,
null,is hugging,,html-keyboard-response,354,7413481,0.0-19.0-2.2,60330,List1B,white,woman,,,,null,,,,,,,,,
3523.5,,,survey-text,355,7417008,0.0-19.0-3.2,60330,List1B,white,woman,,,,,"{""Q0"":""ruth is hugging beth""}","<img src=""stim_listB/hug7.gif""style=""height:400px;""></stim_listB>",is hugging,,,,,,
null,"<div style=""font-size:60px;"">+</div>",,html-keyboard-response,356,7417510,0.0-19.0-0.3,60330,List1B,white,woman,,,,null,,,,,,,,,
null,"<img src=""stim_listB/look6.gif""style=""height:400px;""></stim_listB>",,html-keyboard-response,357,7419513,0.0-19.0-1.3,60330,List1B,white,woman,,,,null,,,,,,,,,
null,is being looked at by,,html-keyboard-response,358,7421514,0.0-19.0-2.3,60330,List1B,white,woman,,,,null,,,,,,,,,
5368.5,,,survey-text,359,7426885,0.0-19.0-3.3,60330,List1B,white,woman,,,,,"{""Q0"":""dave is being looked at by luke""}","<img src=""stim_listB/look6.gif""style=""height:400px;""></stim_listB>",is being looked at by,,,,,,
null,"<div style=""font-size:60px;"">+</div>",,html-keyboard-response,360,7427387,0.0-19.0-0.4,60330,List1B,white,woman,,,,null,,,,,,,,,
null,"<img src=""stim_listB/greet6.gif""style=""height:400px;""></stim_listB>",,html-keyboard-response,361,7429389,0.0-19.0-1.4,60330,List1B,white,woman,,,,null,,,,,,,,,
null,is being greeted by,,html-keyboard-response,362,7431393,0.0-19.0-2.4,60330,List1B,white,woman,,,,null,,,,,,,,,
15785,,,survey-text,363,7447180,0.0-19.0-3.4,60330,List1B,white,woman,,,,,"{""Q0"":""ruth is kissing mike""}","<img src=""stim_listB/greet6.gif""style=""height:400px;""></stim_listB>",is being greeted by,,,,,,
null,"<div style=""font-size:60px;"">+</div>",,html-keyboard-response,364,7447681,0.0-19.0-0.5,60330,List1B,white,woman,,,,null,,,,,,,,,
null,"<img src=""stim_listB/kiss6.gif""style=""height:400px;""></stim_listB>",,html-keyboard-response,365,7449685,0.0-19.0-1.5,60330,List1B,white,woman,,,,null,,,,,,,,,
null,is being kissed by,,html-keyboard-response,366,7451687,0.0-19.0-2.5,60330,List1B,white,woman,,,,null,,,,,,,,,
6143.1,,,survey-text,367,7457833,0.0-19.0-3.5,60330,List1B,white,woman,,,,,"{""Q0"":""dave is being kissed by mike""}","<img src=""stim_listB/kiss6.gif""style=""height:400px;""></stim_listB>",is being kissed by,,,,,,
null,"<div style=""font-size:60px;"">+</div>",,html-keyboard-response,368,7458334,0.0-19.0-0.6,60330,List1B,white,woman,,,,null,,,,,,,,,
null,"<img src=""stim_listB/greet1.gif""style=""height:400px;""></stim_listB>",,html-keyboard-response,369,7460340,0.0-19.0-1.6,60330,List1B,white,woman,,,,null,,,,,,,,,
null,is greeting,,html-keyboard-response,370,7462344,0.0-19.0-2.6,60330,List1B,white,woman,,,,null,,,,,,,,,
6387.9,,,survey-text,371,7468734,0.0-19.0-3.6,60330,List1B,white,woman,,,,,"{""Q0"":""mike is greeting beth""}","<img src=""stim_listB/greet1.gif""style=""height:400px;""></stim_listB>",is greeting,,,,,,
null,"<div style=""font-size:60px;"">+</div>",,html-keyboard-response,372,7469238,0.0-19.0-0.7,60330,List1B,white,woman,,,,null,,,,,,,,,
null,"<img src=""stim_listB/touch6.gif""style=""height:400px;""></stim_listB>",,html-keyboard-response,373,7471243,0.0-19.0-1.7,60330,List1B,white,woman,,,,null,,,,,,,,,
null,is being touched by,,html-keyboard-response,374,7473249,0.0-19.0-2.7,60330,List1B,white,woman,,,,null,,,,,,,,,
6879.8,,,survey-text,375,7480131,0.0-19.0-3.7,60330,List1B,white,woman,,,,,"{""Q0"":""ruth is being touched by mike""}","<img src=""stim_listB/touch6.gif""style=""height:400px;""></stim_listB>",is being touched by,,,,,,
null,"<div style=""font-size:60px;"">+</div>",,html-keyboard-response,376,7480632,0.0-19.0-0.8,60330,List1B,white,woman,,,,null,,,,,,,,,
null,"<img src=""stim_listB/greet5.gif""style=""height:400px;""></stim_listB>",,html-keyboard-response,377,7482637,0.0-19.0-1.8,60330,List1B,white,woman,,,,null,,,,,,,,,
null,is greeting,,html-keyboard-response,378,7484644,0.0-19.0-2.8,60330,List1B,white,woman,,,,null,,,,,,,,,
95653.7,,,survey-text,379,7580303,0.0-19.0-3.8,60330,List1B,white,woman,,,,,"{""Q0"":""beth is being copied by fred""}","<img src=""stim_listB/greet5.gif""style=""height:400px;""></stim_listB>",is greeting,,,,,,
null,"<div style=""font-size:60px;"">+</div>",,html-keyboard-response,380,7580805,0.0-19.0-0.9,60330,List1B,white,woman,,,,null,,,,,,,,,
null,"<img src=""stim_listB/challenge8.gif""style=""height:400px;""></stim_listB>",,html-keyboard-response,381,7582810,0.0-19.0-1.9,60330,List1B,white,woman,,,,null,,,,,,,,,
null,is being challenged by,,html-keyboard-response,382,7584812,0.0-19.0-2.9,60330,List1B,white,woman,,,,null,,,,,,,,,
5443.3,,,survey-text,383,7590258,0.0-19.0-3.9,60330,List1B,white,woman,,,,,"{""Q0"":""beth is being challenged by jane""}","<img src=""stim_listB/challenge8.gif""style=""height:400px;""></stim_listB>",is being challenged by,,,,,,
null,"<div style=""font-size:60px;"">+</div>",,html-keyboard-response,384,7590763,0.0-19.0-0.10,60330,List1B,white,woman,,,,null,,,,,,,,,
null,"<img src=""stim_listB/oppose7.gif""style=""height:400px;""></stim_listB>",,html-keyboard-response,385,7592768,0.0-19.0-1.10,60330,List1B,white,woman,,,,null,,,,,,,,,
null,is opposing,,html-keyboard-response,386,7594773,0.0-19.0-2.10,60330,List1B,white,woman,,,,null,,,,,,,,,
4366.7,,,survey-text,387,7599145,0.0-19.0-3.10,60330,List1B,white,woman,,,,,"{""Q0"":""jane is opposing kate""}","<img src=""stim_listB/oppose7.gif""style=""height:400px;""></stim_listB>",is opposing,,,,,,
null,"<div style=""font-size:60px;"">+</div>",,html-keyboard-response,388,7599646,0.0-19.0-0.11,60330,List1B,white,woman,,,,null,,,,,,,,,
null,"<img src=""stim_listB/copy3.gif""style=""height:400px;""></stim_listB>",,html-keyboard-response,389,7601652,0.0-19.0-1.11,60330,List1B,white,woman,,,,null,,,,,,,,,
null,is copying,,html-keyboard-response,390,7603655,0.0-19.0-2.11,60330,List1B,white,woman,,,,null,,,,,,,,,
4005,,,survey-text,391,7607663,0.0-19.0-3.11,60330,List1B,white,woman,,,,,"{""Q0"":""dave is copying ruth""}","<img src=""stim_listB/copy3.gif""style=""height:400px;""></stim_listB>",is copying,,,,,,
null,"<div style=""font-size:60px;"">+</div>",,html-keyboard-response,392,7608164,0.0-19.0-0.12,60330,List1B,white,woman,,,,null,,,,,,,,,
null,"<img src=""stim_listB/seduce2.gif""style=""height:400px;""></stim_listB>",,html-keyboard-response,393,7610169,0.0-19.0-1.12,60330,List1B,white,woman,,,,null,,,,,,,,,
null,is being seduced by,,html-keyboard-response,394,7612172,0.0-19.0-2.12,60330,List1B,white,woman,,,,null,,,,,,,,,
12385.5,,,survey-text,395,7624560,0.0-19.0-3.12,60330,List1B,white,woman,,,,,"{""Q0"":""beth is being seduced by dave""}","<img src=""stim_listB/seduce2.gif""style=""height:400px;""></stim_listB>",is being seduced by,,,,,,
null,"<div style=""font-size:60px;"">+</div>",,html-keyboard-response,396,7625065,0.0-19.0-0.13,60330,List1B,white,woman,,,,null,,,,,,,,,
null,"<img src=""stim_listB/oppose4.gif""style=""height:400px;""></stim_listB>",,html-keyboard-response,397,7627071,0.0-19.0-1.13,60330,List1B,white,woman,,,,null,,,,,,,,,
null,is being opposed by,,html-keyboard-response,398,7629073,0.0-19.0-2.13,60330,List1B,white,woman,,,,null,,,,,,,,,
4822,,,survey-text,399,7633898,0.0-19.0-3.13,60330,List1B,white,woman,,,,,"{""Q0"":""luke is being opposed by ruth""}","<img src=""stim_listB/oppose4.gif""style=""height:400px;""></stim_listB>",is being opposed by,,,,,,
null,"<div style=""font-size:60px;"">+</div>",,html-keyboard-response,400,7634399,0.0-19.0-0.14,60330,List1B,white,woman,,,,null,,,,,,,,,
null,"<img src=""stim_listB/shout3.gif""style=""height:400px;""></stim_listB>",,html-keyboard-response,401,7636404,0.0-19.0-1.14,60330,List1B,white,woman,,,,null,,,,,,,,,
null,is shouting at,,html-keyboard-response,402,7638405,0.0-19.0-2.14,60330,List1B,white,woman,,,,null,,,,,,,,,
3937.4,,,survey-text,403,7642345,0.0-19.0-3.14,60330,List1B,white,woman,,,,,"{""Q0"":""luke is shouting at ruth""}","<img src=""stim_listB/shout3.gif""style=""height:400px;""></stim_listB>",is shouting at,,,,,,
null,"<div style=""font-size:60px;"">+</div>",,html-keyboard-response,404,7642849,0.0-19.0-0.15,60330,List1B,white,woman,,,,null,,,,,,,,,
null,"<img src=""stim_listB/hug5.gif""style=""height:400px;""></stim_listB>",,html-keyboard-response,405,7644856,0.0-19.0-1.15,60330,List1B,white,woman,,,,null,,,,,,,,,
null,is hugging,,html-keyboard-response,406,7646858,0.0-19.0-2.15,60330,List1B,white,woman,,,,null,,,,,,,,,
5285.2,,,survey-text,407,7652145,0.0-19.0-3.15,60330,List1B,white,woman,,,,,"{""Q0"":""fred is hugging luke""}","<img src=""stim_listB/hug5.gif""style=""height:400px;""></stim_listB>",is hugging,,,,,,
null,"<div style=""font-size:60px;"">+</div>",,html-keyboard-response,408,7652648,0.0-19.0-0.16,60330,List1B,white,woman,,,,null,,,,,,,,,
null,"<img src=""stim_listB/look5.gif""style=""height:400px;""></stim_listB>",,html-keyboard-response,409,7654658,0.0-19.0-1.16,60330,List1B,white,woman,,,,null,,,,,,,,,
null,is looking at,,html-keyboard-response,410,7656660,0.0-19.0-2.16,60330,List1B,white,woman,,,,null,,,,,,,,,
13122.5,,,survey-text,411,7669785,0.0-19.0-3.16,60330,List1B,white,woman,,,,,"{""Q0"":""mike is kissing jane""}","<img src=""stim_listB/look5.gif""style=""height:400px;""></stim_listB>",is looking at,,,,,,
null,"<div style=""font-size:60px;"">+</div>",,html-keyboard-response,412,7670287,0.0-19.0-0.17,60330,List1B,white,woman,,,,null,,,,,,,,,
null,"<img src=""stim_listB/seduce8.gif""style=""height:400px;""></stim_listB>",,html-keyboard-response,413,7672293,0.0-19.0-1.17,60330,List1B,white,woman,,,,null,,,,,,,,,
null,is being seduced by,,html-keyboard-response,414,7674298,0.0-19.0-2.17,60330,List1B,white,woman,,,,null,,,,,,,,,
7433,,,survey-text,415,7681733,0.0-19.0-3.17,60330,List1B,white,woman,,,,,"{""Q0"":""ruth is being seduced by kate""}","<img src=""stim_listB/seduce8.gif""style=""height:400px;""></stim_listB>",is being seduced by,,,,,,
null,"<div style=""font-size:60px;"">+</div>",,html-keyboard-response,416,7682237,0.0-19.0-0.18,60330,List1B,white,woman,,,,null,,,,,,,,,
null,"<img src=""stim_listB/touch7.gif""style=""height:400px;""></stim_listB>",,html-keyboard-response,417,7684240,0.0-19.0-1.18,60330,List1B,white,woman,,,,null,,,,,,,,,
null,is touching,,html-keyboard-response,418,7686243,0.0-19.0-2.18,60330,List1B,white,woman,,,,null,,,,,,,,,
3980.5,,,survey-text,419,7690226,0.0-19.0-3.18,60330,List1B,white,woman,,,,,"{""Q0"":""jane is touching kate""}","<img src=""stim_listB/touch7.gif""style=""height:400px;""></stim_listB>",is touching,,,,,,
null,"<div style=""font-size:60px;"">+</div>",,html-keyboard-response,420,7690727,0.0-19.0-0.19,60330,List1B,white,woman,,,,null,,,,,,,,,
null,"<img src=""stim_listB/copy8.gif""style=""height:400px;""></stim_listB>",,html-keyboard-response,421,7692732,0.0-19.0-1.19,60330,List1B,white,woman,,,,null,,,,,,,,,
null,is being copied by,,html-keyboard-response,422,7694734,0.0-19.0-2.19,60330,List1B,white,woman,,,,null,,,,,,,,,
7209.5,,,survey-text,423,7701948,0.0-19.0-3.19,60330,List1B,white,woman,,,,,"{""Q0"":""beth is being copied by jane""}","<img src=""stim_listB/copy8.gif""style=""height:400px;""></stim_listB>",is being copied by,,,,,,
2574.5,<p>Thank you for completing that task.</p><p>The final part of this session is a questionnaire that will take about 4 minutes.</p><p>Press Continue.</p>,0,html-button-response,424,7704524,0.0-20.0,60330,List1B,white,woman,,,,,,,,,,,,,
18352.7,,,survey-text,425,7723887,0.0-21.0,60330,List1B,white,woman,,,,,"{""Q0"":""23"",""Q1"":""english"",""Q2"":""english"",""Q3"":""usa"",""Q4"":""american"",""Q5"":""white"",""Q6"":""female""}",,,demographics,,,,,
1379.4,<p>Have you lived in the USA for the last 5 years or more?</p>,0,html-button-response,426,7725268,0.0-22.0,60330,List1B,white,woman,,,,,,,,fiveyears,,,,,
861.5,<p>Move the slider to show the extent to which you agree with the following statements.</p>,0,html-button-response,427,7727136,0.0-23.0,60330,List1B,white,woman,,,,,,,,,,,,,
6656.6,,,html-slider-response,428,7734798,0.0-24.0-0.0-0.0,60330,List1B,white,woman,,,,,,,,survey_race,57,,,I am similar to the average person of my race.,similar
7929.2,,,html-slider-response,429,7742729,0.0-24.0-0.0-0.1,60330,List1B,white,woman,,,,,,,,survey_race,93,,,I have a lot in common with people of a similar age to me.,filler
5004,,,html-slider-response,430,7747735,0.0-24.0-0.0-0.2,60330,List1B,white,woman,,,,,,,,survey_race,73,,,Being my race gives me a good feeling.,feeling
3947,,,html-slider-response,431,7751684,0.0-24.0-0.0-0.3,60330,List1B,white,woman,,,,,,,,survey_race,49,,,People of my race have a lot in common with each other.,common
3823.1,,,html-slider-response,432,7755509,0.0-24.0-0.0-0.4,60330,List1B,white,woman,,,,,,,,survey_race,84,,,I am glad to be my race.,glad
3856.5,,,html-slider-response,433,7759367,0.0-24.0-0.0-0.5,60330,List1B,white,woman,,,,,,,,survey_race,80,,,"The older I get, the wiser I feel.",filler
4115.6,,,html-slider-response,434,7763484,0.0-24.0-0.0-0.6,60330,List1B,white,woman,,,,,,,,survey_race,47,,,I have a lot in common with the average person of my race.,average
3576.6,,,html-slider-response,435,7767063,0.0-24.0-0.0-0.7,60330,List1B,white,woman,,,,,,,,survey_race,38,,,I enjoy being in large groups.,filler
2923.5,,,html-slider-response,436,7769988,0.0-24.0-0.0-0.8,60330,List1B,white,woman,,,,,,,,survey_race,91,,,It is pleasant to be my race.,pleasant
2765.7,,,html-slider-response,437,7772755,0.0-24.0-0.0-0.9,60330,List1B,white,woman,,,,,,,,survey_race,85,,,I feel solidarity with people the same age as me.,filler
3241.4,,,html-slider-response,438,7775998,0.0-24.0-0.0-0.10,60330,List1B,white,woman,,,,,,,,survey_race,100,,,I think that my race has a lot to be proud of.,proud
1851.7,,,html-slider-response,439,7777851,0.0-24.0-0.0-0.11,60330,List1B,white,woman,,,,,,,,survey_race,100,,,I feel a bond with my race.,bond
3024.4,,,html-slider-response,440,7780877,0.0-24.0-0.0-0.12,60330,List1B,white,woman,,,,,,,,survey_race,95,,,People my age have a lot in common with each other.,filler
4239.5,,,html-slider-response,441,7785119,0.0-24.0-0.0-0.13,60330,List1B,white,woman,,,,,,,,survey_race,89,,,I often think about the fact that I am my age.,filler
2203,,,html-slider-response,442,7787324,0.0-24.0-0.0-0.14,60330,List1B,white,woman,,,,,,,,survey_race,100,,,I feel a bond with people the same age as me.,filler
2879,,,html-slider-response,443,7790204,0.0-24.0-0.0-0.15,60330,List1B,white,woman,,,,,,,,survey_race,32,,,People of my race are very similar to each other.,verysimilar
3057.9,,,html-slider-response,444,7793264,0.0-24.0-0.0-0.16,60330,List1B,white,woman,,,,,,,,survey_race,100,,,I am glad to be my age.,filler
2574.9,,,html-slider-response,445,7795840,0.0-24.0-0.0-0.17,60330,List1B,white,woman,,,,,,,,survey_race,24,,,I consider myself an introvert.,filler
5050.2,,,html-slider-response,446,7800891,0.0-24.0-0.0-0.18,60330,List1B,white,woman,,,,,,,,survey_race,81,,,I feel committed to my race.,committed
4790.7,,,html-slider-response,447,7805684,0.0-24.0-0.0-0.19,60330,List1B,white,woman,,,,,,,,survey_race,34,,,Being my race is an important part of how I see myself.,important
2574.2,,,html-slider-response,448,7808259,0.0-24.0-0.0-0.20,60330,List1B,white,woman,,,,,,,,survey_race,100,,,Being my age gives me a good feeling.,filler
2878.6,,,html-slider-response,449,7811140,0.0-24.0-0.0-0.21,60330,List1B,white,woman,,,,,,,,survey_race,58,,,I consider myself an extrovert.,filler
2293.8,,,html-slider-response,450,7813435,0.0-24.0-0.0-0.22,60330,List1B,white,woman,,,,,,,,survey_race,90,,,I feel solidarity with my race.,solidarity
9426.4,,,html-slider-response,451,7822863,0.0-24.0-0.0-0.23,60330,List1B,white,woman,,,,,,,,survey_race,84,,,I am glad to be the age I am.,filler
3349.9,,,html-slider-response,452,7826215,0.0-24.0-0.0-0.24,60330,List1B,white,woman,,,,,,,,survey_race,12,,,Getting older does not worry me.,filler
3362.9,,,html-slider-response,453,7829579,0.0-24.0-0.0-0.25,60330,List1B,white,woman,,,,,,,,survey_race,37,,,I often think about the fact that I am my race.,often
3328.5,,,html-slider-response,454,7832909,0.0-24.0-0.0-0.26,60330,List1B,white,woman,,,,,,,,survey_race,24,,,My age is not an important part of who I am.,filler
4723.2,,,html-slider-response,455,7837634,0.0-24.0-0.0-0.27,60330,List1B,white,woman,,,,,,,,survey_race,35,,,The fact that I am my race is an important part of my identity.,identity
2923,,,html-slider-response,456,7840559,0.0-24.0-1.0-0.0,60330,List1B,white,woman,,,,,,,,survey_gender,81,,,I often think about my actions.,filler
3891.3,,,html-slider-response,457,7844452,0.0-24.0-1.0-0.1,60330,List1B,white,woman,,,,,,,,survey_gender,79,,,It is not always easy for people to know what I am thinking.,filler
2203.5,,,html-slider-response,458,7846656,0.0-24.0-1.0-0.2,60330,List1B,white,woman,,,,,,,,survey_gender,100,,,I have a lot in common with my friends.,filler
2114,,,html-slider-response,459,7848772,0.0-24.0-1.0-0.3,60330,List1B,white,woman,,,,,,,,survey_gender,100,,,It is pleasant to be my gender.,pleasant
2056.4,,,html-slider-response,460,7850830,0.0-24.0-1.0-0.4,60330,List1B,white,woman,,,,,,,,survey_gender,94,,,Most of the friends in my life are very similar to me.,filler
3790.2,,,html-slider-response,461,7854622,0.0-24.0-1.0-0.5,60330,List1B,white,woman,,,,,,,,survey_gender,92,,,Being around my friends gives me a good feeling.,filler
6454.9,,,html-slider-response,462,7861079,0.0-24.0-1.0-0.6,60330,List1B,white,woman,,,,,,,,survey_gender,13,,,Family is not more important to me than friendship.,filler
2428,,,html-slider-response,463,7863509,0.0-24.0-1.0-0.7,60330,List1B,white,woman,,,,,,,,survey_gender,100,,,I would say I am an animal person.,filler
1957.2,,,html-slider-response,464,7865467,0.0-24.0-1.0-0.8,60330,List1B,white,woman,,,,,,,,survey_gender,100,,,I feel a bond with my friends.,filler
1978,,,html-slider-response,465,7867446,0.0-24.0-1.0-0.9,60330,List1B,white,woman,,,,,,,,survey_gender,100,,,My friends have a lot in common with each other.,filler
2530.3,,,html-slider-response,466,7869978,0.0-24.0-1.0-0.10,60330,List1B,white,woman,,,,,,,,survey_gender,76,,,Being my gender is an important part of how I see myself.,important
1787.2,,,html-slider-response,467,7871767,0.0-24.0-1.0-0.11,60330,List1B,white,woman,,,,,,,,survey_gender,100,,,I feel a bond with my gender.,bond
1821.2,,,html-slider-response,468,7873589,0.0-24.0-1.0-0.12,60330,List1B,white,woman,,,,,,,,survey_gender,100,,,My friends understand me.,filler
2057.6,,,html-slider-response,469,7875648,0.0-24.0-1.0-0.13,60330,List1B,white,woman,,,,,,,,survey_gender,95,,,Being my gender gives me a good feeling.,feeling
2113.1,,,html-slider-response,470,7877763,0.0-24.0-1.0-0.14,60330,List1B,white,woman,,,,,,,,survey_gender,73,,,I consider myself a highly empathetic person.,filler
1776.2,,,html-slider-response,471,7879540,0.0-24.0-1.0-0.15,60330,List1B,white,woman,,,,,,,,survey_gender,99,,,I feel solidarity with my friends.,filler
2585.9,,,html-slider-response,472,7882128,0.0-24.0-1.0-0.16,60330,List1B,white,woman,,,,,,,,survey_gender,100,,,I am glad to have the friends that I have.,filler
1888.5,,,html-slider-response,473,7884018,0.0-24.0-1.0-0.17,60330,List1B,white,woman,,,,,,,,survey_gender,76,,,I feel solidarity with my gender.,solidarity
3677.2,,,html-slider-response,474,7887697,0.0-24.0-1.0-0.18,60330,List1B,white,woman,,,,,,,,survey_gender,83,,,I often think about the fact that I am my gender.,often
1921.6,,,html-slider-response,475,7889621,0.0-24.0-1.0-0.19,60330,List1B,white,woman,,,,,,,,survey_gender,100,,,I feel committed to my gender.,committed
2889.8,,,html-slider-response,476,7892511,0.0-24.0-1.0-0.20,60330,List1B,white,woman,,,,,,,,survey_gender,89,,,The fact that I am my gender is an important part of my identity.,identity
2563.3,,,html-slider-response,477,7895076,0.0-24.0-1.0-0.21,60330,List1B,white,woman,,,,,,,,survey_gender,19,,,Routine is not important to me.,filler
2339.1,,,html-slider-response,478,7897416,0.0-24.0-1.0-0.22,60330,List1B,white,woman,,,,,,,,survey_gender,100,,,People of my gender are very similar to each other.,verysimilar
1709.2,,,html-slider-response,479,7899127,0.0-24.0-1.0-0.23,60330,List1B,white,woman,,,,,,,,survey_gender,92,,,I have a lot in common with the average person of my gender.,average
3013.5,,,html-slider-response,480,7902142,0.0-24.0-1.0-0.24,60330,List1B,white,woman,,,,,,,,survey_gender,82,,,People of my gender have a lot in common with each other.,common
2462.9,,,html-slider-response,481,7904606,0.0-24.0-1.0-0.25,60330,List1B,white,woman,,,,,,,,survey_gender,97,,,I think that my gender has a lot to be proud of.,proud
3137.1,,,html-slider-response,482,7907745,0.0-24.0-1.0-0.26,60330,List1B,white,woman,,,,,,,,survey_gender,42,,,I am similar to the average person of my gender.,similar
1820.6,,,html-slider-response,483,7909567,0.0-24.0-1.0-0.27,60330,List1B,white,woman,,,,,,,,survey_gender,100,,,I am glad to be my gender.,glad
49630.9,,,survey-text,484,7959201,0.0-25.0,60330,List1B,white,woman,,,,,"{""Q0"":""ccc""}",,,worker_id,,,,,
1582.4,,,external-html,485,7961283,0.0-26.0,60330,List1B,white,woman,debrief.html,,,,,,,,,,,,
