"rt","stimulus","button_pressed","trial_type","trial_index","time_elapsed","internal_node_id","subject","list","ppt_race","ppt_gender","url","first_guess","correct","key_press","responses","image_type","phrase_type","test_part","response","stimulus1","stimulus2","question_type","survey_item"
"1204.3999999761581","Welcome to the experiment. Press Continue to begin.","0","html-button-response","0","1208","0.0-0.0","6074","List1B","black","man","","","","","","","","","","","","",""
"3282","","","external-html","1","5503","0.0-1.0","6074","List1B","black","man","consent.html","","","","","","","","","","","",""
"2261","<p>On the next page, you will see portraits of 8 people and their names.</p><p>Your first task is to take a few minutes to memorise the names of these people.</p><p>You will have to recall their names during the rest of the experiment, so it is</p><p>essential that you try to memorise these people and their names as best as you can.</p><br><p><strong>You will then be tested on your memory of these names and portraits.</strong></p><br><p>The experiment will start after you have completed this memory test.</p><br><p>Ready?</p>","0","html-button-response","2","7766","0.0-2.0","6074","List1B","black","man","","","","","","","","","","","","",""
"3385.3000000715256","<img src='img/portrait_matrix_list1.jpg' style='width:900px;height:500px;''></img><p>If you have memorised all the portraits and names and are ready to start, press Continue.</p><p><strong>Please note: Your memory of these faces will be tested 4 times during this experiment.</strong></p>","0","html-button-response","3","12153","0.0-3.0-0.0","6074","List1B","black","man","","","","","","","","","","","","",""
"2645.5","<img src=""portrait/BW2.jpg""style=""height:400px;""></img>","2","html-button-response","4","15801","0.0-3.0-1.0","6074","List1B","black","man","","true","2","","","","","","","","","",""
"null","CORRECT","","html-keyboard-response","5","17309","0.0-3.0-2.0-0.0","6074","List1B","black","man","","","","null","","","","","","","","",""
"2741.2000000476837","<img src=""portrait/WM1.jpg""style=""height:400px;""></img>","6","html-button-response","6","20052","0.0-3.0-4.0","6074","List1B","black","man","","true","6","","","","","","","","","",""
"null","CORRECT","","html-keyboard-response","7","21559","0.0-3.0-5.0-0.0","6074","List1B","black","man","","","","null","","","","","","","","",""
"2213.2999999523163","<img src=""portrait/BW1.jpg""style=""height:400px;""></img>","0","html-button-response","8","23774","0.0-3.0-7.0","6074","List1B","black","man","","true","0","","","","","","","","","",""
"null","CORRECT","","html-keyboard-response","9","25280","0.0-3.0-8.0-0.0","6074","List1B","black","man","","","","null","","","","","","","","",""
"2486.899999976158","<img src=""portrait/WW1.jpg""style=""height:400px;""></img>","1","html-button-response","10","27768","0.0-3.0-10.0","6074","List1B","black","man","","true","1","","","","","","","","","",""
"null","CORRECT","","html-keyboard-response","11","29275","0.0-3.0-11.0-0.0","6074","List1B","black","man","","","","null","","","","","","","","",""
"1923.5","<img src=""portrait/WW2.jpg""style=""height:400px;""></img>","3","html-button-response","12","31200","0.0-3.0-13.0","6074","List1B","black","man","","true","3","","","","","","","","","",""
"null","CORRECT","","html-keyboard-response","13","32707","0.0-3.0-14.0-0.0","6074","List1B","black","man","","","","null","","","","","","","","",""
"2360.600000023842","<img src=""portrait/BM2.jpg""style=""height:400px;""></img>","5","html-button-response","14","35069","0.0-3.0-16.0","6074","List1B","black","man","","true","5","","","","","","","","","",""
"null","CORRECT","","html-keyboard-response","15","36577","0.0-3.0-17.0-0.0","6074","List1B","black","man","","","","null","","","","","","","","",""
"2487.7999999523163","<img src=""portrait/BM1.jpg""style=""height:400px;""></img>","4","html-button-response","16","39066","0.0-3.0-19.0","6074","List1B","black","man","","true","4","","","","","","","","","",""
"null","CORRECT","","html-keyboard-response","17","40572","0.0-3.0-20.0-0.0","6074","List1B","black","man","","","","null","","","","","","","","",""
"1922.8999999761581","<img src=""portrait/WM2.jpg""style=""height:400px;""></img>","7","html-button-response","18","42497","0.0-3.0-22.0","6074","List1B","black","man","","true","7","","","","","","","","","",""
"null","CORRECT","","html-keyboard-response","19","43998","0.0-3.0-23.0-0.0","6074","List1B","black","man","","","","null","","","","","","","","",""
"992.2999999523163","<p>You got 8 out of 8 right first time. Press Continue.</p>","0","html-button-response","20","44992","0.0-3.0-25.0","6074","List1B","black","man","","","","","","","","","","","","",""
"14920.799999952316","<p>In this experiment, you will view photographs of the people from the memory game interacting.</p><p>By using the <strong>exact</strong> phrase given <i>after</i> the photograph appears and recalling the correct names of the people in the photographs, form a sentence describing the interaction. You do not need to capitalise names.</p><p>Type your answer in the space provided. Please complete every sentence before moving onto the next trial.</p><p>You will only have a few seconds to memorise each given photograph and phrase before you can respond, so try your best to focus.</p><p>An example is given below. Press 'Continue' when you are ready.</p><img src='img/speaking_example.jpg' style='width:800px;height:460px;''></img>","0","html-button-response","21","60917","0.0-4.0","6074","List1B","black","man","","","","","","","","","","","","",""
"1437.6000000238419","<p>Before the experiment starts, you will watch two example trials. Press 'Continue'.</p>","0","html-button-response","22","63356","0.0-5.0","6074","List1B","black","man","","","","","","","","","","","","",""
"null","<img src='img/play_eg.gif' style='height:400px;''></img>","","html-keyboard-response","23","66365","0.0-6.0","6074","List1B","black","man","","","","null","","","","","","","","",""
"null","<p>is playing with</p>","","html-keyboard-response","24","68368","0.0-7.0","6074","List1B","black","man","","","","null","","","","","","","","",""
"1030.8999999761581","<p><b>Answer:</b> kate is playing with beth</p>","0","html-button-response","25","69400","0.0-8.0","6074","List1B","black","man","","","","","","","","","","","","",""
"null","<img src='img/dance_eg.gif' style='height:400px;''></img>","","html-keyboard-response","26","72407","0.0-9.0","6074","List1B","black","man","","","","null","","","","","","","","",""
"null","<p>is being entertained by</p>","","html-keyboard-response","27","74410","0.0-10.0","6074","List1B","black","man","","","","null","","","","","","","","",""
"2940.399999976158","<p><b>Answer:</b> luke is being entertained by dave</p>","0","html-button-response","28","77351","0.0-11.0","6074","List1B","black","man","","","","","","","","","","","","",""
"2844.399999976158","<p>Ready to start the experiment?</p><br><p><strong>Remember to describe the picture using a full sentence,</strong></p><p><strong>that combines the names of the people with the <i>exact</i> phrase given.</strong></p><p><strong>To receive full payment you must do this correctly.</strong></p><p><strong> You do not need to capitalise names or use punctuation.</strong></p><br><p>Press 'Continue' to begin.</p>","0","html-button-response","29","81197","0.0-12.0","6074","List1B","black","man","","","","","","","","","","","","",""
"null","<div style=""font-size:60px;"">+</div>","","html-keyboard-response","30","82698","0.0-13.0-0.0","6074","List1B","black","man","","","","null","","","","","","","","",""
"null","<img src=""stim_listB/shout7.gif""style=""height:400px;""></stim_listB>","","html-keyboard-response","31","84702","0.0-13.0-1.0","6074","List1B","black","man","","","","null","","","","","","","","",""
"null","is shouting at","","html-keyboard-response","32","86703","0.0-13.0-2.0","6074","List1B","black","man","","","","null","","","","","","","","",""
"7291.700000047684","","","survey-text","33","93999","0.0-13.0-3.0","6074","List1B","black","man","","","","","{""Q0"":""ruth is shouting at beth""}","<img src=""stim_listB/shout7.gif""style=""height:400px;""></stim_listB>","is shouting at","","","","","",""
"null","<div style=""font-size:60px;"">+</div>","","html-keyboard-response","34","94501","0.0-13.0-0.1","6074","List1B","black","man","","","","null","","","","","","","","",""
"null","<img src=""stim_listB/kiss4.gif""style=""height:400px;""></stim_listB>","","html-keyboard-response","35","96507","0.0-13.0-1.1","6074","List1B","black","man","","","","null","","","","","","","","",""
"null","is being kissed by","","html-keyboard-response","36","98511","0.0-13.0-2.1","6074","List1B","black","man","","","","null","","","","","","","","",""
"4697.600000023842","","","survey-text","37","103212","0.0-13.0-3.1","6074","List1B","black","man","","","","","{""Q0"":""dave is being kissed by jane""}","<img src=""stim_listB/kiss4.gif""style=""height:400px;""></stim_listB>","is being kissed by","","","","","",""
"null","<div style=""font-size:60px;"">+</div>","","html-keyboard-response","38","103715","0.0-13.0-0.2","6074","List1B","black","man","","","","null","","","","","","","","",""
"null","<img src=""stim_listB/touch1.gif""style=""height:400px;""></stim_listB>","","html-keyboard-response","39","105720","0.0-13.0-1.2","6074","List1B","black","man","","","","null","","","","","","","","",""
"null","is touching","","html-keyboard-response","40","107725","0.0-13.0-2.2","6074","List1B","black","man","","","","null","","","","","","","","",""
"2564.399999976158","","","survey-text","41","110292","0.0-13.0-3.2","6074","List1B","black","man","","","","","{""Q0"":""mike is touching kate""}","<img src=""stim_listB/touch1.gif""style=""height:400px;""></stim_listB>","is touching","","","","","",""
"null","<div style=""font-size:60px;"">+</div>","","html-keyboard-response","42","110795","0.0-13.0-0.3","6074","List1B","black","man","","","","null","","","","","","","","",""
"null","<img src=""stim_listB/hug6.gif""style=""height:400px;""></stim_listB>","","html-keyboard-response","43","112799","0.0-13.0-1.3","6074","List1B","black","man","","","","null","","","","","","","","",""
"null","is being hugged by","","html-keyboard-response","44","114803","0.0-13.0-2.3","6074","List1B","black","man","","","","null","","","","","","","","",""
"3886.600000023842","","","survey-text","45","118693","0.0-13.0-3.3","6074","List1B","black","man","","","","","{""Q0"":""mike is being hugged by dave""}","<img src=""stim_listB/hug6.gif""style=""height:400px;""></stim_listB>","is being hugged by","","","","","",""
"null","<div style=""font-size:60px;"">+</div>","","html-keyboard-response","46","119195","0.0-13.0-0.4","6074","List1B","black","man","","","","null","","","","","","","","",""
"null","<img src=""stim_listB/hug2.gif""style=""height:400px;""></stim_listB>","","html-keyboard-response","47","121199","0.0-13.0-1.4","6074","List1B","black","man","","","","null","","","","","","","","",""
"null","is being hugged by","","html-keyboard-response","48","123203","0.0-13.0-2.4","6074","List1B","black","man","","","","null","","","","","","","","",""
"3490.5999999046326","","","survey-text","49","126697","0.0-13.0-3.4","6074","List1B","black","man","","","","","{""Q0"":""mike is being hugged by kate""}","<img src=""stim_listB/hug2.gif""style=""height:400px;""></stim_listB>","is being hugged by","","","","","",""
"null","<div style=""font-size:60px;"">+</div>","","html-keyboard-response","50","127200","0.0-13.0-0.5","6074","List1B","black","man","","","","null","","","","","","","","",""
"null","<img src=""stim_listB/look6.gif""style=""height:400px;""></stim_listB>","","html-keyboard-response","51","129204","0.0-13.0-1.5","6074","List1B","black","man","","","","null","","","","","","","","",""
"null","is being looked at by","","html-keyboard-response","52","131208","0.0-13.0-2.5","6074","List1B","black","man","","","","null","","","","","","","","",""
"4107.600000023842","","","survey-text","53","135319","0.0-13.0-3.5","6074","List1B","black","man","","","","","{""Q0"":""mike is being looked at by dave""}","<img src=""stim_listB/look6.gif""style=""height:400px;""></stim_listB>","is being looked at by","","","","","",""
"null","<div style=""font-size:60px;"">+</div>","","html-keyboard-response","54","135821","0.0-13.0-0.6","6074","List1B","black","man","","","","null","","","","","","","","",""
"null","<img src=""stim_listB/look3.gif""style=""height:400px;""></stim_listB>","","html-keyboard-response","55","137825","0.0-13.0-1.6","6074","List1B","black","man","","","","null","","","","","","","","",""
"null","is looking at","","html-keyboard-response","56","139830","0.0-13.0-2.6","6074","List1B","black","man","","","","null","","","","","","","","",""
"5809","","","survey-text","57","145642","0.0-13.0-3.6","6074","List1B","black","man","","","","","{""Q0"":""luke is looking at ruth""}","<img src=""stim_listB/look3.gif""style=""height:400px;""></stim_listB>","is looking at","","","","","",""
"null","<div style=""font-size:60px;"">+</div>","","html-keyboard-response","58","146144","0.0-13.0-0.7","6074","List1B","black","man","","","","null","","","","","","","","",""
"null","<img src=""stim_listB/challenge7.gif""style=""height:400px;""></stim_listB>","","html-keyboard-response","59","148147","0.0-13.0-1.7","6074","List1B","black","man","","","","null","","","","","","","","",""
"null","is challenging","","html-keyboard-response","60","150152","0.0-13.0-2.7","6074","List1B","black","man","","","","null","","","","","","","","",""
"3226.5","","","survey-text","61","153382","0.0-13.0-3.7","6074","List1B","black","man","","","","","{""Q0"":""ruth is challenging kate""}","<img src=""stim_listB/challenge7.gif""style=""height:400px;""></stim_listB>","is challenging","","","","","",""
"null","<div style=""font-size:60px;"">+</div>","","html-keyboard-response","62","153885","0.0-13.0-0.8","6074","List1B","black","man","","","","null","","","","","","","","",""
"null","<img src=""stim_listB/touch7.gif""style=""height:400px;""></stim_listB>","","html-keyboard-response","63","155890","0.0-13.0-1.8","6074","List1B","black","man","","","","null","","","","","","","","",""
"null","is touching","","html-keyboard-response","64","157893","0.0-13.0-2.8","6074","List1B","black","man","","","","null","","","","","","","","",""
"3303.7999999523163","","","survey-text","65","161200","0.0-13.0-3.8","6074","List1B","black","man","","","","","{""Q0"":""kate is touching jane""}","<img src=""stim_listB/touch7.gif""style=""height:400px;""></stim_listB>","is touching","","","","","",""
"null","<div style=""font-size:60px;"">+</div>","","html-keyboard-response","66","161703","0.0-13.0-0.9","6074","List1B","black","man","","","","null","","","","","","","","",""
"null","<img src=""stim_listB/seduce3.gif""style=""height:400px;""></stim_listB>","","html-keyboard-response","67","163708","0.0-13.0-1.9","6074","List1B","black","man","","","","null","","","","","","","","",""
"null","is seducing","","html-keyboard-response","68","165714","0.0-13.0-2.9","6074","List1B","black","man","","","","null","","","","","","","","",""
"3846","","","survey-text","69","169563","0.0-13.0-3.9","6074","List1B","black","man","","","","","{""Q0"":""jane is seducing luke""}","<img src=""stim_listB/seduce3.gif""style=""height:400px;""></stim_listB>","is seducing","","","","","",""
"null","<div style=""font-size:60px;"">+</div>","","html-keyboard-response","70","170064","0.0-13.0-0.10","6074","List1B","black","man","","","","null","","","","","","","","",""
"null","<img src=""stim_listB/challenge5.gif""style=""height:400px;""></stim_listB>","","html-keyboard-response","71","172069","0.0-13.0-1.10","6074","List1B","black","man","","","","null","","","","","","","","",""
"null","is challenging","","html-keyboard-response","72","174072","0.0-13.0-2.10","6074","List1B","black","man","","","","null","","","","","","","","",""
"4242.699999928474","","","survey-text","73","178318","0.0-13.0-3.10","6074","List1B","black","man","","","","","{""Q0"":""luke is challenging mike""}","<img src=""stim_listB/challenge5.gif""style=""height:400px;""></stim_listB>","is challenging","","","","","",""
"null","<div style=""font-size:60px;"">+</div>","","html-keyboard-response","74","178821","0.0-13.0-0.11","6074","List1B","black","man","","","","null","","","","","","","","",""
"null","<img src=""stim_listB/oppose8.gif""style=""height:400px;""></stim_listB>","","html-keyboard-response","75","180826","0.0-13.0-1.11","6074","List1B","black","man","","","","null","","","","","","","","",""
"null","is being opposed by","","html-keyboard-response","76","182832","0.0-13.0-2.11","6074","List1B","black","man","","","","null","","","","","","","","",""
"5446.200000047684","","","survey-text","77","188282","0.0-13.0-3.11","6074","List1B","black","man","","","","","{""Q0"":""beth is being opposed by ruth""}","<img src=""stim_listB/oppose8.gif""style=""height:400px;""></stim_listB>","is being opposed by","","","","","",""
"null","<div style=""font-size:60px;"">+</div>","","html-keyboard-response","78","188784","0.0-13.0-0.12","6074","List1B","black","man","","","","null","","","","","","","","",""
"null","<img src=""stim_listB/touch6.gif""style=""height:400px;""></stim_listB>","","html-keyboard-response","79","190790","0.0-13.0-1.12","6074","List1B","black","man","","","","null","","","","","","","","",""
"null","is being touched by","","html-keyboard-response","80","192794","0.0-13.0-2.12","6074","List1B","black","man","","","","null","","","","","","","","",""
"3839.2999999523163","","","survey-text","81","196637","0.0-13.0-3.12","6074","List1B","black","man","","","","","{""Q0"":""luke is being touched by fred""}","<img src=""stim_listB/touch6.gif""style=""height:400px;""></stim_listB>","is being touched by","","","","","",""
"null","<div style=""font-size:60px;"">+</div>","","html-keyboard-response","82","197140","0.0-13.0-0.13","6074","List1B","black","man","","","","null","","","","","","","","",""
"null","<img src=""stim_listB/seduce7.gif""style=""height:400px;""></stim_listB>","","html-keyboard-response","83","199143","0.0-13.0-1.13","6074","List1B","black","man","","","","null","","","","","","","","",""
"null","is seducing","","html-keyboard-response","84","201145","0.0-13.0-2.13","6074","List1B","black","man","","","","null","","","","","","","","",""
"2816.2000000476837","","","survey-text","85","203965","0.0-13.0-3.13","6074","List1B","black","man","","","","","{""Q0"":""beth is seducing jane""}","<img src=""stim_listB/seduce7.gif""style=""height:400px;""></stim_listB>","is seducing","","","","","",""
"null","<div style=""font-size:60px;"">+</div>","","html-keyboard-response","86","204469","0.0-13.0-0.14","6074","List1B","black","man","","","","null","","","","","","","","",""
"null","<img src=""stim_listB/greet3.gif""style=""height:400px;""></stim_listB>","","html-keyboard-response","87","206473","0.0-13.0-1.14","6074","List1B","black","man","","","","null","","","","","","","","",""
"null","is greeting","","html-keyboard-response","88","208478","0.0-13.0-2.14","6074","List1B","black","man","","","","null","","","","","","","","",""
"18140.899999976158","","","survey-text","89","226622","0.0-13.0-3.14","6074","List1B","black","man","","","","","{""Q0"":""ruth is greeting dave""}","<img src=""stim_listB/greet3.gif""style=""height:400px;""></stim_listB>","is greeting","","","","","",""
"null","<div style=""font-size:60px;"">+</div>","","html-keyboard-response","90","227125","0.0-13.0-0.15","6074","List1B","black","man","","","","null","","","","","","","","",""
"null","<img src=""stim_listB/oppose2.gif""style=""height:400px;""></stim_listB>","","html-keyboard-response","91","229130","0.0-13.0-1.15","6074","List1B","black","man","","","","null","","","","","","","","",""
"null","is being opposed by","","html-keyboard-response","92","231133","0.0-13.0-2.15","6074","List1B","black","man","","","","null","","","","","","","","",""
"4543.600000023842","","","survey-text","93","235679","0.0-13.0-3.15","6074","List1B","black","man","","","","","{""Q0"":""beth is being opposed by fred""}","<img src=""stim_listB/oppose2.gif""style=""height:400px;""></stim_listB>","is being opposed by","","","","","",""
"null","<div style=""font-size:60px;"">+</div>","","html-keyboard-response","94","236181","0.0-13.0-0.16","6074","List1B","black","man","","","","null","","","","","","","","",""
"null","<img src=""stim_listB/copy1.gif""style=""height:400px;""></stim_listB>","","html-keyboard-response","95","238187","0.0-13.0-1.16","6074","List1B","black","man","","","","null","","","","","","","","",""
"null","is copying","","html-keyboard-response","96","240191","0.0-13.0-2.16","6074","List1B","black","man","","","","null","","","","","","","","",""
"2580.1999999284744","","","survey-text","97","242774","0.0-13.0-3.16","6074","List1B","black","man","","","","","{""Q0"":""beth is copying mike""}","<img src=""stim_listB/copy1.gif""style=""height:400px;""></stim_listB>","is copying","","","","","",""
"null","<div style=""font-size:60px;"">+</div>","","html-keyboard-response","98","243275","0.0-13.0-0.17","6074","List1B","black","man","","","","null","","","","","","","","",""
"null","<img src=""stim_listB/seduce6.gif""style=""height:400px;""></stim_listB>","","html-keyboard-response","99","245280","0.0-13.0-1.17","6074","List1B","black","man","","","","null","","","","","","","","",""
"null","is being seduced by","","html-keyboard-response","100","247285","0.0-13.0-2.17","6074","List1B","black","man","","","","null","","","","","","","","",""
"4843.800000071526","","","survey-text","101","252132","0.0-13.0-3.17","6074","List1B","black","man","","","","","{""Q0"":""mike is being seduced by luke""}","<img src=""stim_listB/seduce6.gif""style=""height:400px;""></stim_listB>","is being seduced by","","","","","",""
"null","<div style=""font-size:60px;"">+</div>","","html-keyboard-response","102","252636","0.0-13.0-0.18","6074","List1B","black","man","","","","null","","","","","","","","",""
"null","<img src=""stim_listB/look2.gif""style=""height:400px;""></stim_listB>","","html-keyboard-response","103","254640","0.0-13.0-1.18","6074","List1B","black","man","","","","null","","","","","","","","",""
"null","is being looked at by","","html-keyboard-response","104","256644","0.0-13.0-2.18","6074","List1B","black","man","","","","null","","","","","","","","",""
"4301.899999976158","","","survey-text","105","260949","0.0-13.0-3.18","6074","List1B","black","man","","","","","{""Q0"":""mike is being looked at by kate""}","<img src=""stim_listB/look2.gif""style=""height:400px;""></stim_listB>","is being looked at by","","","","","",""
"null","<div style=""font-size:60px;"">+</div>","","html-keyboard-response","106","261451","0.0-13.0-0.19","6074","List1B","black","man","","","","null","","","","","","","","",""
"null","<img src=""stim_listB/kiss5.gif""style=""height:400px;""></stim_listB>","","html-keyboard-response","107","263455","0.0-13.0-1.19","6074","List1B","black","man","","","","null","","","","","","","","",""
"null","is kissing","","html-keyboard-response","108","265461","0.0-13.0-2.19","6074","List1B","black","man","","","","null","","","","","","","","",""
"2730.100000023842","","","survey-text","109","268193","0.0-13.0-3.19","6074","List1B","black","man","","","","","{""Q0"":""luke is kissing fred""}","<img src=""stim_listB/kiss5.gif""style=""height:400px;""></stim_listB>","is kissing","","","","","",""
"11660.600000023842","<img src='img/portrait_matrix_list1.jpg' style='width:900px;height:500px;''></img><p>If you have memorised all the portraits and names and are ready to start, press Continue.</p><p><strong>Please note: Your memory of these faces will be tested 4 times during this experiment.</strong></p>","0","html-button-response","110","279856","0.0-14.0-0.0","6074","List1B","black","man","","","","","","","","","","","","",""
"1974.2999999523163","<img src=""portrait/WM2.jpg""style=""height:400px;""></img>","7","html-button-response","111","282836","0.0-14.0-1.0","6074","List1B","black","man","","true","7","","","","","","","","","",""
"null","CORRECT","","html-keyboard-response","112","284339","0.0-14.0-2.0-0.0","6074","List1B","black","man","","","","null","","","","","","","","",""
"3064.6999999284744","<img src=""portrait/WW2.jpg""style=""height:400px;""></img>","3","html-button-response","113","287405","0.0-14.0-4.0","6074","List1B","black","man","","true","3","","","","","","","","","",""
"null","CORRECT","","html-keyboard-response","114","288910","0.0-14.0-5.0-0.0","6074","List1B","black","man","","","","null","","","","","","","","",""
"1708.5","<img src=""portrait/BW1.jpg""style=""height:400px;""></img>","0","html-button-response","115","290620","0.0-14.0-7.0","6074","List1B","black","man","","true","0","","","","","","","","","",""
"null","CORRECT","","html-keyboard-response","116","292129","0.0-14.0-8.0-0.0","6074","List1B","black","man","","","","null","","","","","","","","",""
"3914.899999976158","<img src=""portrait/BM1.jpg""style=""height:400px;""></img>","4","html-button-response","117","296046","0.0-14.0-10.0","6074","List1B","black","man","","true","4","","","","","","","","","",""
"null","CORRECT","","html-keyboard-response","118","297555","0.0-14.0-11.0-0.0","6074","List1B","black","man","","","","null","","","","","","","","",""
"2671.1999999284744","<img src=""portrait/BW2.jpg""style=""height:400px;""></img>","2","html-button-response","119","300228","0.0-14.0-13.0","6074","List1B","black","man","","true","2","","","","","","","","","",""
"null","CORRECT","","html-keyboard-response","120","301737","0.0-14.0-14.0-0.0","6074","List1B","black","man","","","","null","","","","","","","","",""
"1302.6999999284744","<img src=""portrait/WW1.jpg""style=""height:400px;""></img>","1","html-button-response","121","303041","0.0-14.0-16.0","6074","List1B","black","man","","true","1","","","","","","","","","",""
"null","CORRECT","","html-keyboard-response","122","304547","0.0-14.0-17.0-0.0","6074","List1B","black","man","","","","null","","","","","","","","",""
"1586.7999999523163","<img src=""portrait/BM2.jpg""style=""height:400px;""></img>","5","html-button-response","123","306135","0.0-14.0-19.0","6074","List1B","black","man","","true","5","","","","","","","","","",""
"null","CORRECT","","html-keyboard-response","124","307644","0.0-14.0-20.0-0.0","6074","List1B","black","man","","","","null","","","","","","","","",""
"1819.2000000476837","<img src=""portrait/WM1.jpg""style=""height:400px;""></img>","6","html-button-response","125","309465","0.0-14.0-22.0","6074","List1B","black","man","","true","6","","","","","","","","","",""
"null","CORRECT","","html-keyboard-response","126","310973","0.0-14.0-23.0-0.0","6074","List1B","black","man","","","","null","","","","","","","","",""
"1043.8000000715256","<p>You got 8 out of 8 right first time. Press Continue.</p>","0","html-button-response","127","312018","0.0-14.0-25.0","6074","List1B","black","man","","","","","","","","","","","","",""
"null","<div style=""font-size:60px;"">+</div>","","html-keyboard-response","128","313527","0.0-15.0-0.0","6074","List1B","black","man","","","","null","","","","","","","","",""
"null","<img src=""stim_listB/challenge2.gif""style=""height:400px;""></stim_listB>","","html-keyboard-response","129","315533","0.0-15.0-1.0","6074","List1B","black","man","","","","null","","","","","","","","",""
"null","is being challenged by","","html-keyboard-response","130","317537","0.0-15.0-2.0","6074","List1B","black","man","","","","null","","","","","","","","",""
"7959.900000095367","","","survey-text","131","325501","0.0-15.0-3.0","6074","List1B","black","man","","","","","{""Q0"":""fred is being challenged by kate""}","<img src=""stim_listB/challenge2.gif""style=""height:400px;""></stim_listB>","is being challenged by","","","","","",""
"null","<div style=""font-size:60px;"">+</div>","","html-keyboard-response","132","326004","0.0-15.0-0.1","6074","List1B","black","man","","","","null","","","","","","","","",""
"null","<img src=""stim_listB/kiss7.gif""style=""height:400px;""></stim_listB>","","html-keyboard-response","133","328010","0.0-15.0-1.1","6074","List1B","black","man","","","","null","","","","","","","","",""
"null","is kissing","","html-keyboard-response","134","330016","0.0-15.0-2.1","6074","List1B","black","man","","","","null","","","","","","","","",""
"4488.699999928474","","","survey-text","135","334508","0.0-15.0-3.1","6074","List1B","black","man","","","","","{""Q0"":""beth is kissing ruth""}","<img src=""stim_listB/kiss7.gif""style=""height:400px;""></stim_listB>","is kissing","","","","","",""
"null","<div style=""font-size:60px;"">+</div>","","html-keyboard-response","136","335010","0.0-15.0-0.2","6074","List1B","black","man","","","","null","","","","","","","","",""
"null","<img src=""stim_listB/seduce1.gif""style=""height:400px;""></stim_listB>","","html-keyboard-response","137","337014","0.0-15.0-1.2","6074","List1B","black","man","","","","null","","","","","","","","",""
"null","is seducing","","html-keyboard-response","138","339018","0.0-15.0-2.2","6074","List1B","black","man","","","","null","","","","","","","","",""
"3519.600000023842","","","survey-text","139","342540","0.0-15.0-3.2","6074","List1B","black","man","","","","","{""Q0"":""fred is seducing kate""}","<img src=""stim_listB/seduce1.gif""style=""height:400px;""></stim_listB>","is seducing","","","","","",""
"null","<div style=""font-size:60px;"">+</div>","","html-keyboard-response","140","343041","0.0-15.0-0.3","6074","List1B","black","man","","","","null","","","","","","","","",""
"null","<img src=""stim_listB/kiss3.gif""style=""height:400px;""></stim_listB>","","html-keyboard-response","141","345043","0.0-15.0-1.3","6074","List1B","black","man","","","","null","","","","","","","","",""
"null","is kissing","","html-keyboard-response","142","347045","0.0-15.0-2.3","6074","List1B","black","man","","","","null","","","","","","","","",""
"2527","","","survey-text","143","349576","0.0-15.0-3.3","6074","List1B","black","man","","","","","{""Q0"":""ruth is kissing luke""}","<img src=""stim_listB/kiss3.gif""style=""height:400px;""></stim_listB>","is kissing","","","","","",""
"null","<div style=""font-size:60px;"">+</div>","","html-keyboard-response","144","350078","0.0-15.0-0.4","6074","List1B","black","man","","","","null","","","","","","","","",""
"null","<img src=""stim_listB/challenge4.gif""style=""height:400px;""></stim_listB>","","html-keyboard-response","145","352082","0.0-15.0-1.4","6074","List1B","black","man","","","","null","","","","","","","","",""
"null","is being challenged by","","html-keyboard-response","146","354084","0.0-15.0-2.4","6074","List1B","black","man","","","","null","","","","","","","","",""
"13884.5","","","survey-text","147","367972","0.0-15.0-3.4","6074","List1B","black","man","","","","","{""Q0"":""luke is being challenged by jane""}","<img src=""stim_listB/challenge4.gif""style=""height:400px;""></stim_listB>","is being challenged by","","","","","",""
"null","<div style=""font-size:60px;"">+</div>","","html-keyboard-response","148","368474","0.0-15.0-0.5","6074","List1B","black","man","","","","null","","","","","","","","",""
"null","<img src=""stim_listB/hug4.gif""style=""height:400px;""></stim_listB>","","html-keyboard-response","149","370478","0.0-15.0-1.5","6074","List1B","black","man","","","","null","","","","","","","","",""
"null","is being hugged by","","html-keyboard-response","150","372482","0.0-15.0-2.5","6074","List1B","black","man","","","","null","","","","","","","","",""
"3470.2999999523163","","","survey-text","151","375955","0.0-15.0-3.5","6074","List1B","black","man","","","","","{""Q0"":""dave is being hugged by jane""}","<img src=""stim_listB/hug4.gif""style=""height:400px;""></stim_listB>","is being hugged by","","","","","",""
"null","<div style=""font-size:60px;"">+</div>","","html-keyboard-response","152","376458","0.0-15.0-0.6","6074","List1B","black","man","","","","null","","","","","","","","",""
"null","<img src=""stim_listB/seduce4.gif""style=""height:400px;""></stim_listB>","","html-keyboard-response","153","378463","0.0-15.0-1.6","6074","List1B","black","man","","","","null","","","","","","","","",""
"null","is being seduced by","","html-keyboard-response","154","380465","0.0-15.0-2.6","6074","List1B","black","man","","","","null","","","","","","","","",""
"9399.5","","","survey-text","155","389868","0.0-15.0-3.6","6074","List1B","black","man","","","","","{""Q0"":""dave is being seduced by ruth""}","<img src=""stim_listB/seduce4.gif""style=""height:400px;""></stim_listB>","is being seduced by","","","","","",""
"null","<div style=""font-size:60px;"">+</div>","","html-keyboard-response","156","390370","0.0-15.0-0.7","6074","List1B","black","man","","","","null","","","","","","","","",""
"null","<img src=""stim_listB/challenge3.gif""style=""height:400px;""></stim_listB>","","html-keyboard-response","157","392375","0.0-15.0-1.7","6074","List1B","black","man","","","","null","","","","","","","","",""
"null","is challenging","","html-keyboard-response","158","394380","0.0-15.0-2.7","6074","List1B","black","man","","","","null","","","","","","","","",""
"2874","","","survey-text","159","397257","0.0-15.0-3.7","6074","List1B","black","man","","","","","{""Q0"":""dave is challenging ruth""}","<img src=""stim_listB/challenge3.gif""style=""height:400px;""></stim_listB>","is challenging","","","","","",""
"null","<div style=""font-size:60px;"">+</div>","","html-keyboard-response","160","397760","0.0-15.0-0.8","6074","List1B","black","man","","","","null","","","","","","","","",""
"null","<img src=""stim_listB/greet6.gif""style=""height:400px;""></stim_listB>","","html-keyboard-response","161","399765","0.0-15.0-1.8","6074","List1B","black","man","","","","null","","","","","","","","",""
"null","is being greeted by","","html-keyboard-response","162","401770","0.0-15.0-2.8","6074","List1B","black","man","","","","null","","","","","","","","",""
"5450","","","survey-text","163","407223","0.0-15.0-3.8","6074","List1B","black","man","","","","","{""Q0"":""fred is being greeted by dave""}","<img src=""stim_listB/greet6.gif""style=""height:400px;""></stim_listB>","is being greeted by","","","","","",""
"null","<div style=""font-size:60px;"">+</div>","","html-keyboard-response","164","407726","0.0-15.0-0.9","6074","List1B","black","man","","","","null","","","","","","","","",""
"null","<img src=""stim_listB/shout4.gif""style=""height:400px;""></stim_listB>","","html-keyboard-response","165","409732","0.0-15.0-1.9","6074","List1B","black","man","","","","null","","","","","","","","",""
"null","is being shouted at by","","html-keyboard-response","166","411737","0.0-15.0-2.9","6074","List1B","black","man","","","","null","","","","","","","","",""
"3974.1999999284744","","","survey-text","167","415714","0.0-15.0-3.9","6074","List1B","black","man","","","","","{""Q0"":""dave is being shouted at by jane""}","<img src=""stim_listB/shout4.gif""style=""height:400px;""></stim_listB>","is being shouted at by","","","","","",""
"null","<div style=""font-size:60px;"">+</div>","","html-keyboard-response","168","416218","0.0-15.0-0.10","6074","List1B","black","man","","","","null","","","","","","","","",""
"null","<img src=""stim_listB/kiss2.gif""style=""height:400px;""></stim_listB>","","html-keyboard-response","169","418222","0.0-15.0-1.10","6074","List1B","black","man","","","","null","","","","","","","","",""
"null","is being kissed by","","html-keyboard-response","170","420228","0.0-15.0-2.10","6074","List1B","black","man","","","","null","","","","","","","","",""
"3444.899999976158","","","survey-text","171","423676","0.0-15.0-3.10","6074","List1B","black","man","","","","","{""Q0"":""mike is being kissed by kate""}","<img src=""stim_listB/kiss2.gif""style=""height:400px;""></stim_listB>","is being kissed by","","","","","",""
"null","<div style=""font-size:60px;"">+</div>","","html-keyboard-response","172","424178","0.0-15.0-0.11","6074","List1B","black","man","","","","null","","","","","","","","",""
"null","<img src=""stim_listB/challenge6.gif""style=""height:400px;""></stim_listB>","","html-keyboard-response","173","426184","0.0-15.0-1.11","6074","List1B","black","man","","","","null","","","","","","","","",""
"null","is being challenged by","","html-keyboard-response","174","428189","0.0-15.0-2.11","6074","List1B","black","man","","","","null","","","","","","","","",""
"5086.5","","","survey-text","175","433278","0.0-15.0-3.11","6074","List1B","black","man","","","","","{""Q0"":""fred is being challenged by dave""}","<img src=""stim_listB/challenge6.gif""style=""height:400px;""></stim_listB>","is being challenged by","","","","","",""
"null","<div style=""font-size:60px;"">+</div>","","html-keyboard-response","176","433781","0.0-15.0-0.12","6074","List1B","black","man","","","","null","","","","","","","","",""
"null","<img src=""stim_listB/greet5.gif""style=""height:400px;""></stim_listB>","","html-keyboard-response","177","435785","0.0-15.0-1.12","6074","List1B","black","man","","","","null","","","","","","","","",""
"null","is greeting","","html-keyboard-response","178","437790","0.0-15.0-2.12","6074","List1B","black","man","","","","null","","","","","","","","",""
"6420.5","","","survey-text","179","444213","0.0-15.0-3.12","6074","List1B","black","man","","","","","{""Q0"":""luke is greeting mike""}","<img src=""stim_listB/greet5.gif""style=""height:400px;""></stim_listB>","is greeting","","","","","",""
"null","<div style=""font-size:60px;"">+</div>","","html-keyboard-response","180","444716","0.0-15.0-0.13","6074","List1B","black","man","","","","null","","","","","","","","",""
"null","<img src=""stim_listB/shout8.gif""style=""height:400px;""></stim_listB>","","html-keyboard-response","181","446722","0.0-15.0-1.13","6074","List1B","black","man","","","","null","","","","","","","","",""
"null","is being shouted at by","","html-keyboard-response","182","448727","0.0-15.0-2.13","6074","List1B","black","man","","","","null","","","","","","","","",""
"4870.300000071526","","","survey-text","183","453600","0.0-15.0-3.13","6074","List1B","black","man","","","","","{""Q0"":""kate is being shouted at by jane""}","<img src=""stim_listB/shout8.gif""style=""height:400px;""></stim_listB>","is being shouted at by","","","","","",""
"null","<div style=""font-size:60px;"">+</div>","","html-keyboard-response","184","454104","0.0-15.0-0.14","6074","List1B","black","man","","","","null","","","","","","","","",""
"null","<img src=""stim_listB/greet2.gif""style=""height:400px;""></stim_listB>","","html-keyboard-response","185","456108","0.0-15.0-1.14","6074","List1B","black","man","","","","null","","","","","","","","",""
"null","is being greeted by","","html-keyboard-response","186","458114","0.0-15.0-2.14","6074","List1B","black","man","","","","null","","","","","","","","",""
"9039.400000095367","","","survey-text","187","467156","0.0-15.0-3.14","6074","List1B","black","man","","","","","{""Q0"":""fred is greeted by kate""}","<img src=""stim_listB/greet2.gif""style=""height:400px;""></stim_listB>","is being greeted by","","","","","",""
"null","<div style=""font-size:60px;"">+</div>","","html-keyboard-response","188","467658","0.0-15.0-0.15","6074","List1B","black","man","","","","null","","","","","","","","",""
"null","<img src=""stim_listB/touch5.gif""style=""height:400px;""></stim_listB>","","html-keyboard-response","189","469664","0.0-15.0-1.15","6074","List1B","black","man","","","","null","","","","","","","","",""
"null","is touching","","html-keyboard-response","190","471668","0.0-15.0-2.15","6074","List1B","black","man","","","","null","","","","","","","","",""
"3516.9000000953674","","","survey-text","191","475188","0.0-15.0-3.15","6074","List1B","black","man","","","","","{""Q0"":""dave is touching mike""}","<img src=""stim_listB/touch5.gif""style=""height:400px;""></stim_listB>","is touching","","","","","",""
"null","<div style=""font-size:60px;"">+</div>","","html-keyboard-response","192","475690","0.0-15.0-0.16","6074","List1B","black","man","","","","null","","","","","","","","",""
"null","<img src=""stim_listB/copy3.gif""style=""height:400px;""></stim_listB>","","html-keyboard-response","193","477693","0.0-15.0-1.16","6074","List1B","black","man","","","","null","","","","","","","","",""
"null","is copying","","html-keyboard-response","194","479695","0.0-15.0-2.16","6074","List1B","black","man","","","","null","","","","","","","","",""
"3737","","","survey-text","195","483435","0.0-15.0-3.16","6074","List1B","black","man","","","","","{""Q0"":""ruth is copying dave""}","<img src=""stim_listB/copy3.gif""style=""height:400px;""></stim_listB>","is copying","","","","","",""
"null","<div style=""font-size:60px;"">+</div>","","html-keyboard-response","196","483937","0.0-15.0-0.17","6074","List1B","black","man","","","","null","","","","","","","","",""
"null","<img src=""stim_listB/copy8.gif""style=""height:400px;""></stim_listB>","","html-keyboard-response","197","485941","0.0-15.0-1.17","6074","List1B","black","man","","","","null","","","","","","","","",""
"null","is being copied by","","html-keyboard-response","198","487946","0.0-15.0-2.17","6074","List1B","black","man","","","","null","","","","","","","","",""
"7139.799999952316","","","survey-text","199","495089","0.0-15.0-3.17","6074","List1B","black","man","","","","","{""Q0"":""beth is being copied by jane""}","<img src=""stim_listB/copy8.gif""style=""height:400px;""></stim_listB>","is being copied by","","","","","",""
"null","<div style=""font-size:60px;"">+</div>","","html-keyboard-response","200","495592","0.0-15.0-0.18","6074","List1B","black","man","","","","null","","","","","","","","",""
"null","<img src=""stim_listB/look7.gif""style=""height:400px;""></stim_listB>","","html-keyboard-response","201","497597","0.0-15.0-1.18","6074","List1B","black","man","","","","null","","","","","","","","",""
"null","is looking at","","html-keyboard-response","202","499600","0.0-15.0-2.18","6074","List1B","black","man","","","","null","","","","","","","","",""
"3015.100000023842","","","survey-text","203","502618","0.0-15.0-3.18","6074","List1B","black","man","","","","","{""Q0"":""ruth is looking at beth""}","<img src=""stim_listB/look7.gif""style=""height:400px;""></stim_listB>","is looking at","","","","","",""
"null","<div style=""font-size:60px;"">+</div>","","html-keyboard-response","204","503121","0.0-15.0-0.19","6074","List1B","black","man","","","","null","","","","","","","","",""
"null","<img src=""stim_listB/oppose4.gif""style=""height:400px;""></stim_listB>","","html-keyboard-response","205","505127","0.0-15.0-1.19","6074","List1B","black","man","","","","null","","","","","","","","",""
"null","is being opposed by","","html-keyboard-response","206","507131","0.0-15.0-2.19","6074","List1B","black","man","","","","null","","","","","","","","",""
"3731.600000023842","","","survey-text","207","510866","0.0-15.0-3.19","6074","List1B","black","man","","","","","{""Q0"":""ruth is being opposed by luke""}","<img src=""stim_listB/oppose4.gif""style=""height:400px;""></stim_listB>","is being opposed by","","","","","",""
"3816","<img src='img/portrait_matrix_list1.jpg' style='width:900px;height:500px;''></img><p>If you have memorised all the portraits and names and are ready to start, press Continue.</p><p><strong>Please note: Your memory of these faces will be tested 4 times during this experiment.</strong></p>","0","html-button-response","208","514684","0.0-16.0-0.0","6074","List1B","black","man","","","","","","","","","","","","",""
"1257.7000000476837","<img src=""portrait/WW1.jpg""style=""height:400px;""></img>","1","html-button-response","209","516943","0.0-16.0-1.0","6074","List1B","black","man","","true","1","","","","","","","","","",""
"null","CORRECT","","html-keyboard-response","210","518451","0.0-16.0-2.0-0.0","6074","List1B","black","man","","","","null","","","","","","","","",""
"1403.5","<img src=""portrait/BM2.jpg""style=""height:400px;""></img>","5","html-button-response","211","519856","0.0-16.0-4.0","6074","List1B","black","man","","true","5","","","","","","","","","",""
"null","CORRECT","","html-keyboard-response","212","521363","0.0-16.0-5.0-0.0","6074","List1B","black","man","","","","null","","","","","","","","",""
"1802","<img src=""portrait/WM1.jpg""style=""height:400px;""></img>","6","html-button-response","213","523167","0.0-16.0-7.0","6074","List1B","black","man","","true","6","","","","","","","","","",""
"null","CORRECT","","html-keyboard-response","214","524674","0.0-16.0-8.0-0.0","6074","List1B","black","man","","","","null","","","","","","","","",""
"1526.1999999284744","<img src=""portrait/WM2.jpg""style=""height:400px;""></img>","7","html-button-response","215","526202","0.0-16.0-10.0","6074","List1B","black","man","","true","7","","","","","","","","","",""
"null","CORRECT","","html-keyboard-response","216","527703","0.0-16.0-11.0-0.0","6074","List1B","black","man","","","","null","","","","","","","","",""
"4606","<img src=""portrait/BW2.jpg""style=""height:400px;""></img>","2","html-button-response","217","532311","0.0-16.0-13.0","6074","List1B","black","man","","true","2","","","","","","","","","",""
"null","CORRECT","","html-keyboard-response","218","533824","0.0-16.0-14.0-0.0","6074","List1B","black","man","","","","null","","","","","","","","",""
"2896.100000023842","<img src=""portrait/WW2.jpg""style=""height:400px;""></img>","3","html-button-response","219","536721","0.0-16.0-16.0","6074","List1B","black","man","","true","3","","","","","","","","","",""
"null","CORRECT","","html-keyboard-response","220","538224","0.0-16.0-17.0-0.0","6074","List1B","black","man","","","","null","","","","","","","","",""
"1421.8999999761581","<img src=""portrait/BW1.jpg""style=""height:400px;""></img>","0","html-button-response","221","539647","0.0-16.0-19.0","6074","List1B","black","man","","true","0","","","","","","","","","",""
"null","CORRECT","","html-keyboard-response","222","541149","0.0-16.0-20.0-0.0","6074","List1B","black","man","","","","null","","","","","","","","",""
"1697.1999999284744","<img src=""portrait/BM1.jpg""style=""height:400px;""></img>","4","html-button-response","223","542848","0.0-16.0-22.0","6074","List1B","black","man","","true","4","","","","","","","","","",""
"null","CORRECT","","html-keyboard-response","224","544356","0.0-16.0-23.0-0.0","6074","List1B","black","man","","","","null","","","","","","","","",""
"937.2999999523163","<p>You got 8 out of 8 right first time. Press Continue.</p>","0","html-button-response","225","545294","0.0-16.0-25.0","6074","List1B","black","man","","","","","","","","","","","","",""
"null","<div style=""font-size:60px;"">+</div>","","html-keyboard-response","226","546797","0.0-17.0-0.0","6074","List1B","black","man","","","","null","","","","","","","","",""
"null","<img src=""stim_listB/greet4.gif""style=""height:400px;""></stim_listB>","","html-keyboard-response","227","548801","0.0-17.0-1.0","6074","List1B","black","man","","","","null","","","","","","","","",""
"null","is being greeted by","","html-keyboard-response","228","550804","0.0-17.0-2.0","6074","List1B","black","man","","","","null","","","","","","","","",""
"4449","","","survey-text","229","555258","0.0-17.0-3.0","6074","List1B","black","man","","","","","{""Q0"":""luke is being greeted by jane""}","<img src=""stim_listB/greet4.gif""style=""height:400px;""></stim_listB>","is being greeted by","","","","","",""
"null","<div style=""font-size:60px;"">+</div>","","html-keyboard-response","230","555760","0.0-17.0-0.1","6074","List1B","black","man","","","","null","","","","","","","","",""
"null","<img src=""stim_listB/kiss6.gif""style=""height:400px;""></stim_listB>","","html-keyboard-response","231","557766","0.0-17.0-1.1","6074","List1B","black","man","","","","null","","","","","","","","",""
"null","is being kissed by","","html-keyboard-response","232","559771","0.0-17.0-2.1","6074","List1B","black","man","","","","null","","","","","","","","",""
"4218.599999904633","","","survey-text","233","563993","0.0-17.0-3.1","6074","List1B","black","man","","","","","{""Q0"":""mike is being kissed by dave""}","<img src=""stim_listB/kiss6.gif""style=""height:400px;""></stim_listB>","is being kissed by","","","","","",""
"null","<div style=""font-size:60px;"">+</div>","","html-keyboard-response","234","564496","0.0-17.0-0.2","6074","List1B","black","man","","","","null","","","","","","","","",""
"null","<img src=""stim_listB/hug1.gif""style=""height:400px;""></stim_listB>","","html-keyboard-response","235","566501","0.0-17.0-1.2","6074","List1B","black","man","","","","null","","","","","","","","",""
"null","is hugging","","html-keyboard-response","236","568509","0.0-17.0-2.2","6074","List1B","black","man","","","","null","","","","","","","","",""
"2583","","","survey-text","237","571097","0.0-17.0-3.2","6074","List1B","black","man","","","","","{""Q0"":""beth is hugging fred""}","<img src=""stim_listB/hug1.gif""style=""height:400px;""></stim_listB>","is hugging","","","","","",""
"null","<div style=""font-size:60px;"">+</div>","","html-keyboard-response","238","571600","0.0-17.0-0.3","6074","List1B","black","man","","","","null","","","","","","","","",""
"null","<img src=""stim_listB/oppose5.gif""style=""height:400px;""></stim_listB>","","html-keyboard-response","239","573606","0.0-17.0-1.3","6074","List1B","black","man","","","","null","","","","","","","","",""
"null","is opposing","","html-keyboard-response","240","575612","0.0-17.0-2.3","6074","List1B","black","man","","","","null","","","","","","","","",""
"2974.9000000953674","","","survey-text","241","578592","0.0-17.0-3.3","6074","List1B","black","man","","","","","{""Q0"":""dave is opposing mike""}","<img src=""stim_listB/oppose5.gif""style=""height:400px;""></stim_listB>","is opposing","","","","","",""
"null","<div style=""font-size:60px;"">+</div>","","html-keyboard-response","242","579095","0.0-17.0-0.4","6074","List1B","black","man","","","","null","","","","","","","","",""
"null","<img src=""stim_listB/look5.gif""style=""height:400px;""></stim_listB>","","html-keyboard-response","243","581099","0.0-17.0-1.4","6074","List1B","black","man","","","","null","","","","","","","","",""
"null","is looking at","","html-keyboard-response","244","583102","0.0-17.0-2.4","6074","List1B","black","man","","","","null","","","","","","","","",""
"3327","","","survey-text","245","586434","0.0-17.0-3.4","6074","List1B","black","man","","","","","{""Q0"":""luke is looking at fred""}","<img src=""stim_listB/look5.gif""style=""height:400px;""></stim_listB>","is looking at","","","","","",""
"null","<div style=""font-size:60px;"">+</div>","","html-keyboard-response","246","586935","0.0-17.0-0.5","6074","List1B","black","man","","","","null","","","","","","","","",""
"null","<img src=""stim_listB/touch4.gif""style=""height:400px;""></stim_listB>","","html-keyboard-response","247","588942","0.0-17.0-1.5","6074","List1B","black","man","","","","null","","","","","","","","",""
"null","is being touched by","","html-keyboard-response","248","590947","0.0-17.0-2.5","6074","List1B","black","man","","","","null","","","","","","","","",""
"3914.600000023842","","","survey-text","249","594865","0.0-17.0-3.5","6074","List1B","black","man","","","","","{""Q0"":""luke is being touched by ruth""}","<img src=""stim_listB/touch4.gif""style=""height:400px;""></stim_listB>","is being touched by","","","","","",""
"null","<div style=""font-size:60px;"">+</div>","","html-keyboard-response","250","595367","0.0-17.0-0.6","6074","List1B","black","man","","","","null","","","","","","","","",""
"null","<img src=""stim_listB/seduce2.gif""style=""height:400px;""></stim_listB>","","html-keyboard-response","251","597372","0.0-17.0-1.6","6074","List1B","black","man","","","","null","","","","","","","","",""
"null","is being seduced by","","html-keyboard-response","252","599378","0.0-17.0-2.6","6074","List1B","black","man","","","","null","","","","","","","","",""
"3890.600000023842","","","survey-text","253","603272","0.0-17.0-3.6","6074","List1B","black","man","","","","","{""Q0"":""mike is being seduced by beth""}","<img src=""stim_listB/seduce2.gif""style=""height:400px;""></stim_listB>","is being seduced by","","","","","",""
"null","<div style=""font-size:60px;"">+</div>","","html-keyboard-response","254","603774","0.0-17.0-0.7","6074","List1B","black","man","","","","null","","","","","","","","",""
"null","<img src=""stim_listB/copy6.gif""style=""height:400px;""></stim_listB>","","html-keyboard-response","255","605779","0.0-17.0-1.7","6074","List1B","black","man","","","","null","","","","","","","","",""
"null","is being copied by","","html-keyboard-response","256","607784","0.0-17.0-2.7","6074","List1B","black","man","","","","null","","","","","","","","",""
"3749.2000000476837","","","survey-text","257","611537","0.0-17.0-3.7","6074","List1B","black","man","","","","","{""Q0"":""fred is being copied by dave""}","<img src=""stim_listB/copy6.gif""style=""height:400px;""></stim_listB>","is being copied by","","","","","",""
"null","<div style=""font-size:60px;"">+</div>","","html-keyboard-response","258","612040","0.0-17.0-0.8","6074","List1B","black","man","","","","null","","","","","","","","",""
"null","<img src=""stim_listB/oppose7.gif""style=""height:400px;""></stim_listB>","","html-keyboard-response","259","614044","0.0-17.0-1.8","6074","List1B","black","man","","","","null","","","","","","","","",""
"null","is opposing","","html-keyboard-response","260","616049","0.0-17.0-2.8","6074","List1B","black","man","","","","null","","","","","","","","",""
"5075.900000095367","","","survey-text","261","621128","0.0-17.0-3.8","6074","List1B","black","man","","","","","{""Q0"":""jane is opposing kate""}","<img src=""stim_listB/oppose7.gif""style=""height:400px;""></stim_listB>","is opposing","","","","","",""
"null","<div style=""font-size:60px;"">+</div>","","html-keyboard-response","262","621631","0.0-17.0-0.9","6074","List1B","black","man","","","","null","","","","","","","","",""
"null","<img src=""stim_listB/touch3.gif""style=""height:400px;""></stim_listB>","","html-keyboard-response","263","623637","0.0-17.0-1.9","6074","List1B","black","man","","","","null","","","","","","","","",""
"null","is touching","","html-keyboard-response","264","625642","0.0-17.0-2.9","6074","List1B","black","man","","","","null","","","","","","","","",""
"2654.600000023842","","","survey-text","265","628300","0.0-17.0-3.9","6074","List1B","black","man","","","","","{""Q0"":""jane is touching dave""}","<img src=""stim_listB/touch3.gif""style=""height:400px;""></stim_listB>","is touching","","","","","",""
"null","<div style=""font-size:60px;"">+</div>","","html-keyboard-response","266","628803","0.0-17.0-0.10","6074","List1B","black","man","","","","null","","","","","","","","",""
"null","<img src=""stim_listB/challenge1.gif""style=""height:400px;""></stim_listB>","","html-keyboard-response","267","630808","0.0-17.0-1.10","6074","List1B","black","man","","","","null","","","","","","","","",""
"null","is challenging","","html-keyboard-response","268","632813","0.0-17.0-2.10","6074","List1B","black","man","","","","null","","","","","","","","",""
"3736.399999976158","","","survey-text","269","636552","0.0-17.0-3.10","6074","List1B","black","man","","","","","{""Q0"":""beth is challenging mike""}","<img src=""stim_listB/challenge1.gif""style=""height:400px;""></stim_listB>","is challenging","","","","","",""
"null","<div style=""font-size:60px;"">+</div>","","html-keyboard-response","270","637056","0.0-17.0-0.11","6074","List1B","black","man","","","","null","","","","","","","","",""
"null","<img src=""stim_listB/seduce5.gif""style=""height:400px;""></stim_listB>","","html-keyboard-response","271","639061","0.0-17.0-1.11","6074","List1B","black","man","","","","null","","","","","","","","",""
"null","is seducing","","html-keyboard-response","272","641066","0.0-17.0-2.11","6074","List1B","black","man","","","","null","","","","","","","","",""
"3181","","","survey-text","273","644250","0.0-17.0-3.11","6074","List1B","black","man","","","","","{""Q0"":""dave is seducing fred""}","<img src=""stim_listB/seduce5.gif""style=""height:400px;""></stim_listB>","is seducing","","","","","",""
"null","<div style=""font-size:60px;"">+</div>","","html-keyboard-response","274","644753","0.0-17.0-0.12","6074","List1B","black","man","","","","null","","","","","","","","",""
"null","<img src=""stim_listB/copy7.gif""style=""height:400px;""></stim_listB>","","html-keyboard-response","275","646759","0.0-17.0-1.12","6074","List1B","black","man","","","","null","","","","","","","","",""
"null","is copying","","html-keyboard-response","276","648764","0.0-17.0-2.12","6074","List1B","black","man","","","","null","","","","","","","","",""
"3672.9000000953674","","","survey-text","277","652441","0.0-17.0-3.12","6074","List1B","black","man","","","","","{""Q0"":""ruth is copying kate""}","<img src=""stim_listB/copy7.gif""style=""height:400px;""></stim_listB>","is copying","","","","","",""
"null","<div style=""font-size:60px;"">+</div>","","html-keyboard-response","278","652944","0.0-17.0-0.13","6074","List1B","black","man","","","","null","","","","","","","","",""
"null","<img src=""stim_listB/kiss8.gif""style=""height:400px;""></stim_listB>","","html-keyboard-response","279","654950","0.0-17.0-1.13","6074","List1B","black","man","","","","null","","","","","","","","",""
"null","is being kissed by","","html-keyboard-response","280","656955","0.0-17.0-2.13","6074","List1B","black","man","","","","null","","","","","","","","",""
"4033.600000023842","","","survey-text","281","660991","0.0-17.0-3.13","6074","List1B","black","man","","","","","{""Q0"":""kate is being kissed by jane""}","<img src=""stim_listB/kiss8.gif""style=""height:400px;""></stim_listB>","is being kissed by","","","","","",""
"null","<div style=""font-size:60px;"">+</div>","","html-keyboard-response","282","661494","0.0-17.0-0.14","6074","List1B","black","man","","","","null","","","","","","","","",""
"null","<img src=""stim_listB/hug5.gif""style=""height:400px;""></stim_listB>","","html-keyboard-response","283","663500","0.0-17.0-1.14","6074","List1B","black","man","","","","null","","","","","","","","",""
"null","is hugging","","html-keyboard-response","284","665503","0.0-17.0-2.14","6074","List1B","black","man","","","","null","","","","","","","","",""
"2623.899999976158","","","survey-text","285","668130","0.0-17.0-3.14","6074","List1B","black","man","","","","","{""Q0"":""luke is hugging fred""}","<img src=""stim_listB/hug5.gif""style=""height:400px;""></stim_listB>","is hugging","","","","","",""
"null","<div style=""font-size:60px;"">+</div>","","html-keyboard-response","286","668633","0.0-17.0-0.15","6074","List1B","black","man","","","","null","","","","","","","","",""
"null","<img src=""stim_listB/oppose6.gif""style=""height:400px;""></stim_listB>","","html-keyboard-response","287","670638","0.0-17.0-1.15","6074","List1B","black","man","","","","null","","","","","","","","",""
"null","is being opposed by","","html-keyboard-response","288","672640","0.0-17.0-2.15","6074","List1B","black","man","","","","null","","","","","","","","",""
"4015.100000023842","","","survey-text","289","676658","0.0-17.0-3.15","6074","List1B","black","man","","","","","{""Q0"":""fred is being opposed by luke""}","<img src=""stim_listB/oppose6.gif""style=""height:400px;""></stim_listB>","is being opposed by","","","","","",""
"null","<div style=""font-size:60px;"">+</div>","","html-keyboard-response","290","677162","0.0-17.0-0.16","6074","List1B","black","man","","","","null","","","","","","","","",""
"null","<img src=""stim_listB/hug7.gif""style=""height:400px;""></stim_listB>","","html-keyboard-response","291","679168","0.0-17.0-1.16","6074","List1B","black","man","","","","null","","","","","","","","",""
"null","is hugging","","html-keyboard-response","292","681172","0.0-17.0-2.16","6074","List1B","black","man","","","","null","","","","","","","","",""
"2450.899999976158","","","survey-text","293","683626","0.0-17.0-3.16","6074","List1B","black","man","","","","","{""Q0"":""ruth is hugging beth""}","<img src=""stim_listB/hug7.gif""style=""height:400px;""></stim_listB>","is hugging","","","","","",""
"null","<div style=""font-size:60px;"">+</div>","","html-keyboard-response","294","684130","0.0-17.0-0.17","6074","List1B","black","man","","","","null","","","","","","","","",""
"null","<img src=""stim_listB/look4.gif""style=""height:400px;""></stim_listB>","","html-keyboard-response","295","686135","0.0-17.0-1.17","6074","List1B","black","man","","","","null","","","","","","","","",""
"null","is being looked at by","","html-keyboard-response","296","688140","0.0-17.0-2.17","6074","List1B","black","man","","","","null","","","","","","","","",""
"5855.5","","","survey-text","297","693999","0.0-17.0-3.17","6074","List1B","black","man","","","","","{""Q0"":""dave is being looked at by jane""}","<img src=""stim_listB/look4.gif""style=""height:400px;""></stim_listB>","is being looked at by","","","","","",""
"null","<div style=""font-size:60px;"">+</div>","","html-keyboard-response","298","694501","0.0-17.0-0.18","6074","List1B","black","man","","","","null","","","","","","","","",""
"null","<img src=""stim_listB/copy2.gif""style=""height:400px;""></stim_listB>","","html-keyboard-response","299","696505","0.0-17.0-1.18","6074","List1B","black","man","","","","null","","","","","","","","",""
"null","is being copied by","","html-keyboard-response","300","698508","0.0-17.0-2.18","6074","List1B","black","man","","","","null","","","","","","","","",""
"4336.899999976158","","","survey-text","301","702849","0.0-17.0-3.18","6074","List1B","black","man","","","","","{""Q0"":""fred is being copied by kate""}","<img src=""stim_listB/copy2.gif""style=""height:400px;""></stim_listB>","is being copied by","","","","","",""
"null","<div style=""font-size:60px;"">+</div>","","html-keyboard-response","302","703352","0.0-17.0-0.19","6074","List1B","black","man","","","","null","","","","","","","","",""
"null","<img src=""stim_listB/oppose1.gif""style=""height:400px;""></stim_listB>","","html-keyboard-response","303","705358","0.0-17.0-1.19","6074","List1B","black","man","","","","null","","","","","","","","",""
"null","is opposing","","html-keyboard-response","304","707361","0.0-17.0-2.19","6074","List1B","black","man","","","","null","","","","","","","","",""
"3245.600000023842","","","survey-text","305","710610","0.0-17.0-3.19","6074","List1B","black","man","","","","","{""Q0"":""kate is opposing mike""}","<img src=""stim_listB/oppose1.gif""style=""height:400px;""></stim_listB>","is opposing","","","","","",""
"2723.899999976158","<img src='img/portrait_matrix_list1.jpg' style='width:900px;height:500px;''></img><p>If you have memorised all the portraits and names and are ready to start, press Continue.</p><p><strong>Please note: Your memory of these faces will be tested 4 times during this experiment.</strong></p>","0","html-button-response","306","713335","0.0-18.0-0.0","6074","List1B","black","man","","","","","","","","","","","","",""
"1458.8000000715256","<img src=""portrait/WW2.jpg""style=""height:400px;""></img>","3","html-button-response","307","715800","0.0-18.0-1.0","6074","List1B","black","man","","true","3","","","","","","","","","",""
"null","CORRECT","","html-keyboard-response","308","717305","0.0-18.0-2.0-0.0","6074","List1B","black","man","","","","null","","","","","","","","",""
"1980.2999999523163","<img src=""portrait/BM2.jpg""style=""height:400px;""></img>","5","html-button-response","309","719288","0.0-18.0-4.0","6074","List1B","black","man","","true","5","","","","","","","","","",""
"null","CORRECT","","html-keyboard-response","310","720789","0.0-18.0-5.0-0.0","6074","List1B","black","man","","","","null","","","","","","","","",""
"2281.100000023842","<img src=""portrait/WM1.jpg""style=""height:400px;""></img>","6","html-button-response","311","723072","0.0-18.0-7.0","6074","List1B","black","man","","true","6","","","","","","","","","",""
"null","CORRECT","","html-keyboard-response","312","724581","0.0-18.0-8.0-0.0","6074","List1B","black","man","","","","null","","","","","","","","",""
"1466.1000000238419","<img src=""portrait/WW1.jpg""style=""height:400px;""></img>","1","html-button-response","313","726048","0.0-18.0-10.0","6074","List1B","black","man","","true","1","","","","","","","","","",""
"null","CORRECT","","html-keyboard-response","314","727556","0.0-18.0-11.0-0.0","6074","List1B","black","man","","","","null","","","","","","","","",""
"1565.3999999761581","<img src=""portrait/BM1.jpg""style=""height:400px;""></img>","4","html-button-response","315","729123","0.0-18.0-13.0","6074","List1B","black","man","","true","4","","","","","","","","","",""
"null","CORRECT","","html-keyboard-response","316","730632","0.0-18.0-14.0-0.0","6074","List1B","black","man","","","","null","","","","","","","","",""
"1739.3000000715256","<img src=""portrait/BW1.jpg""style=""height:400px;""></img>","0","html-button-response","317","732373","0.0-18.0-16.0","6074","List1B","black","man","","true","0","","","","","","","","","",""
"null","CORRECT","","html-keyboard-response","318","733882","0.0-18.0-17.0-0.0","6074","List1B","black","man","","","","null","","","","","","","","",""
"2380.9000000953674","<img src=""portrait/BW2.jpg""style=""height:400px;""></img>","2","html-button-response","319","736264","0.0-18.0-19.0","6074","List1B","black","man","","true","2","","","","","","","","","",""
"null","CORRECT","","html-keyboard-response","320","737772","0.0-18.0-20.0-0.0","6074","List1B","black","man","","","","null","","","","","","","","",""
"1600.1999999284744","<img src=""portrait/WM2.jpg""style=""height:400px;""></img>","7","html-button-response","321","739375","0.0-18.0-22.0","6074","List1B","black","man","","true","7","","","","","","","","","",""
"null","CORRECT","","html-keyboard-response","322","740878","0.0-18.0-23.0-0.0","6074","List1B","black","man","","","","null","","","","","","","","",""
"1054.3000000715256","<p>You got 8 out of 8 right first time. Press Continue.</p>","0","html-button-response","323","741934","0.0-18.0-25.0","6074","List1B","black","man","","","","","","","","","","","","",""
"null","<div style=""font-size:60px;"">+</div>","","html-keyboard-response","324","743438","0.0-19.0-0.0","6074","List1B","black","man","","","","null","","","","","","","","",""
"null","<img src=""stim_listB/shout1.gif""style=""height:400px;""></stim_listB>","","html-keyboard-response","325","745443","0.0-19.0-1.0","6074","List1B","black","man","","","","null","","","","","","","","",""
"null","is shouting at","","html-keyboard-response","326","747447","0.0-19.0-2.0","6074","List1B","black","man","","","","null","","","","","","","","",""
"3255","","","survey-text","327","750705","0.0-19.0-3.0","6074","List1B","black","man","","","","","{""Q0"":""beth is shouting at fred""}","<img src=""stim_listB/shout1.gif""style=""height:400px;""></stim_listB>","is shouting at","","","","","",""
"null","<div style=""font-size:60px;"">+</div>","","html-keyboard-response","328","751208","0.0-19.0-0.1","6074","List1B","black","man","","","","null","","","","","","","","",""
"null","<img src=""stim_listB/challenge8.gif""style=""height:400px;""></stim_listB>","","html-keyboard-response","329","753214","0.0-19.0-1.1","6074","List1B","black","man","","","","null","","","","","","","","",""
"null","is being challenged by","","html-keyboard-response","330","755219","0.0-19.0-2.1","6074","List1B","black","man","","","","null","","","","","","","","",""
"4406.299999952316","","","survey-text","331","759628","0.0-19.0-3.1","6074","List1B","black","man","","","","","{""Q0"":""beth is being challenged by jane""}","<img src=""stim_listB/challenge8.gif""style=""height:400px;""></stim_listB>","is being challenged by","","","","","",""
"null","<div style=""font-size:60px;"">+</div>","","html-keyboard-response","332","760131","0.0-19.0-0.2","6074","List1B","black","man","","","","null","","","","","","","","",""
"null","<img src=""stim_listB/copy4.gif""style=""height:400px;""></stim_listB>","","html-keyboard-response","333","762137","0.0-19.0-1.2","6074","List1B","black","man","","","","null","","","","","","","","",""
"null","is being copied by","","html-keyboard-response","334","764142","0.0-19.0-2.2","6074","List1B","black","man","","","","null","","","","","","","","",""
"3353.6999999284744","","","survey-text","335","767499","0.0-19.0-3.2","6074","List1B","black","man","","","","","{""Q0"":""luke is being copied by jane""}","<img src=""stim_listB/copy4.gif""style=""height:400px;""></stim_listB>","is being copied by","","","","","",""
"null","<div style=""font-size:60px;"">+</div>","","html-keyboard-response","336","768000","0.0-19.0-0.3","6074","List1B","black","man","","","","null","","","","","","","","",""
"null","<img src=""stim_listB/copy5.gif""style=""height:400px;""></stim_listB>","","html-keyboard-response","337","770005","0.0-19.0-1.3","6074","List1B","black","man","","","","null","","","","","","","","",""
"null","is copying","","html-keyboard-response","338","772008","0.0-19.0-2.3","6074","List1B","black","man","","","","null","","","","","","","","",""
"2925.7000000476837","","","survey-text","339","774937","0.0-19.0-3.3","6074","List1B","black","man","","","","","{""Q0"":""luke is copying mike""}","<img src=""stim_listB/copy5.gif""style=""height:400px;""></stim_listB>","is copying","","","","","",""
"null","<div style=""font-size:60px;"">+</div>","","html-keyboard-response","340","775439","0.0-19.0-0.4","6074","List1B","black","man","","","","null","","","","","","","","",""
"null","<img src=""stim_listB/shout6.gif""style=""height:400px;""></stim_listB>","","html-keyboard-response","341","777444","0.0-19.0-1.4","6074","List1B","black","man","","","","null","","","","","","","","",""
"null","is being shouted at by","","html-keyboard-response","342","779450","0.0-19.0-2.4","6074","List1B","black","man","","","","null","","","","","","","","",""
"3735.899999976158","","","survey-text","343","783189","0.0-19.0-3.4","6074","List1B","black","man","","","","","{""Q0"":""mike is being shouted at by dave""}","<img src=""stim_listB/shout6.gif""style=""height:400px;""></stim_listB>","is being shouted at by","","","","","",""
"null","<div style=""font-size:60px;"">+</div>","","html-keyboard-response","344","783693","0.0-19.0-0.5","6074","List1B","black","man","","","","null","","","","","","","","",""
"null","<img src=""stim_listB/kiss1.gif""style=""height:400px;""></stim_listB>","","html-keyboard-response","345","785697","0.0-19.0-1.5","6074","List1B","black","man","","","","null","","","","","","","","",""
"null","is kissing","","html-keyboard-response","346","787703","0.0-19.0-2.5","6074","List1B","black","man","","","","null","","","","","","","","",""
"2881.9000000953674","","","survey-text","347","790588","0.0-19.0-3.5","6074","List1B","black","man","","","","","{""Q0"":""beth is kissing fred""}","<img src=""stim_listB/kiss1.gif""style=""height:400px;""></stim_listB>","is kissing","","","","","",""
"null","<div style=""font-size:60px;"">+</div>","","html-keyboard-response","348","791090","0.0-19.0-0.6","6074","List1B","black","man","","","","null","","","","","","","","",""
"null","<img src=""stim_listB/oppose3.gif""style=""height:400px;""></stim_listB>","","html-keyboard-response","349","793096","0.0-19.0-1.6","6074","List1B","black","man","","","","null","","","","","","","","",""
"null","is opposing","","html-keyboard-response","350","795101","0.0-19.0-2.6","6074","List1B","black","man","","","","null","","","","","","","","",""
"2644.8000000715256","","","survey-text","351","797749","0.0-19.0-3.6","6074","List1B","black","man","","","","","{""Q0"":""jane is opposing dave""}","<img src=""stim_listB/oppose3.gif""style=""height:400px;""></stim_listB>","is opposing","","","","","",""
"null","<div style=""font-size:60px;"">+</div>","","html-keyboard-response","352","798251","0.0-19.0-0.7","6074","List1B","black","man","","","","null","","","","","","","","",""
"null","<img src=""stim_listB/greet7.gif""style=""height:400px;""></stim_listB>","","html-keyboard-response","353","800256","0.0-19.0-1.7","6074","List1B","black","man","","","","null","","","","","","","","",""
"null","is greeting","","html-keyboard-response","354","802260","0.0-19.0-2.7","6074","List1B","black","man","","","","null","","","","","","","","",""
"4010.399999976158","","","survey-text","355","806275","0.0-19.0-3.7","6074","List1B","black","man","","","","","{""Q0"":""ruth is greeting kate""}","<img src=""stim_listB/greet7.gif""style=""height:400px;""></stim_listB>","is greeting","","","","","",""
"null","<div style=""font-size:60px;"">+</div>","","html-keyboard-response","356","806776","0.0-19.0-0.8","6074","List1B","black","man","","","","null","","","","","","","","",""
"null","<img src=""stim_listB/greet1.gif""style=""height:400px;""></stim_listB>","","html-keyboard-response","357","808781","0.0-19.0-1.8","6074","List1B","black","man","","","","null","","","","","","","","",""
"null","is greeting","","html-keyboard-response","358","810786","0.0-19.0-2.8","6074","List1B","black","man","","","","null","","","","","","","","",""
"2848.1999999284744","","","survey-text","359","813638","0.0-19.0-3.8","6074","List1B","black","man","","","","","{""Q0"":""beth is greeting mike""}","<img src=""stim_listB/greet1.gif""style=""height:400px;""></stim_listB>","is greeting","","","","","",""
"null","<div style=""font-size:60px;"">+</div>","","html-keyboard-response","360","814141","0.0-19.0-0.9","6074","List1B","black","man","","","","null","","","","","","","","",""
"null","<img src=""stim_listB/shout2.gif""style=""height:400px;""></stim_listB>","","html-keyboard-response","361","816146","0.0-19.0-1.9","6074","List1B","black","man","","","","null","","","","","","","","",""
"null","is being shouted at by","","html-keyboard-response","362","818151","0.0-19.0-2.9","6074","List1B","black","man","","","","null","","","","","","","","",""
"4236.299999952316","","","survey-text","363","822390","0.0-19.0-3.9","6074","List1B","black","man","","","","","{""Q0"":""mike is being shouted at by kate""}","<img src=""stim_listB/shout2.gif""style=""height:400px;""></stim_listB>","is being shouted at by","","","","","",""
"null","<div style=""font-size:60px;"">+</div>","","html-keyboard-response","364","822892","0.0-19.0-0.10","6074","List1B","black","man","","","","null","","","","","","","","",""
"null","<img src=""stim_listB/hug3.gif""style=""height:400px;""></stim_listB>","","html-keyboard-response","365","824898","0.0-19.0-1.10","6074","List1B","black","man","","","","null","","","","","","","","",""
"null","is hugging","","html-keyboard-response","366","826901","0.0-19.0-2.10","6074","List1B","black","man","","","","null","","","","","","","","",""
"2851.5","","","survey-text","367","829756","0.0-19.0-3.10","6074","List1B","black","man","","","","","{""Q0"":""ruth is hugging luke""}","<img src=""stim_listB/hug3.gif""style=""height:400px;""></stim_listB>","is hugging","","","","","",""
"null","<div style=""font-size:60px;"">+</div>","","html-keyboard-response","368","830259","0.0-19.0-0.11","6074","List1B","black","man","","","","null","","","","","","","","",""
"null","<img src=""stim_listB/hug8.gif""style=""height:400px;""></stim_listB>","","html-keyboard-response","369","832265","0.0-19.0-1.11","6074","List1B","black","man","","","","null","","","","","","","","",""
"null","is being hugged by","","html-keyboard-response","370","834269","0.0-19.0-2.11","6074","List1B","black","man","","","","null","","","","","","","","",""
"3682.4000000953674","","","survey-text","371","837954","0.0-19.0-3.11","6074","List1B","black","man","","","","","{""Q0"":""kate is being hugged by jane""}","<img src=""stim_listB/hug8.gif""style=""height:400px;""></stim_listB>","is being hugged by","","","","","",""
"null","<div style=""font-size:60px;"">+</div>","","html-keyboard-response","372","838457","0.0-19.0-0.12","6074","List1B","black","man","","","","null","","","","","","","","",""
"null","<img src=""stim_listB/touch8.gif""style=""height:400px;""></stim_listB>","","html-keyboard-response","373","840462","0.0-19.0-1.12","6074","List1B","black","man","","","","null","","","","","","","","",""
"null","is being touched by","","html-keyboard-response","374","842465","0.0-19.0-2.12","6074","List1B","black","man","","","","null","","","","","","","","",""
"3471.5","","","survey-text","375","845940","0.0-19.0-3.12","6074","List1B","black","man","","","","","{""Q0"":""beth is being touched by ruth""}","<img src=""stim_listB/touch8.gif""style=""height:400px;""></stim_listB>","is being touched by","","","","","",""
"null","<div style=""font-size:60px;"">+</div>","","html-keyboard-response","376","846443","0.0-19.0-0.13","6074","List1B","black","man","","","","null","","","","","","","","",""
"null","<img src=""stim_listB/touch2.gif""style=""height:400px;""></stim_listB>","","html-keyboard-response","377","848449","0.0-19.0-1.13","6074","List1B","black","man","","","","null","","","","","","","","",""
"null","is being touched by","","html-keyboard-response","378","850453","0.0-19.0-2.13","6074","List1B","black","man","","","","null","","","","","","","","",""
"4254.600000023842","","","survey-text","379","854710","0.0-19.0-3.13","6074","List1B","black","man","","","","","{""Q0"":""fred is being touched by beth""}","<img src=""stim_listB/touch2.gif""style=""height:400px;""></stim_listB>","is being touched by","","","","","",""
"null","<div style=""font-size:60px;"">+</div>","","html-keyboard-response","380","855213","0.0-19.0-0.14","6074","List1B","black","man","","","","null","","","","","","","","",""
"null","<img src=""stim_listB/shout5.gif""style=""height:400px;""></stim_listB>","","html-keyboard-response","381","857219","0.0-19.0-1.14","6074","List1B","black","man","","","","null","","","","","","","","",""
"null","is shouting at","","html-keyboard-response","382","859224","0.0-19.0-2.14","6074","List1B","black","man","","","","null","","","","","","","","",""
"3351.5","","","survey-text","383","862579","0.0-19.0-3.14","6074","List1B","black","man","","","","","{""Q0"":""luke is shouting at fred""}","<img src=""stim_listB/shout5.gif""style=""height:400px;""></stim_listB>","is shouting at","","","","","",""
"null","<div style=""font-size:60px;"">+</div>","","html-keyboard-response","384","863080","0.0-19.0-0.15","6074","List1B","black","man","","","","null","","","","","","","","",""
"null","<img src=""stim_listB/greet8.gif""style=""height:400px;""></stim_listB>","","html-keyboard-response","385","865083","0.0-19.0-1.15","6074","List1B","black","man","","","","null","","","","","","","","",""
"null","is being greeted by","","html-keyboard-response","386","867086","0.0-19.0-2.15","6074","List1B","black","man","","","","null","","","","","","","","",""
"5492.600000023842","","","survey-text","387","872582","0.0-19.0-3.15","6074","List1B","black","man","","","","","{""Q0"":""beth is being greeted by jane""}","<img src=""stim_listB/greet8.gif""style=""height:400px;""></stim_listB>","is being greeted by","","","","","",""
"null","<div style=""font-size:60px;"">+</div>","","html-keyboard-response","388","873083","0.0-19.0-0.16","6074","List1B","black","man","","","","null","","","","","","","","",""
"null","<img src=""stim_listB/look1.gif""style=""height:400px;""></stim_listB>","","html-keyboard-response","389","875085","0.0-19.0-1.16","6074","List1B","black","man","","","","null","","","","","","","","",""
"null","is looking at","","html-keyboard-response","390","877088","0.0-19.0-2.16","6074","List1B","black","man","","","","null","","","","","","","","",""
"3108.7000000476837","","","survey-text","391","880201","0.0-19.0-3.16","6074","List1B","black","man","","","","","{""Q0"":""beth is looking at fred""}","<img src=""stim_listB/look1.gif""style=""height:400px;""></stim_listB>","is looking at","","","","","",""
"null","<div style=""font-size:60px;"">+</div>","","html-keyboard-response","392","880704","0.0-19.0-0.17","6074","List1B","black","man","","","","null","","","","","","","","",""
"null","<img src=""stim_listB/shout3.gif""style=""height:400px;""></stim_listB>","","html-keyboard-response","393","882708","0.0-19.0-1.17","6074","List1B","black","man","","","","null","","","","","","","","",""
"null","is shouting at","","html-keyboard-response","394","884712","0.0-19.0-2.17","6074","List1B","black","man","","","","null","","","","","","","","",""
"3023.100000023842","","","survey-text","395","887739","0.0-19.0-3.17","6074","List1B","black","man","","","","","{""Q0"":""ruth is shouting at luke""}","<img src=""stim_listB/shout3.gif""style=""height:400px;""></stim_listB>","is shouting at","","","","","",""
"null","<div style=""font-size:60px;"">+</div>","","html-keyboard-response","396","888241","0.0-19.0-0.18","6074","List1B","black","man","","","","null","","","","","","","","",""
"null","<img src=""stim_listB/seduce8.gif""style=""height:400px;""></stim_listB>","","html-keyboard-response","397","890247","0.0-19.0-1.18","6074","List1B","black","man","","","","null","","","","","","","","",""
"null","is being seduced by","","html-keyboard-response","398","892251","0.0-19.0-2.18","6074","List1B","black","man","","","","null","","","","","","","","",""
"4195","","","survey-text","399","896449","0.0-19.0-3.18","6074","List1B","black","man","","","","","{""Q0"":""kate is being seduced by ruth""}","<img src=""stim_listB/seduce8.gif""style=""height:400px;""></stim_listB>","is being seduced by","","","","","",""
"null","<div style=""font-size:60px;"">+</div>","","html-keyboard-response","400","896951","0.0-19.0-0.19","6074","List1B","black","man","","","","null","","","","","","","","",""
"null","<img src=""stim_listB/look8.gif""style=""height:400px;""></stim_listB>","","html-keyboard-response","401","898957","0.0-19.0-1.19","6074","List1B","black","man","","","","null","","","","","","","","",""
"null","is being looked at by","","html-keyboard-response","402","900961","0.0-19.0-2.19","6074","List1B","black","man","","","","null","","","","","","","","",""
"4051.899999976158","","","survey-text","403","905016","0.0-19.0-3.19","6074","List1B","black","man","","","","","{""Q0"":""kate is being looked at by jane""}","<img src=""stim_listB/look8.gif""style=""height:400px;""></stim_listB>","is being looked at by","","","","","",""
"3548.899999976158","<p>Thank you for completing that task.</p><p>The final part of this session is a questionnaire that will take about 4 minutes.</p><p>Press Continue.</p>","0","html-button-response","404","908566","0.0-20.0","6074","List1B","black","man","","","","","","","","","","","","",""
"17754","","","survey-text","405","927333","0.0-21.0","6074","List1B","black","man","","","","","{""Q0"":""29"",""Q1"":""English"",""Q2"":""English"",""Q3"":""United States"",""Q4"":""American"",""Q5"":""Black"",""Q6"":""Male""}","","","demographics","","","","",""
"1312.8999999761581","<p>Have you lived in the USA for the last 5 years or more?</p>","0","html-button-response","406","928648","0.0-22.0","6074","List1B","black","man","","","","","","","","fiveyears","","","","",""
"1395.1999999284744","<p>Move the slider to show the extent to which you agree with the following statements.</p>","0","html-button-response","407","931048","0.0-23.0","6074","List1B","black","man","","","","","","","","","","","","",""
"4160.899999976158","","","html-slider-response","408","936212","0.0-24.0-0.0-0.0","6074","List1B","black","man","","","","","","","","survey_race","73","","","The fact that I am my race is an important part of my identity.","identity"
"5642","","","html-slider-response","409","941856","0.0-24.0-0.0-0.1","6074","List1B","black","man","","","","","","","","survey_race","53","","","I have a lot in common with people of a similar age to me.","filler"
"6983.699999928474","","","html-slider-response","410","948842","0.0-24.0-0.0-0.2","6074","List1B","black","man","","","","","","","","survey_race","66","","","People of my race have a lot in common with each other.","common"
"3362.2000000476837","","","html-slider-response","411","952206","0.0-24.0-0.0-0.3","6074","List1B","black","man","","","","","","","","survey_race","73","","","I feel committed to my race.","committed"
"3227.7000000476837","","","html-slider-response","412","955436","0.0-24.0-0.0-0.4","6074","List1B","black","man","","","","","","","","survey_race","38","","","Being my age gives me a good feeling.","filler"
"5780.399999976158","","","html-slider-response","413","961218","0.0-24.0-0.0-0.5","6074","List1B","black","man","","","","","","","","survey_race","61","","","I often think about the fact that I am my race.","often"
"4069.899999976158","","","html-slider-response","414","965290","0.0-24.0-0.0-0.6","6074","List1B","black","man","","","","","","","","survey_race","60","","","I have a lot in common with the average person of my race.","average"
"4894.5","","","html-slider-response","415","970186","0.0-24.0-0.0-0.7","6074","List1B","black","man","","","","","","","","survey_race","100","","","I think that my race has a lot to be proud of.","proud"
"2933.2000000476837","","","html-slider-response","416","973121","0.0-24.0-0.0-0.8","6074","List1B","black","man","","","","","","","","survey_race","69","","","I feel a bond with people the same age as me.","filler"
"3283.1999999284744","","","html-slider-response","417","976405","0.0-24.0-0.0-0.9","6074","List1B","black","man","","","","","","","","survey_race","0","","","I consider myself an extrovert.","filler"
"3418.600000023842","","","html-slider-response","418","979826","0.0-24.0-0.0-0.10","6074","List1B","black","man","","","","","","","","survey_race","68","","","The older I get, the wiser I feel.","filler"
"2383.100000023842","","","html-slider-response","419","982211","0.0-24.0-0.0-0.11","6074","List1B","black","man","","","","","","","","survey_race","41","","","I am glad to be my age.","filler"
"3361.899999976158","","","html-slider-response","420","985575","0.0-24.0-0.0-0.12","6074","List1B","black","man","","","","","","","","survey_race","33","","","My age is not an important part of who I am.","filler"
"6163.700000047684","","","html-slider-response","421","991740","0.0-24.0-0.0-0.13","6074","List1B","black","man","","","","","","","","survey_race","53","","","I am similar to the average person of my race.","similar"
"4239.599999904633","","","html-slider-response","422","995981","0.0-24.0-0.0-0.14","6074","List1B","black","man","","","","","","","","survey_race","70","","","It is pleasant to be my race.","pleasant"
"3126.9000000953674","","","html-slider-response","423","999110","0.0-24.0-0.0-0.15","6074","List1B","black","man","","","","","","","","survey_race","77","","","Being my race gives me a good feeling.","feeling"
"2079.2000000476837","","","html-slider-response","424","1001190","0.0-24.0-0.0-0.16","6074","List1B","black","man","","","","","","","","survey_race","74","","","I am glad to be my race.","glad"
"1990","","","html-slider-response","425","1003182","0.0-24.0-0.0-0.17","6074","List1B","black","man","","","","","","","","survey_race","73","","","I feel solidarity with my race.","solidarity"
"2710.100000023842","","","html-slider-response","426","1005893","0.0-24.0-0.0-0.18","6074","List1B","black","man","","","","","","","","survey_race","0","","","Getting older does not worry me.","filler"
"3339.600000023842","","","html-slider-response","427","1009235","0.0-24.0-0.0-0.19","6074","List1B","black","man","","","","","","","","survey_race","40","","","People of my race are very similar to each other.","verysimilar"
"2664.5","","","html-slider-response","428","1011901","0.0-24.0-0.0-0.20","6074","List1B","black","man","","","","","","","","survey_race","23","","","I enjoy being in large groups.","filler"
"2068.7000000476837","","","html-slider-response","429","1013971","0.0-24.0-0.0-0.21","6074","List1B","black","man","","","","","","","","survey_race","75","","","I feel a bond with my race.","bond"
"2948.5","","","html-slider-response","430","1016921","0.0-24.0-0.0-0.22","6074","List1B","black","man","","","","","","","","survey_race","59","","","I feel solidarity with people the same age as me.","filler"
"2631.7000000476837","","","html-slider-response","431","1019554","0.0-24.0-0.0-0.23","6074","List1B","black","man","","","","","","","","survey_race","62","","","I often think about the fact that I am my age.","filler"
"1931","","","html-slider-response","432","1021486","0.0-24.0-0.0-0.24","6074","List1B","black","man","","","","","","","","survey_race","36","","","I am glad to be the age I am.","filler"
"3567.1999999284744","","","html-slider-response","433","1025055","0.0-24.0-0.0-0.25","6074","List1B","black","man","","","","","","","","survey_race","43","","","People my age have a lot in common with each other.","filler"
"2583.6999999284744","","","html-slider-response","434","1027640","0.0-24.0-0.0-0.26","6074","List1B","black","man","","","","","","","","survey_race","66","","","Being my race is an important part of how I see myself.","important"
"2474.399999976158","","","html-slider-response","435","1030117","0.0-24.0-0.0-0.27","6074","List1B","black","man","","","","","","","","survey_race","85","","","I consider myself an introvert.","filler"
"6860.600000023842","","","html-slider-response","436","1036979","0.0-24.0-1.0-0.0","6074","List1B","black","man","","","","","","","","survey_gender","52","","","Being my gender gives me a good feeling.","feeling"
"2877.5","","","html-slider-response","437","1039858","0.0-24.0-1.0-0.1","6074","List1B","black","man","","","","","","","","survey_gender","71","","","I am glad to have the friends that I have.","filler"
"3197.7000000476837","","","html-slider-response","438","1043057","0.0-24.0-1.0-0.2","6074","List1B","black","man","","","","","","","","survey_gender","65","","","My friends have a lot in common with each other.","filler"
"3100.1999999284744","","","html-slider-response","439","1046159","0.0-24.0-1.0-0.3","6074","List1B","black","man","","","","","","","","survey_gender","55","","","People of my gender are very similar to each other.","verysimilar"
"2946.4000000953674","","","html-slider-response","440","1049107","0.0-24.0-1.0-0.4","6074","List1B","black","man","","","","","","","","survey_gender","83","","","I consider myself a highly empathetic person.","filler"
"6406.100000023842","","","html-slider-response","441","1055514","0.0-24.0-1.0-0.5","6074","List1B","black","man","","","","","","","","survey_gender","47","","","The fact that I am my gender is an important part of my identity.","identity"
"3568.9000000953674","","","html-slider-response","442","1059086","0.0-24.0-1.0-0.6","6074","List1B","black","man","","","","","","","","survey_gender","81","","","I think that my gender has a lot to be proud of.","proud"
"2281.899999976158","","","html-slider-response","443","1061369","0.0-24.0-1.0-0.7","6074","List1B","black","man","","","","","","","","survey_gender","100","","","I often think about my actions.","filler"
"3059.100000023842","","","html-slider-response","444","1064430","0.0-24.0-1.0-0.8","6074","List1B","black","man","","","","","","","","survey_gender","100","","","It is not always easy for people to know what I am thinking.","filler"
"2438.8000000715256","","","html-slider-response","445","1066870","0.0-24.0-1.0-0.9","6074","List1B","black","man","","","","","","","","survey_gender","78","","","It is pleasant to be my gender.","pleasant"
"2658.100000023842","","","html-slider-response","446","1069530","0.0-24.0-1.0-0.10","6074","List1B","black","man","","","","","","","","survey_gender","76","","","Routine is not important to me.","filler"
"1985.6000000238419","","","html-slider-response","447","1071517","0.0-24.0-1.0-0.11","6074","List1B","black","man","","","","","","","","survey_gender","74","","","I feel solidarity with my friends.","filler"
"3273.399999976158","","","html-slider-response","448","1074791","0.0-24.0-1.0-0.12","6074","List1B","black","man","","","","","","","","survey_gender","57","","","I feel solidarity with my gender.","solidarity"
"2643.100000023842","","","html-slider-response","449","1077436","0.0-24.0-1.0-0.13","6074","List1B","black","man","","","","","","","","survey_gender","56","","","I have a lot in common with the average person of my gender.","average"
"3645.5","","","html-slider-response","450","1081083","0.0-24.0-1.0-0.14","6074","List1B","black","man","","","","","","","","survey_gender","43","","","My friends understand me.","filler"
"3134.100000023842","","","html-slider-response","451","1084219","0.0-24.0-1.0-0.15","6074","List1B","black","man","","","","","","","","survey_gender","54","","","People of my gender have a lot in common with each other.","common"
"2563.600000023842","","","html-slider-response","452","1086785","0.0-24.0-1.0-0.16","6074","List1B","black","man","","","","","","","","survey_gender","70","","","I am glad to be my gender.","glad"
"2674.7999999523163","","","html-slider-response","453","1089461","0.0-24.0-1.0-0.17","6074","List1B","black","man","","","","","","","","survey_gender","48","","","Being my gender is an important part of how I see myself.","important"
"2632","","","html-slider-response","454","1092094","0.0-24.0-1.0-0.18","6074","List1B","black","man","","","","","","","","survey_gender","80","","","Being around my friends gives me a good feeling.","filler"
"2664.7999999523163","","","html-slider-response","455","1094761","0.0-24.0-1.0-0.19","6074","List1B","black","man","","","","","","","","survey_gender","69","","","I feel a bond with my friends.","filler"
"2091.2999999523163","","","html-slider-response","456","1096853","0.0-24.0-1.0-0.20","6074","List1B","black","man","","","","","","","","survey_gender","0","","","I would say I am an animal person.","filler"
"3588.5","","","html-slider-response","457","1100443","0.0-24.0-1.0-0.21","6074","List1B","black","man","","","","","","","","survey_gender","45","","","Most of the friends in my life are very similar to me.","filler"
"3214.7000000476837","","","html-slider-response","458","1103659","0.0-24.0-1.0-0.22","6074","List1B","black","man","","","","","","","","survey_gender","52","","","I feel a bond with my gender.","bond"
"3778.5","","","html-slider-response","459","1107440","0.0-24.0-1.0-0.23","6074","List1B","black","man","","","","","","","","survey_gender","54","","","I am similar to the average person of my gender.","similar"
"2262.399999976158","","","html-slider-response","460","1109704","0.0-24.0-1.0-0.24","6074","List1B","black","man","","","","","","","","survey_gender","51","","","I feel committed to my gender.","committed"
"5385","","","html-slider-response","461","1115091","0.0-24.0-1.0-0.25","6074","List1B","black","man","","","","","","","","survey_gender","49","","","Family is not more important to me than friendship.","filler"
"10516.5","","","html-slider-response","462","1125609","0.0-24.0-1.0-0.26","6074","List1B","black","man","","","","","","","","survey_gender","26","","","I often think about the fact that I am my gender.","often"
"2125.100000023842","","","html-slider-response","463","1127736","0.0-24.0-1.0-0.27","6074","List1B","black","man","","","","","","","","survey_gender","55","","","I have a lot in common with my friends.","filler"
"3037","","","survey-text","464","1130777","0.0-25.0","6074","List1B","black","man","","","","","{""Q0"":""610ef9a5cdec3fa83ceaf938""}","","","worker_id","","","","",""
"6494.200000047684","","","external-html","465","1137805","0.0-26.0","6074","List1B","black","man","debrief.html","","","","","","","","","","","",""
