"rt","stimulus","button_pressed","trial_type","trial_index","time_elapsed","internal_node_id","subject","list","ppt_race","ppt_gender","url","first_guess","correct","key_press","responses","image_type","phrase_type","test_part","response","stimulus1","stimulus2","question_type","survey_item"
"4708.394999997836","Welcome to the experiment. Press Continue to begin.","0","html-button-response","0","4719","0.0-0.0","6079","List2B","black","woman","","","","","","","","","","","","",""
"126050.54000000018","","","external-html","1","132176","0.0-1.0","6079","List2B","black","woman","consent.html","","","","","","","","","","","",""
"12111.990000001242","<p>On the next page, you will see portraits of 8 people and their names.</p><p>Your first task is to take a few minutes to memorise the names of these people.</p><p>You will have to recall their names during the rest of the experiment, so it is</p><p>essential that you try to memorise these people and their names as best as you can.</p><br><p><strong>You will then be tested on your memory of these names and portraits.</strong></p><br><p>The experiment will start after you have completed this memory test.</p><br><p>Ready?</p>","0","html-button-response","2","144294","0.0-2.0","6079","List2B","black","woman","","","","","","","","","","","","",""
"208416.73499999888","<img src='img/portrait_matrix_list2.jpg' style='width:900px;height:500px;''></img><p>If you have memorised all the portraits and names and are ready to start, press Continue.</p><p><strong>Please note: Your memory of these faces will be tested 4 times during this experiment.</strong></p>","0","html-button-response","3","353716","0.0-3.0-0.0","6079","List2B","black","woman","","","","","","","","","","","","",""
"8269.460000003164","<img src=""portrait/BW1.jpg""style=""height:400px;""></img>","0","html-button-response","4","362997","0.0-3.0-1.0","6079","List2B","black","woman","","true","0","","","","","","","","","",""
"null","CORRECT","","html-keyboard-response","5","364512","0.0-3.0-2.0-0.0","6079","List2B","black","woman","","","","null","","","","","","","","",""
"5831.465000002936","<img src=""portrait/WW1.jpg""style=""height:400px;""></img>","1","html-button-response","6","370349","0.0-3.0-4.0","6079","List2B","black","woman","","true","1","","","","","","","","","",""
"null","CORRECT","","html-keyboard-response","7","371901","0.0-3.0-5.0-0.0","6079","List2B","black","woman","","","","null","","","","","","","","",""
"6109.250000001339","<img src=""portrait/WM2.jpg""style=""height:400px;""></img>","7","html-button-response","8","378026","0.0-3.0-7.0","6079","List2B","black","woman","","true","7","","","","","","","","","",""
"null","CORRECT","","html-keyboard-response","9","379532","0.0-3.0-8.0-0.0","6079","List2B","black","woman","","","","null","","","","","","","","",""
"6934.110000001965","<img src=""portrait/WM1.jpg""style=""height:400px;""></img>","6","html-button-response","10","386471","0.0-3.0-10.0","6079","List2B","black","woman","","true","6","","","","","","","","","",""
"null","CORRECT","","html-keyboard-response","11","387974","0.0-3.0-11.0-0.0","6079","List2B","black","woman","","","","null","","","","","","","","",""
"4309.02999999671","<img src=""portrait/WW2.jpg""style=""height:400px;""></img>","3","html-button-response","12","392295","0.0-3.0-13.0","6079","List2B","black","woman","","true","3","","","","","","","","","",""
"null","CORRECT","","html-keyboard-response","13","393803","0.0-3.0-14.0-0.0","6079","List2B","black","woman","","","","null","","","","","","","","",""
"3950.6449999971665","<img src=""portrait/BM2.jpg""style=""height:400px;""></img>","5","html-button-response","14","397761","0.0-3.0-16.0","6079","List2B","black","woman","","true","5","","","","","","","","","",""
"null","CORRECT","","html-keyboard-response","15","399267","0.0-3.0-17.0-0.0","6079","List2B","black","woman","","","","null","","","","","","","","",""
"3977.9599999965285","<img src=""portrait/BW2.jpg""style=""height:400px;""></img>","2","html-button-response","16","403255","0.0-3.0-19.0","6079","List2B","black","woman","","true","2","","","","","","","","","",""
"null","CORRECT","","html-keyboard-response","17","404767","0.0-3.0-20.0-0.0","6079","List2B","black","woman","","","","null","","","","","","","","",""
"3702.2350000042934","<img src=""portrait/BM1.jpg""style=""height:400px;""></img>","4","html-button-response","18","408477","0.0-3.0-22.0","6079","List2B","black","woman","","true","4","","","","","","","","","",""
"null","CORRECT","","html-keyboard-response","19","409979","0.0-3.0-23.0-0.0","6079","List2B","black","woman","","","","null","","","","","","","","",""
"3968.8349999996717","<p>You got 8 out of 8 right first time. Press Continue.</p>","0","html-button-response","20","413952","0.0-3.0-25.0","6079","List2B","black","woman","","","","","","","","","","","","",""
"67127.69999999728","<p>In this experiment, you will view photographs of the people from the memory game interacting.</p><p>By using the <strong>exact</strong> phrase given <i>after</i> the photograph appears and recalling the correct names of the people in the photographs, form a sentence describing the interaction. You do not need to capitalise names.</p><p>Type your answer in the space provided. Please complete every sentence before moving onto the next trial.</p><p>You will only have a few seconds to memorise each given photograph and phrase before you can respond, so try your best to focus.</p><p>An example is given below. Press 'Continue' when you are ready.</p><img src='img/speaking_example.jpg' style='width:800px;height:460px;''></img>","0","html-button-response","21","482102","0.0-4.0","6079","List2B","black","woman","","","","","","","","","","","","",""
"6254.365000000689","<p>Before the experiment starts, you will watch two example trials. Press 'Continue'.</p>","0","html-button-response","22","489362","0.0-5.0","6079","List2B","black","woman","","","","","","","","","","","","",""
"null","<img src='img/play_eg.gif' style='height:400px;''></img>","","html-keyboard-response","23","492372","0.0-6.0","6079","List2B","black","woman","","","","null","","","","","","","","",""
"null","<p>is playing with</p>","","html-keyboard-response","24","494376","0.0-7.0","6079","List2B","black","woman","","","","null","","","","","","","","",""
"14074.444999998319","<p><b>Answer:</b> jane is playing with ruth</p>","0","html-button-response","25","508455","0.0-8.0","6079","List2B","black","woman","","","","","","","","","","","","",""
"null","<img src='img/dance_eg.gif' style='height:400px;''></img>","","html-keyboard-response","26","511458","0.0-9.0","6079","List2B","black","woman","","","","null","","","","","","","","",""
"null","<p>is being entertained by</p>","","html-keyboard-response","27","513460","0.0-10.0","6079","List2B","black","woman","","","","null","","","","","","","","",""
"7955.084999994142","<p><b>Answer:</b> fred is being entertained by mike</p>","0","html-button-response","28","521417","0.0-11.0","6079","List2B","black","woman","","","","","","","","","","","","",""
"11904.265000004787","<p>Ready to start the experiment?</p><br><p><strong>Remember to describe the picture using a full sentence,</strong></p><p><strong>that combines the names of the people with the <i>exact</i> phrase given.</strong></p><p><strong>To receive full payment you must do this correctly.</strong></p><p><strong> You do not need to capitalise names or use punctuation.</strong></p><br><p>Press 'Continue' to begin.</p>","0","html-button-response","29","534333","0.0-12.0","6079","List2B","black","woman","","","","","","","","","","","","",""
"null","<div style=""font-size:60px;"">+</div>","","html-keyboard-response","30","535838","0.0-13.0-0.0","6079","List2B","black","woman","","","","null","","","","","","","","",""
"null","<img src=""stim_listB/kiss5.gif""style=""height:400px;""></stim_listB>","","html-keyboard-response","31","537850","0.0-13.0-1.0","6079","List2B","black","woman","","","","null","","","","","","","","",""
"null","is kissing","","html-keyboard-response","32","539856","0.0-13.0-2.0","6079","List2B","black","woman","","","","null","","","","","","","","",""
"16471.349999999744","","","survey-text","33","556343","0.0-13.0-3.0","6079","List2B","black","woman","","","","","{""Q0"":""luke is kissing fred""}","<img src=""stim_listB/kiss5.gif""style=""height:400px;""></stim_listB>","is kissing","","","","","",""
"null","<div style=""font-size:60px;"">+</div>","","html-keyboard-response","34","556851","0.0-13.0-0.1","6079","List2B","black","woman","","","","null","","","","","","","","",""
"null","<img src=""stim_listB/kiss1.gif""style=""height:400px;""></stim_listB>","","html-keyboard-response","35","558858","0.0-13.0-1.1","6079","List2B","black","woman","","","","null","","","","","","","","",""
"null","is kissing","","html-keyboard-response","36","560862","0.0-13.0-2.1","6079","List2B","black","woman","","","","null","","","","","","","","",""
"10524.53999999864","","","survey-text","37","571392","0.0-13.0-3.1","6079","List2B","black","woman","","","","","{""Q0"":""ruth is kissing luke""}","<img src=""stim_listB/kiss1.gif""style=""height:400px;""></stim_listB>","is kissing","","","","","",""
"null","<div style=""font-size:60px;"">+</div>","","html-keyboard-response","38","571899","0.0-13.0-0.2","6079","List2B","black","woman","","","","null","","","","","","","","",""
"null","<img src=""stim_listB/copy8.gif""style=""height:400px;""></stim_listB>","","html-keyboard-response","39","573906","0.0-13.0-1.2","6079","List2B","black","woman","","","","null","","","","","","","","",""
"null","is being copied by","","html-keyboard-response","40","575911","0.0-13.0-2.2","6079","List2B","black","woman","","","","null","","","","","","","","",""
"12918.529999995371","","","survey-text","41","588842","0.0-13.0-3.2","6079","List2B","black","woman","","","","","{""Q0"":""kate is being copied by ruth""}","<img src=""stim_listB/copy8.gif""style=""height:400px;""></stim_listB>","is being copied by","","","","","",""
"null","<div style=""font-size:60px;"">+</div>","","html-keyboard-response","42","589346","0.0-13.0-0.3","6079","List2B","black","woman","","","","null","","","","","","","","",""
"null","<img src=""stim_listB/hug2.gif""style=""height:400px;""></stim_listB>","","html-keyboard-response","43","591358","0.0-13.0-1.3","6079","List2B","black","woman","","","","null","","","","","","","","",""
"null","is being hugged by","","html-keyboard-response","44","593365","0.0-13.0-2.3","6079","List2B","black","woman","","","","null","","","","","","","","",""
"7983.9000000065425","","","survey-text","45","601360","0.0-13.0-3.3","6079","List2B","black","woman","","","","","{""Q0"":""dave is being hugged by jane""}","<img src=""stim_listB/hug2.gif""style=""height:400px;""></stim_listB>","is being hugged by","","","","","",""
"null","<div style=""font-size:60px;"">+</div>","","html-keyboard-response","46","601863","0.0-13.0-0.4","6079","List2B","black","woman","","","","null","","","","","","","","",""
"null","<img src=""stim_listB/look2.gif""style=""height:400px;""></stim_listB>","","html-keyboard-response","47","603874","0.0-13.0-1.4","6079","List2B","black","woman","","","","null","","","","","","","","",""
"null","is being looked at by","","html-keyboard-response","48","605879","0.0-13.0-2.4","6079","List2B","black","woman","","","","null","","","","","","","","",""
"7672.299999998417","","","survey-text","49","613570","0.0-13.0-3.4","6079","List2B","black","woman","","","","","{""Q0"":""dave is being looked at by jane""}","<img src=""stim_listB/look2.gif""style=""height:400px;""></stim_listB>","is being looked at by","","","","","",""
"null","<div style=""font-size:60px;"">+</div>","","html-keyboard-response","50","614075","0.0-13.0-0.5","6079","List2B","black","woman","","","","null","","","","","","","","",""
"null","<img src=""stim_listB/greet8.gif""style=""height:400px;""></stim_listB>","","html-keyboard-response","51","616086","0.0-13.0-1.5","6079","List2B","black","woman","","","","null","","","","","","","","",""
"null","is being greeted by","","html-keyboard-response","52","618090","0.0-13.0-2.5","6079","List2B","black","woman","","","","null","","","","","","","","",""
"14737.300000000629","","","survey-text","53","632843","0.0-13.0-3.5","6079","List2B","black","woman","","","","","{""Q0"":""kate is being greeted by ruth""}","<img src=""stim_listB/greet8.gif""style=""height:400px;""></stim_listB>","is being greeted by","","","","","",""
"null","<div style=""font-size:60px;"">+</div>","","html-keyboard-response","54","633346","0.0-13.0-0.6","6079","List2B","black","woman","","","","null","","","","","","","","",""
"null","<img src=""stim_listB/challenge3.gif""style=""height:400px;""></stim_listB>","","html-keyboard-response","55","635360","0.0-13.0-1.6","6079","List2B","black","woman","","","","null","","","","","","","","",""
"null","is challenging","","html-keyboard-response","56","637366","0.0-13.0-2.6","6079","List2B","black","woman","","","","null","","","","","","","","",""
"7630.705000003218","","","survey-text","57","645006","0.0-13.0-3.6","6079","List2B","black","woman","","","","","{""Q0"":""mike is challenging beth""}","<img src=""stim_listB/challenge3.gif""style=""height:400px;""></stim_listB>","is challenging","","","","","",""
"null","<div style=""font-size:60px;"">+</div>","","html-keyboard-response","58","645513","0.0-13.0-0.7","6079","List2B","black","woman","","","","null","","","","","","","","",""
"null","<img src=""stim_listB/kiss3.gif""style=""height:400px;""></stim_listB>","","html-keyboard-response","59","647531","0.0-13.0-1.7","6079","List2B","black","woman","","","","null","","","","","","","","",""
"null","is kissing","","html-keyboard-response","60","649533","0.0-13.0-2.7","6079","List2B","black","woman","","","","null","","","","","","","","",""
"7927.400000000489","","","survey-text","61","657475","0.0-13.0-3.7","6079","List2B","black","woman","","","","","{""Q0"":""fred is kissing beth""}","<img src=""stim_listB/kiss3.gif""style=""height:400px;""></stim_listB>","is kissing","","","","","",""
"null","<div style=""font-size:60px;"">+</div>","","html-keyboard-response","62","657981","0.0-13.0-0.8","6079","List2B","black","woman","","","","null","","","","","","","","",""
"null","<img src=""stim_listB/look6.gif""style=""height:400px;""></stim_listB>","","html-keyboard-response","63","660000","0.0-13.0-1.8","6079","List2B","black","woman","","","","null","","","","","","","","",""
"null","is being looked at by","","html-keyboard-response","64","662007","0.0-13.0-2.8","6079","List2B","black","woman","","","","null","","","","","","","","",""
"8359.635000000708","","","survey-text","65","670381","0.0-13.0-3.8","6079","List2B","black","woman","","","","","{""Q0"":""dave is being looked at by mike""}","<img src=""stim_listB/look6.gif""style=""height:400px;""></stim_listB>","is being looked at by","","","","","",""
"null","<div style=""font-size:60px;"">+</div>","","html-keyboard-response","66","670892","0.0-13.0-0.9","6079","List2B","black","woman","","","","null","","","","","","","","",""
"null","<img src=""stim_listB/kiss8.gif""style=""height:400px;""></stim_listB>","","html-keyboard-response","67","672908","0.0-13.0-1.9","6079","List2B","black","woman","","","","null","","","","","","","","",""
"null","is being kissed by","","html-keyboard-response","68","674915","0.0-13.0-2.9","6079","List2B","black","woman","","","","null","","","","","","","","",""
"13342.955000000075","","","survey-text","69","688268","0.0-13.0-3.9","6079","List2B","black","woman","","","","","{""Q0"":""kate is being kissed by jane""}","<img src=""stim_listB/kiss8.gif""style=""height:400px;""></stim_listB>","is being kissed by","","","","","",""
"null","<div style=""font-size:60px;"">+</div>","","html-keyboard-response","70","688770","0.0-13.0-0.10","6079","List2B","black","woman","","","","null","","","","","","","","",""
"null","<img src=""stim_listB/hug4.gif""style=""height:400px;""></stim_listB>","","html-keyboard-response","71","690775","0.0-13.0-1.10","6079","List2B","black","woman","","","","null","","","","","","","","",""
"null","is being hugged by","","html-keyboard-response","72","692781","0.0-13.0-2.10","6079","List2B","black","woman","","","","null","","","","","","","","",""
"9661.69500000251","","","survey-text","73","702461","0.0-13.0-3.10","6079","List2B","black","woman","","","","","{""Q0"":""kate is being hugged by mike""}","<img src=""stim_listB/hug4.gif""style=""height:400px;""></stim_listB>","is being hugged by","","","","","",""
"null","<div style=""font-size:60px;"">+</div>","","html-keyboard-response","74","702963","0.0-13.0-0.11","6079","List2B","black","woman","","","","null","","","","","","","","",""
"null","<img src=""stim_listB/greet4.gif""style=""height:400px;""></stim_listB>","","html-keyboard-response","75","704969","0.0-13.0-1.11","6079","List2B","black","woman","","","","null","","","","","","","","",""
"null","is being greeted by","","html-keyboard-response","76","706972","0.0-13.0-2.11","6079","List2B","black","woman","","","","null","","","","","","","","",""
"16427.120000000345","","","survey-text","77","723408","0.0-13.0-3.11","6079","List2B","black","woman","","","","","{""Q0"":""fred is being greeted by kate""}","<img src=""stim_listB/greet4.gif""style=""height:400px;""></stim_listB>","is being greeted by","","","","","",""
"null","<div style=""font-size:60px;"">+</div>","","html-keyboard-response","78","723911","0.0-13.0-0.12","6079","List2B","black","woman","","","","null","","","","","","","","",""
"null","<img src=""stim_listB/shout5.gif""style=""height:400px;""></stim_listB>","","html-keyboard-response","79","725915","0.0-13.0-1.12","6079","List2B","black","woman","","","","null","","","","","","","","",""
"null","is shouting at","","html-keyboard-response","80","727917","0.0-13.0-2.12","6079","List2B","black","woman","","","","null","","","","","","","","",""
"13235.614999997779","","","survey-text","81","741161","0.0-13.0-3.12","6079","List2B","black","woman","","","","","{""Q0"":""luke is shouting at fred""}","<img src=""stim_listB/shout5.gif""style=""height:400px;""></stim_listB>","is shouting at","","","","","",""
"null","<div style=""font-size:60px;"">+</div>","","html-keyboard-response","82","741663","0.0-13.0-0.13","6079","List2B","black","woman","","","","null","","","","","","","","",""
"null","<img src=""stim_listB/kiss4.gif""style=""height:400px;""></stim_listB>","","html-keyboard-response","83","743669","0.0-13.0-1.13","6079","List2B","black","woman","","","","null","","","","","","","","",""
"null","is being kissed by","","html-keyboard-response","84","745671","0.0-13.0-2.13","6079","List2B","black","woman","","","","null","","","","","","","","",""
"12216.504999996745","","","survey-text","85","757911","0.0-13.0-3.13","6079","List2B","black","woman","","","","","{""Q0"":""kate is being kissed by mike""}","<img src=""stim_listB/kiss4.gif""style=""height:400px;""></stim_listB>","is being kissed by","","","","","",""
"null","<div style=""font-size:60px;"">+</div>","","html-keyboard-response","86","758415","0.0-13.0-0.14","6079","List2B","black","woman","","","","null","","","","","","","","",""
"null","<img src=""stim_listB/oppose3.gif""style=""height:400px;""></stim_listB>","","html-keyboard-response","87","760425","0.0-13.0-1.14","6079","List2B","black","woman","","","","null","","","","","","","","",""
"null","is opposing","","html-keyboard-response","88","762428","0.0-13.0-2.14","6079","List2B","black","woman","","","","null","","","","","","","","",""
"9971.59500000265","","","survey-text","89","772415","0.0-13.0-3.14","6079","List2B","black","woman","","","","","{""Q0"":""mike is opposing kate""}","<img src=""stim_listB/oppose3.gif""style=""height:400px;""></stim_listB>","is opposing","","","","","",""
"null","<div style=""font-size:60px;"">+</div>","","html-keyboard-response","90","772918","0.0-13.0-0.15","6079","List2B","black","woman","","","","null","","","","","","","","",""
"null","<img src=""stim_listB/hug5.gif""style=""height:400px;""></stim_listB>","","html-keyboard-response","91","774923","0.0-13.0-1.15","6079","List2B","black","woman","","","","null","","","","","","","","",""
"null","is hugging","","html-keyboard-response","92","776926","0.0-13.0-2.15","6079","List2B","black","woman","","","","null","","","","","","","","",""
"5165.259999994305","","","survey-text","93","782102","0.0-13.0-3.15","6079","List2B","black","woman","","","","","{""Q0"":""fred is hugging luke""}","<img src=""stim_listB/hug5.gif""style=""height:400px;""></stim_listB>","is hugging","","","","","",""
"null","<div style=""font-size:60px;"">+</div>","","html-keyboard-response","94","782605","0.0-13.0-0.16","6079","List2B","black","woman","","","","null","","","","","","","","",""
"null","<img src=""stim_listB/oppose6.gif""style=""height:400px;""></stim_listB>","","html-keyboard-response","95","784614","0.0-13.0-1.16","6079","List2B","black","woman","","","","null","","","","","","","","",""
"null","is being opposed by","","html-keyboard-response","96","786620","0.0-13.0-2.16","6079","List2B","black","woman","","","","null","","","","","","","","",""
"15723.955000001355","","","survey-text","97","802364","0.0-13.0-3.16","6079","List2B","black","woman","","","","","{""Q0"":""fred is being opposed by luke""}","<img src=""stim_listB/oppose6.gif""style=""height:400px;""></stim_listB>","is being opposed by","","","","","",""
"null","<div style=""font-size:60px;"">+</div>","","html-keyboard-response","98","802867","0.0-13.0-0.17","6079","List2B","black","woman","","","","null","","","","","","","","",""
"null","<img src=""stim_listB/oppose5.gif""style=""height:400px;""></stim_listB>","","html-keyboard-response","99","804877","0.0-13.0-1.17","6079","List2B","black","woman","","","","null","","","","","","","","",""
"null","is opposing","","html-keyboard-response","100","806881","0.0-13.0-2.17","6079","List2B","black","woman","","","","null","","","","","","","","",""
"13566.15999999491","","","survey-text","101","820452","0.0-13.0-3.17","6079","List2B","black","woman","","","","","{""Q0"":""mike is opposing dave""}","<img src=""stim_listB/oppose5.gif""style=""height:400px;""></stim_listB>","is opposing","","","","","",""
"null","<div style=""font-size:60px;"">+</div>","","html-keyboard-response","102","820955","0.0-13.0-0.18","6079","List2B","black","woman","","","","null","","","","","","","","",""
"null","<img src=""stim_listB/greet7.gif""style=""height:400px;""></stim_listB>","","html-keyboard-response","103","822962","0.0-13.0-1.18","6079","List2B","black","woman","","","","null","","","","","","","","",""
"null","is greeting","","html-keyboard-response","104","824965","0.0-13.0-2.18","6079","List2B","black","woman","","","","null","","","","","","","","",""
"6828.495000001625","","","survey-text","105","831804","0.0-13.0-3.18","6079","List2B","black","woman","","","","","{""Q0"":""beth is greeting jane""}","<img src=""stim_listB/greet7.gif""style=""height:400px;""></stim_listB>","is greeting","","","","","",""
"null","<div style=""font-size:60px;"">+</div>","","html-keyboard-response","106","832308","0.0-13.0-0.19","6079","List2B","black","woman","","","","null","","","","","","","","",""
"null","<img src=""stim_listB/shout4.gif""style=""height:400px;""></stim_listB>","","html-keyboard-response","107","834316","0.0-13.0-1.19","6079","List2B","black","woman","","","","null","","","","","","","","",""
"null","is being shouted at by","","html-keyboard-response","108","836325","0.0-13.0-2.19","6079","List2B","black","woman","","","","null","","","","","","","","",""
"18029.26000000292","","","survey-text","109","854361","0.0-13.0-3.19","6079","List2B","black","woman","","","","","{""Q0"":""mike is being shouted at by kate""}","<img src=""stim_listB/shout4.gif""style=""height:400px;""></stim_listB>","is being shouted at by","","","","","",""
"36768.85999999638","<img src='img/portrait_matrix_list2.jpg' style='width:900px;height:500px;''></img><p>If you have memorised all the portraits and names and are ready to start, press Continue.</p><p><strong>Please note: Your memory of these faces will be tested 4 times during this experiment.</strong></p>","0","html-button-response","110","891134","0.0-14.0-0.0","6079","List2B","black","woman","","","","","","","","","","","","",""
"3262.1349999972153","<img src=""portrait/BM1.jpg""style=""height:400px;""></img>","4","html-button-response","111","895406","0.0-14.0-1.0","6079","List2B","black","woman","","true","4","","","","","","","","","",""
"null","CORRECT","","html-keyboard-response","112","896913","0.0-14.0-2.0-0.0","6079","List2B","black","woman","","","","null","","","","","","","","",""
"3424.839999999618","<img src=""portrait/WW1.jpg""style=""height:400px;""></img>","1","html-button-response","113","900344","0.0-14.0-4.0","6079","List2B","black","woman","","true","1","","","","","","","","","",""
"null","CORRECT","","html-keyboard-response","114","901855","0.0-14.0-5.0-0.0","6079","List2B","black","woman","","","","null","","","","","","","","",""
"2320.7450000045355","<img src=""portrait/WM2.jpg""style=""height:400px;""></img>","7","html-button-response","115","904188","0.0-14.0-7.0","6079","List2B","black","woman","","true","7","","","","","","","","","",""
"null","CORRECT","","html-keyboard-response","116","905697","0.0-14.0-8.0-0.0","6079","List2B","black","woman","","","","null","","","","","","","","",""
"2347.1150000041816","<img src=""portrait/WM1.jpg""style=""height:400px;""></img>","6","html-button-response","117","908060","0.0-14.0-10.0","6079","List2B","black","woman","","true","6","","","","","","","","","",""
"null","CORRECT","","html-keyboard-response","118","909567","0.0-14.0-11.0-0.0","6079","List2B","black","woman","","","","null","","","","","","","","",""
"3097.5400000025984","<img src=""portrait/BW1.jpg""style=""height:400px;""></img>","0","html-button-response","119","912670","0.0-14.0-13.0","6079","List2B","black","woman","","true","0","","","","","","","","","",""
"null","CORRECT","","html-keyboard-response","120","914176","0.0-14.0-14.0-0.0","6079","List2B","black","woman","","","","null","","","","","","","","",""
"3323.71000000427","<img src=""portrait/BM2.jpg""style=""height:400px;""></img>","5","html-button-response","121","917509","0.0-14.0-16.0","6079","List2B","black","woman","","true","5","","","","","","","","","",""
"null","CORRECT","","html-keyboard-response","122","919011","0.0-14.0-17.0-0.0","6079","List2B","black","woman","","","","null","","","","","","","","",""
"3500.5999999993946","<img src=""portrait/BW2.jpg""style=""height:400px;""></img>","2","html-button-response","123","922521","0.0-14.0-19.0","6079","List2B","black","woman","","true","2","","","","","","","","","",""
"null","CORRECT","","html-keyboard-response","124","924025","0.0-14.0-20.0-0.0","6079","List2B","black","woman","","","","null","","","","","","","","",""
"2714.2149999999674","<img src=""portrait/WW2.jpg""style=""height:400px;""></img>","3","html-button-response","125","926749","0.0-14.0-22.0","6079","List2B","black","woman","","true","3","","","","","","","","","",""
"null","CORRECT","","html-keyboard-response","126","928257","0.0-14.0-23.0-0.0","6079","List2B","black","woman","","","","null","","","","","","","","",""
"1928.4650000045076","<p>You got 8 out of 8 right first time. Press Continue.</p>","0","html-button-response","127","930195","0.0-14.0-25.0","6079","List2B","black","woman","","","","","","","","","","","","",""
"null","<div style=""font-size:60px;"">+</div>","","html-keyboard-response","128","931701","0.0-15.0-0.0","6079","List2B","black","woman","","","","null","","","","","","","","",""
"null","<img src=""stim_listB/shout3.gif""style=""height:400px;""></stim_listB>","","html-keyboard-response","129","933711","0.0-15.0-1.0","6079","List2B","black","woman","","","","null","","","","","","","","",""
"null","is shouting at","","html-keyboard-response","130","935715","0.0-15.0-2.0","6079","List2B","black","woman","","","","null","","","","","","","","",""
"13190.460000005318","","","survey-text","131","948919","0.0-15.0-3.0","6079","List2B","black","woman","","","","","{""Q0"":""fred is shouting at beth""}","<img src=""stim_listB/shout3.gif""style=""height:400px;""></stim_listB>","is shouting at","","","","","",""
"null","<div style=""font-size:60px;"">+</div>","","html-keyboard-response","132","949424","0.0-15.0-0.1","6079","List2B","black","woman","","","","null","","","","","","","","",""
"null","<img src=""stim_listB/copy3.gif""style=""height:400px;""></stim_listB>","","html-keyboard-response","133","951430","0.0-15.0-1.1","6079","List2B","black","woman","","","","null","","","","","","","","",""
"null","is copying","","html-keyboard-response","134","953434","0.0-15.0-2.1","6079","List2B","black","woman","","","","null","","","","","","","","",""
"8654.829999999492","","","survey-text","135","962101","0.0-15.0-3.1","6079","List2B","black","woman","","","","","{""Q0"":""beth is copying mike""}","<img src=""stim_listB/copy3.gif""style=""height:400px;""></stim_listB>","is copying","","","","","",""
"null","<div style=""font-size:60px;"">+</div>","","html-keyboard-response","136","962604","0.0-15.0-0.2","6079","List2B","black","woman","","","","null","","","","","","","","",""
"null","<img src=""stim_listB/seduce2.gif""style=""height:400px;""></stim_listB>","","html-keyboard-response","137","964607","0.0-15.0-1.2","6079","List2B","black","woman","","","","null","","","","","","","","",""
"null","is being seduced by","","html-keyboard-response","138","966609","0.0-15.0-2.2","6079","List2B","black","woman","","","","null","","","","","","","","",""
"12930.939999998314","","","survey-text","139","979547","0.0-15.0-3.2","6079","List2B","black","woman","","","","","{""Q0"":""ruth is being seduced by dave""}","<img src=""stim_listB/seduce2.gif""style=""height:400px;""></stim_listB>","is being seduced by","","","","","",""
"null","<div style=""font-size:60px;"">+</div>","","html-keyboard-response","140","980051","0.0-15.0-0.3","6079","List2B","black","woman","","","","null","","","","","","","","",""
"null","<img src=""stim_listB/touch2.gif""style=""height:400px;""></stim_listB>","","html-keyboard-response","141","982054","0.0-15.0-1.3","6079","List2B","black","woman","","","","null","","","","","","","","",""
"null","is being touched by","","html-keyboard-response","142","984058","0.0-15.0-2.3","6079","List2B","black","woman","","","","null","","","","","","","","",""
"10865.344999998342","","","survey-text","143","994938","0.0-15.0-3.3","6079","List2B","black","woman","","","","","{""Q0"":""ruth is being touched by luke""}","<img src=""stim_listB/touch2.gif""style=""height:400px;""></stim_listB>","is being touched by","","","","","",""
"null","<div style=""font-size:60px;"">+</div>","","html-keyboard-response","144","995445","0.0-15.0-0.4","6079","List2B","black","woman","","","","null","","","","","","","","",""
"null","<img src=""stim_listB/oppose8.gif""style=""height:400px;""></stim_listB>","","html-keyboard-response","145","997450","0.0-15.0-1.4","6079","List2B","black","woman","","","","null","","","","","","","","",""
"null","is being opposed by","","html-keyboard-response","146","999452","0.0-15.0-2.4","6079","List2B","black","woman","","","","null","","","","","","","","",""
"12935.72999999742","","","survey-text","147","1012395","0.0-15.0-3.4","6079","List2B","black","woman","","","","","{""Q0"":""beth is being opposed by ruth""}","<img src=""stim_listB/oppose8.gif""style=""height:400px;""></stim_listB>","is being opposed by","","","","","",""
"null","<div style=""font-size:60px;"">+</div>","","html-keyboard-response","148","1012899","0.0-15.0-0.5","6079","List2B","black","woman","","","","null","","","","","","","","",""
"null","<img src=""stim_listB/touch6.gif""style=""height:400px;""></stim_listB>","","html-keyboard-response","149","1014912","0.0-15.0-1.5","6079","List2B","black","woman","","","","null","","","","","","","","",""
"null","is being touched by","","html-keyboard-response","150","1016918","0.0-15.0-2.5","6079","List2B","black","woman","","","","null","","","","","","","","",""
"12591.97999999742","","","survey-text","151","1029530","0.0-15.0-3.5","6079","List2B","black","woman","","","","","{""Q0"":""luke is being touched by fred""}","<img src=""stim_listB/touch6.gif""style=""height:400px;""></stim_listB>","is being touched by","","","","","",""
"null","<div style=""font-size:60px;"">+</div>","","html-keyboard-response","152","1030033","0.0-15.0-0.6","6079","List2B","black","woman","","","","null","","","","","","","","",""
"null","<img src=""stim_listB/touch3.gif""style=""height:400px;""></stim_listB>","","html-keyboard-response","153","1032037","0.0-15.0-1.6","6079","List2B","black","woman","","","","null","","","","","","","","",""
"null","is touching","","html-keyboard-response","154","1034039","0.0-15.0-2.6","6079","List2B","black","woman","","","","null","","","","","","","","",""
"6388.0950000020675","","","survey-text","155","1040431","0.0-15.0-3.6","6079","List2B","black","woman","","","","","{""Q0"":""kate is touching mike""}","<img src=""stim_listB/touch3.gif""style=""height:400px;""></stim_listB>","is touching","","","","","",""
"null","<div style=""font-size:60px;"">+</div>","","html-keyboard-response","156","1040937","0.0-15.0-0.7","6079","List2B","black","woman","","","","null","","","","","","","","",""
"null","<img src=""stim_listB/copy7.gif""style=""height:400px;""></stim_listB>","","html-keyboard-response","157","1042952","0.0-15.0-1.7","6079","List2B","black","woman","","","","null","","","","","","","","",""
"null","is copying","","html-keyboard-response","158","1044957","0.0-15.0-2.7","6079","List2B","black","woman","","","","null","","","","","","","","",""
"28687.465000002878","","","survey-text","159","1073657","0.0-15.0-3.7","6079","List2B","black","woman","","","","","{""Q0"":""beth is copying jane""}","<img src=""stim_listB/copy7.gif""style=""height:400px;""></stim_listB>","is copying","","","","","",""
"null","<div style=""font-size:60px;"">+</div>","","html-keyboard-response","160","1074161","0.0-15.0-0.8","6079","List2B","black","woman","","","","null","","","","","","","","",""
"null","<img src=""stim_listB/oppose2.gif""style=""height:400px;""></stim_listB>","","html-keyboard-response","161","1076171","0.0-15.0-1.8","6079","List2B","black","woman","","","","null","","","","","","","","",""
"null","is being opposed by","","html-keyboard-response","162","1078175","0.0-15.0-2.8","6079","List2B","black","woman","","","","null","","","","","","","","",""
"10936.959999999264","","","survey-text","163","1089124","0.0-15.0-3.8","6079","List2B","black","woman","","","","","{""Q0"":""luke is being opposed by ruth""}","<img src=""stim_listB/oppose2.gif""style=""height:400px;""></stim_listB>","is being opposed by","","","","","",""
"null","<div style=""font-size:60px;"">+</div>","","html-keyboard-response","164","1089637","0.0-15.0-0.9","6079","List2B","black","woman","","","","null","","","","","","","","",""
"null","<img src=""stim_listB/copy1.gif""style=""height:400px;""></stim_listB>","","html-keyboard-response","165","1091648","0.0-15.0-1.9","6079","List2B","black","woman","","","","null","","","","","","","","",""
"null","is copying","","html-keyboard-response","166","1093653","0.0-15.0-2.9","6079","List2B","black","woman","","","","null","","","","","","","","",""
"7088.910000005737","","","survey-text","167","1100758","0.0-15.0-3.9","6079","List2B","black","woman","","","","","{""Q0"":""ruth is copying dave""}","<img src=""stim_listB/copy1.gif""style=""height:400px;""></stim_listB>","is copying","","","","","",""
"null","<div style=""font-size:60px;"">+</div>","","html-keyboard-response","168","1101265","0.0-15.0-0.10","6079","List2B","black","woman","","","","null","","","","","","","","",""
"null","<img src=""stim_listB/hug1.gif""style=""height:400px;""></stim_listB>","","html-keyboard-response","169","1103275","0.0-15.0-1.10","6079","List2B","black","woman","","","","null","","","","","","","","",""
"null","is hugging","","html-keyboard-response","170","1105279","0.0-15.0-2.10","6079","List2B","black","woman","","","","null","","","","","","","","",""
"4366.690000002505","","","survey-text","171","1109657","0.0-15.0-3.10","6079","List2B","black","woman","","","","","{""Q0"":""ruth is hugging luke""}","<img src=""stim_listB/hug1.gif""style=""height:400px;""></stim_listB>","is hugging","","","","","",""
"null","<div style=""font-size:60px;"">+</div>","","html-keyboard-response","172","1110161","0.0-15.0-0.11","6079","List2B","black","woman","","","","null","","","","","","","","",""
"null","<img src=""stim_listB/seduce6.gif""style=""height:400px;""></stim_listB>","","html-keyboard-response","173","1112170","0.0-15.0-1.11","6079","List2B","black","woman","","","","null","","","","","","","","",""
"null","is being seduced by","","html-keyboard-response","174","1114178","0.0-15.0-2.11","6079","List2B","black","woman","","","","null","","","","","","","","",""
"63697.03500000457","","","survey-text","175","1177887","0.0-15.0-3.11","6079","List2B","black","woman","","","","","{""Q0"":""dave is being seduced by fred""}","<img src=""stim_listB/seduce6.gif""style=""height:400px;""></stim_listB>","is being seduced by","","","","","",""
"null","<div style=""font-size:60px;"">+</div>","","html-keyboard-response","176","1178392","0.0-15.0-0.12","6079","List2B","black","woman","","","","null","","","","","","","","",""
"null","<img src=""stim_listB/seduce1.gif""style=""height:400px;""></stim_listB>","","html-keyboard-response","177","1180403","0.0-15.0-1.12","6079","List2B","black","woman","","","","null","","","","","","","","",""
"null","is seducing","","html-keyboard-response","178","1182410","0.0-15.0-2.12","6079","List2B","black","woman","","","","null","","","","","","","","",""
"14295.945000005187","","","survey-text","179","1196720","0.0-15.0-3.12","6079","List2B","black","woman","","","","","{""Q0"":""jane is seducing luke""}","<img src=""stim_listB/seduce1.gif""style=""height:400px;""></stim_listB>","is seducing","","","","","",""
"null","<div style=""font-size:60px;"">+</div>","","html-keyboard-response","180","1197222","0.0-15.0-0.13","6079","List2B","black","woman","","","","null","","","","","","","","",""
"null","<img src=""stim_listB/greet6.gif""style=""height:400px;""></stim_listB>","","html-keyboard-response","181","1199229","0.0-15.0-1.13","6079","List2B","black","woman","","","","null","","","","","","","","",""
"null","is being greeted by","","html-keyboard-response","182","1201234","0.0-15.0-2.13","6079","List2B","black","woman","","","","null","","","","","","","","",""
"8769.384999999776","","","survey-text","183","1210017","0.0-15.0-3.13","6079","List2B","black","woman","","","","","{""Q0"":""luke is being greeted by mike""}","<img src=""stim_listB/greet6.gif""style=""height:400px;""></stim_listB>","is being greeted by","","","","","",""
"null","<div style=""font-size:60px;"">+</div>","","html-keyboard-response","184","1210519","0.0-15.0-0.14","6079","List2B","black","woman","","","","null","","","","","","","","",""
"null","<img src=""stim_listB/challenge6.gif""style=""height:400px;""></stim_listB>","","html-keyboard-response","185","1212522","0.0-15.0-1.14","6079","List2B","black","woman","","","","null","","","","","","","","",""
"null","is being challenged by","","html-keyboard-response","186","1214523","0.0-15.0-2.14","6079","List2B","black","woman","","","","null","","","","","","","","",""
"12394.664999999804","","","survey-text","187","1226922","0.0-15.0-3.14","6079","List2B","black","woman","","","","","{""Q0"":""luke is being challenged by mike""}","<img src=""stim_listB/challenge6.gif""style=""height:400px;""></stim_listB>","is being challenged by","","","","","",""
"null","<div style=""font-size:60px;"">+</div>","","html-keyboard-response","188","1227425","0.0-15.0-0.15","6079","List2B","black","woman","","","","null","","","","","","","","",""
"null","<img src=""stim_listB/hug3.gif""style=""height:400px;""></stim_listB>","","html-keyboard-response","189","1229440","0.0-15.0-1.15","6079","List2B","black","woman","","","","null","","","","","","","","",""
"null","is hugging","","html-keyboard-response","190","1231448","0.0-15.0-2.15","6079","List2B","black","woman","","","","null","","","","","","","","",""
"6628.260000004899","","","survey-text","191","1238082","0.0-15.0-3.15","6079","List2B","black","woman","","","","","{""Q0"":""beth is hugging fred""}","<img src=""stim_listB/hug3.gif""style=""height:400px;""></stim_listB>","is hugging","","","","","",""
"null","<div style=""font-size:60px;"">+</div>","","html-keyboard-response","192","1238586","0.0-15.0-0.16","6079","List2B","black","woman","","","","null","","","","","","","","",""
"null","<img src=""stim_listB/shout8.gif""style=""height:400px;""></stim_listB>","","html-keyboard-response","193","1240596","0.0-15.0-1.16","6079","List2B","black","woman","","","","null","","","","","","","","",""
"null","is being shouted at by","","html-keyboard-response","194","1242601","0.0-15.0-2.16","6079","List2B","black","woman","","","","null","","","","","","","","",""
"12892.029999995371","","","survey-text","195","1255508","0.0-15.0-3.16","6079","List2B","black","woman","","","","","{""Q0"":""jane is being shouted at by kate""}","<img src=""stim_listB/shout8.gif""style=""height:400px;""></stim_listB>","is being shouted at by","","","","","",""
"null","<div style=""font-size:60px;"">+</div>","","html-keyboard-response","196","1256013","0.0-15.0-0.17","6079","List2B","black","woman","","","","null","","","","","","","","",""
"null","<img src=""stim_listB/shout1.gif""style=""height:400px;""></stim_listB>","","html-keyboard-response","197","1258023","0.0-15.0-1.17","6079","List2B","black","woman","","","","null","","","","","","","","",""
"null","is shouting at","","html-keyboard-response","198","1260032","0.0-15.0-2.17","6079","List2B","black","woman","","","","null","","","","","","","","",""
"7350.8499999954365","","","survey-text","199","1267394","0.0-15.0-3.17","6079","List2B","black","woman","","","","","{""Q0"":""ruth is shouting at luke""}","<img src=""stim_listB/shout1.gif""style=""height:400px;""></stim_listB>","is shouting at","","","","","",""
"null","<div style=""font-size:60px;"">+</div>","","html-keyboard-response","200","1267898","0.0-15.0-0.18","6079","List2B","black","woman","","","","null","","","","","","","","",""
"null","<img src=""stim_listB/oppose7.gif""style=""height:400px;""></stim_listB>","","html-keyboard-response","201","1269908","0.0-15.0-1.18","6079","List2B","black","woman","","","","null","","","","","","","","",""
"null","is opposing","","html-keyboard-response","202","1271912","0.0-15.0-2.18","6079","List2B","black","woman","","","","null","","","","","","","","",""
"9538.039999999572","","","survey-text","203","1281462","0.0-15.0-3.18","6079","List2B","black","woman","","","","","{""Q0"":""kate is opposing jane""}","<img src=""stim_listB/oppose7.gif""style=""height:400px;""></stim_listB>","is opposing","","","","","",""
"null","<div style=""font-size:60px;"">+</div>","","html-keyboard-response","204","1281967","0.0-15.0-0.19","6079","List2B","black","woman","","","","null","","","","","","","","",""
"null","<img src=""stim_listB/look3.gif""style=""height:400px;""></stim_listB>","","html-keyboard-response","205","1283971","0.0-15.0-1.19","6079","List2B","black","woman","","","","null","","","","","","","","",""
"null","is looking at","","html-keyboard-response","206","1285974","0.0-15.0-2.19","6079","List2B","black","woman","","","","null","","","","","","","","",""
"11201.715000002878","","","survey-text","207","1297188","0.0-15.0-3.19","6079","List2B","black","woman","","","","","{""Q0"":""beth is looking at fred""}","<img src=""stim_listB/look3.gif""style=""height:400px;""></stim_listB>","is looking at","","","","","",""
"44689.57499999646","<img src='img/portrait_matrix_list2.jpg' style='width:900px;height:500px;''></img><p>If you have memorised all the portraits and names and are ready to start, press Continue.</p><p><strong>Please note: Your memory of these faces will be tested 4 times during this experiment.</strong></p>","0","html-button-response","208","1341881","0.0-16.0-0.0","6079","List2B","black","woman","","","","","","","","","","","","",""
"2163.3450000009034","<img src=""portrait/BM2.jpg""style=""height:400px;""></img>","5","html-button-response","209","1345063","0.0-16.0-1.0","6079","List2B","black","woman","","true","5","","","","","","","","","",""
"null","CORRECT","","html-keyboard-response","210","1346576","0.0-16.0-2.0-0.0","6079","List2B","black","woman","","","","null","","","","","","","","",""
"2669.0400000007357","<img src=""portrait/WM1.jpg""style=""height:400px;""></img>","6","html-button-response","211","1349257","0.0-16.0-4.0","6079","List2B","black","woman","","true","6","","","","","","","","","",""
"null","CORRECT","","html-keyboard-response","212","1350771","0.0-16.0-5.0-0.0","6079","List2B","black","woman","","","","null","","","","","","","","",""
"2803.714999994496","<img src=""portrait/WW1.jpg""style=""height:400px;""></img>","1","html-button-response","213","1353587","0.0-16.0-7.0","6079","List2B","black","woman","","true","1","","","","","","","","","",""
"null","CORRECT","","html-keyboard-response","214","1355097","0.0-16.0-8.0-0.0","6079","List2B","black","woman","","","","null","","","","","","","","",""
"1912.0800000017043","<img src=""portrait/WM2.jpg""style=""height:400px;""></img>","7","html-button-response","215","1357021","0.0-16.0-10.0","6079","List2B","black","woman","","true","7","","","","","","","","","",""
"null","CORRECT","","html-keyboard-response","216","1358526","0.0-16.0-11.0-0.0","6079","List2B","black","woman","","","","null","","","","","","","","",""
"2249.34500000393","<img src=""portrait/BW1.jpg""style=""height:400px;""></img>","0","html-button-response","217","1360780","0.0-16.0-13.0","6079","List2B","black","woman","","true","0","","","","","","","","","",""
"null","CORRECT","","html-keyboard-response","218","1362292","0.0-16.0-14.0-0.0","6079","List2B","black","woman","","","","null","","","","","","","","",""
"2029.764999999432","<img src=""portrait/BM1.jpg""style=""height:400px;""></img>","4","html-button-response","219","1364331","0.0-16.0-16.0","6079","List2B","black","woman","","true","4","","","","","","","","","",""
"null","CORRECT","","html-keyboard-response","220","1365837","0.0-16.0-17.0-0.0","6079","List2B","black","woman","","","","null","","","","","","","","",""
"2457.3549999985844","<img src=""portrait/BW2.jpg""style=""height:400px;""></img>","2","html-button-response","221","1368306","0.0-16.0-19.0","6079","List2B","black","woman","","true","2","","","","","","","","","",""
"null","CORRECT","","html-keyboard-response","222","1369818","0.0-16.0-20.0-0.0","6079","List2B","black","woman","","","","null","","","","","","","","",""
"1996.6950000014622","<img src=""portrait/WW2.jpg""style=""height:400px;""></img>","3","html-button-response","223","1371823","0.0-16.0-22.0","6079","List2B","black","woman","","true","3","","","","","","","","","",""
"null","CORRECT","","html-keyboard-response","224","1373332","0.0-16.0-23.0-0.0","6079","List2B","black","woman","","","","null","","","","","","","","",""
"2665.2899999972433","<p>You got 8 out of 8 right first time. Press Continue.</p>","0","html-button-response","225","1376007","0.0-16.0-25.0","6079","List2B","black","woman","","","","","","","","","","","","",""
"null","<div style=""font-size:60px;"">+</div>","","html-keyboard-response","226","1377518","0.0-17.0-0.0","6079","List2B","black","woman","","","","null","","","","","","","","",""
"null","<img src=""stim_listB/look7.gif""style=""height:400px;""></stim_listB>","","html-keyboard-response","227","1379522","0.0-17.0-1.0","6079","List2B","black","woman","","","","null","","","","","","","","",""
"null","is looking at","","html-keyboard-response","228","1381526","0.0-17.0-2.0","6079","List2B","black","woman","","","","null","","","","","","","","",""
"5646.140000004321","","","survey-text","229","1387184","0.0-17.0-3.0","6079","List2B","black","woman","","","","","{""Q0"":""beth is looking at ruth""}","<img src=""stim_listB/look7.gif""style=""height:400px;""></stim_listB>","is looking at","","","","","",""
"null","<div style=""font-size:60px;"">+</div>","","html-keyboard-response","230","1387688","0.0-17.0-0.1","6079","List2B","black","woman","","","","null","","","","","","","","",""
"null","<img src=""stim_listB/greet5.gif""style=""height:400px;""></stim_listB>","","html-keyboard-response","231","1389693","0.0-17.0-1.1","6079","List2B","black","woman","","","","null","","","","","","","","",""
"null","is greeting","","html-keyboard-response","232","1391697","0.0-17.0-2.1","6079","List2B","black","woman","","","","null","","","","","","","","",""
"12088.029999998864","","","survey-text","233","1403795","0.0-17.0-3.1","6079","List2B","black","woman","","","","","{""Q0"":""fred is greeting dave""}","<img src=""stim_listB/greet5.gif""style=""height:400px;""></stim_listB>","is greeting","","","","","",""
"null","<div style=""font-size:60px;"">+</div>","","html-keyboard-response","234","1404301","0.0-17.0-0.2","6079","List2B","black","woman","","","","null","","","","","","","","",""
"null","<img src=""stim_listB/challenge4.gif""style=""height:400px;""></stim_listB>","","html-keyboard-response","235","1406311","0.0-17.0-1.2","6079","List2B","black","woman","","","","null","","","","","","","","",""
"null","is being challenged by","","html-keyboard-response","236","1408323","0.0-17.0-2.2","6079","List2B","black","woman","","","","null","","","","","","","","",""
"17037.420000000624","","","survey-text","237","1425375","0.0-17.0-3.2","6079","List2B","black","woman","","","","","{""Q0"":""fred is being challenged by kate""}","<img src=""stim_listB/challenge4.gif""style=""height:400px;""></stim_listB>","is being challenged by","","","","","",""
"null","<div style=""font-size:60px;"">+</div>","","html-keyboard-response","238","1425880","0.0-17.0-0.3","6079","List2B","black","woman","","","","null","","","","","","","","",""
"null","<img src=""stim_listB/seduce7.gif""style=""height:400px;""></stim_listB>","","html-keyboard-response","239","1427895","0.0-17.0-1.3","6079","List2B","black","woman","","","","null","","","","","","","","",""
"null","is seducing","","html-keyboard-response","240","1429902","0.0-17.0-2.3","6079","List2B","black","woman","","","","null","","","","","","","","",""
"8789.724999995204","","","survey-text","241","1438704","0.0-17.0-3.3","6079","List2B","black","woman","","","","","{""Q0"":""kate is seducing ruth""}","<img src=""stim_listB/seduce7.gif""style=""height:400px;""></stim_listB>","is seducing","","","","","",""
"null","<div style=""font-size:60px;"">+</div>","","html-keyboard-response","242","1439206","0.0-17.0-0.4","6079","List2B","black","woman","","","","null","","","","","","","","",""
"null","<img src=""stim_listB/copy4.gif""style=""height:400px;""></stim_listB>","","html-keyboard-response","243","1441211","0.0-17.0-1.4","6079","List2B","black","woman","","","","null","","","","","","","","",""
"null","is being copied by","","html-keyboard-response","244","1443217","0.0-17.0-2.4","6079","List2B","black","woman","","","","null","","","","","","","","",""
"10370.020000002114","","","survey-text","245","1453598","0.0-17.0-3.4","6079","List2B","black","woman","","","","","{""Q0"":""fred is being copied by kate""}","<img src=""stim_listB/copy4.gif""style=""height:400px;""></stim_listB>","is being copied by","","","","","",""
"null","<div style=""font-size:60px;"">+</div>","","html-keyboard-response","246","1454100","0.0-17.0-0.5","6079","List2B","black","woman","","","","null","","","","","","","","",""
"null","<img src=""stim_listB/kiss7.gif""style=""height:400px;""></stim_listB>","","html-keyboard-response","247","1456108","0.0-17.0-1.5","6079","List2B","black","woman","","","","null","","","","","","","","",""
"null","is kissing","","html-keyboard-response","248","1458114","0.0-17.0-2.5","6079","List2B","black","woman","","","","null","","","","","","","","",""
"4765.399999996414","","","survey-text","249","1462892","0.0-17.0-3.5","6079","List2B","black","woman","","","","","{""Q0"":""beth is kissing ruth""}","<img src=""stim_listB/kiss7.gif""style=""height:400px;""></stim_listB>","is kissing","","","","","",""
"null","<div style=""font-size:60px;"">+</div>","","html-keyboard-response","250","1463396","0.0-17.0-0.6","6079","List2B","black","woman","","","","null","","","","","","","","",""
"null","<img src=""stim_listB/greet3.gif""style=""height:400px;""></stim_listB>","","html-keyboard-response","251","1465407","0.0-17.0-1.6","6079","List2B","black","woman","","","","null","","","","","","","","",""
"null","is greeting","","html-keyboard-response","252","1467411","0.0-17.0-2.6","6079","List2B","black","woman","","","","null","","","","","","","","",""
"7791.525000000605","","","survey-text","253","1475223","0.0-17.0-3.6","6079","List2B","black","woman","","","","","{""Q0"":""beth is greeting mike""}","<img src=""stim_listB/greet3.gif""style=""height:400px;""></stim_listB>","is greeting","","","","","",""
"null","<div style=""font-size:60px;"">+</div>","","html-keyboard-response","254","1475727","0.0-17.0-0.7","6079","List2B","black","woman","","","","null","","","","","","","","",""
"null","<img src=""stim_listB/seduce4.gif""style=""height:400px;""></stim_listB>","","html-keyboard-response","255","1477737","0.0-17.0-1.7","6079","List2B","black","woman","","","","null","","","","","","","","",""
"null","is being seduced by","","html-keyboard-response","256","1479742","0.0-17.0-2.7","6079","List2B","black","woman","","","","null","","","","","","","","",""
"12753.584999998566","","","survey-text","257","1492511","0.0-17.0-3.7","6079","List2B","black","woman","","","","","{""Q0"":""mike is being seduced by beth""}","<img src=""stim_listB/seduce4.gif""style=""height:400px;""></stim_listB>","is being seduced by","","","","","",""
"null","<div style=""font-size:60px;"">+</div>","","html-keyboard-response","258","1493021","0.0-17.0-0.8","6079","List2B","black","woman","","","","null","","","","","","","","",""
"null","<img src=""stim_listB/shout2.gif""style=""height:400px;""></stim_listB>","","html-keyboard-response","259","1495034","0.0-17.0-1.8","6079","List2B","black","woman","","","","null","","","","","","","","",""
"null","is being shouted at by","","html-keyboard-response","260","1497040","0.0-17.0-2.8","6079","List2B","black","woman","","","","null","","","","","","","","",""
"15989.48500000569","","","survey-text","261","1513049","0.0-17.0-3.8","6079","List2B","black","woman","","","","","{""Q0"":""dave is being shouted at by jane""}","<img src=""stim_listB/shout2.gif""style=""height:400px;""></stim_listB>","is being shouted at by","","","","","",""
"null","<div style=""font-size:60px;"">+</div>","","html-keyboard-response","262","1513554","0.0-17.0-0.9","6079","List2B","black","woman","","","","null","","","","","","","","",""
"null","<img src=""stim_listB/copy5.gif""style=""height:400px;""></stim_listB>","","html-keyboard-response","263","1515562","0.0-17.0-1.9","6079","List2B","black","woman","","","","null","","","","","","","","",""
"null","is copying","","html-keyboard-response","264","1517570","0.0-17.0-2.9","6079","List2B","black","woman","","","","null","","","","","","","","",""
"13677.629999998258","","","survey-text","265","1531260","0.0-17.0-3.9","6079","List2B","black","woman","","","","","{""Q0"":""fred is copying dave""}","<img src=""stim_listB/copy5.gif""style=""height:400px;""></stim_listB>","is copying","","","","","",""
"null","<div style=""font-size:60px;"">+</div>","","html-keyboard-response","266","1531763","0.0-17.0-0.10","6079","List2B","black","woman","","","","null","","","","","","","","",""
"null","<img src=""stim_listB/touch4.gif""style=""height:400px;""></stim_listB>","","html-keyboard-response","267","1533771","0.0-17.0-1.10","6079","List2B","black","woman","","","","null","","","","","","","","",""
"null","is being touched by","","html-keyboard-response","268","1535776","0.0-17.0-2.10","6079","List2B","black","woman","","","","null","","","","","","","","",""
"21339.695000002393","","","survey-text","269","1557127","0.0-17.0-3.10","6079","List2B","black","woman","","","","","{""Q0"":""fred is being touched by beth""}","<img src=""stim_listB/touch4.gif""style=""height:400px;""></stim_listB>","is being touched by","","","","","",""
"null","<div style=""font-size:60px;"">+</div>","","html-keyboard-response","270","1557631","0.0-17.0-0.11","6079","List2B","black","woman","","","","null","","","","","","","","",""
"null","<img src=""stim_listB/shout7.gif""style=""height:400px;""></stim_listB>","","html-keyboard-response","271","1559645","0.0-17.0-1.11","6079","List2B","black","woman","","","","null","","","","","","","","",""
"null","is shouting at","","html-keyboard-response","272","1561652","0.0-17.0-2.11","6079","List2B","black","woman","","","","null","","","","","","","","",""
"32777.97500000475","","","survey-text","273","1594451","0.0-17.0-3.11","6079","List2B","black","woman","","","","","{""Q0"":""beth is shouting at ruth""}","<img src=""stim_listB/shout7.gif""style=""height:400px;""></stim_listB>","is shouting at","","","","","",""
"null","<div style=""font-size:60px;"">+</div>","","html-keyboard-response","274","1594955","0.0-17.0-0.12","6079","List2B","black","woman","","","","null","","","","","","","","",""
"null","<img src=""stim_listB/greet2.gif""style=""height:400px;""></stim_listB>","","html-keyboard-response","275","1596967","0.0-17.0-1.12","6079","List2B","black","woman","","","","null","","","","","","","","",""
"null","is being greeted by","","html-keyboard-response","276","1598974","0.0-17.0-2.12","6079","List2B","black","woman","","","","null","","","","","","","","",""
"7716.4849999973085","","","survey-text","277","1606702","0.0-17.0-3.12","6079","List2B","black","woman","","","","","{""Q0"":""luke is being greeted by jane""}","<img src=""stim_listB/greet2.gif""style=""height:400px;""></stim_listB>","is being greeted by","","","","","",""
"null","<div style=""font-size:60px;"">+</div>","","html-keyboard-response","278","1607209","0.0-17.0-0.13","6079","List2B","black","woman","","","","null","","","","","","","","",""
"null","<img src=""stim_listB/look8.gif""style=""height:400px;""></stim_listB>","","html-keyboard-response","279","1609224","0.0-17.0-1.13","6079","List2B","black","woman","","","","null","","","","","","","","",""
"null","is being looked at by","","html-keyboard-response","280","1611229","0.0-17.0-2.13","6079","List2B","black","woman","","","","null","","","","","","","","",""
"9655.019999998389","","","survey-text","281","1620901","0.0-17.0-3.13","6079","List2B","black","woman","","","","","{""Q0"":""jane is being looked at by kate""}","<img src=""stim_listB/look8.gif""style=""height:400px;""></stim_listB>","is being looked at by","","","","","",""
"null","<div style=""font-size:60px;"">+</div>","","html-keyboard-response","282","1621403","0.0-17.0-0.14","6079","List2B","black","woman","","","","null","","","","","","","","",""
"null","<img src=""stim_listB/seduce8.gif""style=""height:400px;""></stim_listB>","","html-keyboard-response","283","1623414","0.0-17.0-1.14","6079","List2B","black","woman","","","","null","","","","","","","","",""
"null","is being seduced by","","html-keyboard-response","284","1625420","0.0-17.0-2.14","6079","List2B","black","woman","","","","null","","","","","","","","",""
"11841.715000002412","","","survey-text","285","1637272","0.0-17.0-3.14","6079","List2B","black","woman","","","","","{""Q0"":""beth is being seduced by jane""}","<img src=""stim_listB/seduce8.gif""style=""height:400px;""></stim_listB>","is being seduced by","","","","","",""
"null","<div style=""font-size:60px;"">+</div>","","html-keyboard-response","286","1637778","0.0-17.0-0.15","6079","List2B","black","woman","","","","null","","","","","","","","",""
"null","<img src=""stim_listB/look4.gif""style=""height:400px;""></stim_listB>","","html-keyboard-response","287","1639792","0.0-17.0-1.15","6079","List2B","black","woman","","","","null","","","","","","","","",""
"null","is being looked at by","","html-keyboard-response","288","1641799","0.0-17.0-2.15","6079","List2B","black","woman","","","","null","","","","","","","","",""
"8500.860000000102","","","survey-text","289","1650306","0.0-17.0-3.15","6079","List2B","black","woman","","","","","{""Q0"":""mike is being looked at by kate""}","<img src=""stim_listB/look4.gif""style=""height:400px;""></stim_listB>","is being looked at by","","","","","",""
"null","<div style=""font-size:60px;"">+</div>","","html-keyboard-response","290","1650810","0.0-17.0-0.16","6079","List2B","black","woman","","","","null","","","","","","","","",""
"null","<img src=""stim_listB/look1.gif""style=""height:400px;""></stim_listB>","","html-keyboard-response","291","1652822","0.0-17.0-1.16","6079","List2B","black","woman","","","","null","","","","","","","","",""
"null","is looking at","","html-keyboard-response","292","1654830","0.0-17.0-2.16","6079","List2B","black","woman","","","","null","","","","","","","","",""
"5959.905000003288","","","survey-text","293","1660806","0.0-17.0-3.16","6079","List2B","black","woman","","","","","{""Q0"":""ruth is looking at luke""}","<img src=""stim_listB/look1.gif""style=""height:400px;""></stim_listB>","is looking at","","","","","",""
"null","<div style=""font-size:60px;"">+</div>","","html-keyboard-response","294","1661314","0.0-17.0-0.17","6079","List2B","black","woman","","","","null","","","","","","","","",""
"null","<img src=""stim_listB/touch5.gif""style=""height:400px;""></stim_listB>","","html-keyboard-response","295","1663328","0.0-17.0-1.17","6079","List2B","black","woman","","","","null","","","","","","","","",""
"null","is touching","","html-keyboard-response","296","1665334","0.0-17.0-2.17","6079","List2B","black","woman","","","","null","","","","","","","","",""
"4117.01500000339","","","survey-text","297","1669459","0.0-17.0-3.17","6079","List2B","black","woman","","","","","{""Q0"":""mike is touching dave""}","<img src=""stim_listB/touch5.gif""style=""height:400px;""></stim_listB>","is touching","","","","","",""
"null","<div style=""font-size:60px;"">+</div>","","html-keyboard-response","298","1669963","0.0-17.0-0.18","6079","List2B","black","woman","","","","null","","","","","","","","",""
"null","<img src=""stim_listB/hug7.gif""style=""height:400px;""></stim_listB>","","html-keyboard-response","299","1671975","0.0-17.0-1.18","6079","List2B","black","woman","","","","null","","","","","","","","",""
"null","is hugging","","html-keyboard-response","300","1673985","0.0-17.0-2.18","6079","List2B","black","woman","","","","null","","","","","","","","",""
"10931.765000001062","","","survey-text","301","1684939","0.0-17.0-3.18","6079","List2B","black","woman","","","","","{""Q0"":""beth is hugging ruth""}","<img src=""stim_listB/hug7.gif""style=""height:400px;""></stim_listB>","is hugging","","","","","",""
"null","<div style=""font-size:60px;"">+</div>","","html-keyboard-response","302","1685441","0.0-17.0-0.19","6079","List2B","black","woman","","","","null","","","","","","","","",""
"null","<img src=""stim_listB/touch8.gif""style=""height:400px;""></stim_listB>","","html-keyboard-response","303","1687445","0.0-17.0-1.19","6079","List2B","black","woman","","","","null","","","","","","","","",""
"null","is being touched by","","html-keyboard-response","304","1689448","0.0-17.0-2.19","6079","List2B","black","woman","","","","null","","","","","","","","",""
"16525.95999999903","","","survey-text","305","1705981","0.0-17.0-3.19","6079","List2B","black","woman","","","","","{""Q0"":""ruth is being touched by beth""}","<img src=""stim_listB/touch8.gif""style=""height:400px;""></stim_listB>","is being touched by","","","","","",""
"17018.909999998752","<img src='img/portrait_matrix_list2.jpg' style='width:900px;height:500px;''></img><p>If you have memorised all the portraits and names and are ready to start, press Continue.</p><p><strong>Please note: Your memory of these faces will be tested 4 times during this experiment.</strong></p>","0","html-button-response","306","1723003","0.0-18.0-0.0","6079","List2B","black","woman","","","","","","","","","","","","",""
"6616.060000000056","<img src=""portrait/BW2.jpg""style=""height:400px;""></img>","2","html-button-response","307","1730635","0.0-18.0-1.0","6079","List2B","black","woman","","true","2","","","","","","","","","",""
"null","CORRECT","","html-keyboard-response","308","1732147","0.0-18.0-2.0-0.0","6079","List2B","black","woman","","","","null","","","","","","","","",""
"2286.1400000038557","<img src=""portrait/BW1.jpg""style=""height:400px;""></img>","0","html-button-response","309","1734449","0.0-18.0-4.0","6079","List2B","black","woman","","true","0","","","","","","","","","",""
"null","CORRECT","","html-keyboard-response","310","1735955","0.0-18.0-5.0-0.0","6079","List2B","black","woman","","","","null","","","","","","","","",""
"2065.2299999999814","<img src=""portrait/BM1.jpg""style=""height:400px;""></img>","4","html-button-response","311","1738037","0.0-18.0-7.0","6079","List2B","black","woman","","true","4","","","","","","","","","",""
"null","CORRECT","","html-keyboard-response","312","1739546","0.0-18.0-8.0-0.0","6079","List2B","black","woman","","","","null","","","","","","","","",""
"2892.7850000036415","<img src=""portrait/WW1.jpg""style=""height:400px;""></img>","1","html-button-response","313","1742445","0.0-18.0-10.0","6079","List2B","black","woman","","true","1","","","","","","","","","",""
"null","CORRECT","","html-keyboard-response","314","1743955","0.0-18.0-11.0-0.0","6079","List2B","black","woman","","","","null","","","","","","","","",""
"1861.4250000028405","<img src=""portrait/WW2.jpg""style=""height:400px;""></img>","3","html-button-response","315","1745834","0.0-18.0-13.0","6079","List2B","black","woman","","true","3","","","","","","","","","",""
"null","CORRECT","","html-keyboard-response","316","1747347","0.0-18.0-14.0-0.0","6079","List2B","black","woman","","","","null","","","","","","","","",""
"2200.035000001779","<img src=""portrait/BM2.jpg""style=""height:400px;""></img>","5","html-button-response","317","1749563","0.0-18.0-16.0","6079","List2B","black","woman","","true","5","","","","","","","","","",""
"null","CORRECT","","html-keyboard-response","318","1751074","0.0-18.0-17.0-0.0","6079","List2B","black","woman","","","","null","","","","","","","","",""
"2175.8449999978766","<img src=""portrait/WM1.jpg""style=""height:400px;""></img>","6","html-button-response","319","1753266","0.0-18.0-19.0","6079","List2B","black","woman","","true","6","","","","","","","","","",""
"null","CORRECT","","html-keyboard-response","320","1754770","0.0-18.0-20.0-0.0","6079","List2B","black","woman","","","","null","","","","","","","","",""
"1609.1650000019","<img src=""portrait/WM2.jpg""style=""height:400px;""></img>","7","html-button-response","321","1756390","0.0-18.0-22.0","6079","List2B","black","woman","","true","7","","","","","","","","","",""
"null","CORRECT","","html-keyboard-response","322","1757900","0.0-18.0-23.0-0.0","6079","List2B","black","woman","","","","null","","","","","","","","",""
"2549.1199999961536","<p>You got 8 out of 8 right first time. Press Continue.</p>","0","html-button-response","323","1760456","0.0-18.0-25.0","6079","List2B","black","woman","","","","","","","","","","","","",""
"null","<div style=""font-size:60px;"">+</div>","","html-keyboard-response","324","1761963","0.0-19.0-0.0","6079","List2B","black","woman","","","","null","","","","","","","","",""
"null","<img src=""stim_listB/touch7.gif""style=""height:400px;""></stim_listB>","","html-keyboard-response","325","1763977","0.0-19.0-1.0","6079","List2B","black","woman","","","","null","","","","","","","","",""
"null","is touching","","html-keyboard-response","326","1765983","0.0-19.0-2.0","6079","List2B","black","woman","","","","null","","","","","","","","",""
"5136.924999998882","","","survey-text","327","1771131","0.0-19.0-3.0","6079","List2B","black","woman","","","","","{""Q0"":""jane is touching kate""}","<img src=""stim_listB/touch7.gif""style=""height:400px;""></stim_listB>","is touching","","","","","",""
"null","<div style=""font-size:60px;"">+</div>","","html-keyboard-response","328","1771636","0.0-19.0-0.1","6079","List2B","black","woman","","","","null","","","","","","","","",""
"null","<img src=""stim_listB/seduce5.gif""style=""height:400px;""></stim_listB>","","html-keyboard-response","329","1773648","0.0-19.0-1.1","6079","List2B","black","woman","","","","null","","","","","","","","",""
"null","is seducing","","html-keyboard-response","330","1775657","0.0-19.0-2.1","6079","List2B","black","woman","","","","null","","","","","","","","",""
"5373.104999998817","","","survey-text","331","1781047","0.0-19.0-3.1","6079","List2B","black","woman","","","","","{""Q0"":""mike is seducing luke""}","<img src=""stim_listB/seduce5.gif""style=""height:400px;""></stim_listB>","is seducing","","","","","",""
"null","<div style=""font-size:60px;"">+</div>","","html-keyboard-response","332","1781551","0.0-19.0-0.2","6079","List2B","black","woman","","","","null","","","","","","","","",""
"null","<img src=""stim_listB/oppose1.gif""style=""height:400px;""></stim_listB>","","html-keyboard-response","333","1783564","0.0-19.0-1.2","6079","List2B","black","woman","","","","null","","","","","","","","",""
"null","is opposing","","html-keyboard-response","334","1785569","0.0-19.0-2.2","6079","List2B","black","woman","","","","null","","","","","","","","",""
"20284.160000002943","","","survey-text","335","1805873","0.0-19.0-3.2","6079","List2B","black","woman","","","","","{""Q0"":""jane is opposing dave""}","<img src=""stim_listB/oppose1.gif""style=""height:400px;""></stim_listB>","is opposing","","","","","",""
"null","<div style=""font-size:60px;"">+</div>","","html-keyboard-response","336","1806377","0.0-19.0-0.3","6079","List2B","black","woman","","","","null","","","","","","","","",""
"null","<img src=""stim_listB/seduce3.gif""style=""height:400px;""></stim_listB>","","html-keyboard-response","337","1808391","0.0-19.0-1.3","6079","List2B","black","woman","","","","null","","","","","","","","",""
"null","is seducing","","html-keyboard-response","338","1810399","0.0-19.0-2.3","6079","List2B","black","woman","","","","null","","","","","","","","",""
"10441.95000000042","","","survey-text","339","1820851","0.0-19.0-3.3","6079","List2B","black","woman","","","","","{""Q0"":""fred is seducing kate""}","<img src=""stim_listB/seduce3.gif""style=""height:400px;""></stim_listB>","is seducing","","","","","",""
"null","<div style=""font-size:60px;"">+</div>","","html-keyboard-response","340","1821356","0.0-19.0-0.4","6079","List2B","black","woman","","","","null","","","","","","","","",""
"null","<img src=""stim_listB/touch1.gif""style=""height:400px;""></stim_listB>","","html-keyboard-response","341","1823368","0.0-19.0-1.4","6079","List2B","black","woman","","","","null","","","","","","","","",""
"null","is touching","","html-keyboard-response","342","1825372","0.0-19.0-2.4","6079","List2B","black","woman","","","","null","","","","","","","","",""
"11300.450000002515","","","survey-text","343","1836687","0.0-19.0-3.4","6079","List2B","black","woman","","","","","{""Q0"":""jane is touching dave""}","<img src=""stim_listB/touch1.gif""style=""height:400px;""></stim_listB>","is touching","","","","","",""
"null","<div style=""font-size:60px;"">+</div>","","html-keyboard-response","344","1837194","0.0-19.0-0.5","6079","List2B","black","woman","","","","null","","","","","","","","",""
"null","<img src=""stim_listB/shout6.gif""style=""height:400px;""></stim_listB>","","html-keyboard-response","345","1839201","0.0-19.0-1.5","6079","List2B","black","woman","","","","null","","","","","","","","",""
"null","is being shouted at by","","html-keyboard-response","346","1841205","0.0-19.0-2.5","6079","List2B","black","woman","","","","null","","","","","","","","",""
"20256.045000001788","","","survey-text","347","1861472","0.0-19.0-3.5","6079","List2B","black","woman","","","","","{""Q0"":""dave is being shouted at by mike""}","<img src=""stim_listB/shout6.gif""style=""height:400px;""></stim_listB>","is being shouted at by","","","","","",""
"null","<div style=""font-size:60px;"">+</div>","","html-keyboard-response","348","1861977","0.0-19.0-0.6","6079","List2B","black","woman","","","","null","","","","","","","","",""
"null","<img src=""stim_listB/look5.gif""style=""height:400px;""></stim_listB>","","html-keyboard-response","349","1863988","0.0-19.0-1.6","6079","List2B","black","woman","","","","null","","","","","","","","",""
"null","is looking at","","html-keyboard-response","350","1865998","0.0-19.0-2.6","6079","List2B","black","woman","","","","null","","","","","","","","",""
"7595.489999999758","","","survey-text","351","1873604","0.0-19.0-3.6","6079","List2B","black","woman","","","","","{""Q0"":""fred is looking at luke""}","<img src=""stim_listB/look5.gif""style=""height:400px;""></stim_listB>","is looking at","","","","","",""
"null","<div style=""font-size:60px;"">+</div>","","html-keyboard-response","352","1874110","0.0-19.0-0.7","6079","List2B","black","woman","","","","null","","","","","","","","",""
"null","<img src=""stim_listB/challenge2.gif""style=""height:400px;""></stim_listB>","","html-keyboard-response","353","1876120","0.0-19.0-1.7","6079","List2B","black","woman","","","","null","","","","","","","","",""
"null","is being challenged by","","html-keyboard-response","354","1878128","0.0-19.0-2.7","6079","List2B","black","woman","","","","null","","","","","","","","",""
"11330.490000000224","","","survey-text","355","1889469","0.0-19.0-3.7","6079","List2B","black","woman","","","","","{""Q0"":""jane is being challenged by luke""}","<img src=""stim_listB/challenge2.gif""style=""height:400px;""></stim_listB>","is being challenged by","","","","","",""
"null","<div style=""font-size:60px;"">+</div>","","html-keyboard-response","356","1889974","0.0-19.0-0.8","6079","List2B","black","woman","","","","null","","","","","","","","",""
"null","<img src=""stim_listB/kiss2.gif""style=""height:400px;""></stim_listB>","","html-keyboard-response","357","1891989","0.0-19.0-1.8","6079","List2B","black","woman","","","","null","","","","","","","","",""
"null","is being kissed by","","html-keyboard-response","358","1893991","0.0-19.0-2.8","6079","List2B","black","woman","","","","null","","","","","","","","",""
"14391.750000002561","","","survey-text","359","1908398","0.0-19.0-3.8","6079","List2B","black","woman","","","","","{""Q0"":""dave is being kissed by jane""}","<img src=""stim_listB/kiss2.gif""style=""height:400px;""></stim_listB>","is being kissed by","","","","","",""
"null","<div style=""font-size:60px;"">+</div>","","html-keyboard-response","360","1908904","0.0-19.0-0.9","6079","List2B","black","woman","","","","null","","","","","","","","",""
"null","<img src=""stim_listB/kiss6.gif""style=""height:400px;""></stim_listB>","","html-keyboard-response","361","1910918","0.0-19.0-1.9","6079","List2B","black","woman","","","","null","","","","","","","","",""
"null","is being kissed by","","html-keyboard-response","362","1912925","0.0-19.0-2.9","6079","List2B","black","woman","","","","null","","","","","","","","",""
"8792.925000001676","","","survey-text","363","1921728","0.0-19.0-3.9","6079","List2B","black","woman","","","","","{""Q0"":""dave is being kissed by mike""}","<img src=""stim_listB/kiss6.gif""style=""height:400px;""></stim_listB>","is being kissed by","","","","","",""
"null","<div style=""font-size:60px;"">+</div>","","html-keyboard-response","364","1922232","0.0-19.0-0.10","6079","List2B","black","woman","","","","null","","","","","","","","",""
"null","<img src=""stim_listB/hug8.gif""style=""height:400px;""></stim_listB>","","html-keyboard-response","365","1924242","0.0-19.0-1.10","6079","List2B","black","woman","","","","null","","","","","","","","",""
"null","is being hugged by","","html-keyboard-response","366","1926249","0.0-19.0-2.10","6079","List2B","black","woman","","","","null","","","","","","","","",""
"16718.17999999621","","","survey-text","367","1942986","0.0-19.0-3.10","6079","List2B","black","woman","","","","","{""Q0"":""jane is being hugged by kate""}","<img src=""stim_listB/hug8.gif""style=""height:400px;""></stim_listB>","is being hugged by","","","","","",""
"null","<div style=""font-size:60px;"">+</div>","","html-keyboard-response","368","1943490","0.0-19.0-0.11","6079","List2B","black","woman","","","","null","","","","","","","","",""
"null","<img src=""stim_listB/oppose4.gif""style=""height:400px;""></stim_listB>","","html-keyboard-response","369","1945498","0.0-19.0-1.11","6079","List2B","black","woman","","","","null","","","","","","","","",""
"null","is being opposed by","","html-keyboard-response","370","1947500","0.0-19.0-2.11","6079","List2B","black","woman","","","","null","","","","","","","","",""
"15135.815000001341","","","survey-text","371","1962641","0.0-19.0-3.11","6079","List2B","black","woman","","","","","{""Q0"":""fred is being opposed by beth""}","<img src=""stim_listB/oppose4.gif""style=""height:400px;""></stim_listB>","is being opposed by","","","","","",""
"null","<div style=""font-size:60px;"">+</div>","","html-keyboard-response","372","1963147","0.0-19.0-0.12","6079","List2B","black","woman","","","","null","","","","","","","","",""
"null","<img src=""stim_listB/copy6.gif""style=""height:400px;""></stim_listB>","","html-keyboard-response","373","1965156","0.0-19.0-1.12","6079","List2B","black","woman","","","","null","","","","","","","","",""
"null","is being copied by","","html-keyboard-response","374","1967158","0.0-19.0-2.12","6079","List2B","black","woman","","","","null","","","","","","","","",""
"14705.884999995818","","","survey-text","375","1981875","0.0-19.0-3.12","6079","List2B","black","woman","","","","","{""Q0"":""luke is being copied by mike""}","<img src=""stim_listB/copy6.gif""style=""height:400px;""></stim_listB>","is being copied by","","","","","",""
"null","<div style=""font-size:60px;"">+</div>","","html-keyboard-response","376","1982382","0.0-19.0-0.13","6079","List2B","black","woman","","","","null","","","","","","","","",""
"null","<img src=""stim_listB/challenge7.gif""style=""height:400px;""></stim_listB>","","html-keyboard-response","377","1984390","0.0-19.0-1.13","6079","List2B","black","woman","","","","null","","","","","","","","",""
"null","is challenging","","html-keyboard-response","378","1986394","0.0-19.0-2.13","6079","List2B","black","woman","","","","null","","","","","","","","",""
"4927.999999999767","","","survey-text","379","1991335","0.0-19.0-3.13","6079","List2B","black","woman","","","","","{""Q0"":""beth is challenging jane""}","<img src=""stim_listB/challenge7.gif""style=""height:400px;""></stim_listB>","is challenging","","","","","",""
"null","<div style=""font-size:60px;"">+</div>","","html-keyboard-response","380","1991838","0.0-19.0-0.14","6079","List2B","black","woman","","","","null","","","","","","","","",""
"null","<img src=""stim_listB/greet1.gif""style=""height:400px;""></stim_listB>","","html-keyboard-response","381","1993848","0.0-19.0-1.14","6079","List2B","black","woman","","","","null","","","","","","","","",""
"null","is greeting","","html-keyboard-response","382","1995858","0.0-19.0-2.14","6079","List2B","black","woman","","","","null","","","","","","","","",""
"4369.909999994095","","","survey-text","383","2000239","0.0-19.0-3.14","6079","List2B","black","woman","","","","","{""Q0"":""ruth is greeting dave""}","<img src=""stim_listB/greet1.gif""style=""height:400px;""></stim_listB>","is greeting","","","","","",""
"null","<div style=""font-size:60px;"">+</div>","","html-keyboard-response","384","2000742","0.0-19.0-0.15","6079","List2B","black","woman","","","","null","","","","","","","","",""
"null","<img src=""stim_listB/challenge1.gif""style=""height:400px;""></stim_listB>","","html-keyboard-response","385","2002748","0.0-19.0-1.15","6079","List2B","black","woman","","","","null","","","","","","","","",""
"null","is challenging","","html-keyboard-response","386","2004752","0.0-19.0-2.15","6079","List2B","black","woman","","","","null","","","","","","","","",""
"7798.634999999311","","","survey-text","387","2012564","0.0-19.0-3.15","6079","List2B","black","woman","","","","","{""Q0"":""ruth is challenging dave""}","<img src=""stim_listB/challenge1.gif""style=""height:400px;""></stim_listB>","is challenging","","","","","",""
"null","<div style=""font-size:60px;"">+</div>","","html-keyboard-response","388","2013067","0.0-19.0-0.16","6079","List2B","black","woman","","","","null","","","","","","","","",""
"null","<img src=""stim_listB/copy2.gif""style=""height:400px;""></stim_listB>","","html-keyboard-response","389","2015074","0.0-19.0-1.16","6079","List2B","black","woman","","","","null","","","","","","","","",""
"null","is being copied by","","html-keyboard-response","390","2017077","0.0-19.0-2.16","6079","List2B","black","woman","","","","null","","","","","","","","",""
"10924.3050000004","","","survey-text","391","2028009","0.0-19.0-3.16","6079","List2B","black","woman","","","","","{""Q0"":""luke is being copied by jane""}","<img src=""stim_listB/copy2.gif""style=""height:400px;""></stim_listB>","is being copied by","","","","","",""
"null","<div style=""font-size:60px;"">+</div>","","html-keyboard-response","392","2028512","0.0-19.0-0.17","6079","List2B","black","woman","","","","null","","","","","","","","",""
"null","<img src=""stim_listB/challenge5.gif""style=""height:400px;""></stim_listB>","","html-keyboard-response","393","2030516","0.0-19.0-1.17","6079","List2B","black","woman","","","","null","","","","","","","","",""
"null","is challenging","","html-keyboard-response","394","2032518","0.0-19.0-2.17","6079","List2B","black","woman","","","","null","","","","","","","","",""
"6976.47500000312","","","survey-text","395","2039500","0.0-19.0-3.17","6079","List2B","black","woman","","","","","{""Q0"":""fred is challenging dave""}","<img src=""stim_listB/challenge5.gif""style=""height:400px;""></stim_listB>","is challenging","","","","","",""
"null","<div style=""font-size:60px;"">+</div>","","html-keyboard-response","396","2040003","0.0-19.0-0.18","6079","List2B","black","woman","","","","null","","","","","","","","",""
"null","<img src=""stim_listB/challenge8.gif""style=""height:400px;""></stim_listB>","","html-keyboard-response","397","2042018","0.0-19.0-1.18","6079","List2B","black","woman","","","","null","","","","","","","","",""
"null","is being challenged by","","html-keyboard-response","398","2044023","0.0-19.0-2.18","6079","List2B","black","woman","","","","null","","","","","","","","",""
"8224.580000001937","","","survey-text","399","2052261","0.0-19.0-3.18","6079","List2B","black","woman","","","","","{""Q0"":""ruth is being challenged by kate""}","<img src=""stim_listB/challenge8.gif""style=""height:400px;""></stim_listB>","is being challenged by","","","","","",""
"null","<div style=""font-size:60px;"">+</div>","","html-keyboard-response","400","2052766","0.0-19.0-0.19","6079","List2B","black","woman","","","","null","","","","","","","","",""
"null","<img src=""stim_listB/hug6.gif""style=""height:400px;""></stim_listB>","","html-keyboard-response","401","2054773","0.0-19.0-1.19","6079","List2B","black","woman","","","","null","","","","","","","","",""
"null","is being hugged by","","html-keyboard-response","402","2056776","0.0-19.0-2.19","6079","List2B","black","woman","","","","null","","","","","","","","",""
"7261.489999996964","","","survey-text","403","2064049","0.0-19.0-3.19","6079","List2B","black","woman","","","","","{""Q0"":""mike is being hugged by dave""}","<img src=""stim_listB/hug6.gif""style=""height:400px;""></stim_listB>","is being hugged by","","","","","",""
"6259.345000005793","<p>Thank you for completing that task.</p><p>The final part of this session is a questionnaire that will take about 4 minutes.</p><p>Press Continue.</p>","0","html-button-response","404","2070314","0.0-20.0","6079","List2B","black","woman","","","","","","","","","","","","",""
"69136.43499999307","","","survey-text","405","2140480","0.0-21.0","6079","List2B","black","woman","","","","","{""Q0"":""28"",""Q1"":""English"",""Q2"":""English"",""Q3"":""United States "",""Q4"":""American"",""Q5"":""African American/black"",""Q6"":""Female""}","","","demographics","","","","",""
"5290.634999997448","<p>Have you lived in the USA for the last 5 years or more?</p>","0","html-button-response","406","2145780","0.0-22.0","6079","List2B","black","woman","","","","","","","","fiveyears","","","","",""
"4639.329999998212","<p>Move the slider to show the extent to which you agree with the following statements.</p>","0","html-button-response","407","2151428","0.0-23.0","6079","List2B","black","woman","","","","","","","","","","","","",""
"12344.81500000367","","","html-slider-response","408","2164795","0.0-24.0-0.0-0.0","6079","List2B","black","woman","","","","","","","","survey_race","68","","","I am similar to the average person of my race.","similar"
"10450.400000001304","","","html-slider-response","409","2175255","0.0-24.0-0.0-0.1","6079","List2B","black","woman","","","","","","","","survey_race","85","","","I have a lot in common with people of a similar age to me.","filler"
"7699.164999998175","","","html-slider-response","410","2182963","0.0-24.0-0.0-0.2","6079","List2B","black","woman","","","","","","","","survey_race","90","","","I feel committed to my race.","committed"
"8669.265000003856","","","html-slider-response","411","2191642","0.0-24.0-0.0-0.3","6079","List2B","black","woman","","","","","","","","survey_race","29","","","I often think about the fact that I am my race.","often"
"4620.049999997485","","","html-slider-response","412","2196272","0.0-24.0-0.0-0.4","6079","List2B","black","woman","","","","","","","","survey_race","81","","","Being my race gives me a good feeling.","feeling"
"6273.119999997783","","","html-slider-response","413","2202558","0.0-24.0-0.0-0.5","6079","List2B","black","woman","","","","","","","","survey_race","86","","","I am glad to be my age.","filler"
"4362.444999998435","","","html-slider-response","414","2206927","0.0-24.0-0.0-0.6","6079","List2B","black","woman","","","","","","","","survey_race","91","","","I feel solidarity with my race.","solidarity"
"6119.615000003483","","","html-slider-response","415","2213053","0.0-24.0-0.0-0.7","6079","List2B","black","woman","","","","","","","","survey_race","91","","","I am glad to be the age I am.","filler"
"16164.635000001173","","","html-slider-response","416","2229222","0.0-24.0-0.0-0.8","6079","List2B","black","woman","","","","","","","","survey_race","90","","","People my age have a lot in common with each other.","filler"
"9767.740000002552","","","html-slider-response","417","2238996","0.0-24.0-0.0-0.9","6079","List2B","black","woman","","","","","","","","survey_race","69","","","The fact that I am my race is an important part of my identity.","identity"
"4393.1000000010245","","","html-slider-response","418","2243395","0.0-24.0-0.0-0.10","6079","List2B","black","woman","","","","","","","","survey_race","70","","","I have a lot in common with the average person of my race.","average"
"3729.2349999989383","","","html-slider-response","419","2247131","0.0-24.0-0.0-0.11","6079","List2B","black","woman","","","","","","","","survey_race","91","","","It is pleasant to be my race.","pleasant"
"3712.959999997169","","","html-slider-response","420","2250852","0.0-24.0-0.0-0.12","6079","List2B","black","woman","","","","","","","","survey_race","86","","","I enjoy being in large groups.","filler"
"5376.9700000048615","","","html-slider-response","421","2256235","0.0-24.0-0.0-0.13","6079","List2B","black","woman","","","","","","","","survey_race","76","","","I feel a bond with people the same age as me.","filler"
"3913.045000000857","","","html-slider-response","422","2260154","0.0-24.0-0.0-0.14","6079","List2B","black","woman","","","","","","","","survey_race","100","","","I think that my race has a lot to be proud of.","proud"
"9873.269999996293","","","html-slider-response","423","2270032","0.0-24.0-0.0-0.15","6079","List2B","black","woman","","","","","","","","survey_race","86","","","My age is not an important part of who I am.","filler"
"3916.875000002794","","","html-slider-response","424","2273955","0.0-24.0-0.0-0.16","6079","List2B","black","woman","","","","","","","","survey_race","90","","","I feel a bond with my race.","bond"
"5313.4749999954365","","","html-slider-response","425","2279273","0.0-24.0-0.0-0.17","6079","List2B","black","woman","","","","","","","","survey_race","74","","","I consider myself an extrovert.","filler"
"4581.375000001397","","","html-slider-response","426","2283865","0.0-24.0-0.0-0.18","6079","List2B","black","woman","","","","","","","","survey_race","86","","","People of my race have a lot in common with each other.","common"
"7003.589999999851","","","html-slider-response","427","2290877","0.0-24.0-0.0-0.19","6079","List2B","black","woman","","","","","","","","survey_race","86","","","Getting older does not worry me.","filler"
"4254.280000001192","","","html-slider-response","428","2295137","0.0-24.0-0.0-0.20","6079","List2B","black","woman","","","","","","","","survey_race","87","","","Being my age gives me a good feeling.","filler"
"4489.7050000000745","","","html-slider-response","429","2299635","0.0-24.0-0.0-0.21","6079","List2B","black","woman","","","","","","","","survey_race","97","","","I am glad to be my race.","glad"
"4809.590000004508","","","html-slider-response","430","2304454","0.0-24.0-0.0-0.22","6079","List2B","black","woman","","","","","","","","survey_race","94","","","People of my race are very similar to each other.","verysimilar"
"8128.694999999832","","","html-slider-response","431","2312590","0.0-24.0-0.0-0.23","6079","List2B","black","woman","","","","","","","","survey_race","86","","","I feel solidarity with people the same age as me.","filler"
"9192.114999997895","","","html-slider-response","432","2321794","0.0-24.0-0.0-0.24","6079","List2B","black","woman","","","","","","","","survey_race","28","","","I often think about the fact that I am my age.","filler"
"10391.51000000164","","","html-slider-response","433","2332196","0.0-24.0-0.0-0.25","6079","List2B","black","woman","","","","","","","","survey_race","51","","","The older I get, the wiser I feel.","filler"
"6661.374999995809","","","html-slider-response","434","2338866","0.0-24.0-0.0-0.26","6079","List2B","black","woman","","","","","","","","survey_race","59","","","Being my race is an important part of how I see myself.","important"
"4842.564999999013","","","html-slider-response","435","2343721","0.0-24.0-0.0-0.27","6079","List2B","black","woman","","","","","","","","survey_race","32","","","I consider myself an introvert.","filler"
"4523.805000004359","","","html-slider-response","436","2348252","0.0-24.0-1.0-0.0","6079","List2B","black","woman","","","","","","","","survey_gender","100","","","I think that my gender has a lot to be proud of.","proud"
"3603.229999993462","","","html-slider-response","437","2351869","0.0-24.0-1.0-0.1","6079","List2B","black","woman","","","","","","","","survey_gender","100","","","I feel a bond with my gender.","bond"
"4114.000000001397","","","html-slider-response","438","2355994","0.0-24.0-1.0-0.2","6079","List2B","black","woman","","","","","","","","survey_gender","34","","","Being my gender is an important part of how I see myself.","important"
"3478.454999996815","","","html-slider-response","439","2359483","0.0-24.0-1.0-0.3","6079","List2B","black","woman","","","","","","","","survey_gender","100","","","It is pleasant to be my gender.","pleasant"
"3276.9250000054017","","","html-slider-response","440","2362773","0.0-24.0-1.0-0.4","6079","List2B","black","woman","","","","","","","","survey_gender","100","","","I am glad to be my gender.","glad"
"30442.96500000218","","","html-slider-response","441","2393223","0.0-24.0-1.0-0.5","6079","List2B","black","woman","","","","","","","","survey_gender","57","","","I often think about my actions.","filler"
"6638.680000003427","","","html-slider-response","442","2399875","0.0-24.0-1.0-0.6","6079","List2B","black","woman","","","","","","","","survey_gender","77","","","I feel solidarity with my friends.","filler"
"66803.49000000581","","","html-slider-response","443","2466686","0.0-24.0-1.0-0.7","6079","List2B","black","woman","","","","","","","","survey_gender","0","","","Family is not more important to me than friendship.","filler"
"5285.535000002477","","","html-slider-response","444","2471976","0.0-24.0-1.0-0.8","6079","List2B","black","woman","","","","","","","","survey_gender","88","","","I have a lot in common with my friends.","filler"
"11131.204999997746","","","html-slider-response","445","2483113","0.0-24.0-1.0-0.9","6079","List2B","black","woman","","","","","","","","survey_gender","87","","","I am similar to the average person of my gender.","similar"
"3519.8000000016764","","","html-slider-response","446","2486640","0.0-24.0-1.0-0.10","6079","List2B","black","woman","","","","","","","","survey_gender","88","","","Being my gender gives me a good feeling.","feeling"
"6011.83999999892","","","html-slider-response","447","2492658","0.0-24.0-1.0-0.11","6079","List2B","black","woman","","","","","","","","survey_gender","34","","","The fact that I am my gender is an important part of my identity.","identity"
"8321.670000005048","","","html-slider-response","448","2500986","0.0-24.0-1.0-0.12","6079","List2B","black","woman","","","","","","","","survey_gender","5","","","Routine is not important to me.","filler"
"11604.970000000205","","","html-slider-response","449","2512598","0.0-24.0-1.0-0.13","6079","List2B","black","woman","","","","","","","","survey_gender","70","","","It is not always easy for people to know what I am thinking.","filler"
"4265.885000000708","","","html-slider-response","450","2516872","0.0-24.0-1.0-0.14","6079","List2B","black","woman","","","","","","","","survey_gender","97","","","I consider myself a highly empathetic person.","filler"
"4241.549999998882","","","html-slider-response","451","2521124","0.0-24.0-1.0-0.15","6079","List2B","black","woman","","","","","","","","survey_gender","85","","","Being around my friends gives me a good feeling.","filler"
"4312.914999994915","","","html-slider-response","452","2525446","0.0-24.0-1.0-0.16","6079","List2B","black","woman","","","","","","","","survey_gender","93","","","I feel a bond with my friends.","filler"
"3837.709999999497","","","html-slider-response","453","2529294","0.0-24.0-1.0-0.17","6079","List2B","black","woman","","","","","","","","survey_gender","92","","","Most of the friends in my life are very similar to me.","filler"
"3446.494999996852","","","html-slider-response","454","2532751","0.0-24.0-1.0-0.18","6079","List2B","black","woman","","","","","","","","survey_gender","93","","","I feel committed to my gender.","committed"
"5447.134999994654","","","html-slider-response","455","2538208","0.0-24.0-1.0-0.19","6079","List2B","black","woman","","","","","","","","survey_gender","92","","","My friends have a lot in common with each other.","filler"
"3035.909999998752","","","html-slider-response","456","2541260","0.0-24.0-1.0-0.20","6079","List2B","black","woman","","","","","","","","survey_gender","100","","","My friends understand me.","filler"
"3511.334999995772","","","html-slider-response","457","2544781","0.0-24.0-1.0-0.21","6079","List2B","black","woman","","","","","","","","survey_gender","92","","","I am glad to have the friends that I have.","filler"
"5552.180000006221","","","html-slider-response","458","2550343","0.0-24.0-1.0-0.22","6079","List2B","black","woman","","","","","","","","survey_gender","60","","","I would say I am an animal person.","filler"
"5766.719999999739","","","html-slider-response","459","2556121","0.0-24.0-1.0-0.23","6079","List2B","black","woman","","","","","","","","survey_gender","87","","","People of my gender are very similar to each other.","verysimilar"
"5049.125000005122","","","html-slider-response","460","2561181","0.0-24.0-1.0-0.24","6079","List2B","black","woman","","","","","","","","survey_gender","91","","","People of my gender have a lot in common with each other.","common"
"3150.464999998454","","","html-slider-response","461","2564344","0.0-24.0-1.0-0.25","6079","List2B","black","woman","","","","","","","","survey_gender","86","","","I have a lot in common with the average person of my gender.","average"
"3090.519999998156","","","html-slider-response","462","2567446","0.0-24.0-1.0-0.26","6079","List2B","black","woman","","","","","","","","survey_gender","91","","","I feel solidarity with my gender.","solidarity"
"5253.579999996815","","","html-slider-response","463","2572706","0.0-24.0-1.0-0.27","6079","List2B","black","woman","","","","","","","","survey_gender","35","","","I often think about the fact that I am my gender.","often"
"12847.930000003427","","","survey-text","464","2585569","0.0-25.0","6079","List2B","black","woman","","","","","{""Q0"":""615f6dd4e5377f3adc0d70ae""}","","","worker_id","","","","",""
"24999.40499999514","","","external-html","465","2611171","0.0-26.0","6079","List2B","black","woman","debrief.html","","","","","","","","","","","",""
